Timestamp (ms),Wrist Gyroscope X (deg/s),Wrist Gyroscope Y (deg/s),Wrist Gyroscope Z (deg/s),Wrist Accelerometer X (g),Wrist Accelerometer Y (g),Wrist Accelerometer Z (g),Wrist Roll (deg),Wrist Pitch (deg),Wrist Yaw (deg),Arm Gyroscope X (deg/s),Arm Gyroscope Y (deg/s),Arm Gyroscope Z (deg/s),Arm Accelerometer X (g),Arm Accelerometer Y (g),Arm Accelerometer Z (g),Arm Roll (deg),Arm Pitch (deg),Arm Yaw (deg),Wrist Gyroscope Magnitude (deg/s),Wrist Accelerometer Magnitude (g),Arm Gyroscope Magnitude (deg/s),Arm Accelerometer Magnitude (g),Difference Roll (deg),Difference Pitch (deg),Difference Yaw (deg)
0.0,7.637796401977539,-17.646697998046875,-0.3710471391677856,-0.994950234889984,-0.2320546507835388,0.1850128918886184,-45.90721130371094,72.80072021484375,-152.14442443847656,4.616419315338135,8.082866668701172,4.634716987609863,-0.9005010724067688,-0.1400600373744964,-0.2560998797416687,-135.7521209716797,76.89738464355469,131.560546875,19.232253120521715,1.038270244696868,10.39830093978179,0.94662883110477,-89.84490966796875,4.0966644287109375,283.70497131347656
23.585,18.10165023803711,-27.42169570922852,-0.9792792797088624,-1.0025501251220703,-0.2647931575775146,0.1289442181587219,-44.52303695678711,72.4180679321289,-151.06077575683594,14.869425773620604,22.483991622924805,10.831106185913086,-0.8486105799674988,-0.1998186111450195,-0.3688667714595794,-137.43417358398438,76.71897888183594,129.54441833496094,32.872148162501,1.044915681324916,29.05068955029278,0.9466414785333004,-92.91113662719728,4.300910949707031,280.6051940917969
32.637,15.625704765319824,-30.82847213745117,-2.279380321502685,-0.9887759685516356,-0.2333080619573593,0.2724986374378204,-42.955204010009766,71.91908264160156,-149.77110290527344,35.513526916503906,34.25209426879883,11.67202091217041,-0.9765980839729308,-0.286202609539032,-0.238415390253067,-139.21083068847656,76.31561279296875,126.98667907714844,34.63744965196767,1.0518393770747476,50.701603801281,1.0452261236861973,-96.2556266784668,4.396530151367188,276.7577819824219
61.096,7.408239364624023,-29.764440536499023,0.4564991891384125,-0.9577589631080629,-0.193314641714096,0.2929917573928833,-41.48440170288086,71.4674301147461,-148.40760803222656,43.79459381103516,30.27727127075196,3.935922622680664,-1.070434331893921,-0.1853551864624023,-0.1077492609620094,-140.0029754638672,75.93598175048828,125.26929473876952,30.675924149795964,1.0200573278081242,53.38699363672757,1.091694145483778,-98.51857376098631,4.468551635742188,273.6769027709961
80.31099999999999,-0.0267716348171234,-25.83188438415528,-2.055126428604126,-0.9376342296600342,-0.1753697693347931,0.3038285076618194,-40.46197509765625,71.0353775024414,-147.33367919921875,30.44907188415528,19.389413833618164,1.3478553295135498,-1.0530576705932615,-0.0523226521909236,-0.0832785964012146,-140.4840545654297,75.7435302734375,124.18354034423828,25.913519872729427,1.0011115156138763,36.12356656543006,1.0576405070467731,-100.02207946777344,4.708152770996094,271.51721954345703
102.446,-4.47219181060791,-21.737754821777344,-5.466587543487549,-0.910921573638916,-0.1979015618562698,0.2818776071071625,-39.93104553222656,70.61747741699219,-146.7215576171875,15.182170867919922,9.384077072143556,4.006488800048828,-1.0161514282226562,-0.0842666700482368,-0.1004423722624778,-140.88526916503906,75.71875762939453,123.4996337890625,22.85637905822324,0.9738573442216318,18.292380032777675,1.024574676100125,-100.9542236328125,5.101280212402344,270.22119140625
122.497,-4.788711071014404,-17.25925636291504,-4.445365905761719,-0.880876898765564,-0.21461883187294,0.2457416355609893,-39.61282730102539,70.2874526977539,-146.29913330078125,6.881960868835449,1.7232753038406372,2.5578598976135254,-0.9829931259155272,-0.1347682029008865,-0.1295709162950515,-140.93548583984375,75.76070404052734,123.3469009399414,18.454673173984627,0.9393584540640132,7.541466066278419,1.0006131002839478,-101.32265853881836,5.4732513427734375,269.64603424072266
133.365,-6.906075477600098,-12.01022243499756,-3.6182007789611816,-0.8913649320602417,-0.1950274854898452,0.259364366531372,-39.4565658569336,70.0544662475586,-145.99693298339844,1.0933688879013062,-3.007281541824341,-0.6326963901519775,-0.9666940569877625,-0.13059963285923,-0.1446094661951065,-140.70228576660156,75.82847595214844,123.60713958740234,14.318893054887427,0.9485974050299056,3.2618250288663964,0.9861366850653406,-101.24571990966795,5.774009704589844,269.6040725708008
152.367,-11.15602684020996,-8.469062805175781,-4.794755458831787,-0.8972364664077759,-0.1829357147216797,0.2810024619102478,-39.522457122802734,69.85945892333984,-145.83961486816406,-6.419163703918457,-7.38621711730957,-3.651207447052002,-0.989432156085968,-0.133153960108757,-0.124696135520935,-140.18104553222656,75.93443298339844,124.31812286376952,14.804446614699724,0.9578419159612216,10.44476815363314,1.0061088881445324,-100.65858840942384,6.074974060058594,270.1577377319336
175.187,-10.794215202331545,-5.6036057472229,-4.39537239074707,-0.9023956656455994,-0.1987866461277008,0.2431371062994003,-39.725318908691406,69.72746276855469,-145.82431030273438,-12.553595542907717,-12.667853355407717,-5.762691020965576,-0.9738898277282716,-0.123329684138298,-0.1476919949054718,-139.4297637939453,76.08277893066406,125.40750885009766,12.931928613238496,0.955484024206742,18.742355174634383,0.9927157362011608,-99.7044448852539,6.355316162109375,271.23181915283203
195.808,-9.303458213806152,-3.2140872478485107,-3.949553012847901,-0.941977560520172,-0.1960345357656479,0.2444262653589248,-39.95406723022461,69.64693450927734,-145.86679077148438,-12.69236183166504,-12.827592849731444,-4.078006744384766,-0.942074716091156,-0.1501330882310867,-0.2041852474212646,-138.80599975585938,76.2128677368164,126.36973571777344,10.605831441905698,0.9927212413027632,18.500630426870227,0.9755697464274498,-98.85193252563477,6.565933227539063,272.2365264892578
213.476,-10.707223892211914,-4.345386981964111,-3.262769222259521,-0.9525306224822998,-0.2080867290496826,0.2416478544473648,-40.15851593017578,69.5575180053711,-145.85426330566406,-7.466137409210205,-8.995949745178223,-3.144832134246826,-0.9600059986114502,-0.1975874006748199,-0.2189583033323288,-138.27215576171875,76.2737045288086,127.11011505126952,12.00719344804192,1.0044940811832237,12.106208687428598,1.0042883235772342,-98.11363983154295,6.7161865234375,272.9643783569336
236.079,-8.568352699279785,-4.411598205566406,-0.7546220421791077,-0.9624677896499634,-0.2114025056362152,0.2251539081335067,-40.23469543457031,69.50769805908203,-145.71295166015625,-1.0068049430847168,-5.710062026977539,-3.307257413864136,-0.985054612159729,-0.171271339058876,-0.2050467729568481,-137.80360412597656,76.30055236816406,127.63508605957033,9.66686718296856,1.0108063849475566,6.675059261677753,1.02064226819204,-97.56890869140624,6.792854309082031,273.34803771972656
257.29999999999995,-3.427111387252808,-8.254551887512207,0.257449209690094,-1.005858302116394,-0.2183886170387268,0.2707841694355011,-39.99759292602539,69.39958190917969,-145.3379669189453,0.0553943924605846,1.2618894577026367,-0.1119475662708282,-0.9258273243904114,-0.1422041207551956,-0.2747427821159363,-138.0231170654297,76.24903869628906,127.43700408935548,8.941420436364641,1.064316014351676,1.2680559135034597,0.9761464249140448,-98.0255241394043,6.849456787109375,272.7749710083008
279.007,1.3007290363311768,-18.428199768066406,1.2883092164993286,-0.9928877353668212,-0.2452446669340133,0.1722834557294845,-39.4201774597168,69.17675018310547,-144.6731414794922,5.276989459991455,16.862735748291016,5.386216163635254,-0.881065309047699,-0.2231476306915283,-0.3390245735645294,-139.14483642578125,76.06681060791016,126.20133209228516,18.518914205617858,1.0371367271577665,18.47186507202124,0.9700559805347168,-99.72465896606444,6.890060424804688,270.87447357177734
300.077,-1.0740081071853638,-19.340938568115234,2.913069486618042,-0.9595714807510376,-0.2208259850740432,0.3004066944122314,-38.66130065917969,68.91023254394531,-143.77255249023438,20.01502799987793,26.52080535888672,1.728515386581421,-0.9744480848312378,-0.2550544142723083,-0.2420287132263183,-140.1206817626953,75.6273193359375,124.80152130126952,19.5885520634827,1.0294589474099218,33.27074132269224,1.0359438798974805,-101.45938110351562,6.717086791992188,268.5740737915039
322.495,-4.843493461608887,-17.52458381652832,4.093615531921387,-0.9435395002365112,-0.1993273496627807,0.3429751098155975,-37.94731903076172,68.67178344726562,-142.82427978515625,25.7401065826416,23.233991622924805,-1.3577828407287598,-1.0665745735168457,-0.1591695249080658,-0.1266190409660339,-140.57662963867188,75.29081726074219,123.82491302490234,18.636742069856588,1.0235380338723008,34.701801507450114,1.0857940136449726,-102.62931060791016,6.6190338134765625,266.6491928100586
333.457,-8.861404418945312,-15.050267219543455,1.6681349277496338,-0.8969292640686035,-0.1734972298145294,0.3400669693946838,-37.476470947265625,68.4415283203125,-142.0886688232422,15.333977699279783,12.5457181930542,-0.7015692591667175,-1.054269552230835,-0.072376362979412,-0.0741443336009979,-140.81146240234375,75.17951965332031,123.30266571044922,17.54473441785159,0.974796869696065,19.824684524272985,1.0593488608028372,-103.33499145507812,6.7379913330078125,265.3913345336914
355.803,-10.446259498596191,-12.519857406616213,1.2181566953659058,-0.8863168954849243,-0.2147799283266067,0.3036928474903106,-37.23291778564453,68.24624633789062,-141.55389404296875,0.1516850590705871,2.8316147327423096,2.3659939765930176,-0.9617713689804076,-0.0875603109598159,-0.1428722292184829,-141.13233947753906,75.21568298339844,123.01170349121094,16.350996077562943,0.9612062226446464,3.6930986784952,0.976259928568046,-103.89942169189452,6.9694366455078125,264.5655975341797
377.52,-9.79144287109375,-14.69855785369873,-1.250592589378357,-0.9166895747184752,-0.2505286931991577,0.303668737411499,-37.06191635131836,67.98335266113281,-141.08897399902344,-6.153010368347168,2.8036556243896484,3.168057680130005,-0.8917472958564758,-0.1559891998767852,-0.231785699725151,-141.62918090820312,75.18621826171875,122.6676254272461,17.70547763549544,0.9976467834833684,7.467034948210044,0.9344894224883524,-104.56726455688477,7.2028656005859375,263.7565994262696
399.895,0.905712366104126,-20.750173568725582,3.554471492767334,-0.9483880400657654,-0.2686997652053833,0.2975257039070129,-36.35128402709961,67.68636322021484,-140.2370147705078,-1.0143060684204102,9.035881996154783,4.704955577850342,-0.8619720339775085,-0.1740659326314926,-0.2800239026546478,-142.4293975830078,75.04224395751953,121.90151977539062,21.071883769972903,1.0296411913120878,10.237801875325276,0.9228803401959184,-106.0781135559082,7.355880737304687,262.13853454589844
422.153,6.971035957336426,-33.34309005737305,2.9003591537475586,-1.0028300285339355,-0.2540557384490967,0.3009136915206909,-35.203372955322266,67.19013977050781,-139.01113891601562,11.27371597290039,21.348115921020508,6.824165344238281,-0.8208741545677185,-0.1654254496097564,-0.3796189725399017,-143.55567932128906,74.78277587890625,120.54841613769533,34.18726488201848,1.0773863903506946,25.088004262205903,0.919407701364366,-108.3523063659668,7.592636108398437,259.55955505371094
432.196,7.168176651000977,-46.86299514770508,1.6678699254989624,-1.0157943964004517,-0.2643777728080749,0.3827324211597442,-33.76100158691406,66.42103576660156,-137.46153259277344,27.150379180908203,33.66999816894531,10.107342720031738,-0.8741018772125244,-0.2632435858249664,-0.3335391879081726,-144.97451782226562,74.32149505615234,118.55863189697266,47.43737830869418,1.1172367558938956,44.41812966823404,0.9719051739212468,-111.21351623535156,7.900459289550781,256.0201644897461
457.583,10.8195219039917,-55.698368072509766,-3.123004674911499,-0.9917665719985962,-0.3121144473552704,0.4339213967323303,-32.33460998535156,65.41001892089844,-135.94581604003906,46.89453125,36.08271789550781,8.939153671264648,-0.9538133144378662,-0.1844554394483566,-0.3192731142044067,-146.03199768066406,73.77547454833984,116.53633880615234,56.82537653523512,1.1266339867605046,59.84119033109644,1.022604013973549,-113.6973876953125,8.365455627441406,252.4821548461914
477.46,30.18694496154785,-59.927337646484375,-9.66275405883789,-1.0084108114242554,-0.2871785163879394,0.4773986935615539,-30.742700576782227,64.24869537353516,-134.64263916015625,70.41460418701172,37.7437744140625,29.689577102661133,-0.9238896369934082,-0.0491941533982753,-0.2690746784210205,-147.93069458007812,73.47772216796875,113.16190338134766,67.79311365845982,1.1520735121885155,85.23074549930926,0.9635316853325376,-117.1879940032959,9.229026794433594,247.8045425415039
499.759,28.53929328918457,-70.46385955810547,-14.30670928955078,-0.9625785946846008,-0.2451823651790619,0.5556071400642395,-29.18529510498047,62.82667922973633,-133.32559204101562,72.83058166503906,36.81336975097656,37.43544006347656,-1.0276520252227783,-0.1621936559677124,-0.1938714534044265,-149.8116455078125,73.26336669921875,109.73666381835938,77.3584429520542,1.1381437682604705,89.78268202073374,1.0582823854840424,-120.62635040283205,10.436687469482422,243.062255859375
519.9580000000001,17.7927188873291,-78.75938415527344,-16.749544143676758,-0.9071902632713318,-0.2942656874656677,0.5528398752212524,-27.961395263671875,61.21501541137695,-132.0188751220703,54.35294342041016,25.52774238586425,17.000722885131836,-0.9860199689865112,-0.1556897908449173,-0.2250465154647827,-150.48736572265625,73.00343322753906,107.95470428466795,82.46313519956921,1.1023694463421054,62.40939567403616,1.0232891205990295,-122.52597045898438,11.78841781616211,239.97357940673828
542.1899999999999,17.50333023071289,-84.04400634765625,-21.847915649414062,-0.9114921689033508,-0.3284512758255005,0.5615098476409912,-26.965410232543945,59.462249755859375,-130.96434020996094,36.028053283691406,17.941171646118164,12.550679206848145,-0.9953440427780152,-0.097171738743782,-0.2191133499145507,-151.0888671875,72.8489761352539,106.6419677734375,88.5838190097615,1.1198176295992768,42.15952812830324,1.0237982078588288,-124.12345695495604,13.386726379394531,237.60630798339844
562.394,21.21875190734864,-89.67374420166016,-27.700340270996094,-0.8873716592788696,-0.2726238965988159,0.6472669243812561,-26.004291534423828,57.540489196777344,-129.9624481201172,27.91484642028809,9.603307723999023,14.015266418457031,-1.009384274482727,-0.1093269139528274,-0.1939525604248047,-151.61790466308594,72.86248016357422,105.57222747802734,96.22330633884576,1.1316831367861,32.67858415981971,1.033647223854835,-125.61361312866212,15.321990966796877,235.53467559814453
573.1070000000001,19.708641052246094,-95.86355590820312,-34.96226119995117,-0.8759620785713196,-0.2610145509243011,0.6455928683280945,-25.27046585083008,55.45869827270508,-129.1447296142578,23.73548889160156,0.2541202902793884,9.839859008789062,-1.0184388160705566,-0.1013707667589187,-0.17340849339962,-151.70046997070312,73.01156616210938,104.9884033203125,103.9259909344389,1.1190300757912173,25.695541157136976,1.0380578789333543,-126.43000411987305,17.552867889404297,234.1331329345703
593.4390000000001,17.891843795776367,-100.43943786621094,-41.93825149536133,-0.8741954565048218,-0.2961807250976562,0.6357442736625671,-24.788555145263672,53.2514762878418,-128.54840087890625,16.184059143066406,-9.407059669494627,7.397901058197021,-1.0136799812316897,-0.0824477300047874,-0.1961203068494796,-151.55032348632812,73.29940032958984,104.8116683959961,110.30419616579002,1.120763801872541,20.128226003266565,1.0357644072333991,-126.76176834106444,20.047924041748047,233.3600692749024
614.778,22.19241523742676,-103.8257064819336,-45.69428634643555,-0.8624989986419678,-0.3056446313858032,0.6528171300888062,-24.31167793273925,50.961822509765625,-127.9922866821289,7.242354869842529,-17.31386947631836,7.76468563079834,-1.0006762742996216,-0.102153867483139,-0.1988826245069503,-151.3177032470703,73.7188720703125,104.90599060058594,115.58654084820188,1.1240522090591458,20.310394463152274,1.025350046042183,-127.00602531433104,22.757049560546875,232.89827728271484
634.914,24.59605598449707,-107.5139617919922,-48.01221466064453,-0.8390414714813232,-0.2983795404434204,0.6814616322517395,-23.817583084106445,48.5922737121582,-127.498291015625,0.0235619246959686,-23.18976211547852,4.8535356521606445,-1.0230447053909302,-0.1327041387557983,-0.1843037158250808,-150.77972412109375,74.21009826660156,105.46344757080078,120.28878046942816,1.1213433449447925,23.69224409935818,1.0479497685186372,-126.9621410369873,25.61782455444336,232.96173858642572
652.2,24.576520919799805,-111.02159118652344,-51.76842498779297,-0.8132641911506653,-0.2859365344047546,0.7167164087295532,-23.37436294555664,46.13349914550781,-127.03874969482422,-3.3456268310546875,-27.993051528930664,2.095100164413452,-1.0166012048721311,-0.1126949563622474,-0.1888049244880676,-149.97474670410156,74.75335693359375,106.37088012695312,124.93906080896257,1.1210890940766194,28.270012336271904,1.0401083897594052,-126.60038375854492,28.619857788085938,233.4096298217773
674.856,24.79438018798828,-113.63666534423828,-54.93003845214844,-0.7914068698883057,-0.2976430654525757,0.7433455586433411,-22.98202896118164,43.6088752746582,-126.6437759399414,-5.6864213943481445,-23.580257415771484,-1.3321690559387207,-1.0581085681915283,-0.1394211500883102,-0.17368845641613,-149.05113220214844,75.18050384521484,107.4433822631836,128.6287764219944,1.1258236308024416,24.29276852196445,1.0812953708698152,-126.0691032409668,31.57162857055664,234.087158203125
697.1239999999999,26.026199340820312,-115.79701232910156,-56.31189727783203,-0.7547191381454468,-0.3032043576240539,0.7200782299041748,-22.59282493591309,41.05339431762695,-126.2813949584961,-14.483602523803713,-32.444557189941406,-3.968393325805664,-1.0393601655960083,-0.1017414554953575,-0.1789112091064453,-147.7916259765625,75.7281265258789,109.04899597167967,131.3671986894115,1.0862994601614928,35.75153393782161,1.0595424004437035,-125.1988010406494,34.67473220825195,235.33039093017572
720.264,29.000213623046875,-118.20790100097656,-55.34907913208008,-0.7338548898696899,-0.3002637922763824,0.7230310440063477,-22.120174407958984,38.47880554199219,-125.87625122070312,-20.67536163330078,-35.690826416015625,-3.5945065021514893,-0.956415593624115,-0.130873218178749,-0.1972465962171554,-146.40660095214844,76.29244995117188,110.99020385742188,133.7072952759433,1.0730681408628058,41.40321419793316,0.9852739754418992,-124.28642654418944,37.81364440917969,236.866455078125
732.114,29.25896644592285,-122.6995849609375,-54.263790130615234,-0.7083230018615723,-0.2937417924404144,0.772419810295105,-21.598630905151367,35.830806732177734,-125.4218521118164,-15.733098030090332,-32.16687774658203,-3.388178586959839,-0.955020010471344,-0.1633227467536926,-0.1934609413146972,-144.91700744628906,76.775390625,112.9324722290039,137.3165473874486,1.0884108043053515,35.968293700495714,0.9880104634173796,-123.3183765411377,40.944583892822266,238.3543243408203
754.682,27.49873161315918,-125.6300277709961,-53.98668670654297,-0.6568440794944763,-0.2809594273567199,0.7871004939079285,-21.09708976745605,33.133644104003906,-124.9518814086914,-11.552026748657228,-31.94286727905273,-5.025546550750732,-1.0152477025985718,-0.1380557864904403,-0.1495711654424667,-143.12049865722656,77.25370025634766,115.09769439697266,139.47632938826658,1.0629720278999193,34.337329688585754,1.0354510279810387,-122.02340888977052,44.12005615234375,240.0495758056641
777.8340000000001,24.86056137084961,-126.75029754638672,-53.29898452758789,-0.6144993901252747,-0.2868115901947021,0.7802367210388184,-20.654346466064453,30.431283950805664,-124.12960815429688,-13.594930648803713,-21.606164932250977,-1.999287486076355,-0.9557411670684814,-0.1335431933403015,-0.1810679137706756,-142.13629150390625,77.5653305053711,116.4698257446289,139.72997957290124,1.0337503226561795,25.60557854994485,0.9818658525044106,-121.4819450378418,47.13404655456543,240.59943389892572
799.808,25.608009338378903,-127.83565521240234,-52.11201095581055,-0.5724717974662781,-0.293899267911911,0.8070480227470398,-20.187196731567383,27.71691131591797,-123.65253448486328,-18.937793731689453,-25.77546119689941,-3.819113492965698,-1.0448319911956787,-0.1485548615455627,-0.1348792314529419,-140.69371032714844,77.93707275390625,118.4104995727539,140.40436806494742,1.0321953543750015,32.21179999951937,1.0639242660039692,-120.50651359558104,50.22016143798828,242.0630340576172
821.959,28.39753150939941,-129.02517700195312,-47.991886138916016,-0.5376270413398743,-0.3000956177711487,0.8256377577781677,-19.635761260986328,25.01360893249512,-122.53553009033205,-18.6777458190918,-27.26571273803711,-4.637094020843506,-0.9404181241989136,-0.1763718426227569,-0.1677508056163787,-138.9970703125,78.27153778076172,120.58281707763672,140.5600840615263,1.0299407373505889,33.37334147120877,0.9714080543092556,-119.36130905151369,53.2579288482666,243.11834716796875
832.093,24.648935317993164,-129.90785217285156,-42.34253692626953,-0.5145413875579834,-0.2616451978683471,0.8490654230117798,-19.09642219543457,22.34491920471192,-121.88755798339844,-13.33818817138672,-23.02264404296875,-5.957797050476074,-1.0026872158050537,-0.1734976917505264,-0.1845155656337738,-137.33155822753906,78.51146697998047,122.61508178710938,138.83987360202602,1.026704992503608,27.26618323343453,1.0341803980654452,-118.23513603210448,56.16654777526856,244.5026397705078
854.399,16.865934371948242,-128.9185028076172,-39.609466552734375,-0.4679015278816223,-0.2362353801727295,0.842788815498352,-18.699237823486328,19.71927833557129,-120.85671997070312,-11.704618453979492,-22.167695999145508,-7.185657501220703,-1.0647149085998535,-0.1702752560377121,-0.1710599809885025,-135.5284881591797,78.72173309326172,124.77041625976562,135.9167022443844,0.9924877743168558,26.07754805936744,1.0917293696284305,-116.82925033569336,59.00245475769043,245.62713623046875
874.553,8.626884460449219,-128.55215454101562,-33.93227005004883,-0.424526572227478,-0.2586443126201629,0.8645564317703247,-18.453277587890625,17.132984161376953,-119.80828857421876,-8.964599609375,-19.586488723754883,-7.061784744262695,-0.9510719180107116,-0.1989751756191253,-0.198491558432579,-133.817138671875,78.84586334228516,126.78523254394533,133.23467462856863,0.9972850719294885,22.66855510297216,0.9917297073851472,-115.36386108398438,61.7128791809082,246.5935211181641
897.749,12.666231155395508,-130.12440490722656,-28.44100570678711,-0.3805897533893585,-0.281137615442276,0.8550435304641724,-18.122264862060547,14.553631782531738,-118.9483642578125,2.869945287704468,-18.68803596496582,-11.630529403686523,-0.9886594414711,-0.1545942723751068,-0.1422672867774963,-131.578125,78.92037963867188,129.08929443359375,133.79717848204146,0.977234034502574,22.19793883206929,1.0107358018533656,-113.45586013793944,64.36674785614014,248.03765869140625
919.4,22.200313568115234,-129.13900756835938,-27.67595672607422,-0.331011414527893,-0.246285542845726,0.8981947302818298,-17.594364166259766,11.98759937286377,-117.52545928955078,3.648027181625366,-17.569561004638672,-13.045595169067385,-0.9211592078208924,-0.0765668079257011,-0.1285467147827148,-129.43870544433594,78.97526550292969,131.25827026367188,133.92421655162653,0.9884224292622156,22.1852457621905,0.933231493312658,-111.84434127807616,66.98766613006592,248.78372955322263
939.224,22.816085815429688,-127.83265686035156,-25.93348503112793,-0.2808773517608642,-0.2388737946748733,0.8793700337409973,-17.068912506103516,9.455872535705566,-116.68156433105467,-5.49891996383667,-14.81771469116211,-18.46591567993164,-1.0549919605255127,-0.1071472764015197,-0.1530946791172027,-127.35807800292967,78.88418579101562,133.55514526367188,132.41717251842064,0.9535430943361776,24.30623029874662,1.0714133452537018,-110.28916549682616,69.42831325531006,250.23670959472656
961.892,16.966453552246094,-129.19004821777344,-23.06391143798828,-0.2335126250982284,-0.2262911796569824,0.8971039056777954,-16.66086196899414,6.908884525299072,-115.79633331298828,-12.842379570007324,-13.001527786254885,-19.05122375488281,-0.9707655310630798,-0.1300411373376846,-0.1193756461143493,-125.4842300415039,78.74029541015625,135.77871704101562,132.32487716023212,0.9542176175554344,26.399158402409544,0.9866848324492884,-108.82336807250977,71.83141088485718,251.5750503540039
971.913,11.617132186889648,-131.83718872070312,-24.202152252197266,-0.149622157216072,-0.2274743914604187,0.9153180122375488,-16.377044677734375,4.27718448638916,-114.93729400634766,-14.711094856262209,-12.661962509155272,-23.30108642578125,-0.9894942045211792,-0.1523207575082779,-0.0984478220343589,-123.43213653564452,78.5072250366211,138.2156982421875,134.54273025200766,0.9549546859546668,30.3262631241458,1.0059783136888218,-107.05509185791016,74.23004055023193,253.1529922485352
1001.645,11.377558708190918,-130.22776794433594,-21.227256774902344,-0.0689584612846374,-0.2570272088050842,0.9168599843978882,-16.12908935546875,1.6689292192459106,-114.04541778564452,-14.417859077453612,-11.082054138183594,-27.89358139038086,-1.0192643404006958,-0.1777723431587219,-0.0866367220878601,-121.32535552978516,78.15925598144531,140.69752502441406,132.43608577766778,0.9546991601750644,33.29772465320634,1.0382719890369465,-105.1962661743164,76.4903267621994,254.7429428100586
1011.721,18.42091178894043,-125.11474609375,-20.091766357421875,-0.0320895910263061,-0.2519182562828064,0.908029854297638,-15.755410194396973,-0.8327155113220215,-113.1731185913086,-16.23931121826172,-10.619514465332031,-31.620361328125,-0.9981860518455504,-0.11941809207201,-0.0747710987925529,-119.32320404052734,77.75747680664062,143.1065673828125,128.04963395730846,0.9428736744636552,37.09901032162637,1.0080807467796282,-103.56779384613036,78.59019231796265,256.2796859741211
1034.2340000000002,17.91979217529297,-122.83332061767578,-21.79102897644043,0.0053740320727229,-0.2135743200778961,0.9081034660339355,-15.383866310119627,-3.299549102783203,-112.3705596923828,-22.9290771484375,-10.713232040405272,-34.1773567199707,-0.9960878491401672,-0.1641313433647155,-0.0840130001306533,-117.46834564208984,77.27323150634766,145.50039672851562,126.03171247516433,0.9328959081485466,42.527727801925785,1.0130095188448842,-102.0844793319702,80.57278060913086,257.87095642089844
1051.673,9.240226745605469,-123.7133331298828,-19.31979751586914,0.0683492496609687,-0.216141864657402,0.9295438528060912,-15.20154857635498,-5.784591674804688,-111.52530670166016,-25.75523376464844,-13.262811660766602,-41.613502502441406,-0.9733434915542604,-0.2501247227191925,-0.0949088633060455,-115.32127380371094,76.61637878417969,148.2505645751953,125.55327618373704,0.9567866532704082,50.70421905464426,1.0094392610753935,-100.11972522735596,82.40097045898438,259.77587127685547
1074.137,7.847244262695312,-122.87489318847656,-14.236502647399902,0.1173604130744934,-0.2609377801418304,0.9212504625320436,-15.098528861999512,-8.231500625610352,-110.59241485595705,-22.62435531616211,-14.473413467407228,-43.56398010253906,-0.9860942363739014,-0.254321426153183,-0.0928333103656768,-113.20822143554688,75.91926574707031,150.90512084960938,123.94553895250668,0.964657662789171,51.177744315716936,1.0225845951919414,-98.10969257354736,84.15076637268066,261.4975357055664
1096.316,20.846858978271484,-120.29910278320312,-11.613000869750977,0.1524266302585601,-0.2532733380794525,0.90232515335083,-14.756511688232422,-10.614651679992676,-109.63282775878906,-20.637142181396484,-15.023712158203123,-36.037227630615234,-0.9964550733566284,-0.2304385006427765,-0.0801025927066803,-111.4480438232422,75.36941528320312,153.1602020263672,122.64308969079524,0.9495114237140528,44.16203504967239,1.025885491248895,-96.69153213500977,85.9840669631958,262.79302978515625
1111.705,25.02743530273437,-117.3882827758789,-9.45220184326172,0.1848190724849701,-0.2247625887393951,0.8772150278091431,-14.340524673461914,-12.932853698730469,-108.6588134765625,-21.27425003051757,-10.971599578857422,-32.19499969482422,-1.0090274810791016,-0.228316068649292,-0.0665930733084678,-110.2122039794922,74.85884857177734,154.88938903808594,120.39819587762943,0.924219949938993,40.11842116820517,1.036677057809698,-95.87167930603027,87.79170227050781,263.54820251464844
1134.049,18.31754302978516,-115.095703125,-9.41165542602539,0.2245116680860519,-0.1979792714118957,0.8962817192077637,-14.054511070251465,-15.208398818969728,-107.72370147705078,-17.096111297607422,-12.393010139465332,-26.919546127319336,-0.9479694366455078,-0.2671375572681427,-0.0583003908395767,-108.98397827148438,74.42743682861328,156.5217742919922,116.92361830846836,0.944945607536006,34.21294616834312,0.986614140831784,-94.92946720123292,89.63583564758301,264.24547576904297
1157.781,20.333721160888672,-116.4915008544922,-10.573582649230955,0.2737840414047241,-0.2086247205734253,0.8549123406410217,-13.752327919006348,-17.531274795532227,-106.80476379394533,-16.662097930908203,-6.28123950958252,-34.037353515625,-0.923930048942566,-0.2107287049293518,-0.0645563080906868,-108.13497161865234,73.84544372558594,157.7581787109375,118.72459996825025,0.921605710454614,38.41381146909983,0.9498530619703838,-94.382643699646,91.37671852111816,264.5629425048828
1179.241,29.06631660461425,-112.07103729248048,-7.19799280166626,0.3180749118328094,-0.2293538451194763,0.8373498916625977,-13.3213529586792,-19.76182746887207,-105.85408782958984,-20.91604995727539,-6.187422275543213,-17.828279495239258,-0.9543050527572632,-0.2577783763408661,-0.0697880238294601,-107.7558364868164,73.54820251464844,158.59263610839844,116.00249678840996,0.924624073272972,28.171135759700864,0.9909683109449048,-94.4344835281372,93.31002998352052,264.4467239379883
1201.801,25.259519577026367,-108.10746002197266,-6.477142810821533,0.3383516073226928,-0.1967160105705261,0.8381158709526062,-12.956889152526855,-21.90428352355957,-104.93063354492188,-16.278125762939453,-6.831650257110596,-18.06258010864257,-0.987924337387085,-0.3234134614467621,-0.0836989283561706,-107.25486755371094,73.22383117675781,159.46551513671875,111.20800160355536,0.9249957903338148,25.25679361618737,1.0428788395852409,-94.29797840118408,95.12811470031738,264.3961486816406
1211.827,16.185670852661133,-106.87039947509766,-10.20552921295166,0.3609754145145416,-0.1401817798614502,0.8799661993980408,-12.714165687561035,-24.02683448791504,-104.1134262084961,-11.010133743286133,-4.31648588180542,-19.20612335205078,-0.9809074401855468,-0.2748897969722748,-0.0572808980941772,-106.78997802734376,72.89177703857422,160.1986083984375,108.56984411628326,0.9614024617048272,22.555049758913498,1.0203062814553756,-94.07581233978271,96.91861152648926,264.3120346069336
1234.159,24.27184295654297,-104.7149658203125,-7.509175300598144,0.4143538475036621,-0.2097223848104477,0.8305935859680176,-12.390501976013184,-26.11252212524414,-103.2573013305664,-16.3402099609375,-2.4012820720672607,-21.990421295166016,-0.933952808380127,-0.2181704342365265,-0.0776659399271011,-106.59322357177734,72.51798248291016,160.76724243164062,107.75311661827426,0.9516082674519384,27.5017680503644,0.9622360338715448,-94.20272159576416,98.6305046081543,264.02454376220703
1256.692,43.30308532714844,-99.66567993164062,-4.494136810302734,0.4167015254497528,-0.2241047322750091,0.7376110553741455,-11.744118690490724,-28.09599876403809,-102.35294342041016,-16.001527786254883,1.723826885223389,-0.4163879454135895,-0.9061352014541626,-0.2689842581748962,-0.075917974114418,-107.00000762939452,72.50390625,160.6903076171875,108.7593776221446,0.876317956765902,16.099498425279958,0.9482600240724652,-95.2558889389038,100.59990501403809,263.04325103759766
1279.219,33.92463684082031,-95.99890899658205,-7.196225643157959,0.4488345384597778,-0.0869346559047699,0.7480828166007996,-11.152148246765137,-30.026052474975582,-101.60213470458984,-12.725080490112305,-0.1993090510368347,4.01315450668335,-0.9587566256523132,-0.2854079604148865,-0.1036071628332138,-107.3493423461914,72.581298828125,160.60496520996094,102.0708439115834,0.8767200110668559,13.34439233056998,1.0056870364535595,-96.19719409942628,102.6073513031006,262.2070999145508
1293.273,10.528923034667969,-93.7934799194336,-6.941801071166992,0.5172873735427856,-0.0699805915355682,0.7942014932632446,-11.020516395568848,-31.917940139770508,-100.8726043701172,-10.18471336364746,-4.335426330566406,-0.9047756791114808,-0.9155021905899048,-0.3137973845005035,-0.108456939458847,-107.29478454589844,72.56458282470703,160.89292907714844,94.637538523457,0.9503891423622374,11.105986079450096,0.9738459668813396,-96.2742681503296,104.48252296447754,261.7655334472656
1317.102,16.10357093811035,-88.51873016357422,0.5822502374649048,0.5404114127159119,-0.209909588098526,0.7758859395980835,-10.953489303588867,-33.66215515136719,-99.94377136230467,-13.336999893188477,1.017577052116394,-0.1131265461444854,-0.9960394501686096,-0.3072139620780945,-0.107826791703701,-107.63972473144533,72.550048828125,160.82997131347656,89.9734938860854,0.968558476001992,13.376241132072414,1.04790344106555,-96.68623542785645,106.2122039794922,260.77374267578125
1337.426,38.58013153076172,-84.08382415771484,2.097770929336548,0.5170880556106567,-0.1907677352428436,0.6853631138801575,-10.445087432861328,-35.307865142822266,-99.0426788330078,-16.044981002807617,9.21294403076172,-3.4687087535858154,-0.9707182049751282,-0.2527523636817932,-0.0537573210895061,-108.39669799804688,72.45397186279297,160.38031005859375,92.5360290740226,0.8794856360011793,18.82423155168912,1.0045234892164487,-97.95161056518556,107.76183700561523,259.4229888916016
1359.137,27.360525131225582,-81.66795349121094,-3.543025493621826,0.5440788269042969,-0.0386844165623188,0.7183517813682556,-9.98964500427246,-36.94143295288086,-98.35009765625,-13.363024711608888,2.3438727855682373,-4.5676679611206055,-0.862847626209259,-0.2551891803741455,-0.0962936803698539,-108.73949432373048,72.35614776611328,160.3108673095703,86.20212290046848,0.9019686999920058,14.315298099622126,0.9049309458263392,-98.749849319458,109.29758071899414,258.6609649658203
1379.175,-5.532075881958008,-78.87383270263672,-6.565461158752441,0.6078688502311707,-0.0552095174789428,0.7242308855056763,-10.158376693725586,-38.54227066040039,-97.74514770507812,-9.779621124267578,-5.65472412109375,-8.247084617614746,-0.9453408122062684,-0.2528420388698578,-0.0817688256502151,-108.4291000366211,72.25601959228516,160.8456268310547,79.33971659260168,0.9471341010764838,13.986825905472546,0.9819798820194277,-98.27072334289552,110.79829025268556,258.5907745361328
1401.5010000000002,0.8443968296051025,-71.72940826416016,-5.377450466156006,0.6155548691749573,-0.2222167402505874,0.7241914868354797,-10.335622787475586,-39.97517013549805,-97.05097198486328,-17.21676254272461,-0.7415333986282349,-7.319367408752441,-0.9858899116516112,-0.2452228218317031,-0.1227864027023315,-108.65925598144533,72.14547729492188,160.98184204101562,71.93565172741799,0.9760847228686548,18.722711435530744,1.023322847850132,-98.32363319396973,112.12064743041992,258.0328140258789
1411.526,29.87592124938965,-66.1776351928711,-5.9857587814331055,0.580148458480835,-0.2546908259391784,0.6809989213943481,-9.943574905395508,-41.28622817993164,-96.37776947021484,-19.199722290039062,10.721599578857422,-10.5075044631958,-0.978053092956543,-0.2738744020462036,-0.0860252305865287,-109.44346618652344,71.89288330078125,160.56700134277344,72.85519458768857,0.9301608364339662,24.37190356923435,1.0193112287400208,-99.49989128112792,113.17911148071288,256.9447708129883
1442.153,34.54071044921875,-67.3929214477539,-10.643718719482422,0.6314048767089844,-0.089816927909851,0.657814621925354,-9.250155448913574,-42.6677131652832,-95.97372436523438,-18.74308013916016,12.215044021606444,-9.760154724121094,-0.8671375513076782,-0.2782633304595947,-0.1117240339517593,-110.33486938476562,71.61851501464844,160.02780151367188,76.47323249202533,0.916220102207896,24.408420141245244,0.917518541354231,-101.08471393585204,114.28622817993164,256.00152587890625
1452.919,-1.6046327352523804,-64.6875,-15.022275924682615,0.6828975081443787,-0.039260409772396,0.7558512687683105,-9.133970260620115,-43.9837760925293,-95.74077606201172,-9.469613075256348,3.427619457244873,-0.5237043499946594,-0.9427055716514589,-0.329667329788208,-0.1461452394723892,-110.7418975830078,71.56085205078125,159.8083953857422,66.42827919209064,1.0194123439040568,10.084463951294236,1.0093229285876908,-101.6079273223877,115.54462814331056,255.5491714477539
1474.082,-10.264178276062012,-61.637821197509766,-12.99289321899414,0.6871048808097839,-0.17777681350708,0.6928538084030151,-9.333806037902832,-45.23797607421875,-95.40575408935548,-2.8162899017333984,18.852916717529297,-11.361772537231444,-0.9404927492141724,-0.320261001586914,-0.1690640747547149,-111.6731185913086,71.18830871582031,158.8953857421875,63.82311205087974,0.9918488354945628,22.19130083515808,1.0078077107437478,-102.33931255340576,116.42628479003906,254.30113983154297
1491.497,16.465618133544922,-59.25753784179688,-9.054573059082031,0.6617550849914551,-0.2959822416305542,0.5953391790390015,-9.032584190368652,-46.43488693237305,-94.99867248535156,-3.052433013916016,30.434919357299805,-9.943777084350586,-0.916938841342926,-0.3003289103507995,-0.1562772691249847,-113.20286560058594,70.7589340209961,157.3529510498047,62.16556655314875,0.9380586431409969,32.1633388548677,0.977444053642442,-104.17028141021729,117.19382095336914,252.35162353515625
1514.215,36.13401794433594,-58.07622146606445,-14.132735252380373,0.7054328918457031,-0.1547386646270752,0.635266900062561,-8.247608184814453,-47.62916564941406,-94.7463836669922,-0.385584682226181,19.44646644592285,8.420208930969238,-0.8868874311447144,-0.2894712686538696,-0.1577692329883575,-114.4736099243164,70.74591827392578,156.02352905273438,69.84446261723853,0.9618438821053332,21.19466091308717,0.9461786627145456,-106.22600173950195,118.37508392333984,250.76991271972656
1536.364,20.483230590820312,-56.26750183105469,-17.855037689208984,0.7475331425666809,-0.0384446196258068,0.6681610345840454,-7.569319248199463,-48.794952392578125,-94.74642944335938,7.12842321395874,19.821327209472656,13.553199768066406,-0.9671579003334044,-0.3352407217025757,-0.1985692530870437,-115.75164794921876,70.79833221435547,154.52845764160156,62.48517319034599,1.003355847219825,25.047727517988577,1.0426938639584151,-108.18232870101927,119.5932846069336,249.2748870849609
1551.4969999999998,2.461323976516724,-49.41812896728516,-15.331201553344728,0.7404818534851074,-0.1088078171014785,0.654261589050293,-7.339687347412109,-49.80558013916016,-94.65782928466795,10.651016235351562,31.13335609436035,1.0245003700256348,-0.976664423942566,-0.3403759300708771,-0.2008852809667587,-117.20216369628906,70.5103759765625,152.77381896972656,51.80014794779918,0.9940878951630704,32.92080815460262,1.053605270903564,-109.86247634887695,120.31595611572266,247.43164825439453
1574.276,11.17441749572754,-46.59403991699219,-8.974167823791504,0.7139038443565369,-0.2116677463054657,0.5685421228408813,-7.142134189605713,-50.74327850341797,-94.37381744384766,8.912181854248047,35.523826599121094,4.096138000488281,-0.8519872426986694,-0.3229067325592041,-0.2173556834459304,-118.95713806152344,70.2005615234375,150.7281951904297,48.74841382326873,0.9368575554786828,36.853053986971766,0.93669339315466,-111.81500387191772,120.94384002685548,245.1020126342773
1597.707,27.069129943847656,-44.599910736083984,-11.126794815063477,0.7306495308876038,-0.1430510580539703,0.5837746858596802,-6.530470848083496,-51.65235900878906,-94.2072525024414,10.594675064086914,37.68007659912109,13.59988021850586,-0.8966688513755798,-0.2734371423721313,-0.2215197682380676,-121.0220947265625,70.0452880859375,148.35325622558594,53.345059719153866,0.9461000084807124,41.43660283115551,0.9632517363472988,-114.491623878479,121.69764709472656,242.5605087280273
1618.891,18.313570022583008,-40.65394592285156,-11.11417007446289,0.7413005828857422,-0.0455117747187614,0.6029663681983948,-5.9745049476623535,-52.47306442260742,-94.16161346435548,11.335579872131348,38.06239700317383,9.728252410888672,-0.98947012424469,-0.3604811131954193,-0.2259753197431564,-122.84392547607422,69.77457427978516,146.20794677734375,45.95274684406012,0.9566432548255146,40.88863328156918,1.0770620246190248,-116.86942052841188,122.24763870239258,240.3695602416992
1639.833,-4.085301399230957,-40.29542541503906,-10.3847017288208,0.748653769493103,-0.0412772223353385,0.555833101272583,-5.876885890960693,-53.30137252807617,-94.15357971191406,13.604819297790527,48.50751495361328,0.3149938583374023,-0.8368757963180542,-0.2974396049976349,-0.2042664289474487,-124.73927307128906,69.208251953125,143.92410278320312,41.81211579073831,0.9333470480642508,50.3802474808465,0.9113485563049242,-118.86238718032835,122.50962448120116,238.0776824951172
1651.308,1.5327370166778564,-39.71794891357422,-8.205221176147461,0.766182541847229,-0.0949810817837715,0.5318644046783447,-5.776550769805908,-54.12078475952149,-94.02333068847656,13.543466567993164,46.81468963623047,5.726128101348877,-0.8171574473381042,-0.2274650484323501,-0.2196988314390182,-126.70403289794922,68.75322723388672,141.56471252441406,40.585593542697936,0.9375163136138732,49.06963618621999,0.8762158515651998,-120.92748212814332,122.8740119934082,235.58804321289065
1674.388,12.498684883117676,-37.31972503662109,-8.476346969604492,0.7995151281356812,-0.075763925909996,0.5678414106369019,-5.412921905517578,-54.87982177734375,-93.9302215576172,6.296566963195801,30.67555046081543,25.36644554138184,-0.8909657001495361,-0.2445462644100189,-0.2537081837654114,-128.707275390625,68.7793960571289,139.31365966796875,40.25950146941217,0.9835692554269968,40.30003363522086,0.9581182582486316,-123.29435348510742,123.65921783447266,233.243881225586
1696.362,21.215415954589844,-31.622482299804688,-7.6796369552612305,0.8302315473556519,-0.0497379451990127,0.5559748411178589,-4.850229263305664,-55.53288650512695,-93.8547134399414,3.4570529460906982,23.389404296875,30.794652938842773,-0.9682687520980836,-0.2723561823368072,-0.2722561061382293,-130.63951110839844,68.95111083984375,137.23683166503906,38.84651959561294,1.000433060915726,38.824297779335645,1.0420391804899714,-125.78928184509276,124.4839973449707,231.09154510498047
1718.948,18.304643630981445,-24.34029197692871,-4.723309516906738,0.8181689977645874,-0.0695100724697113,0.477671205997467,-4.436760902404785,-56.06405258178711,-93.69619750976562,-1.0837408304214478,34.322044372558594,19.74182510375977,-0.9501366019248962,-0.320406436920166,-0.2333892583847046,-132.668701171875,68.7928237915039,135.1427459716797,30.81914088309198,0.9499483881332336,39.609555444701,1.0295097828902005,-128.2319402694702,124.85687637329102,228.8389434814453
1741.149,11.64723014831543,-25.398845672607425,-4.727723121643066,0.8855022192001343,-0.0350606590509414,0.475804328918457,-4.118764877319336,-56.63174057006836,-93.61617279052734,-3.780479907989502,10.798544883728027,6.630691051483154,-0.9137784838676452,-0.264324814081192,-0.2190572619438171,-133.35044860839844,68.74971008300781,134.5362548828125,28.339207779041303,1.0058494864734944,13.223715958867986,0.9761376997784847,-129.2316837310791,125.38145065307616,228.15242767333984
1751.3049999999998,15.523216247558594,-20.35260581970215,-6.123249053955078,0.8838012218475342,-0.0484628602862358,0.5556206107139587,-3.674678325653076,-57.055511474609375,-93.59514617919922,-2.2087318897247314,1.7355810403823853,11.667654991149902,-0.9469865560531616,-0.2531949877738952,-0.2538440525531769,-133.89096069335938,68.90039825439453,134.04945373535156,26.31906125410636,1.045068185151797,12.001037917652248,1.012584832098462,-130.2162823677063,125.9559097290039,227.6445999145508
1774.433,18.8155517578125,-17.134891510009766,-6.1768012046813965,0.8297650218009949,-0.069353312253952,0.4901283979415893,-3.182451009750366,-57.42634963989258,-93.5504379272461,-4.399402618408203,2.438554286956787,4.96818733215332,-0.9689741134643556,-0.2734417915344238,-0.2679658532142639,-134.25238037109375,68.93373107910156,133.80050659179688,26.18744676620612,0.9662016972629414,7.069948781756556,1.0418670473771772,-131.06992936134338,126.36008071899414,227.35094451904297
1798.915,7.781558990478516,-14.705452919006348,-6.811303615570068,0.881298840045929,-0.0387749075889587,0.5065492391586304,-2.849844694137573,-57.75235366821289,-93.56201934814452,-0.8876546621322632,3.174461603164673,-2.4555153846740723,-0.9651750326156616,-0.2779659628868103,-0.2477864176034927,-134.27479553222656,68.85343170166016,133.8456268310547,17.977676791479126,1.0172429752114387,4.110315446963046,1.0345172926814743,-131.424950838089,126.60578536987305,227.4076461791992
1818.887,-0.9236906170845032,-11.508265495300291,-9.18352222442627,0.8858246803283691,-0.0243162270635366,0.4946208596229553,-2.594881772994995,-58.02037048339844,-93.70358276367188,0.3490807116031647,0.9582102298736572,0.8053757548332214,-0.8703235387802124,-0.2575295567512512,-0.2705113291740417,-134.356201171875,68.83116912841797,133.80667114257812,14.75230353242979,1.014852914442095,1.299482317817784,0.9470802046114756,-131.76131939888,126.8515396118164,227.51025390625
1841.125,2.956279754638672,-7.2473297119140625,-4.167964935302734,0.8474382758140564,-0.0893700644373893,0.474868506193161,-2.488325834274292,-58.19365310668945,-93.63824462890624,-0.9833126664161682,-6.174602508544922,7.684847831726074,-0.8844372630119324,-0.2723652720451355,-0.2828940749168396,-134.44488525390625,68.99995422363281,133.77369689941406,8.86765525056043,0.975519727071866,9.907043258977357,0.9676989052609872,-131.95655941963196,127.19360733032228,227.4119415283203
1851.187,6.099933624267578,-1.1566967964172363,-2.3261947631835938,0.8467142581939697,-0.0558988526463508,0.5184162855148315,-2.32990837097168,-58.22124099731445,-93.54756927490234,0.36487478017807,-10.894289016723633,6.124493598937988,-0.9524106383323668,-0.3147441446781158,-0.2989955544471741,-134.24441528320312,69.2047119140625,134.01016235351562,6.630107071199896,0.9943868270663776,12.503123154978022,1.046684404296251,-131.91450691223145,127.42595291137695,227.557731628418
1874.364,3.783890962600708,3.591793775558472,1.1627111434936523,0.8893525004386902,-0.0134370597079396,0.432106077671051,-2.283275604248047,-58.207298278808594,-93.36700439453124,-1.0415165424346924,-6.78602933883667,-0.825126051902771,-0.9481748342514038,-0.2968219816684723,-0.2691672146320343,-133.95787048339844,69.26651000976562,134.3701629638672,5.345157672716139,0.9888599936140634,6.914895798003454,1.029363781440771,-131.6745948791504,127.47380828857422,227.73716735839844
1891.139,-8.228323936462402,13.364341735839844,4.440745830535889,0.8715053796768188,-0.0103553142398595,0.4588384926319122,-2.5624899864196777,-57.977516174316406,-93.0856704711914,1.1680574417114258,-5.833789825439453,1.4040131568908691,-0.9093430042266846,-0.2371067702770233,-0.266888827085495,-133.81069946289062,69.36149597167969,134.55982971191406,16.31046192991151,0.9849678277280776,6.112995571670324,0.9769104185493592,-131.24820947647095,127.3390121459961,227.64550018310547
1916.199,-12.60452651977539,21.03567123413086,5.588014602661133,0.8027341961860657,-0.0283877942711114,0.4661876857280731,-2.966295003890991,-57.57206344604492,-92.76903533935548,3.1652379035949707,-7.723980903625488,6.459728717803955,-0.8612501621246338,-0.2267035096883773,-0.2733744382858276,-133.75938415527344,69.54531860351562,134.60861206054688,25.15152997846683,0.9287190182797834,10.554937569381764,0.9316007227202155,-130.79308915138245,127.11738204956056,227.3776473999024
1931.437,-13.203367233276367,28.69215583801269,9.31532382965088,0.8244902491569519,-0.0496984273195266,0.4506332874298095,-3.4969170093536377,-57.02751541137695,-92.3272705078125,4.1113996505737305,-14.30381202697754,13.16404914855957,-0.8390806913375854,-0.2404805421829223,-0.2751168310642242,-133.66897583007812,69.90328979492188,134.67393493652344,32.929378539244006,0.940916821176412,19.869444772704068,0.9151920937589952,-130.1720588207245,126.93080520629884,227.001205444336
1953.642,-16.80620765686035,40.67811965942383,11.469128608703612,0.8143061399459839,-0.0455999001860618,0.4541846811771393,-4.115914821624756,-56.24169158935547,-91.86808776855467,5.07440710067749,-17.32040786743164,11.66322422027588,-0.9963849186897278,-0.3115634620189667,-0.270514041185379,-133.29046630859375,70.28573608398438,135.01617431640625,45.48295225548687,0.933518915216337,21.48899567988285,1.0784398655168606,-129.174551486969,126.52742767333984,226.8842620849609
1976.847,-26.22997093200684,49.12873458862305,16.747787475585938,0.8332282304763794,-0.0359669253230094,0.4344810247421264,-5.01815938949585,-55.30120086669922,-91.24249267578124,2.266770362854004,-14.550859451293944,2.1789355278015137,-0.9274307489395142,-0.288526326417923,-0.2449862360954284,-132.7028045654297,70.4911880493164,135.63632202148438,58.15610305634898,0.9403917612574866,14.886689312387064,1.00169530846008,-127.68464517593384,125.79238891601562,226.8788146972656
1991.31,-39.06188583374024,63.81679534912109,18.19333839416504,0.7767783403396606,-0.0331012867391109,0.4535285830497741,-6.123226165771484,-54.044532775878906,-90.67403411865234,7.887544631958008,-9.505475997924805,-1.1009138822555542,-0.8791933059692383,-0.2471438199281692,-0.2553856074810028,-132.14675903320312,70.57872772216797,136.09695434570312,77.00267433956017,0.9000935844942782,12.40078407377522,0.9483051963889298,-126.02353286743164,124.62326049804688,226.77098846435547
2013.776,-44.643367767333984,73.7347183227539,22.964508056640625,0.7034431099891663,-0.0379074364900589,0.5280344486236572,-7.368545055389404,-52.52279281616211,-90.04400634765625,11.974851608276367,-6.632006645202637,2.8943562507629395,-0.872113049030304,-0.225163072347641,-0.2652888000011444,-131.82313537597656,70.6892318725586,136.23265075683594,89.20318156898222,0.8803917092213941,13.991350231074252,0.9389663076191868,-124.45459032058716,123.2120246887207,226.2766571044922
2036.826,-47.285743713378906,80.43907165527344,26.01892471313477,0.6922478079795837,-0.0677368193864822,0.5085481405258179,-8.677669525146484,-50.873870849609375,-89.3730697631836,15.00814723968506,-6.374080657958984,11.326789855957031,-0.928198218345642,-0.2225547432899475,-0.2392573654651641,-131.7376708984375,70.9431381225586,136.0508575439453,96.8677977994614,0.8616359530482711,19.85370384193449,0.9840358902144828,-123.06000137329102,121.81700897216795,225.4239273071289
2058.652,-50.22821044921875,87.29261779785156,27.07501983642578,0.708551287651062,-0.09109678119421,0.4829221665859222,-9.993412971496582,-49.11513137817383,-88.78277587890625,15.81361198425293,-4.934986591339111,9.220891952514648,-0.9149301648139954,-0.224307507276535,-0.1948652267456054,-131.55580139160156,71.15724182128906,135.95156860351562,104.28773152233993,0.862297726864663,18.95914726577,0.9619685654436916,-121.56238842010498,120.27237319946288,224.73434448242188
2081.005,-56.866607666015625,95.2230987548828,28.494829177856445,0.7081234455108643,-0.056736335158348,0.5732566714286804,-11.315110206604004,-47.1655387878418,-88.22260284423828,13.170960426330566,-4.792959690093994,1.5527504682540894,-0.8562820553779602,-0.2128098309040069,-0.2051257938146591,-131.16815185546875,71.2423324584961,136.12855529785156,114.51290273937664,0.912842284924876,14.101691216286614,0.905860681219684,-119.85304164886476,118.40787124633788,224.35115814208984
2091.067,-60.75559997558594,101.81268310546876,35.06573486328125,0.6635284423828125,-0.0916285663843154,0.6192913055419922,-12.76503086090088,-45.03297805786133,-87.58663940429688,12.991706848144531,-9.923700332641602,10.246131896972656,-0.9523943662643432,-0.2878552973270416,-0.2546691000461578,-130.87107849121094,71.49553680419922,136.20787048339844,123.6392782696096,0.9122431195402416,19.293716437492208,1.0270209596739588,-118.10604763031006,116.52851486206056,223.7945098876953
2113.739,-62.17931365966797,104.94610595703124,42.52226638793945,0.6160349249839783,-0.1798145174980163,0.5535238981246948,-14.372315406799316,-42.82095336914063,-86.8010025024414,21.73004913330078,-7.975980758666992,6.505308628082275,-0.926294445991516,-0.2557707130908966,-0.1710859686136245,-130.2581024169922,71.70086669921875,136.43356323242188,129.18241111505347,0.8474792005106778,24.04434122085473,0.976068884355104,-115.88578701019289,114.52182006835938,223.23456573486328
2136.015,-55.53003692626953,109.49281311035156,42.35886764526367,0.6200275421142578,-0.1672070920467376,0.6081169247627258,-15.70830535888672,-40.51478576660156,-86.14720153808594,22.59006118774414,-5.97984504699707,2.8964922428131104,-0.9510295391082764,-0.1918650865554809,-0.1487499922513961,-129.62319946289062,71.86259460449219,136.6678924560547,129.8712238798118,0.8844198995917316,23.546954762023816,0.9815273587069456,-113.9148941040039,112.37738037109376,222.81509399414065
2159.223,-55.45890426635742,114.29850769042967,41.83869934082031,0.6027820110321045,-0.1472271978855133,0.6849569082260132,-16.909713745117188,-38.10079193115234,-85.66574096679688,16.831579208374023,-9.824935913085938,-2.02493667602539,-0.9177933931350708,-0.2017959058284759,-0.1703385263681411,-128.75083923339844,71.97661590576172,137.28038024902344,133.75468472250148,0.9242228988440327,19.594177525120244,0.9550295878436392,-111.84112548828124,110.07740783691406,222.9461212158203
2180.979,-63.82697296142578,116.66380310058594,43.96627807617188,0.5668187141418457,-0.2062833458185196,0.7197862267494202,-18.27047348022461,-35.61488723754883,-85.14224243164062,11.43809413909912,-16.235105514526367,4.320684432983398,-0.9465391039848328,-0.2321996688842773,-0.142751470208168,-127.83805847167967,72.26698303222656,138.0398406982422,140.06198284753123,0.9391104757597298,20.32429488499228,0.985003017177598,-109.56758499145508,107.8818702697754,223.1820831298828
2191.072,-58.797210693359375,118.6790771484375,46.42650604248047,0.5222951769828796,-0.3011159896850586,0.6637340188026428,-19.573558807373047,-33.0837516784668,-84.62870788574219,14.373948097229004,-15.420692443847656,11.409998893737791,-1.0004730224609375,-0.2716374397277832,-0.1419473737478256,-127.12027740478516,72.6447982788086,138.52761840820312,140.34691233310602,0.896663782506853,23.97073661998461,1.0463661998783664,-107.54671859741212,105.7285499572754,223.1563262939453
2213.539,-41.01516342163086,120.26639556884766,49.602821350097656,0.4655724465847015,-0.3331591486930847,0.6874077320098877,-20.51886367797852,-30.482288360595703,-84.11262512207031,6.884252548217773,-9.287345886230469,0.0626669526100158,-0.9284102320671082,-0.2092452496290207,-0.1180025413632392,-126.44538879394533,72.78704833984375,139.13461303710938,136.40633936703722,0.8945848821681167,11.560780851874773,0.9589857836628214,-105.9265251159668,103.26933670043944,223.2472381591797
2238.238,-47.05266571044922,120.18112182617188,46.06135559082031,0.46624356508255,-0.2356517910957336,0.7549138069152832,-21.42546463012696,-27.92145538330078,-83.76097869873047,3.4148969650268555,-12.198186874389648,2.771083354949951,-0.944778323173523,-0.2602956593036651,-0.1567108631134033,-125.79254150390624,72.97040557861328,139.7716522216797,137.03687048645136,0.9180466679307968,12.966733870345385,0.9924304533863576,-104.3670768737793,100.89186096191406,223.53263092041016
2258.342,-76.60588073730469,126.513427734375,43.378173828125,0.4485445022583008,-0.2780186533927917,0.8538485765457153,-22.8418083190918,-25.25061798095703,-83.5947036743164,19.23797607421875,-21.82069969177246,10.85695457458496,-1.093902349472046,-0.301098495721817,-0.1774594336748123,-124.59349060058594,73.39374542236328,140.65423583984375,154.12908332077404,1.003764879745069,31.05021934069602,1.1483790771807836,-101.75168228149414,98.64436340332033,224.24893951416016
2280.955,-56.276126861572266,128.31756591796875,56.10459899902344,0.3158948421478271,-0.4607397615909576,0.7379029393196106,-24.002988815307617,-22.426158905029297,-83.16959381103516,18.49459457397461,-9.83078384399414,9.203871726989746,-0.9246436953544616,-0.2313077002763748,-0.1071117743849754,-123.93537139892578,73.67120361328125,140.99026489257812,150.93086565210328,0.9255114408061168,22.878059231716065,0.9591361466328948,-99.93238258361816,96.09736251831056,224.15985870361328
2292.559,-31.855636596679688,122.46653747558594,55.094703674316406,0.2242960631847381,-0.4104329943656921,0.7595389485359192,-24.64631080627441,-19.70213508605957,-82.78624725341797,10.477846145629885,1.163028120994568,-1.238364815711975,-0.9231743812561036,-0.2018369436264038,-0.1086982041597366,-123.6704330444336,73.66227722167969,141.08743286132812,138.01543666271374,0.891999653120566,10.614680479341263,0.9512120634262318,-99.02412223815918,93.36441230773926,223.8736801147461
2314.416,-56.15296173095703,121.99356842041016,46.33172607421875,0.2713308036327362,-0.2594666182994842,0.7646984457969666,-25.641002655029297,-17.102197647094727,-82.61009216308594,11.464492797851562,-1.7748886346817017,-0.2361327707767486,-0.9930886030197144,-0.2135661244392395,-0.1368408203125,-123.32096862792967,73.69853973388672,141.25973510742188,142.064121748315,0.8518844076610704,11.603472905253296,1.0249687180882363,-97.6799659729004,90.80073738098145,223.8698272705078
2340.716,-87.64492797851562,132.91354370117188,52.30195999145508,0.2753045558929443,-0.3663710355758667,0.9070178270339966,-27.2813663482666,-14.252427101135254,-82.4461898803711,9.95213794708252,-19.76037979125977,20.07826232910156,-1.0486735105514526,-0.2458778470754623,-0.1788136512041092,-122.76007843017578,74.25325012207031,141.69415283203125,167.58024501268127,1.016219303478249,29.877320451620257,1.091854554998841,-95.47871208190918,88.50567722320557,224.1403427124024
2350.9950000000003,-49.62855529785156,132.35208129882812,61.35162734985352,0.0904673710465431,-0.5909848809242249,0.791324257850647,-28.26418113708496,-11.32487964630127,-82.16854858398438,8.032803535461426,-1.289555311203003,22.50088119506836,-0.9152424931526184,-0.2072701156139373,-0.0910765752196312,-123.31676483154295,74.6661605834961,141.0028839111328,154.09117140043688,0.9917870516234674,23.92652377790293,0.9428280143549898,-95.052583694458,85.99104022979736,223.1714324951172
2373.405,-24.78152847290039,126.09101104736328,60.142845153808594,0.0115780401974916,-0.4708065390586853,0.7254998683929443,-28.72797203063965,-8.495388984680176,-81.8766098022461,3.1669838428497314,7.947971343994141,15.585679054260254,-0.9255543947219848,-0.1695355325937271,-0.0452206321060657,-124.24137878417967,74.88999938964844,140.01527404785156,141.88103835112872,0.8649525462552333,17.77957892437923,0.94203935160326,-95.51340675354004,83.38538837432861,221.89188385009768
2390.796,-56.22325897216797,128.82028198242188,48.77716827392578,0.0770866125822067,-0.3090265393257141,0.8381857872009277,-29.73923683166504,-5.745323181152344,-81.86750793457031,-3.774998188018799,5.938761234283447,9.32287883758545,-1.0914835929870603,-0.1798992156982422,-0.1478765308856964,-125.11058807373048,75.00765228271484,139.2315216064453,148.7781302621626,0.8966577729059539,11.680563605309109,1.1160500123003334,-95.37135124206544,80.75297546386719,221.0990295410156
2413.432,-71.92230987548828,134.60926818847656,56.59828186035156,0.0896156281232833,-0.4823533892631531,0.851620078086853,-31.12807273864746,-2.8584423065185547,-81.83349609375,-2.886620283126831,1.2679269313812256,22.745512008666992,-0.9016178250312804,-0.1885384321212768,-0.1630805730819702,-126.29999542236328,75.35824584960938,138.0990447998047,162.77542581608185,0.9828288306405338,22.96298177281633,0.9354446622423104,-95.17192268371582,78.21668815612793,219.9325408935547
2435.934,-46.348182678222656,133.28765869140625,63.98574066162109,-0.1082846671342849,-0.6821025609970093,0.8239655494689941,-32.078792572021484,0.1072528064250946,-81.71349334716797,-1.0763643980026243,7.555078029632568,16.738012313842773,-0.9506685137748718,-0.3096112012863159,-0.1241042092442512,-127.4034423828125,75.50337982177734,137.0011749267578,154.94492248869253,1.075131945189428,18.39561960276077,1.0074877536709914,-95.32464981079102,75.39612701535225,218.71466827392572
2460.696,-24.8282470703125,125.6515655517578,55.30332946777344,-0.1808829009532928,-0.4981604218482971,0.7728601098060608,-32.571685791015625,2.853687763214112,-81.709228515625,3.865967512130737,3.4335289001464844,16.128374099731445,-0.9617359638214112,-0.1181231811642646,-0.0834325850009918,-128.27757263183594,75.77508544921875,136.04710388183594,139.51063052116592,0.9371206854417355,16.936920517434082,0.9725482745220476,-95.70588684082033,72.92139768600464,217.7563323974609
2470.726,-49.304534912109375,126.16201782226562,55.14523315429688,-0.1284564584493637,-0.4232332110404968,0.8491963744163513,-33.53566360473633,5.598444938659668,-81.71675109863281,5.427234649658203,14.847137451171877,16.683534622192383,-1.0756895542144775,-0.1057545989751815,-0.1742884218692779,-130.05543518066406,75.88800811767578,134.14744567871094,146.24906373555643,0.9574768378226592,22.983313380066264,1.094837205363531,-96.51977157592772,70.28956317901611,215.8641967773437
2493.409,-52.306339263916016,127.5357666015625,60.23828887939453,-0.1556815356016159,-0.6172791719436646,0.8430159091949463,-34.656097412109375,8.401970863342285,-81.72906494140625,-3.93412971496582,13.93945598602295,15.160524368286133,-1.0037230253219604,-0.2353195250034332,-0.1615903973579406,-131.68893432617188,75.9190444946289,132.5767364501953,150.43263055918916,1.056383519276269,20.967291406422664,1.0435260643259503,-97.0328369140625,67.51707363128662,214.3058013916016
2515.715,-34.45451736450195,121.7704620361328,60.65231323242188,-0.3022398948669433,-0.6813805103302002,0.7899721264839172,-35.43592834472656,11.115142822265623,-81.71611022949219,-6.118810653686523,15.353435516357422,8.475198745727539,-0.8927968144416809,-0.2299807518720626,-0.1471608579158783,-133.04676818847656,75.811279296875,131.3238525390625,140.3348220925863,1.0861327333841602,18.574090011362465,0.9336132048184568,-97.61083984375,64.69613647460938,213.0399627685547
2539.416,-24.35078811645508,115.02938842773438,56.42526245117188,-0.3494031131267547,-0.5346596240997314,0.779880702495575,-35.994564056396484,13.69765567779541,-81.72654724121094,-2.858314514160156,17.134286880493164,8.583328247070312,-0.951128363609314,-0.1289745718240738,-0.1335706859827041,-134.5715789794922,75.72836303710938,129.82421875,130.4167601446789,1.0080463080782178,19.375945720450755,0.9690824177505362,-98.5770149230957,62.030707359313965,211.5507659912109
2561.068,-38.77643585205078,115.93992614746094,56.48466491699219,-0.3050929307937622,-0.5106852054595947,0.84803307056427,-36.84139633178711,16.25820541381836,-81.79460906982422,-0.1991573572158813,10.379789352416992,16.49596405029297,-1.1504080295562744,-0.1406919807195663,-0.1585113257169723,-136.10377502441406,75.85281372070312,128.2608642578125,134.67069400300792,1.0358770024796864,19.49093431834504,1.1697686558832463,-99.26237869262695,59.594608306884766,210.05547332763672
2570.96,-32.59326171875,116.57451629638672,60.425270080566406,-0.3350135087966919,-0.6870483160018921,0.7778807878494263,-37.67858123779297,18.85057640075684,-81.84329986572266,-12.922859191894531,12.346739768981934,6.165456295013428,-0.9925710558891296,-0.1622668206691742,-0.2034361213445663,-137.43170166015625,75.75299072265625,127.1979522705078,135.28914155804546,1.090581477791802,18.90648364826769,1.0261160156369575,-99.75312042236328,56.90241432189941,209.04125213623047
2593.214,-16.68977165222168,112.61786651611328,56.07542037963867,-0.4386648535728454,-0.6480118632316589,0.7042097449302673,-38.24076843261719,21.36509323120117,-81.97978973388672,-19.112916946411133,12.296411514282228,7.0202741622924805,-0.9180167317390442,-0.1681437492370605,-0.1240614131093025,-138.76205444335938,75.68125915527344,126.24840545654295,126.9085698729507,1.0527381409941432,23.78633178198635,0.9414978886768726,-100.5212860107422,54.316165924072266,208.2281951904297
2615.741,-17.718181610107422,107.98919677734376,54.23809814453125,-0.4601460099220276,-0.5228155255317688,0.783794105052948,-38.75483322143555,23.767438888549805,-82.0881576538086,-17.202308654785156,8.699370384216309,10.114031791687012,-1.019711971282959,-0.1718415468931198,-0.1383830308914184,-140.06796264648438,75.704833984375,125.2802963256836,122.13669338294868,1.048524498187798,21.76906307629089,1.0433081447276704,-101.31312942504884,51.9373950958252,207.3684539794922
2638.324,-18.59169006347656,110.55465698242188,55.82101058959961,-0.464398443698883,-0.6147286891937256,0.7720778584480286,-39.36790084838867,26.192359924316406,-82.26791381835938,-21.644088745117188,3.1041057109832764,-1.279745101928711,-1.059423327445984,-0.0977176874876022,-0.1911369413137436,-140.68052673339844,75.67268371582031,125.12494659423828,125.235651246606,1.0907160470688395,21.90296321042836,1.0809532198570937,-101.31262588500977,49.48032379150391,207.39286041259768
2660.9280000000003,-6.336009502410889,109.80152893066406,53.17011260986328,-0.5421772003173828,-0.6525946855545044,0.71429842710495,-39.79991149902344,28.5705623626709,-82.556396484375,-26.702770233154297,-3.733095407485962,4.541977405548096,-0.9925746917724608,-0.2031051963567733,-0.1754656136035919,-141.1992645263672,75.78299713134766,125.15315246582033,122.16211215786848,1.1090798813081877,27.342338930649905,1.028223915833319,-101.39935302734376,47.21243476867676,207.7095489501953
2670.7960000000003,-1.0779411792755127,100.64534759521484,49.5356330871582,-0.6009039282798767,-0.5589642524719238,0.6654531359672546,-40.12129974365234,30.79132843017578,-82.78458404541016,-26.167312622070312,-7.53575325012207,-2.0841848850250244,-0.9110947847366332,-0.1413355469703674,-0.2082605212926864,-141.2775421142578,75.8636474609375,125.62612915039062,112.18033203326311,1.0565767566685995,27.310431222206148,0.9452205501050042,-101.15624237060548,45.07231903076172,208.4107131958008
2698.26,-5.815160751342773,95.47106170654295,47.86164855957031,-0.6378096342086792,-0.5518036484718323,0.6443602442741394,-40.55501937866211,32.918575286865234,-83.0460433959961,-20.893505096435547,-5.910387992858887,11.216483116149902,-0.9411768317222596,-0.166879653930664,-0.2142952680587768,-142.11997985839844,76.0771255493164,125.19662475585938,106.9545563348206,1.0613616350505906,24.439327628553624,0.9795841512494736,-101.56496047973631,43.15855026245117,208.24266815185547
2720.86,-8.108834266662598,93.95448303222656,47.214622497558594,-0.637915313243866,-0.6006921529769897,0.732666015625,-41.04792022705078,34.95979690551758,-83.31602478027344,-18.89501953125,-4.063361167907715,-3.0308613777160645,-1.06710684299469,-0.1681272685527801,-0.1957205981016159,-142.08004760742188,76.10807037353516,125.63323974609376,105.46287807851688,1.1421762123118149,19.563199834334625,1.097857160708244,-101.0321273803711,41.14827346801758,208.9492645263672
2731.397,6.488665580749512,95.21861267089844,50.35313415527344,-0.6146805882453918,-0.5854898691177368,0.7006175518035889,-41.2667121887207,37.037715911865234,-83.59490966796875,-23.17619705200196,-11.413424491882324,-2.149184226989746,-1.1078730821609497,-0.1410140693187713,-0.1591259390115738,-141.80992126464844,76.2925033569336,126.39791870117188,107.90794734053812,1.100679592933593,25.923374804732983,1.1280907757751395,-100.54320907592772,39.25478744506836,209.99282836914065
2760.417,8.061385154724121,93.10919189453124,45.62785339355469,-0.6298415064811707,-0.5008149147033691,0.5803858041763306,-41.53081130981445,39.05426788330078,-84.01781463623047,-34.21018981933594,-20.217679977416992,-3.132073163986206,-0.9604681134223938,-0.0910492911934852,-0.1264849156141281,-141.27052307128906,76.61546325683594,127.66633605957033,104.00100264501862,0.9921509883909904,39.8610280029104,0.973030011975952,-99.7397117614746,37.56119537353516,211.6841506958008
2781.855,4.1362409591674805,94.04779815673828,38.37223052978516,-0.6917283535003662,-0.5239467620849609,0.5088087916374207,-42.05914688110352,41.00400924682617,-84.61180877685547,-40.45201873779297,-18.4320125579834,-0.5350080132484436,-0.8587093949317932,-0.1241114437580108,-0.2035324424505233,-141.15457153320312,76.87655639648438,128.65016174316406,101.65886534500498,1.0059297743794913,44.456620884572985,0.8911851269773862,-99.0954246520996,35.8725471496582,213.2619705200196
2791.441,6.822680473327637,93.2044448852539,38.87096405029297,-0.7325954437255859,-0.5362213253974915,0.5639458298683167,-42.54578399658203,42.92020797729492,-85.28455352783203,-32.70989227294922,-17.124963760375977,2.813293933868408,-0.998642921447754,-0.1361794471740722,-0.147898256778717,-141.05667114257812,77.19601440429688,129.4453125,101.21546009088053,1.068767651552195,37.02858435128832,1.018678762293847,-98.5108871459961,34.27580642700195,214.72986602783203
2813.0890000000004,4.530010223388672,93.93749237060548,40.82435607910156,-0.7153115272521973,-0.4703549742698669,0.6570380330085754,-43.07962417602539,44.853309631347656,-85.92423248291016,-43.52595520019531,-26.61352157592773,-12.953657150268556,-1.1708954572677612,-0.1569698452949524,-0.1248072162270546,-139.45718383789062,77.47274017333984,131.9928436279297,102.52512626071156,1.0791679015148925,52.63635189038545,1.187944672703467,-96.37755966186523,32.61943054199219,217.91707611083984
2830.518,9.337865829467772,92.2102508544922,34.13637924194336,-0.7627748847007751,-0.513888955116272,0.4407235383987427,-43.73051071166992,46.68296051025391,-86.82142639160156,-48.08559036254883,-35.262489318847656,-0.7439309358596802,-0.846656322479248,-0.0646964535117149,-0.219228982925415,-138.45550537109375,77.99799346923828,134.02906799316406,98.76850960021268,1.0198748061499914,59.63405559505426,0.8769685892012267,-94.72499465942384,31.31503295898437,220.8504943847656
2853.012,15.044381141662598,85.84867095947266,28.446298599243164,-0.8660675287246704,-0.5088221430778503,0.4214791655540466,-44.330177307128906,48.35731887817383,-87.84416198730469,-38.570125579833984,-16.788972854614258,6.708301544189453,-0.756198525428772,-0.1927523612976074,-0.2923067510128021,-138.64813232421875,78.34033966064453,134.62850952148438,91.68162091412172,1.0893197990460513,42.59724763837345,0.8333264182384432,-94.31795501708984,29.983020782470703,222.47267150878903
2875.5950000000003,6.661951541900635,76.9856948852539,29.147686004638672,-0.8994967937469482,-0.4804572761058807,0.4751859903335571,-44.97331619262695,49.90311050415039,-88.67765045166016,-13.11430835723877,-3.218745470046997,-2.6034984588623047,-1.006706953048706,-0.2618520855903625,-0.2296390384435653,-138.43798828125,78.32247161865234,135.08877563476562,82.58793141093346,1.1250490662781805,13.752222013732512,1.065250905665852,-93.46467208862305,28.41936111450196,223.76642608642572
2890.706,-5.069905757904053,74.1147689819336,31.432876586914062,-0.8066431283950806,-0.4413464963436126,0.562325656414032,-45.746341705322266,51.37370300292969,-89.49644470214844,4.96638822555542,-12.542205810546877,3.471935987472534,-1.1345038414001465,-0.1643198579549789,-0.121092602610588,-137.67149353027344,78.57485961914062,135.7496337890625,80.66429604333992,1.077807965401656,13.929331574133704,1.1527200008141782,-91.92515182495116,27.201156616210938,225.2460784912109
2913.032,11.719334602355955,77.5876693725586,27.497615814208984,-0.8011190891265869,-0.5037416219711304,0.3606389462947845,-46.54342651367188,52.85052490234375,-90.6467514038086,-4.598588943481445,-18.51793670654297,3.572528123855591,-0.9816015362739564,-0.0487197414040565,-0.1975064724683761,-136.87596130371094,78.9117431640625,136.6481170654297,83.14630549611498,1.012722995815603,19.411953980328214,1.002458974664186,-90.33253479003906,26.06121826171875,227.29486846923828
2935.402,19.28179931640625,71.03521728515625,22.583086013793945,-0.9091268181800842,-0.4491819739341736,0.3718807101249695,-47.17380142211914,54.19103240966797,-91.84326171875,-5.959907531738281,-6.689695835113525,12.898056030273438,-0.7611998915672302,-0.1301608830690384,-0.258625328540802,-137.49929809570312,79.18733215332031,136.12539672851562,76.99211422953614,1.080079293295032,15.704533661120884,0.8144041938534653,-90.32549667358398,24.996299743652344,227.9686584472656
2957.9010000000003,1.3751667737960815,61.11720275878906,21.44376564025879,-0.910849928855896,-0.4141387045383453,0.40636146068573,-47.995079040527344,55.36080932617188,-92.9073486328125,14.975545883178713,6.219939231872559,6.067358493804932,-0.9957138299942015,-0.2578433752059936,-0.1887689083814621,-137.97898864746094,79.14727783203125,135.310546875,64.78455557884942,1.0799481914537057,17.313793854604054,1.045735596673877,-89.9839096069336,23.78646850585937,228.2178955078125
2980.827,-10.628329277038574,63.923946380615234,20.61045837402344,-0.8295949101448059,-0.435878187417984,0.4356157481670379,-49.18539047241211,56.492000579833984,-94.09619140625,24.63146209716797,-0.45986008644104,1.4937801361083984,-1.1793642044067385,-0.1166507750749588,-0.0716933980584144,-137.4722442626953,79.22032928466797,135.29275512695312,68.0001713121392,1.0334304956096874,24.681000292499405,1.1872856746742502,-88.2868537902832,22.728328704833984,229.38894653320312
2992.348,8.120725631713867,70.52349090576172,21.229585647583008,-0.8542819023132324,-0.4851927459239959,0.3648051619529724,-50.29901885986328,57.70431137084961,-95.75334167480467,2.468951463699341,-13.592816352844238,3.974695205688477,-1.0212384462356567,-0.0200081095099449,-0.100479781627655,-136.9202117919922,79.51939392089844,135.78965759277344,74.09591258017336,1.0479944539474992,14.375624498100102,1.0263646891002831,-86.6211929321289,21.815082550048828,231.54299926757807
3012.851,11.268106460571287,64.45977783203125,17.35946273803711,-0.944985032081604,-0.4100867509841919,0.3102748394012451,-51.35348129272461,58.82101821899414,-97.42547607421876,-11.865191459655762,-8.67138671875,6.487685680389404,-0.84710693359375,-0.1341694444417953,-0.2455694675445556,-137.18789672851562,79.71464538574219,135.73519897460938,67.70069518044032,1.0758430787789215,16.064425961979833,0.892130013033158,-85.83441543579102,20.893627166748047,233.16067504882807
3035.22,-8.374443054199219,54.702186584472656,15.065046310424805,-0.9353113174438475,-0.3896045088768005,0.3234059810638428,-52.64387130737305,59.756134033203125,-98.99526977539062,4.741222858428955,5.207986831665039,3.4550397396087646,-0.9667626023292542,-0.2338612526655197,-0.2017457336187362,-137.64532470703125,79.6370849609375,135.1349639892578,57.35343175369483,1.0635743333042338,7.844719283337135,1.014900170358681,-85.0014533996582,19.88095092773437,234.13023376464844
3057.78,-11.158340454101562,54.69528198242188,17.50853729248047,-0.8809734582901001,-0.4185381829738617,0.3642913103103637,-53.98801803588867,60.6679916381836,-100.61522674560548,16.609643936157227,2.5141541957855225,-0.3880814909934997,-1.1151177883148191,-0.1226386278867721,-0.0684894248843193,-137.34239196777344,79.63078308105469,135.07725524902344,58.50325897715837,1.041151575701791,16.803328546742225,1.1239300317133043,-83.35437393188477,18.962791442871094,235.6924819946289
3081.169,-3.443129777908325,58.06437683105469,16.704374313354492,-0.8911176323890686,-0.4238084554672241,0.281141459941864,-55.4464225769043,61.60452651977539,-102.46565246582033,3.221916437149048,-6.080117702484131,-2.577233076095581,-1.0035983324050903,-0.0511723235249519,-0.1370730102062225,-136.8056182861328,79.71089172363281,135.5584716796875,60.517461287192944,1.0260335092863468,7.347836901602621,1.0142076856483664,-81.35919570922852,18.106365203857425,238.0241241455078
3091.638,-0.0720712542533874,49.57889938354492,12.376676559448242,-0.928490161895752,-0.3797014057636261,0.2577542662620544,-56.73250579833984,62.381343841552734,-104.2940673828125,1.0652251243591309,-0.8535884618759155,6.001728534698486,-0.829046368598938,-0.1260373741388321,-0.2393603324890136,-137.32728576660156,79.74839782714844,135.0060272216797,51.100436211509546,1.0357144394341344,6.155003105769132,0.8720646018135063,-80.59477996826172,17.367053985595703,239.3000946044922
3112.876,-8.16533374786377,43.01800537109375,13.941490173339844,-0.8958825469017029,-0.3906042575836181,0.2708223164081573,-57.98761367797852,63.07476425170898,-105.92857360839844,17.234066009521484,10.892724990844728,5.120272636413574,-0.9573065042495728,-0.2116488367319107,-0.1772968024015426,-138.0767364501953,79.59854125976562,133.863525390625,45.95200332493443,1.0141607125846532,21.020981918500446,0.9963258148368536,-80.0891227722168,16.52377700805664,239.79209899902344
3137.944,-10.479515075683594,42.42542266845703,15.618057250976562,-0.8886684775352478,-0.4099504947662353,0.2971099019050598,-59.27009201049805,63.75406265258789,-107.59397888183594,22.493696212768555,5.790862560272217,0.7181895971298218,-1.0657552480697632,-0.1450089812278747,-0.0825640857219696,-137.94845581054688,79.54209899902344,133.50633239746094,46.40754719992739,1.022773369292499,23.23824982225869,1.078739394699245,-78.67836380004883,15.788036346435549,241.10031127929688
3160.968,-4.620279312133789,42.85681915283203,15.735620498657228,-0.916496515274048,-0.3910671770572662,0.2909143567085266,-60.49419021606445,64.43777465820312,-109.33991241455078,9.571826934814451,-2.56590223312378,-3.354056596755981,-0.9943487644195556,-0.0578783378005027,-0.1233194321393966,-137.4356231689453,79.565673828125,133.82293701171875,45.8875111691454,1.038041695896725,10.461998890949634,1.0036369112544783,-76.94143295288086,15.127899169921877,243.1628494262696
3181.5440000000003,1.0291513204574585,36.009769439697266,12.092622756958008,-0.9465910792350768,-0.4057337343692779,0.2993340790271759,-61.4765625,64.97388458251953,-110.93146514892578,4.370962619781494,-0.0135230422019958,5.306973934173584,-0.919741690158844,-0.0964801907539367,-0.1730859577655792,-137.92759704589844,79.62406921386719,133.23133850097656,37.99992332469439,1.0724996155522457,6.875279589529094,0.940846402235663,-76.45103454589844,14.650184631347656,244.1628036499024
3191.028,3.91596794128418,26.497833251953125,10.990571022033691,-0.9538403749465942,-0.437050998210907,0.3529874384403229,-62.05413055419922,65.36695098876953,-112.1677703857422,9.058954238891602,4.309910297393799,3.08561110496521,-0.9893339276313782,-0.1522004008293151,-0.1586223542690277,-138.28355407714844,79.58028411865234,132.67649841308594,28.95276538356647,1.1069892355448043,10.495759837429487,1.0134631881074825,-76.22942352294922,14.213333129882812,244.84426879882807
3212.853,12.509571075439451,17.15007209777832,9.886592864990234,-0.9470722675323486,-0.4475101828575134,0.3528642654418945,-62.13805770874024,65.64173126220703,-112.99678802490234,12.138855934143066,0.2483812272548675,2.095139741897583,-1.0192146301269531,-0.1204301044344902,-0.1070266887545585,-138.17091369628906,79.62035369873047,132.5142059326172,23.417067705597592,1.1053164404440374,12.320841171040705,1.031870430056356,-76.03285598754883,13.978622436523438,245.5109939575196
3231.783,14.410404205322266,7.487785816192627,6.640197277069092,-0.9543198347091676,-0.4299278855323791,0.3294306099414825,-61.89208984375,65.78034210205078,-113.49131774902344,3.8370962142944336,-3.230539321899414,0.8605562448501587,-0.9795642495155334,-0.0628821030259132,-0.1610420793294906,-138.12493896484375,79.69091033935547,132.4645538330078,17.544768612562006,1.0973098288287098,5.089228695847889,0.9947033875103964,-76.23284912109375,13.910568237304688,245.95587158203125
3252.744,25.58279037475586,-2.367327213287353,0.027236133813858,-0.9832553267478944,-0.4264462292194366,0.2597803175449371,-61.255558013916016,65.73184204101562,-113.77574920654295,-2.3492462635040283,-0.7862588763237,4.526071548461914,-0.9340603947639464,-0.0838800966739654,-0.2204489558935165,-138.7621307373047,79.7340087890625,131.8476104736328,25.69210274190217,1.1027843113579976,5.159698119946735,0.9633807315071,-77.50657272338867,14.002166748046877,245.62335968017572
3271.251,28.003347396850582,-12.986024856567385,-1.8112404346466064,-0.9796631932258606,-0.4039627015590668,0.2344926446676254,-60.22563552856445,65.56175994873047,-113.64659118652344,2.690035343170166,7.088155746459961,4.892781734466553,-0.9581973552703856,-0.1582366675138473,-0.2257501780986786,-139.7058868408203,79.6340103149414,130.80645751953125,30.920945957654386,1.0853168370644617,9.023167688495406,0.9970677797946512,-79.48025131225586,14.072250366210938,244.4530487060547
3294.983,21.54341125488281,-20.52242851257324,-6.065890789031982,-0.9887262582778932,-0.4035671949386596,0.223244622349739,-59.16933822631836,65.24552154541016,-113.2893295288086,12.12186050415039,13.529022216796877,4.094091415405273,-1.0078814029693604,-0.1716933697462082,-0.2183156907558441,-140.7547607421875,79.42823791503906,129.45921325683594,30.36583065906733,1.0910014922294735,18.62083587657546,1.0454497962582878,-81.58542251586914,14.182716369628906,242.74854278564453
3315.255,21.56297492980957,-27.077634811401367,-10.867740631103516,-0.9883686900138856,-0.4023992419242859,0.2439387291669845,-57.992454528808594,64.77249145507812,-112.83313751220705,18.186426162719727,17.991559982299805,5.281526565551758,-0.9875260591506958,-0.0981705337762832,-0.224343791604042,-142.1954345703125,79.18392944335938,127.5761947631836,36.28040767725949,1.0946706906136692,26.121578245415748,1.0174356530193454,-84.2029800415039,14.41143798828125,240.40933227539065
3330.327,24.55676651000977,-33.963478088378906,-13.81806182861328,-0.9787405729293824,-0.3950454592704773,0.2367418706417083,-56.63492965698242,64.17577362060547,-112.1780014038086,23.775724411010746,24.283313751220703,11.489584922790527,-0.9415955543518066,-0.0829615592956543,-0.2366058677434921,-144.38589477539062,78.89772033691406,124.81544494628906,44.13039154580787,1.0816842133003943,35.87443323185151,0.9744060472649496,-87.7509651184082,14.721946716308594,236.99344635009768
3352.63,18.534725189208984,-44.31695938110352,-18.523191452026367,-0.9715728759765624,-0.3913070261478424,0.2877677381038666,-55.17457580566406,63.36780548095703,-111.21124267578124,31.330949783325195,34.07548904418945,15.129867553710938,-0.904867947101593,-0.1382617205381393,-0.2765959799289703,-147.02847290039062,78.4289779663086,121.45857238769533,51.48434274800738,1.0862252589308778,48.69990000111659,0.9562466424363985,-91.85389709472656,15.061172485351562,232.66981506347656
3375.242,12.754701614379885,-52.61870193481445,-21.257871627807617,-0.9442198276519777,-0.4054915904998779,0.2982653379440307,-53.72369384765625,62.39926528930664,-110.04106903076172,44.28004455566406,41.20578384399414,15.168231010437012,-0.9716057181358336,-0.1622938215732574,-0.2083936333656311,-149.34371948242188,77.85227966308594,118.17292022705078,58.166204214484026,1.070017160944682,62.359555803706186,1.0068688407446278,-95.62002563476562,15.453014373779297,228.2139892578125
3397.744,6.930377960205078,-59.04267120361328,-19.97421836853028,-0.9137629270553588,-0.424112856388092,0.3735441863536834,-52.22528839111328,61.33251953125,-108.53628540039062,46.61660385131836,37.68885803222656,11.296903610229492,-1.0024439096450806,-0.1488048434257507,-0.2069604992866516,-150.9238739013672,77.29069519042969,115.5875015258789,62.71392637176382,1.074415962731883,61.00145740540052,1.0343448755982971,-98.6985855102539,15.958175659179688,224.1237869262696
3420.152,6.28895378112793,-64.60758972167969,-22.50883102416992,-0.886168360710144,-0.4239183366298675,0.4033499956130981,-50.740360260009766,60.133567810058594,-107.1120147705078,47.97435760498047,34.79788589477539,11.569632530212402,-0.949633240699768,-0.099987655878067,-0.1718340814113617,-152.26055908203125,76.79808807373047,113.22362518310548,68.70472373411226,1.0619285939345564,60.38450336999141,0.9702204773681192,-101.52019882202148,16.664520263671875,220.33563995361328
3430.16,-0.5922045707702637,-67.31046295166016,-28.189414978027344,-0.8570109605789185,-0.4314384758472442,0.4277268052101135,-49.55891418457031,58.78968048095703,-105.69984436035156,49.25004959106445,32.24354934692383,12.608298301696776,-0.9983725547790528,-0.1136652380228042,-0.1394367963075637,-153.35110473632812,76.37205505371094,111.0821533203125,72.97734063271892,1.0505032912318952,60.20118807195079,1.014450671366208,-103.7921905517578,17.582374572753906,216.7819976806641
3452.952,-2.8965675830841064,-67.809814453125,-31.998035430908203,-0.8534958362579346,-0.437358021736145,0.4377115368843078,-48.600582122802734,57.37696838378906,-104.34984588623048,46.32340621948242,26.48615264892578,9.242918014526367,-1.0022571086883545,-0.0894642174243927,-0.1744068413972854,-154.04043579101562,76.0053939819336,109.43743133544922,75.03622665998252,1.0541956987240122,54.15538550634311,1.0212447818431567,-105.43985366821288,18.62842559814453,213.7872772216797
3474.984,-4.040622711181641,-72.26547241210938,-35.516822814941406,-0.8750338554382324,-0.448744386434555,0.4548547267913818,-47.72983551025391,55.85544967651367,-102.98381042480467,39.53262710571289,23.542110443115234,8.624629974365234,-0.9680300951004028,-0.0768724083900451,-0.1867947429418563,-154.6955108642578,75.6786117553711,107.97721099853516,80.62301059689722,1.0834890839339757,46.81285947461338,0.988880128318137,-106.9656753540039,19.823162078857425,210.96102142333984
3497.635,-5.931646347045898,-76.59420013427734,-39.03078079223633,-0.8663240075111389,-0.4480111300945282,0.4949072301387787,-46.94150924682617,54.21648025512695,-101.54138946533205,29.71874618530273,19.22970199584961,6.235601425170898,-1.0102207660675049,-0.0696542263031005,-0.1731168627738952,-155.19058227539062,75.42240142822266,106.8884048461914,86.16993542905645,1.0936930214289446,35.94256583508225,1.0273106422171316,-108.24907302856444,21.205921173095703,208.42979431152344
3521.134,-8.332479476928711,-79.51486206054688,-41.83263397216797,-0.8476760387420654,-0.4615046381950378,0.4850347638130188,-46.297176361083984,52.49873352050781,-100.25088500976562,22.128984451293945,14.391222953796388,2.6187360286712646,-1.0068732500076294,-0.089411437511444,-0.2047936767339706,-155.39572143554688,75.20413208007812,106.2632064819336,90.23310239480088,1.0801851322065692,26.52653443892259,1.0313721911943363,-109.09854507446288,22.705398559570312,206.5140914916992
3530.052,-7.987379550933838,-81.04033660888672,-44.997859954833984,-0.8354148864746094,-0.4723644256591797,0.4895471036434173,-45.75436401367188,50.71715545654297,-98.9776611328125,22.58741950988769,13.628578186035156,2.330061435699463,-0.988789975643158,-0.1182338818907737,-0.2112956047058105,-155.48391723632812,74.9870376586914,105.74662017822266,93.03838879885652,1.0773590626422418,26.48318050730808,1.0180032904305134,-109.72955322265624,24.26988220214844,204.7242813110352
3552.419,-12.31428050994873,-85.86900329589844,-45.266448974609375,-0.8447609543800354,-0.4659626185894012,0.5114098787307739,-45.272911071777344,48.8759880065918,-97.64820098876952,24.67953491210937,14.103378295898438,1.1088206768035889,-0.9719229936599731,-0.1157717704772949,-0.2427676916122436,-155.4860076904297,74.73575592041016,105.28102111816406,97.84773188112044,1.0919167990424845,28.446690600640203,1.0084510699757074,-110.21309661865234,25.85976791381836,202.9292221069336
3577.388,-17.071712493896484,-89.29342651367188,-48.6871337890625,-0.8197510242462158,-0.4784188270568847,0.5109968781471252,-44.95673751831055,46.94084167480469,-96.3621063232422,26.27054023742676,14.660609245300291,0.6097398400306702,-0.985019862651825,-0.1034178882837295,-0.231024757027626,-155.44570922851562,74.48333740234375,104.82866668701172,103.12708850064978,1.077958313345796,30.090638585483084,1.0170210557286214,-110.48897171020508,27.542495727539062,201.1907730102539
3597.443,-8.28408432006836,-90.84791564941406,-48.90297317504883,-0.783636212348938,-0.5246305465698242,0.5222676396369934,-44.52392959594727,44.96709060668945,-95.06443786621094,21.1001091003418,13.855152130126951,-1.981576919555664,-0.9821590185165404,-0.1103101000189781,-0.2380305528640747,-155.30458068847656,74.22119903564453,104.59809112548828,103.50589652877076,1.0780011183253655,25.320080799306385,1.0165939208535275,-110.7806510925293,29.25410842895508,199.6625289916992
3619.926,-5.831770896911621,-94.63734436035156,-46.220947265625,-0.7797468304634094,-0.4965112209320068,0.5457022786140442,-43.98830032348633,42.99219131469727,-93.70680236816406,17.77842903137207,14.686256408691406,-4.786102771759033,-0.957360565662384,-0.1219776645302772,-0.2507913410663605,-155.0649871826172,73.9105453491211,104.55277252197266,105.48275909126345,1.0734614520390031,23.551336392383387,0.9971529973296596,-111.07668685913086,30.918354034423828,198.25957489013672
3640.214,-10.11729621887207,-97.8148422241211,-48.153079986572266,-0.755050539970398,-0.4896072149276733,0.5482783913612366,-43.5816535949707,40.950496673583984,-92.34664916992188,17.763734817504883,14.319161415100098,-4.876559734344482,-0.968234121799469,-0.1253530085086822,-0.2520722150802612,-154.80885314941406,73.60948181152344,104.52360534667967,109.49347996252256,1.0537674018740986,23.33172717869289,1.0083308449980275,-111.22719955444336,32.65898513793945,196.8702545166016
3649.933,-9.785801887512209,-99.8489761352539,-49.71844100952149,-0.7067386507987976,-0.5214053988456726,0.5524606704711914,-43.23501205444336,38.846004486083984,-91.03556823730467,20.689409255981445,12.889760971069336,-2.312622308731079,-0.9458656311035156,-0.1126980260014534,-0.2579979598522186,-154.64166259765625,73.35550689697266,104.34580993652344,111.97099325386648,1.037572119370889,24.485624664190897,0.9868766814832456,-111.40665054321288,34.50950241088867,195.38137817382807
3671.129,-7.2283759117126465,-102.49093627929688,-49.85065460205078,-0.6800912022590637,-0.5329410433769226,0.6010401248931885,-42.8475227355957,36.691593170166016,-89.7129135131836,22.581174850463867,12.112442016601562,-0.542702853679657,-0.9402318000793456,-0.1567111313343048,-0.2580964565277099,-154.44142150878906,73.12211608886719,104.15674591064452,114.20039055091225,1.0525205132620843,25.630357695907183,0.9875262008861764,-111.59389877319336,36.43052291870117,193.86965942382807
3692.455,-3.592721939086914,-103.7339859008789,-48.660491943359375,-0.6436282992362976,-0.5267877578735352,0.6266708374023438,-42.402809143066406,34.53118133544922,-88.36864471435547,24.99316024780273,8.888215065002441,-2.2300448417663574,-1.0202819108963013,-0.1238306313753128,-0.2284144163131714,-154.03945922851562,72.9693603515625,104.13945770263672,114.63634222176265,1.0413832473560298,26.62013385034665,1.052844883422389,-111.63665008544922,38.43817901611328,192.5081024169922
3710.013,0.3451945781707763,-103.0503158569336,-48.66666793823242,-0.5968260765075684,-0.5656305551528931,0.5948165655136108,-41.97296524047852,32.37567901611328,-87.11949920654297,19.98498916625977,3.0029067993164062,-1.044637680053711,-0.9664066433906556,-0.094838798046112,-0.2249074280261993,-153.69239807128906,72.93526458740234,104.18352508544922,113.9646055831404,1.0148625705638157,20.23631658932744,0.9967545079836784,-111.71943283081056,40.55958557128906,191.3030242919922
3732.406,2.522070407867432,-104.80196380615234,-48.351524353027344,-0.5640228986740112,-0.5607903003692627,0.6327362656593323,-41.51287078857422,30.191455841064453,-85.85386657714844,16.363645553588867,6.006392002105713,-0.7639297246932983,-0.9254449605941772,-0.146661564707756,-0.2308569252490997,-153.43994140625,72.82691192626953,104.19904327392578,115.44558182983748,1.0163477618893049,17.447900427006058,0.9650144608176366,-111.92707061767578,42.63545608520508,190.05290985107425
3754.801,2.213912010192871,-105.6936492919922,-47.885032653808594,-0.5183125138282776,-0.555874228477478,0.6787521243095398,-41.07490539550781,27.985502243041992,-84.60066986083984,13.67714786529541,2.725594043731689,-5.787277221679688,-0.984308660030365,-0.1179573163390159,-0.2531088292598724,-152.93089294433594,72.7399673461914,104.52099609375,116.05612977910228,1.0189938498985815,15.099199126475318,1.02315274819451,-111.85598754882812,44.75446510314941,189.12166595458984
3771.144,7.949325561523437,-103.12349700927734,-48.75685119628906,-0.4644699394702911,-0.5924209356307983,0.6718544960021973,-40.6141242980957,25.792179107666016,-83.45124053955078,7.124553680419922,7.399872779846191,-2.8519442081451416,-1.0516164302825928,-0.1011045351624488,-0.2108839899301529,-152.85325622558594,72.630126953125,104.52779388427734,114.34543257551915,1.0090011662250806,10.660720804404656,1.0773074309033512,-112.23913192749023,46.83794784545898,187.97903442382807
3792.361,10.594027519226074,-101.74119567871094,-46.57402420043945,-0.4204616844654083,-0.5838444828987122,0.6875998973846436,-40.12422943115234,23.640825271606445,-82.31100463867188,1.8437020778656008,-3.657126903533936,-4.692529201507568,-0.9929137229919434,-0.1469707489013672,-0.201753944158554,-152.3720703125,72.6859359741211,105.0149917602539,112.39503568857027,0.9952165730121888,6.22845445094358,1.0238079489444705,-112.24784088134766,49.04511070251465,187.32599639892572
3815.508,8.47382640838623,-100.93351745605467,-46.62202835083008,-0.3893653154373169,-0.5613632202148438,0.701789379119873,-39.70308303833008,21.50238990783692,-81.22037506103516,-4.373061180114746,-9.814552307128906,-11.406951904296877,-0.989867627620697,-0.1321057677268982,-0.2150317281484604,-151.48837280273438,72.78229522705078,106.0303955078125,111.50333720385576,0.9794091823752916,15.67059835556186,1.0215324264009702,-111.7852897644043,51.27990531921387,187.25077056884768
3837.196,9.915772438049316,-101.17046356201172,-44.873802185058594,-0.3589428663253784,-0.575713574886322,0.71406090259552,-39.27915954589844,19.37904167175293,-80.12110900878906,-11.365126609802246,-14.624786376953123,-11.961241722106934,-0.982235848903656,-0.1220973879098892,-0.2194905579090118,-150.5794219970703,72.95108032226562,107.23063659667967,111.1190504051366,0.9849716108649,22.048169605729644,1.0138397999768567,-111.30026245117188,53.572038650512695,187.35174560546875
3859.596,8.21484661102295,-100.0657196044922,-46.2512092590332,-0.3312658369541168,-0.5759962201118469,0.7053796052932739,-38.93698501586914,17.258800506591797,-79.09507751464844,-13.42823600769043,-15.906787872314451,-16.192989349365234,-0.9891713857650756,-0.1109290570020675,-0.2051706314086914,-149.42430114746094,73.10265350341797,108.80068969726562,110.54323273149906,0.9690557712947908,26.37340188071497,1.0162973354763896,-110.4873161315918,55.84385299682617,187.8957672119141
3870.057,11.963980674743652,-97.61612701416016,-46.69235229492188,-0.2970568239688873,-0.5817462205886841,0.7339889407157898,-38.552059173583984,15.165119171142578,-78.13018035888672,-18.16118431091309,-17.18572235107422,-20.53734016418457,-0.9783087968826294,-0.1112315207719802,-0.2192901223897934,-148.07969665527344,73.21147918701172,110.6676025390625,108.86790550783726,0.982553401565934,32.35676141585552,1.0087361949731537,-109.52763748168944,58.04636001586914,188.7977828979492
3892.238,18.840087890625,-97.07386016845705,-45.85481262207031,-0.2913758456707001,-0.60309898853302,0.7485201358795166,-38.060665130615234,13.099909782409668,-77.18177032470703,-21.48538017272949,-15.766257286071776,-23.66887664794922,-0.9493910670280457,-0.1498378217220306,-0.2372585535049438,-146.6322021484375,73.22501373291016,112.70713806152344,108.99975724898108,1.0044454525891178,35.642841521870345,0.989993127340949,-108.57153701782228,60.12510395050049,189.88890838623047
3914.672,17.29555892944336,-99.1344223022461,-44.76319885253906,-0.2801786661148071,-0.587153434753418,0.761829674243927,-37.60561752319336,11.026009559631348,-76.22235870361328,-21.88126945495605,-14.146146774291992,-31.24788284301757,-0.9840861558914183,-0.1722202897071838,-0.2374209910631179,-144.8257598876953,73.1092300415039,115.12512969970705,110.13861273592414,1.0018151992494508,40.68579117691036,1.0268661633345255,-107.22014236450195,62.08322048187256,191.3474884033203
3937.021,16.90872573852539,-100.8574447631836,-45.11982727050781,-0.2278382331132888,-0.5755038857460022,0.8006205558776855,-37.16332626342773,8.905423164367676,-75.26268005371094,-25.26874732971192,-15.062541007995604,-29.97624588012696,-0.9763679504394532,-0.1669825911521911,-0.2309469282627105,-143.1679229736328,73.00688171386719,117.45777130126952,111.7762406917488,1.0119823404935615,41.99958393003674,1.0171106351165635,-106.00459671020508,64.10145854949951,192.72045135498047
3959.474,22.372806549072266,-100.63291931152344,-44.87780380249024,-0.1796897053718567,-0.6097866892814636,0.7919759750366211,-36.65645599365234,6.78035306930542,-74.33686065673828,-24.700984954833984,-17.040294647216797,-30.36216354370117,-0.9740029573440552,-0.1730708479881286,-0.2344264984130859,-141.43414306640625,72.90878295898438,119.8570556640625,112.43462187501056,1.0155560751020496,42.68924073413999,1.0166568066444623,-104.7776870727539,66.12842988967896,194.1939163208008
3969.679,27.43914604187012,-100.50910949707033,-44.97369766235352,-0.1646860092878341,-0.5994957089424133,0.7937417030334473,-36.068824768066406,4.664539813995361,-73.44242858886719,-22.648088455200195,-13.877171516418455,-34.49237823486328,-0.9472166299819946,-0.1912013590335846,-0.2293626368045807,-139.60069274902344,72.6805648803711,122.31297302246094,113.47960745801832,1.0082373122583574,43.53430780737806,0.9931689297257976,-103.53186798095705,68.01602506637573,195.75540161132807
3997.221,21.74540328979492,-102.15035247802734,-44.51358795166016,-0.1274030655622482,-0.5716680288314819,0.7989882230758667,-35.603004455566406,2.5242810249328613,-72.54437255859375,-19.91104507446289,-11.988936424255373,-40.17048645019531,-1.0246024131774902,-0.1993962824344635,-0.2216427624225616,-137.58663940429688,72.34058380126953,124.89702606201172,113.52980484415198,0.9906654616552762,46.409614243036486,1.0670962921274372,-101.98363494873048,69.81630277633667,197.44139862060547
4017.216,14.287416458129885,-101.9957275390625,-47.098876953125,-0.0669987648725509,-0.5674115419387817,0.826496958732605,-35.29826736450195,0.3398670852184295,-71.71623229980469,-23.46384620666504,-7.556640148162842,-41.15882873535156,-0.9765889644622804,-0.1919982731342315,-0.2241531014442443,-135.90773010253906,71.89582824707031,127.2048110961914,113.25000183450912,1.0047596305654594,47.97607812238154,1.0202127010006834,-100.60946273803712,71.55596116185188,198.9210433959961
4039.468,20.960119247436523,-100.35037994384766,-46.84605026245117,-0.0300852470099926,-0.6116973757743835,0.7915908694267273,-34.910987854003906,-1.81662917137146,-70.91151428222656,-22.737823486328125,-4.225534915924072,-38.42755126953125,-0.9364952445030212,-0.2159383594989776,-0.2216782569885254,-134.55067443847656,71.41415405273438,129.16554260253906,112.71236746219752,1.000847094303961,44.85020020906887,0.9863031824451112,-99.63968658447266,73.23078322410583,200.0770568847656
4049.931,27.338193893432617,-100.16853332519533,-46.69356155395508,-0.0002347873523831,-0.6011773943901062,0.7685438394546509,-34.41770553588867,-3.967287063598633,-70.14136505126953,-21.38937759399414,-1.3550820350646973,-41.341339111328125,-0.9567062258720398,-0.2458644807338714,-0.211084634065628,-133.2169647216797,70.83671569824219,131.08465576171875,113.8481471279558,0.9757427672365676,46.56659790770679,1.0100954748178406,-98.79925918579102,74.80400276184082,201.22602081298828
4079.655,24.213796615600582,-100.90313720703124,-47.05651092529297,0.067817784845829,-0.5417253375053406,0.7977814078330994,-33.96580505371094,-6.155585289001465,-69.3980484008789,-23.009614944458008,-3.080577850341797,-39.0503044128418,-0.9321582913398744,-0.2475682944059372,-0.2120380401611328,-132.03684997558594,70.30318450927734,132.87567138671875,113.9388707387644,0.9667061435207868,45.429710702577154,0.98750659288134,-98.071044921875,76.45876979827881,202.27371978759768
4090.239000000001,22.91041374206543,-98.45567321777344,-47.62943649291992,0.1384690403938293,-0.536922037601471,0.8071656227111816,-33.5455436706543,-8.332327842712402,-68.70523834228516,-19.682008743286133,-3.279160261154175,-29.624473571777344,-0.9695692658424376,-0.2675766348838806,-0.2260374873876571,-131.1979522705078,69.90312194824219,134.2152862548828,111.7451111558385,0.9792728384349444,35.71755583174832,1.0308999769650549,-97.65240859985352,78.23544979095459,202.920524597168
4110.364,31.637359619140625,-96.57379150390624,-46.39137649536133,0.1394684612751007,-0.5711230635643005,0.8217401504516602,-32.976470947265625,-10.441238403320312,-68.03871154785156,-17.69382667541504,-0.572424054145813,-30.69683265686035,-0.9226535558700562,-0.274283617734909,-0.2171675413846969,-130.4287872314453,69.4397201538086,135.43186950683594,111.71203848397516,1.0103909541805258,35.435782859712326,0.9867536815986464,-97.45231628417967,79.8809585571289,203.4705810546875
4132.084,31.04735565185547,-98.05315399169922,-46.14872360229492,0.1355040818452835,-0.5235490202903748,0.7508265972137451,-32.436397552490234,-12.56075668334961,-67.36981964111328,-15.13194179534912,0.6686722040176392,-32.29240036010742,-0.9631031155586244,-0.252001017332077,-0.2076880484819412,-129.66384887695312,68.95648956298828,136.6021728515625,112.7300491919244,0.9253137370250784,35.66821983267072,1.0169594138496223,-97.22745132446288,81.51724624633789,203.97199249267572
4152.353,20.937122344970703,-98.71540069580078,-49.183353424072266,0.2103873938322067,-0.4794631600379944,0.800449013710022,-32.05918502807617,-14.746411323547363,-66.78692626953125,-18.236671447753903,1.4308693408966064,-36.3795051574707,-0.9884423017501832,-0.2931610941886902,-0.2377255260944366,-128.9070281982422,68.37709045410156,137.85081481933594,112.2590561186846,0.956486487550386,40.71967544156606,1.0580524735531724,-96.84784317016602,83.12350177764893,204.6377410888672
4170.225,22.200822830200195,-97.98587799072266,-47.6257209777832,0.2471136748790741,-0.5073420405387878,0.8026033639907837,-31.684722900390625,-16.90186309814453,-66.19377899169922,-21.417165756225582,6.0749053955078125,-42.08760452270508,-0.8984203934669495,-0.2681951820850372,-0.2235665023326873,-128.29067993164062,67.64859771728516,139.01663208007812,111.18596187740782,0.9811387640388204,47.61266553191111,0.9638826899868086,-96.60595703125,84.55046081542969,205.2104110717773
4192.7300000000005,39.28562927246094,-99.51665496826172,-44.98220443725586,0.2621364295482635,-0.5235052108764648,0.8105139136314392,-31.002456665039062,-19.042888641357425,-65.5560302734375,-21.89857482910156,4.479379177093506,-27.86836051940918,-0.8690605759620667,-0.3032435178756714,-0.2449698001146316,-128.08428955078125,67.13824462890625,139.75759887695312,116.06172495461357,0.9998529980458506,35.72475241898401,0.9524878575569004,-97.0818328857422,86.18113327026367,205.31362915039065
4214.397,48.08792495727539,-100.86993408203124,-42.25166320800781,0.2924203872680664,-0.4733950495719909,0.7969115972518921,-30.15261650085449,-21.18533515930176,-64.908203125,-23.033100128173828,-5.875052452087402,-7.755690097808838,-0.9435411095619202,-0.3354674279689789,-0.2384395897388458,-128.07540893554688,67.08177947998047,140.297607421875,119.46713009130504,0.9719468348031364,25.00381314364889,1.0293986878835093,-97.92279243469238,88.26711463928223,205.205810546875
4237.822,39.711612701416016,-103.20779418945312,-43.65008544921875,0.3695015013217926,-0.4094141125679016,0.7648930549621582,-29.454496383666992,-23.41899299621582,-64.29676055908203,-26.79874038696289,-8.52489948272705,-11.206171989440918,-1.0022658109664917,-0.3241997361183166,-0.2209115028381347,-127.93234252929688,67.0272216796875,141.0689697265625,118.88730346224476,0.9429807318170208,30.27250713395516,1.0763104184284888,-98.47784614562988,90.44621467590332,205.36573028564453
4250.18,33.21746826171875,-101.73849487304688,-44.96502685546875,0.4065053761005401,-0.3972653746604919,0.7543169856071472,-28.87233161926269,-25.645055770874023,-63.7716064453125,-30.72800064086914,-7.030261993408203,-30.614505767822266,-0.8763139843940735,-0.253783643245697,-0.2016755789518356,-127.42656707763672,66.65522003173828,142.3324432373047,116.08606797055496,0.94448955180999,43.94180891234721,0.934347567005573,-98.55423545837402,92.3002758026123,206.1040496826172
4273.011,41.96083831787109,-101.63014221191406,-42.73018264770508,0.4204101860523224,-0.412821888923645,0.7655795812606812,-28.14344787597656,-27.830900192260746,-63.22808837890625,-36.394161224365234,-18.07486724853516,-15.788296699523926,-0.8831943273544312,-0.2924453318119049,-0.2386728674173355,-127.06757354736328,66.62506866455078,143.5579071044922,117.9629868537527,0.966063523664109,43.59479452812522,0.9604796872453026,-98.92412567138672,94.45596885681152,206.78599548339844
4295.051,46.90010833740234,-101.76374816894533,-40.96089553833008,0.4654123187065124,-0.4076420068740845,0.7313991785049438,-27.34317207336425,-30.01681900024414,-62.6844482421875,-32.50634002685547,-24.12553977966309,-13.858142852783203,-0.9701972007751464,-0.3652430772781372,-0.2234873324632644,-126.3860855102539,66.68760681152344,145.0494384765625,119.30329235505025,0.9579798486867092,42.787287071393045,1.0604865400669068,-99.04291343688963,96.70442581176758,207.73388671875
4317.06,40.426605224609375,-103.12782287597656,-42.37491226196289,0.5220034122467041,-0.3563951551914215,0.6910153031349182,-26.64731407165528,-32.26850509643555,-62.23038101196289,-26.15707015991211,-22.56962013244629,-25.085128784179688,-0.9532230496406556,-0.3375386893749237,-0.1979437172412872,-125.33202362060548,66.55736541748047,146.80361938476562,118.59718146032924,0.9364866353599302,42.69477436867854,1.0304116965497196,-98.6847095489502,98.82587051391602,209.0340003967285
4339.325,43.42674255371094,-97.46125030517578,-44.925052642822266,0.556052565574646,-0.327990174293518,0.7025983929634094,-25.80426406860352,-34.43797302246094,-61.92351531982422,-30.653308868408203,-37.440372467041016,-20.93783950805664,-0.9176074862480164,-0.2566280961036682,-0.1866840124130249,-123.9839096069336,66.68177032470703,148.96827697753906,115.77062509477422,0.9541574880018516,52.72380826835191,0.9709337768451686,-98.17964553833008,101.11974334716795,210.89179229736328
4350.445,48.5239486694336,-94.12487030029295,-46.612586975097656,0.5631906986236572,-0.3251457214355469,0.7172400951385498,-24.797901153564453,-36.5400390625,-61.75554275512695,-30.992263793945312,-47.86503982543945,-15.771295547485352,-0.9094858765602112,-0.3100554943084717,-0.2017531394958496,-122.33067321777344,66.95294952392578,151.4543914794922,115.70133131486364,0.9681615863369096,59.163470282012106,0.9818366964571034,-97.53277206420898,103.49298858642578,213.2099342346192
4371.926,47.73875045776367,-93.03036499023438,-46.23870849609375,0.5853174924850464,-0.3310473561286926,0.6487329006195068,-23.812061309814453,-38.63025665283203,-61.622406005859375,-27.556583404541016,-55.88992691040039,-13.60928440093994,-0.9286000728607178,-0.4023023843765259,-0.2399273961782455,-120.28182220458984,67.26344299316406,154.28506469726562,114.3313398367726,0.9343678586910932,63.78292750326681,1.0400531040426932,-96.4697608947754,105.8936996459961,215.907470703125
4394.408,42.28413772583008,-89.80115509033203,-43.22431182861328,0.5983907580375671,-0.3546943366527557,0.5895015597343445,-22.94678497314453,-40.62677764892578,-61.49280548095703,-15.374519348144531,-46.02763366699219,-15.172842025756836,-0.9351775646209716,-0.3654724359512329,-0.2010051906108856,-118.30736541748048,67.43659210205078,156.74742126464844,108.26142845830196,0.911806811055685,50.84421344959401,1.023977668439629,-95.36058044433594,108.06336975097656,218.24022674560547
4417.875,48.78597259521485,-83.09148406982422,-43.02850341796875,0.578732430934906,-0.2918188273906708,0.7198522090911865,-21.82616806030273,-42.44688034057617,-61.53983688354492,-8.585821151733398,-36.25896835327149,-17.120588302612305,-0.9215192198753356,-0.3044480681419372,-0.2127957791090011,-116.6242446899414,67.47517395019531,158.75973510742188,105.52591128901496,0.9686468177663896,41.00662939965489,0.9935634566556945,-94.79807662963869,109.92205429077148,220.2995719909668
4436.809,53.51256561279297,-83.73779296875,-42.82465362548828,0.5846984386444092,-0.2641668021678924,0.6953373551368713,-20.570201873779297,-44.26777267456055,-61.63606643676758,-9.438309669494627,-31.11066246032715,-8.598898887634277,-0.8680763244628906,-0.2999872267246246,-0.2275430113077163,-115.39729309082033,67.58822631835938,160.30612182617188,108.21073702680228,0.9461238824644264,33.62879822737415,0.9462159707413084,-94.82709121704102,111.85599899291992,221.94218826293945
4459.268,51.41273498535156,-82.02983856201172,-41.50384521484375,0.6302641034126282,-0.2820586860179901,0.6002101898193359,-19.375274658203125,-46.079498291015625,-61.77265930175781,-6.285799503326416,-27.456605911254883,1.360607028007507,-0.8874695897102356,-0.3707420229911804,-0.2233779281377792,-114.41022491455078,67.80958557128906,161.51780700683594,105.33153801593048,0.9149001116907148,28.19978253544943,0.9873953711918918,-95.03495025634766,113.88908386230467,223.2904663085937
4469.505,46.325138092041016,-80.3535385131836,-38.87444305419922,0.6829656958580017,-0.2637210488319397,0.5637388229370117,-18.278057098388672,-47.86101913452149,-61.9161376953125,1.299978256225586,-17.92435646057129,4.83427619934082,-0.8850407600402832,-0.3687642216682434,-0.2056294530630111,-113.73396301269533,68.0114517211914,162.2226104736328,100.568046086272,0.9240088710625188,18.610285445521683,0.9805955690712967,-95.45590591430664,115.87247085571288,224.1387481689453
4494.263,51.43183135986328,-75.16959381103516,-36.46817779541016,0.7100339531898499,-0.222050279378891,0.6387989521026611,-16.993444442749023,-49.493282318115234,-62.15289306640625,0.3604747653007507,-14.04312801361084,7.115109920501709,-0.9347741603851318,-0.3400896787643432,-0.2075306475162506,-113.31136322021484,68.24490356445312,162.6632537841797,98.11029050238857,0.9805705698531378,15.746878282501012,1.016136157305839,-96.31791877746582,117.73818588256836,224.816146850586
4519.59,52.78360748291016,-73.36449432373047,-33.64112091064453,0.7090435028076172,-0.1943218261003494,0.6008779406547546,-15.674171447753906,-51.07307815551758,-62.41987228393555,4.135973930358887,-5.978789806365967,3.829445838928223,-0.918266773223877,-0.3396762609481811,-0.206375315785408,-113.11492156982422,68.34870910644531,162.78005981445312,96.4374577765881,0.94950406030631,8.216864568349573,1.0005921247062934,-97.44075012207033,119.42178726196288,225.19993209838867
4539.3,49.54996490478516,-71.47721862792969,-31.949302673339844,0.7595831155776978,-0.1800169497728347,0.4922842979431152,-14.416560173034668,-52.65688705444336,-62.69286346435547,4.599711418151856,-6.715254306793213,7.333513259887695,-0.8556292057037354,-0.3229320347309112,-0.1629718095064163,-112.8965301513672,68.52367401123047,162.880615234375,92.65500389165705,0.9228848474634218,10.955930004711147,0.9289490015078584,-98.47996997833252,121.18056106567384,225.57347869873047
4550.487,39.86287689208984,-67.5103988647461,-30.816659927368164,0.8061341047286987,-0.1700707674026489,0.4987362623214721,-13.293936729431152,-54.15144729614258,-63.11399841308594,4.295588493347168,-1.1306076049804688,22.611543655395508,-0.9355774521827698,-0.3984184265136719,-0.1516280770301818,-113.19792938232422,68.92081451416016,162.4208984375,84.23995155548275,0.9630753449684292,23.04370327313892,1.028121337859644,-99.90399265289308,123.07226181030272,225.534896850586
4573.093,37.56876754760742,-57.81548690795898,-31.446439743041992,0.7940981984138489,-0.1472949385643005,0.5338200330734253,-12.060285568237305,-55.42203521728516,-63.71402359008789,9.331353187561035,-12.047529220581056,4.496122360229492,-0.9417270421981812,-0.3140667378902435,-0.1819557249546051,-112.5973129272461,69.09932708740234,162.83885192871094,75.78206512073493,0.9681175421204258,15.888115964767987,1.0092549844811811,-100.5370273590088,124.5213623046875,226.55287551879883
4599.232,39.03721237182617,-54.53887939453125,-27.55570602416992,0.7796231508255005,-0.1343719065189361,0.4850066900253296,-10.839204788208008,-56.61443710327149,-64.27237701416016,15.16440486907959,-5.431502342224121,4.156553745269775,-0.9138401746749878,-0.3148218095302582,-0.1794180423021316,-112.18894958496094,69.21195983886719,162.93692016601562,72.5100699893798,0.9279545010041932,16.63542400314062,0.9830602578221987,-101.34974479675292,125.82639694213869,227.20929718017572
4609.492,29.78787612915039,-48.20641326904297,-30.742673873901367,0.8107876777648926,-0.1144773438572883,0.4221539497375488,-9.613794326782228,-57.71879196166992,-65.07365417480469,15.223886489868164,-6.559924602508545,7.381837844848633,-0.8522120118141174,-0.3202767670154571,-0.1779949367046356,-111.78777313232422,69.3749008178711,163.03102111816406,64.46927827631102,0.9212468062094,18.14637320829225,0.9276447154286096,-102.173978805542,127.09369277954102,228.10467529296875
4633.179,19.436908721923828,-39.35015869140625,-27.8071346282959,0.8353667259216309,-0.1053596138954162,0.4481392502784729,-8.579179763793945,-58.615360260009766,-65.87387084960938,13.016136169433594,-13.135910034179688,8.475587844848633,-0.9451568126678468,-0.3955811858177185,-0.1637593358755111,-111.05358123779295,69.59088134765625,163.50592041015625,51.956377336564046,0.9538170698081304,20.34225952353981,1.0376044502563508,-102.47440147399902,128.20624160766602,229.3797912597656
4654.044,20.22609519958496,-32.0665168762207,-21.0126895904541,0.8233695030212402,-0.0978288054466247,0.4822666943073272,-7.66762638092041,-59.31269836425781,-66.526611328125,12.781333923339844,-0.5342355966567993,4.309133529663086,-0.9220525026321412,-0.3444923758506775,-0.1994154751300811,-110.95807647705078,69.6488037109375,163.31744384765625,43.34615963866233,0.9592126865918084,13.49876054714357,1.0043019199179075,-103.29045009613036,128.9615020751953,229.84405517578125
4677.374000000001,16.844585418701172,-25.27167510986328,-16.43824005126953,0.7964564561843872,-0.0823001191020011,0.44447922706604,-6.915529727935791,-59.86516952514648,-67.06632995605469,13.338692665100098,6.964835643768311,0.761762261390686,-0.8937734961509705,-0.3189029693603515,-0.1743828803300857,-111.13823699951172,69.59735107421875,162.81837463378906,34.53423456180208,0.9157936336834956,15.066849017016787,0.9648520898256868,-104.22270727157591,129.46252059936523,229.8847045898437
4696.716,3.929543018341065,-21.41750144958496,-17.783044815063477,0.8232288360595703,-0.0592567697167396,0.4160971641540527,-6.32179069519043,-60.36063766479492,-67.74259185791016,10.384705543518066,5.88181734085083,1.5543193817138672,-0.8593303561210632,-0.3431180417537689,-0.1657987236976623,-111.2832260131836,69.55968475341797,162.4104766845703,28.11382861814668,0.9243126804790152,12.035522140608595,0.9400360994705832,-104.96143531799316,129.9203224182129,230.15306854248047
4709.269,-4.989655017852783,-16.264188766479492,-13.522302627563477,0.8251182436943054,-0.0603221990168094,0.4762515425682068,-6.018445491790772,-60.706581115722656,-68.3362808227539,17.120227813720703,5.304494857788086,5.871974945068359,-0.880615234375,-0.3265020847320556,-0.1669233739376068,-111.38356018066406,69.60982513427734,161.91404724121094,21.7318467181294,0.9546069429718156,18.86053964884109,0.9539131066897176,-105.36511468887328,130.31640625,230.25032806396484
4732.512,2.593130350112915,-13.813398361206056,-10.800491333007812,0.7979953289031982,-0.0537867285311222,0.5061914920806885,-5.634546756744385,-60.97049331665039,-68.83787536621094,21.25710678100586,14.72701358795166,6.603558540344238,-0.9067994356155396,-0.269478440284729,-0.1706860214471817,-111.92742919921876,69.63812255859375,160.86529541015625,17.72526198205329,0.9465301811206434,26.69000755553568,0.9612687262823124,-106.29288244247437,130.60861587524414,229.7031707763672
4754.328,7.025081157684326,-11.174474716186523,-7.277094841003418,0.8265199065208435,-0.0475909523665905,0.4578333795070648,-5.2748799324035645,-61.20523834228516,-69.22135162353516,19.188594818115234,20.31838607788086,12.230916976928713,-0.909740686416626,-0.2743161022663116,-0.1379496753215789,-112.84891510009766,69.72774505615234,159.45407104492188,15.072384011154366,0.9460504521500124,30.5062995789418,0.960160170703672,-107.57403516769408,130.9329833984375,228.67542266845703
4776.601000000001,2.408953905105591,-11.028614044189451,-12.897151947021484,0.9032217264175416,-0.0324471369385719,0.4163274765014648,-4.787144660949707,-61.48626708984375,-69.85021209716797,14.492048263549805,17.689044952392578,10.899843215942385,-0.913081705570221,-0.3324582576751709,-0.1314311772584915,-113.6545639038086,69.77784729003906,158.25558471679688,17.139717471334713,0.9950833490006112,25.332357891300752,0.9805716947265952,-108.86741924285889,131.2641143798828,228.10579681396484
4799.151,-4.723267078399658,-7.1424641609191895,-9.865259170532228,0.901293694972992,-0.0083869434893131,0.4975847899913788,-4.502647399902344,-61.64093017578125,-70.40866088867188,10.581822395324709,12.367045402526855,12.37668228149414,-0.9315945506095886,-0.3096713423728943,-0.1447482109069824,-114.34185791015624,69.90457916259766,157.26930236816406,13.063207289394104,1.0295587834844235,20.447519201394755,0.992328973462573,-109.8392105102539,131.5455093383789,227.677963256836
4809.17,-0.0679211765527725,-8.813493728637695,-6.135585308074951,0.9080212712287904,-0.0208927951753139,0.4519724249839782,-4.2853522300720215,-61.84441757202149,-70.7988052368164,3.759631395339966,9.652114868164062,11.651973724365234,-0.9573389291763306,-0.294638454914093,-0.1409927755594253,-115.02267456054688,70.04862976074219,156.4381103515625,10.739073147326332,1.0145039235212865,15.590594643257118,1.0115278578420852,-110.73732233047484,131.89304733276367,227.2369155883789
4834.118,3.6245312690734863,-6.126993179321289,-5.64510440826416,0.9531679153442384,-0.0357347130775451,0.4131688177585602,-4.024862766265869,-62.020729064941406,-71.15486907958984,-0.367415189743042,1.4292352199554443,10.167679786682127,-0.9754329323768616,-0.3200370669364929,-0.1080652624368667,-115.27798461914062,70.2303466796875,156.14764404296875,9.085399062239617,1.03947800194541,10.274211379960963,1.0322650971161358,-111.25312185287476,132.2510757446289,227.3025131225586
4854.377,-0.2981573045253753,-1.0227409601211548,-6.259666919708252,0.965971052646637,-0.0240860935300588,0.3982844650745392,-3.7944626808166495,-62.10467147827149,-71.57806396484375,0.3449992537498474,-7.925708770751953,9.055965423583984,-0.9620811343193054,-0.3442840576171875,-0.1194680333137512,-115.0218276977539,70.45292663574219,156.3866729736328,6.349671392713262,1.0451367037725268,12.039368494942376,1.0287877489192472,-111.22736501693726,132.55759811401367,227.96473693847656
4878.435,-9.18365478515625,4.219634056091309,-4.31000280380249,0.9105194807052612,-0.0277997907251119,0.4145242571830749,-3.805907011032105,-62.06010437011719,-71.92646789550781,3.9789538383483887,-13.03334617614746,6.548042297363281,-0.9278674125671388,-0.3262492418289184,-0.1409808695316314,-114.41287231445312,70.66668701171875,156.9235382080078,10.987308630826488,1.0008241168663543,15.118764636142188,0.9936056102256446,-110.60696530342102,132.72679138183594,228.8500061035156
4896.578,-14.66197681427002,10.56954860687256,-3.166953086853028,0.8726820349693298,-0.0238279551267623,0.4240268170833587,-3.947572469711304,-61.87431716918945,-72.25708770751953,8.260610580444336,-12.718619346618652,3.1655287742614746,-0.9549672603607178,-0.2732124924659729,-0.140305683016777,-113.68629455566406,70.84345245361328,157.49813842773438,18.34989138141044,0.9705361648128202,15.492628494435944,1.0031416744842816,-109.73872208595276,132.7177696228027,229.7552261352539
