Timestamp (ms),Wrist Gyroscope X (deg/s),Wrist Gyroscope Y (deg/s),Wrist Gyroscope Z (deg/s),Wrist Accelerometer X (g),Wrist Accelerometer Y (g),Wrist Accelerometer Z (g),Wrist Roll (deg),Wrist Pitch (deg),Wrist Yaw (deg),Arm Gyroscope X (deg/s),Arm Gyroscope Y (deg/s),Arm Gyroscope Z (deg/s),Arm Accelerometer X (g),Arm Accelerometer Y (g),Arm Accelerometer Z (g),Arm Roll (deg),Arm Pitch (deg),Arm Yaw (deg),Wrist Gyroscope Magnitude (deg/s),Wrist Accelerometer Magnitude (g),Arm Gyroscope Magnitude (deg/s),Arm Accelerometer Magnitude (g),Difference Roll (deg),Difference Pitch (deg),Difference Yaw (deg)
0.0,-2.072498,2.99345,4.825123,-0.890095,-0.332731,0.258987,-46.846954,64.959724,175.972427,-5.892108,2.692725,3.086062,-1.003001,-0.077695,-0.000328,-100.085258,86.461487,-127.796791,6.044650761428074,0.984912835511346,7.175756634469497,1.006005778616604,-53.238304,21.50176300000001,-303.769218
19.986,0.4948205000000001,3.7678915,5.0403035,-0.8940524999999999,-0.316807,0.2667255,-46.8142735,65.032299,175.985664,-5.489978000000001,2.258968,3.286376,-0.998655,-0.0660165,-0.0001835,-100.468441,86.497967,-128.1290475,6.312409449259827,0.9853116463106988,6.785503819089929,1.0008346621542945,-53.6541675,21.465668000000008,-304.1147115
39.973,0.9046833333333334,3.821027,4.74946,-0.8956643333333334,-0.309591,0.2853886666666667,-46.77710966666666,65.09137733333334,176.0116066666667,-3.977389666666667,2.378324333333333,3.7123526666666655,-0.9925416666666668,-0.0632626666666666,-0.0062609999999999,-100.98721833333332,86.538788,-128.62423466666667,6.162472682287534,0.989700902469136,5.9378125195007065,0.994575449719237,-54.21010866666666,21.447410666666677,-304.6358413333333
59.959,0.7855805,3.6654785,4.491202,-0.8966155,-0.3060724999999999,0.29077425,-46.746929,65.144083,176.0440025,-2.8130230000000003,2.642571,4.075422,-0.9920395,-0.06472525,-0.0061167499999999,-101.58195125,86.581091,-129.21047425,5.850108098210366,0.991034507249653,5.61296217399102,0.9941675624251552,-54.83502225,21.43700800000001,-305.25447675
79.945,0.3042046,3.5783756,4.343606599999999,-0.8966253999999999,-0.3070624,0.2909214,-46.733769,65.194043,176.0734588,-2.4319064,2.7032398,4.160939,-0.9950634,-0.0604928,-0.0037469999999999,-102.1724306,86.62478180000001,-129.792119,5.635976460995918,0.9913928012633942,5.525856269971741,0.996907512701354,-55.4386616,21.4307388,-305.86557780000004
99.932,0.6631492,3.6861314,4.2499482,-0.8971579999999999,-0.3030697999999999,0.2952515999999999,-46.70096959999999,65.3020586,176.1204376,-2.0892086,2.3684788,4.224008,-0.9958588,-0.0582685999999999,-0.0028399999999999,-103.1639956,86.705046,-130.7415102,5.664749885229695,0.9919260496320276,5.274156613566514,0.9975660604107378,-56.463026,21.4029874,-306.86194780000005
119.918,0.2719362,3.500173,3.9622054,-0.9005718,-0.303097,0.3011754,-46.6729514,65.4009752,176.163858,-1.728911,2.1116458,4.1351966,-0.9954154,-0.0600887999999999,-0.00722,-104.11565879999998,86.781697,-131.6580324,5.293791831814754,0.9967968599114868,4.9545970725408335,0.9972535338832348,-57.4427074,21.3807218,-307.82189040000003
139.904,-0.0570923999999999,3.1683812,3.8547048,-0.9084114,-0.3003053999999999,0.2999956,-46.6429556,65.4961182,176.2101012,-1.8011997999999998,2.2029612,4.0245546,-0.9980508,-0.0603517999999999,-0.0123712,-105.173099,86.8526656,-132.6786652,4.990054916110066,1.0026923580732428,4.9289348237328765,0.9999503916361652,-58.5301434,21.3565474,-308.8887664
159.891,-0.6459294,2.5447898,3.7815506,-0.91405,-0.2967232,0.2947813999999999,-46.6089454,65.585228,176.2644652,-1.8153838,2.2700976,3.93803,-1.000988,-0.056999,-0.0184938,-106.3543154,86.9200804,-133.8224578,4.603618669734578,1.005200544023032,4.894593112376984,1.0027800769777189,-59.74537,21.3348524,-310.086923
179.877,-1.5330591999999998,1.7251967999999998,3.7064032,-0.917406,-0.3020004,0.286317,-46.5823128,65.6629684,176.32301320000002,-1.6835434,2.5106692,3.8507794,-1.0027258,-0.058878,-0.0249634,-107.6974152,86.97935620000001,-135.1305754,4.3662339825535135,1.0073804817074627,4.895536763111535,1.004763066702394,-61.1151024,21.3163878,-311.4535886
199.864,-1.6409271999999997,1.0848358,3.5102734,-0.9228114,-0.3091301999999999,0.2866122,-46.5496406,65.72689199999999,176.3909118,-1.0170994,2.9936576,3.6946754,-1.0039506,-0.0591996,-0.030547,-109.2375978,87.0290618,-136.6490354,4.023870044050756,1.01453876895407,4.86282873715323,1.006158297232359,-62.68795720000001,21.3021698,-313.03994720000003
219.85,-1.0071754,0.4792126,3.5210598,-0.924092,-0.3060953999999999,0.290911,-46.477495600000005,65.7819198,176.4916962,-0.0654272,3.6569308,3.657230600000001,-1.00641,-0.0579702,-0.0328314,-111.0155412,87.0712264,-138.42429479999998,3.6934955147583377,1.0160067068116037,5.172306956867974,1.0086126774009931,-64.5380456,21.289306600000003,-314.915991
239.836,-1.445103,-0.0402266,3.4981172000000003,-0.9184712,-0.3000496,0.2845414,-46.3985962,65.8321564,176.614264,0.6354894,3.7394796,3.4909624,-1.0090286000000002,-0.0537118,-0.0265868,-112.7668626,87.10993799999999,-140.18710919999998,3.785071307768508,1.0072650673996195,5.1550337471778285,1.0108068712723717,-66.36826640000001,21.2777816,-316.8013732
259.823,-2.5501418,-0.3991171999999999,3.3157378,-0.9178436,-0.3052458,0.2851198,-46.3405486,65.87196959999999,176.739801,0.5338296,3.6072056,3.1122046000000005,-1.0101458,-0.05048,-0.0227562,-114.4253022,87.1414918,-141.85520000000002,4.201979878318305,1.0084171621063576,4.794030011876092,1.0116623015097874,-68.0847536,21.2695222,-318.595001
279.809,-2.5260204,-0.5225296,3.2143660000000005,-0.9165632,-0.303762,0.2906232,-46.2745848,65.906482,176.8727356,0.3756801999999999,3.485371600000001,2.726032,-1.0071038,-0.052425,-0.0249634,-116.007741,87.1613802,-143.444403,4.121403283597509,1.008375573195067,4.440743323789679,1.0087762962812914,-69.73315620000001,21.254898200000003,-320.3171386
299.795,-3.2760356,-0.8360251999999999,3.0400278,-0.9155554,-0.2982811999999999,0.2880722,-46.2168082,65.9364654,177.010321,0.6479885999999999,3.4466499999999995,2.4839708000000003,-1.004857,-0.0509882,-0.028254,-117.5601488,87.1741654,-145.0091522,4.546769887763756,1.0050865421223387,4.297603562857165,1.0065464100101096,-71.34334059999999,21.2377,-322.0194732
319.782,-4.809121,-1.0534028000000002,2.6526696,-0.9157178,-0.300082,0.2813104,-46.2033034,65.9593032,177.1299346,0.9708576,3.3424296,2.261559,-1.006141,-0.046427,-0.02611,-119.0309464,87.18417819999999,-146.4988738,5.592312424968137,1.0038544900078896,4.150788987760631,1.0075499542504085,-72.827643,21.224875000000004,-323.6288084
359.755,-6.2652188,-1.1076062,2.1886112,-0.9156168,-0.3132384,0.2784626,-46.24804,65.9722624,177.24647520000002,1.0362966,3.4188036000000004,1.8243056,-1.0095079999999998,-0.0436948,-0.0264002,-120.4573714,87.18402560000001,-147.94579760000002,6.728281882540097,1.006982541693529,4.011261599638683,1.0107980056228243,-74.2093314,21.211763200000007,-325.1922728
379.741,-5.370716,-0.4498942,1.8519912,-0.9139288,-0.3191632,0.2759638,-46.31427,65.987628,177.3209168,0.7188521999999999,3.3542180000000004,1.286863,-1.0125955999999998,-0.0448188,-0.0241848,-121.7309814,87.17303460000001,-149.2339996,5.698847826423082,1.0066215866024928,3.663815396241716,1.013875474860616,-75.41671139999998,21.185406600000004,-326.5549164
399.727,-4.4035788,0.2262465999999999,1.4223986,-0.9154598,-0.3086616,0.2811142,-46.3803346,66.0084196,177.37769480000003,0.3860349999999999,2.8110656,0.8290409999999999,-1.0163292,-0.039784,-0.0186836,-122.7146194,87.16327820000001,-150.22571399999998,4.633131937372705,1.006162920292852,2.956082172134151,1.0172791585094034,-76.33428479999999,21.154858600000004,-327.6034088
419.714,-4.9491194,0.6428478,1.0023856,-0.9138578,-0.3030522,0.2830566,-46.4756806,66.0297148,177.421277,-0.1795016,2.1920576,0.5131832000000001,-1.0161126,-0.0379217999999999,-0.017244,-123.4378646,87.1557344,-150.94575500000002,5.090364723721529,1.0035426016613544,2.2584716829932936,1.0169661913406955,-76.96218400000001,21.1260196,-328.367032
439.7,-5.8565914,0.8450187999999998,0.6445018000000001,-0.9115286,-0.3091027999999999,0.281863,-46.6126946,66.0460492,177.4462954,-1.166889,1.596931,-0.0319247999999999,-1.0136908,-0.0411773999999999,-0.0189786,-123.8770828,87.1390382,-151.357541,5.9522350566077815,1.0029335373566883,1.9780894190953653,1.0147042936409405,-77.26438819999998,21.092989,-328.8038364
459.686,-5.5708644000000005,1.0348039999999998,0.5708392000000001,-0.9094884,-0.3065162,0.2842212,-46.745343000000005,66.0616712,177.4384736,-1.9121028,0.8945732,-0.3121804,-1.0089359999999998,-0.0473418,-0.0224198,-124.06215360000002,87.12952279999999,-151.51228959999997,5.69484037299203,1.000951058307268,2.133976319004089,1.010294880495432,-77.31681059999998,21.067851599999997,-328.95076320000004
479.673,-6.143436,1.1118692,0.3882326,-0.9075166,-0.3014788,0.2793354,-46.8967614,66.07863139999999,177.42151500000003,-2.1658164,0.5322498,-0.7083172,-1.0031774,-0.0518519999999999,-0.0288657999999999,-124.0732726,87.107596,-151.4808778,6.255300436886097,0.9962450059188048,2.34003499630344,1.0049312216188728,-77.17651120000001,21.0289646,-328.90239280000003
499.659,-7.006092799999999,1.2762228,0.136196,-0.906149,-0.3047108,0.2773028,-47.0823662,66.09309520000001,177.38152459999998,-2.0352236,0.216016,-1.0997132,-1.0011124,-0.0541862,-0.0292412,-123.9019468,87.08121659999999,-151.26972059999997,7.122684206664484,0.9954152524074964,2.3233956048222177,1.0030041024251295,-76.8195806,20.9881214,-328.6512452
519.646,-7.202922200000001,1.470252,-0.1296021999999999,-0.9084644,-0.3067512,0.281373,-47.2824334,66.10446300000001,177.3224914,-1.6814236,-0.2459457999999999,-1.446122,-1.001732,-0.0508194,-0.0256968,-123.5120984,87.0571046,-150.8470338,7.352586340397622,0.999287060807754,2.231354632965948,1.003349359281502,-76.229665,20.9526416,-328.1695252
539.632,-6.6660618,1.5846307999999998,-0.295718,-0.9094692,-0.3026694,0.2759534,-47.480462,66.11845539999999,177.2488798,-1.3239152,-0.7398548,-1.6225802000000005,-1.0003566000000002,-0.0515342,-0.0280278,-122.95873079999998,87.03779,-150.272525,6.858198293229197,0.9974433670221884,2.2210139772874284,1.0020751760751487,-75.4782688,20.9193346,-327.5214048
559.618,-6.1312792,1.5525882000000002,-0.6296338,-0.911659,-0.3034646,0.2669983999999999,-47.685116,66.13031459999999,177.1579252,-1.0407344000000005,-0.9284048,-1.9114948000000005,-0.997868,-0.0528777999999999,-0.0321496,-122.314456,87.0048494,-149.6008056,6.356064306568517,0.9972467304216746,2.366194399121391,0.9997850788729546,-74.62934,20.8745348,-326.7587308
579.605,-6.241446999999999,1.0934094,-0.903477,-0.915971,-0.302994,0.2720824,-47.8771508,66.1311234,177.0818632,-0.2134076,-1.1539836,-1.9032718,-0.99625,-0.0506198,-0.0328996,-121.6388824,86.9807892,-148.92132859999998,6.400583993617016,1.002415617030561,2.235992955597571,0.998077557273081,-73.76173159999999,20.849665800000004,-326.0031918
599.591,-6.2929418,0.4395223999999998,-1.1075376,-0.9167632,-0.3010244,0.268303,-48.0547592,66.12238779999998,177.02331220000002,0.7297986,-0.5456535999999998,-1.7782792,-0.992585,-0.0489157999999999,-0.0410897999999999,-121.236354,86.95037520000001,-148.5336578,6.404758853673005,1.0015273107003122,1.9981543386103984,0.994638682828433,-73.1815948,20.827987400000005,-325.55697
619.578,-5.7227604,0.0803375999999999,-1.2090548,-0.9160144,-0.3023976,0.2613638,-48.218682,66.1090578,176.96931439999997,1.4553908,0.4071854,-1.7091946,-0.9923674,-0.0522228,-0.0445686,-121.12890480000002,86.9078184,-148.45584399999998,5.849637102862447,0.9994186937633096,2.281514521401729,0.9947394822407324,-72.9102228,20.7987606,-325.4251584
639.564,-5.1689034,0.0424273999999999,-1.3915716,-0.9129132,-0.3062132,0.2659846,-48.3727126,66.0887438,176.9129486,1.7530828,1.0828874000000002,-1.6170711999999998,-0.996491,-0.0498158,-0.0389464,-121.1994966,86.8630126,-148.56220399999998,5.353114416928604,0.998961882168504,2.619325044854884,0.9984952423940736,-72.826784,20.7742688,-325.4751526
659.55,-4.1312316,0.3781635999999999,-1.2798816,-0.9107916,-0.3014516,0.2683296,-48.5054914,66.07526879999999,176.8506134,1.7238904000000002,1.359607,-1.4868964,-0.9987058,-0.0479302,-0.0330838,-121.3346544,86.82106300000001,-148.7326172,4.34144896909109,0.9962003714159516,2.651639155313958,1.000402477430019,-72.82916300000001,20.7457942,-325.5832306
679.537,-3.1729362,0.7928474,-1.1617816,-0.906079,-0.3008722,0.267504,-48.6285514,66.0685258,176.7733978,1.6508476,1.377677,-1.4229632,-1.0003172,-0.0516494,-0.0283161999999999,-121.43132640000002,86.7802154,-148.86322639999997,3.4707157208644674,0.9914946419370304,2.5783940706007296,1.002049883148858,-72.802775,20.7116896,-325.6366242
699.523,-2.4932704,1.403223,-0.9149774,-0.9061786,-0.3042156,0.2670238,-48.7537018,66.072403,176.6756866,1.3547894,0.7723827999999999,-1.4347848,-1.0016984,-0.0520913999999999,-0.0221926,-121.3060778,86.74798439999999,-148.7658966,3.0037669213432525,0.9924759423521358,2.1191122977320576,1.003297418521188,-72.55237600000001,20.6755814,-325.4415832
719.51,-1.9294726,2.0573878,-0.6599077999999999,-0.9026388,-0.3033154,0.2655402,-48.8817796,66.08862459999999,176.5582732,0.747634,0.0983815999999999,-1.4697608,-1.0022312,-0.0519416,-0.020456,-120.9880968,86.7234238,-148.4634918,2.89675462858704,0.9885689823976068,1.6519177783386194,1.0037847159625417,-72.1063172,20.634799200000003,-325.0217650000001
739.496,-1.7713290000000002,2.8277692,-0.1159651999999999,-0.9017898,-0.3009992,0.2591668,-49.0204644,66.12570339999999,176.424124,0.3336012,-0.4234352,-1.5753748,-0.999566,-0.0573986,-0.0213768,-120.5052018,86.6994202,-147.98783859999998,3.3387621961320755,0.9853896650599294,1.6650504165686757,1.0014408395987255,-71.4847374,20.573716800000003,-324.41196260000004
759.483,-2.1341214,3.4894326,0.1348752,-0.8986236,-0.3078637999999999,0.2593824,-49.1869386,66.1710814,176.2706756,0.3263243999999999,-0.9603618,-1.844635,-1.0014084,-0.0612541999999999,-0.0171562,-119.7914628,86.6752718,-147.28122539999998,4.092530432318831,0.9846744250041024,2.105103485380137,1.003426726675466,-70.60452419999999,20.50419040000001,-323.551901
799.455,-2.4088975999999995,3.9001822,0.5084676,-0.9025192,-0.3069494,0.2608708,-49.39339,66.2459488,176.097531,0.0430611999999999,-1.5795982,-2.1386628,-0.9997342,-0.0581759999999999,-0.0133339999999999,-118.866147,86.654117,-146.357208,4.6122389509578055,0.9883382087229252,2.659109496145753,1.0015142101745935,-69.472757,20.40816820000001,-322.454739
819.442,-2.5365836,3.928769,0.58352,-0.9039994,-0.3088704,0.255189,-49.6076364,66.3229232,175.9196076,-0.3958872,-1.3187453999999998,-2.296889,-0.9989548,-0.0590082,-0.0189854,-117.8680788,86.6148972,-145.3525876,4.712746312454126,0.9888059794102784,2.677968480670749,1.000876168925727,-68.2604424,20.291974000000003,-321.27219520000006
779.469,-3.0141368,4.2839448,0.9162276,-0.9120694,-0.3041818,0.2620418,-49.7223176,66.3716522,175.8200838,-0.5780854,-0.8317164000000001,-2.1574078,-0.9952354,-0.0597287999999999,-0.0205158,-117.0551606,86.5728776,-144.529556,5.317581848318184,0.9965254953160204,2.3833470824080494,0.9972371478300636,-67.332843,20.20122540000001,-320.3496398
839.428,-2.7003444,3.6312096,0.6232784,-0.9175744,-0.3061756,0.2615654,-49.8819474,66.4275818,175.6870606,-0.4002978,-0.993243,-2.4687714,-0.9922154,-0.0574916,-0.0251582,-116.3105164,86.5530746,-143.78460979999997,4.567933778159451,1.0020492682737112,2.69102252149472,0.9941979778167728,-66.42856900000001,20.12549280000001,-319.47167040000005
859.414,-2.4515524,2.6720467999999995,0.3088218,-0.9273636,-0.3040826,0.2666844,-50.0037972,66.467131,175.5903198,-0.3474411999999999,-0.2113768,-2.0831908,-0.9892832,-0.0564032,-0.0335836,-116.0153106,86.5144606,-143.4827452,3.639411240227083,1.011726269022941,2.122517243331681,0.9914587379016032,-66.0115134,20.047329600000005,-319.07306500000004
879.401,-2.1570792000000005,1.4524358,-0.1189316,-0.931626,-0.3047876,0.2698346,-50.0510262,66.4654296,175.5537964,0.1030574,1.1825898,-1.416085,-0.989778,-0.0575302,-0.0479516,-116.2974242,86.4708188,-143.7672516,2.6032105473189917,1.0166775282000289,1.847819306637908,0.9926074597435786,-66.24639800000001,20.005389200000003,-319.321048
899.387,-2.0507668000000003,-0.1227316000000001,-0.5338852000000001,-0.9359798,-0.3085706,0.2795614,-50.045716,66.4335572,175.5723754,1.1329614,1.8222274,-0.8969707999999998,-0.9910496,-0.0587066,-0.0492032,-116.984677,86.44034260000001,-144.4767152,2.1226730601766826,1.0244162130512968,2.3256549286713537,0.9940053970849252,-66.938961,20.0067854,-320.0490906
939.36,-0.0465792,-3.3234616000000003,-1.4987598000000002,-0.9366002,-0.3140043999999999,0.2775554,-49.9825554,66.3533356,175.638098,2.249085,2.3106204,-0.6950024,-0.9934522,-0.0548252,-0.0567485999999999,-117.8586822,86.4084152,-145.3951844,3.646072896507041,1.026087568352994,3.2985418454412425,0.9965808947806696,-67.8761268,20.0550796,-321.0332824
919.374,0.6999213999999999,-5.0884352,-1.9646246,-0.9368994,-0.3197998,0.2799374,-49.9172844,66.2890442,175.707611,3.3675558000000003,3.5132936,-0.2042873999999999,-0.995151,-0.0558325999999999,-0.0614514,-119.0090942,86.3451126,-146.6062928,5.499255637784278,1.0287941221251025,4.8708723374477145,0.9986085652475248,-69.09180980000001,20.056068399999997,-322.3139038
959.346,0.3333374,-8.1935274,-2.7982232,-0.9394596,-0.3191852,0.2939442,-49.6864136,66.13047180000001,175.94852600000002,4.3982168,4.5960248,-0.0483966,-0.9954046,-0.0529354,-0.0637727999999999,-120.3267854,86.28990639999999,-148.0131136,8.66458643870599,1.0348269056440502,6.361611212020807,0.9988490598154256,-70.6403718,20.1594346,-323.9616396
979.333,0.1963603999999999,-11.3268964,-3.7424272,-0.9388298,-0.3293548,0.305836,-49.3830826,65.9103088,176.27925100000002,4.5696402,5.250970799999999,-0.316903,-0.9999272,-0.0466734,-0.0598929999999999,-121.705916,86.2254732,-149.485254,11.930754410778931,1.0408706147005402,6.9681226604672855,1.002806054537167,-72.3228334,20.3151644,-325.764505
999.319,1.766247,-14.3675654,-4.63804,-0.936909,-0.340374,0.3171728,-48.981125,65.6303024,176.690744,3.1877165999999995,5.7671658,-0.8258835999999998,-1.0063434,-0.0481973999999999,-0.0574476,-123.0785584,86.14521640000001,-150.9238098,15.200591403951565,1.046064777734553,6.641070862997485,1.0091334177580684,-74.09743339999999,20.514914,-327.61455379999995
1019.305,1.6947463999999997,-17.4214766,-5.5601688000000005,-0.9385622,-0.3489658,0.3390468,-48.551307,65.3175934,177.1551056,1.7250784000000003,5.7326554000000005,-1.2321696,-1.0118434,-0.0538734,-0.0498044,-124.284636,86.05742180000001,-152.16702279999998,18.365606153055605,1.057179675092517,6.112076189353328,1.0144998213949967,-75.733329,20.7398284,-329.3221284
1039.292,0.9414862,-22.9265126,-7.292638999999999,-0.9477874,-0.3474336,0.3751418,-47.8767602,64.8303726,177.8684266,0.9565971999999998,5.6221512,-1.2158344,-1.0119448,-0.0493561999999999,-0.0501357999999999,-125.45900279999998,85.9729324,-153.363092,24.07683450636878,1.0769133818998442,5.831116154470998,1.0143874561365198,-77.5822426,21.1425598,-331.2315186
1059.278,2.0404148,-28.3583648,-9.1744434,-0.953752,-0.3703922,0.3740988,-47.197416,64.276107,106.59124160000002,0.0833043999999999,4.6534074,-1.2191752,-1.0066338,-0.0609166,-0.0674768,-126.43554079999998,85.886888,-154.34346599999998,29.875249930096675,1.0893957827558725,4.811187818172261,1.010730210291668,-79.23812480000001,21.610781,-260.9347076
1079.265,5.614412799999999,-34.7521754,-11.1118202,-0.9600338,-0.3843318,0.3798308,-46.3594392,63.602842,35.4184848,-0.0130792,5.267902,-0.876863,-1.0004605999999998,-0.0702182,-0.0849968,-127.5802582,85.7858702,-155.4906034,36.9148733477212,1.1016566008799291,5.340398043951934,1.0065169962667493,-81.220819,22.183028200000003,-190.9090882
1099.252,7.4841932,-42.207366,-12.9756702,-0.9624242,-0.3788358,0.3952259999999999,-45.3628068,62.797278600000006,-35.61643339999999,0.1835753999999999,6.4922744,-0.510589,-0.9943066,-0.0642538,-0.0977338,-129.02899639999998,85.67070000000001,-156.9463042,44.78663762387226,1.107240035034536,6.5149081297667975,1.0011623551055244,-83.66618960000001,22.8734214,-121.3298708
1119.237,7.7695666,-49.799868,-15.6933952,-0.9665408,-0.4035392,0.4251927999999999,-44.296524000000005,61.83173059999999,-106.567999,-0.4863151999999999,8.0442792,-0.3983274,-0.9892218,-0.0726186,-0.1178934,-130.775464,85.5236816,-158.68733500000002,52.788973004526646,1.1304131639242,8.068803817102907,0.9988653985521572,-86.47894,23.691951,-52.11933600000001
1139.224,12.389755,-58.0543228,-17.3454288,-0.9670848,-0.4208019999999999,0.4470829999999999,-43.0625854,60.712012400000006,-177.4122282,-0.7725975999999999,9.9967464,-0.6853795999999999,-0.9874822,-0.07814,-0.1302794,-132.7505434,85.3359924,-160.6525482,61.84395140175387,1.1455175871561465,10.049954767735768,0.9990994329801212,-89.687958,24.62398,16.759679999999992
1159.21,17.5081196,-66.9813316,-19.8961838,-0.9674186,-0.4187878,0.4937538,-41.6571968,59.4117942,-176.1629332,-0.4380205999999999,11.9038592,-1.8877118,-0.9922326,-0.0765298,-0.1274723999999999,-134.715439,85.10531619999999,-162.6152924,72.03395841296273,1.1640767947473398,12.060563077207808,1.0033102987374145,-93.0582422,25.693522,13.547640799999987
1179.197,21.6517102,-76.40106060000001,-22.8389728,-0.9660132,-0.4157016,0.5315087999999999,-40.1388838,57.9181998,-174.8709746,-0.8720356,12.134999399999998,-2.8530192,-0.9923676,-0.075976,-0.1182914,-136.3700868,84.8590806,-164.2592958,82.6289131838777,1.1783424490759211,12.496334465803814,1.00227673893976,-96.231203,26.9408808,10.611678799999993
1199.183,26.1701488,-86.0380724,-26.473201,-0.9651414,-0.4434704,0.5606715999999999,-38.5697768,56.2119872,-173.59894400000002,0.48209,12.2420194,-2.9031324,-0.9913988,-0.0791024,-0.1232372,-137.83714,84.6044754,-165.7430512,93.74570369733316,1.201048109243206,12.590775492002315,1.0021557652336488,-99.2673632,28.392488200000003,7.855892799999998
1219.169,33.6238186,-95.8911668,-29.2771408,-0.9586834,-0.434886,0.5885003999999999,-36.8704688,54.3080734,-172.3346832,4.0006298000000005,12.3068322,-3.0179452,-0.9922806,-0.0755488,-0.1204292,-139.0908632,84.3496338,-167.0838014,105.7488913461231,1.2060399724850417,13.288007782425773,1.0024128902455514,-102.2203944,30.0415604,5.250881800000002
1239.156,38.6237768,-105.5902392,-32.6478682,-0.9512816,-0.4231474,0.631418,-35.132773199999995,52.1935608,-171.13125300000002,6.929837399999999,12.151973,-2.9939696,-0.9905474,-0.0796275999999999,-0.1148382,-140.1095002,84.0984818,-168.2481568,117.0768040502217,1.217653109612635,14.305836156928818,1.0003561958161502,-104.97672699999998,31.904921,2.883096200000005
1259.142,43.111094,-115.252132,-35.2272658,-0.9502652,-0.4248298,0.6679628,-33.379141999999995,49.8800424,-169.99384460000002,8.8541552,12.6539096,-1.9693628,-0.9871398,-0.0755965999999999,-0.1089516,-141.19265460000005,83.8574082,-169.5164826,127.99445539618546,1.2367936818576168,15.56906812589254,0.9960071695616254,-107.8135126,33.97736580000001,0.477362000000005
1279.129,47.3822716,-124.4057116,-37.5488738,-0.946972,-0.4209262,0.6904404000000001,-31.6283346,47.3835244,-168.9316528,11.9963356,13.844998,-0.7388558,-0.981735,-0.0593434,-0.111971,-142.4855744,83.61629479999999,-171.05863340000002,138.31767300069382,1.2452480799353196,18.33417424759089,0.9898801716316776,-110.8572398,36.23277040000001,-2.126980599999996
1299.115,50.89116739999999,-132.9417086,-39.6804108,-0.9340522,-0.3967154,0.7232234,-29.8868776,44.7163262,-167.9468994,13.5136464,16.6357462,0.6130504,-0.9865984,-0.0503693999999999,-0.1053484,-144.0661438,83.34759060000002,-172.92207939999997,147.77666867973068,1.2461495525134854,21.441607249644036,0.993484657516904,-114.1792662,38.631264400000006,-4.97518
1319.101,53.5040954,-140.848929,-42.1300744,-0.904789,-0.3862252,0.7576388000000001,-28.1942656,41.8793686,-167.0660064,14.1021362,21.035552,2.2296994,-0.9881454,-0.0328464,-0.1063342,-146.1241424,83.0225768,-103.27911980000002,156.44824126198696,1.2417043089646906,25.42314403771522,0.9943928698576634,-117.92987680000002,41.1432082,63.7868866
1339.088,55.7624816,-147.8002016,-44.0857546,-0.8646271999999999,-0.386387,0.7850162,-26.569031000000003,38.8913644,-166.30101919999998,14.5640484,26.7229302,4.746103,-0.9902776,-0.0275382,-0.1167997999999999,-148.74460140000002,82.61392359999999,-34.2145446,164.0058160732186,1.2300916807341151,30.801818095012244,0.9975220653203818,-122.1755704,43.7225592,132.0864746
1359.074,57.7790358,-153.9838166,-45.3386638,-0.8123356000000002,-0.3699588,0.809577,-24.9969386,35.7734646,-165.6371032,16.5401386,35.8107124,4.558299400000001,-1.0106636,-0.0352106,-0.1193945999999999,-151.5708526,82.03394,34.598626800000005,170.6019554045309,1.2050616414332505,39.70845503067028,1.0183004317128026,-126.57391400000002,46.2604754,200.23573
1379.07,58.18907,-159.4247072,-46.345988,-0.7508258,-0.3640348,0.8458682,-23.5029402,32.53437459999999,-165.07101440000002,16.5538104,46.0999352,0.0802724000000005,-0.9908348,-0.0351638,-0.1239342,-154.1385956,81.21939080000001,103.66895760000004,175.9265634773975,1.1881724324894598,48.98202841718122,0.9991745491409996,-130.6356554,48.6850162,268.739972
1399.047,58.6520468,-163.799936,-46.6987796,-0.6874573999999999,-0.349129,0.859826,-22.072376400000003,29.201933200000003,-164.59119879999997,18.207719200000003,55.46651539999999,0.4362592000000006,-1.0024442,-0.0528484,-0.128864,-156.62016920000002,80.2182082,172.7827362,180.1423260745871,1.1548980412710723,58.38018234961304,1.0120737413806369,-134.5477928,51.016275,337.373935
1419.033,57.5712484,-166.9902284,-46.5741984,-0.615043,-0.330063,0.8673028,-20.7219304,25.8057418,-164.189029,12.3696756,53.775406,-0.8377817999999995,-1.0275206,-0.0554602,-0.119855,-158.8204896,79.0389098,170.24359740000003,182.67277022047165,1.1132985326074225,55.186094654890034,1.0359727980180755,-138.0985592,53.233168,334.4326264
1439.02,55.668469,-168.76311959999998,-45.9853854,-0.5372142,-0.31108,0.8703968,-19.4623764,22.3727502,-163.8591188,1.0372214,46.8681332,-4.3665936,-1.0479248,-0.0656814,-0.1103987999999999,-160.3639162,77.97071059999999,168.59793399999998,183.5609562197648,1.0690932852337445,47.08253261617434,1.055769069352972,-140.9015398,55.5979604,332.45705280000004
1459.006,52.71189939999999,-169.2190674,-44.11381780000001,-0.4555407999999999,-0.2926538,0.8600466000000001,-18.303841,18.9353346,-163.5775452,-12.2890908,33.903022799999995,-6.3449252,-1.0309768,-0.0780796,-0.1207705999999999,-161.3864442,77.13291000000001,167.7522462,182.6462866607834,1.016289240959797,36.615499224530026,1.040958752256188,-143.0826032,58.197575400000005,331.32979140000003
1478.993,47.1699606,-168.8552246,-40.868882600000006,-0.3798438,-0.2754588,0.8533984,-17.2840584,15.5179608,-163.3106538,-24.6168478,17.654967199999998,-4.9735916,-1.0613962,-0.1040546,-0.1223046,-162.14556280000002,76.617752,167.4270386,180.02043668065738,0.9738827917251848,30.69891978303196,1.073474577405893,-144.8615044,61.099791200000006,330.7376924
1498.979,40.0468878,-167.9906768,-37.2809572,-0.3142944,-0.271021,0.8802390000000001,-16.425686399999996,12.1326412,-163.0418092,-26.4443218,13.1526798,-7.212595599999998,-1.075331,-0.0829408,-0.1089528,-162.3342498,76.4239274,167.1851228,176.67623067050098,0.9731670203173556,30.402576809744644,1.0840141366668057,-145.9085634,64.2912862,330.22693200000003
1518.965,33.910945000000005,-166.65556320000002,-32.6828412,-0.268026,-0.256704,0.848546,-15.703568,8.793633400000001,-162.74281620000002,-34.6536172,6.4142842,-10.4272418,-1.0443635999999998,-0.1041176,-0.1307996,-162.0680206,76.463788,168.21191720000002,173.1825541017531,0.9261561393242502,36.75246384119264,1.057659840872707,-146.3644526,67.67015460000002,330.9547334
1538.952,27.3742572,-164.42608920000004,-29.4963428,-0.2252735999999999,-0.2474136,0.8335964,-15.1272244,5.5213502000000005,-162.4351776,-38.45362179999999,5.555546000000001,-12.8743064,-1.0163163999999998,-0.0932488,-0.1573391999999999,-161.7026366,76.4897066,169.42084960000005,169.2788321244958,0.8982453130492137,40.93034187710423,1.0326422359496243,-146.5754122,70.9683564,331.8560272
1558.938,21.7623462,-161.1557524,-27.4233996,-0.1698962,-0.2466578,0.8436717999999999,-14.6811586,2.3177898,-162.13543099999998,-40.7904572,5.977908200000002,-14.343386999999998,-1.0139178,-0.0676764,-0.1572834,-161.3408386,76.4999148,170.67760600000005,164.91458119086997,0.895258004817896,43.6500805917289,1.0282740238814554,-146.65967999999998,74.18212500000001,332.813037
1578.925,19.3090316,-157.26884439999998,-25.7965414,-0.1249966,-0.2169626,0.8330582,-14.293339,-0.8133388,-161.8474334,-41.2555794,7.542812,-16.3421278,-1.0103922,-0.0613861999999999,-0.1739274,-160.90668639999998,76.4565478,172.0201872,160.5359450977977,0.8698752119686822,45.01090962787335,1.0270888003683227,-146.6133474,77.2698866,333.8676206
1598.91,14.915131399999998,-153.43351120000003,-24.906164,-0.0580942,-0.2011995999999999,0.8069648,-14.005964799999996,-3.877341,-161.5797514,-52.983927,-1.4826527999999983,-20.2383234,-0.9680572,-0.095618,-0.209714,-160.3633728,76.2916002,174.2533932,156.1557572074584,0.8336956300430272,56.73697660000631,0.9951168304233629,-146.357408,80.1689412,335.8331446
1618.897,9.877911799999998,-149.1097014,-23.8595438,-0.0044731999999999,-0.1956408,0.8185880000000001,-13.8341644,-6.853655000000001,-161.3240722,-48.9202756,2.0549040000000014,-20.9090582,-0.9619514,-0.0865444,-0.2249737999999999,-159.8154328,76.107384,175.82489600000002,151.32929003821388,0.8416541129744927,53.24100590747848,0.9916923110621358,-145.9812684,82.961039,337.1489682
1638.884,5.490389599999999,-145.3200072,-22.9327312,0.05676,-0.214352,0.8623432000000001,-13.766128,-9.7568036,-161.0719054,-44.494473,0.1020374000000014,-21.630831,-0.9657378,-0.1116134,-0.223277,-159.0465974,75.948427,105.53124060000002,147.22078328435592,0.8903955705697554,49.47384550375368,0.997476650422154,-145.2804694,85.70523060000001,266.60314600000004
1658.87,5.1590266,-142.3300108,-20.6546216,0.0887076,-0.1960478,0.8710414,-13.721772,-12.595909,-160.7900602,-37.2715132,-2.8509849999999983,-23.1659596,-0.9710472,-0.1306876,-0.2169569999999999,-157.91241159999998,75.8261506,35.46410820000001,143.913379931217,0.89722733947231,43.97676086158269,1.0035348789507017,-144.1906396,88.4220596,196.2541684
1678.857,2.8262676000000004,-141.3195676,-19.8698456,0.1216396,-0.1994412,0.887613,-13.742348800000002,-15.41195,-160.495285,-31.8566198,0.1682862000000021,-23.8252244,-0.9684172,-0.1321678,-0.215302,-156.7589266,75.6358276,-34.69325879999999,142.73758698873124,0.91783975851703,39.78082280492973,1.0008272337505009,-143.0165778,91.0477776,125.8020262
1698.843,2.9968988000000003,-141.3497372,-18.701242,0.1370152,-0.1923294,0.87531,-13.7783326,-18.2191418,-160.17200939999998,-25.8924376,0.390827600000002,-25.931167400000003,-0.965849,-0.120513,-0.2153388,-155.4254794,75.4179794,-104.7845582,142.61299401270932,0.9066043013550068,36.64691683906899,0.9968743515385678,-141.64714680000003,93.6371212,55.38745120000001
1718.829,3.4619584000000003,-142.679144,-19.7874774,0.1817832,-0.1976868,0.885345,-13.8158634,-21.0552632,-159.8575624,-20.9250326,2.0367808000000016,-26.3639946,-0.9445986,-0.1196064,-0.2136474,-154.065671,75.16105339999999,-174.9504426,144.08631978918604,0.925181588511942,33.72040445497564,0.9758162826934588,-140.2498076,96.2163166,-15.092880199999996
1738.816,6.8664598,-144.6684782,-20.5923388,0.2298106,-0.1802624,0.8630594,-13.7882848,-23.938595600000003,-159.5466128,-12.425526799999997,9.850567600000002,-24.0742376,-0.9404372,-0.1075822,-0.2179462,-153.0181338,74.7797744,-173.61213379999998,146.2879395990759,0.9111415766248844,28.827006683333284,0.9713375329900108,-139.229849,98.71837,-14.065521
1758.802,7.9120902,-148.03954140000002,-22.5198716,0.2810014,-0.1852438,0.8502542,-13.7462294,-26.899971800000003,-159.2548008,-5.272363999999998,21.7040828,-17.929284200000005,-0.9377904,-0.101239,-0.2412322,-152.6658144,74.23054040000001,-173.13989880000003,149.95149751214805,0.9144447806500072,28.64130346653451,0.9735980401428508,-138.919585,101.1305122,-13.885098000000005
1778.788,11.3095588,-149.93886700000002,-23.173395,0.3508716,-0.1874252,0.7880883999999999,-13.659367800000002,-29.910729600000003,-158.958646,2.2725548000000027,32.01491,-12.039818200000004,-0.953406,-0.110803,-0.2497048,-152.8318422,73.5480606,-173.3653046,152.1399888041286,0.8827923943352479,34.27938432813743,0.9917725509349612,-139.1724744,103.4587902,-14.406658600000004
1798.775,15.9547956,-150.5834654,-23.9765688,0.4275914,-0.1743998,0.7456842,-13.4917548,-32.9482448,-158.673923,8.652018200000004,46.1619192,-5.2932862,-0.949489,-0.1135822,-0.2620228,-153.64657,72.66785440000001,-174.4025512,153.3127894401896,0.8770944200732553,47.263083711873584,0.9915070473767092,-140.15481519999997,105.61609919999998,-15.728628199999998
1818.761,18.9826306,-150.5027648,-23.690094,0.4991152,-0.1642548,0.7082938,-13.278907,-35.998989,-158.3845034,15.800928600000002,59.3870226,1.0044786,-0.9559176,-0.1384578,-0.2715314,-154.90068060000002,71.59516,-104.058841,153.53384978782043,0.8819159423167947,61.4613437468875,1.0033336043194008,-141.6217736,107.594149,54.32566240000001
1838.748,19.7904702,-148.48740519999998,-21.946186,0.541138,-0.1509376,0.6190388,-13.0903746,-39.0207708,-158.0588686,22.420370400000003,70.6759406,5.9170536,-0.9649944,-0.1443344,-0.2902302,-156.38826899999998,70.348848,-34.11265579999999,151.3994956851332,0.8359554593656291,74.38261296750201,1.0179784772021263,-143.2978944,109.36961879999998,123.9462128
1858.734,19.950911,-143.1995878,-20.6015038,0.599828,-0.1349434,0.5309731999999999,-12.9139208,-41.93510500000001,-157.7295626,25.557182600000004,73.0582068,5.513466200000001,-0.951487,-0.154839,-0.3151685999999999,-157.7873534,68.7599672,35.673144400000005,146.0430852681538,0.8123643824699602,77.59555059937297,1.0142158909798051,-144.8734326,110.6950722,193.402707
1878.72,16.9217048,-136.2271314,-19.175408,0.6516116000000001,-0.125079,0.507626,-12.8082994,-44.7049674,-157.40075080000005,29.956666800000004,69.2819122,3.8628598,-0.9057088,-0.1499735999999999,-0.3490318,-158.81790759999998,67.21081860000001,105.750189,138.60689627423906,0.8354200077634962,75.5798050387085,0.9821525892169912,-146.0096082,111.915786,263.1509398
1898.707,11.7762158,-127.590335,-17.2782852,0.6839682,-0.1244049999999999,0.4724616,-12.8238642,-47.301759200000006,-157.0618134,35.356202,57.1393306,2.4818012000000005,-0.901773,-0.1599478,-0.367592,-159.1979124,65.76414179999999,176.2227476,129.29235083110268,0.8405409366061833,67.23929995528822,0.986864590872446,-146.3740482,113.06590099999998,333.28456100000005
1918.693,6.3187376,-116.4881788,-15.188243,0.705433,-0.1184604,0.4021078,-12.9573984,-49.665041200000005,-156.7207734,36.308207,41.9502242,-1.3001244,-0.9053584,-0.1491456,-0.3941792,-159.0905914,64.57280879999999,175.20052479999998,117.64397549566858,0.8205847102389856,55.49592353894644,0.9986468265420764,-146.133193,114.23785,331.9212982
1938.679,0.1554913999999996,-104.8066894,-14.684192199999998,0.7318476,-0.1178046,0.3811548,-13.1840128,-51.7876868,-156.42586060000002,31.956941600000004,24.873397,-6.6791974,-0.875409,-0.1480126,-0.4110212,-158.5527984,63.6560662,174.7424194,105.83048625575756,0.8335213344419926,41.04319276875992,0.9783593786994632,-145.3687856,115.44375300000002,331.16828
1958.666,-6.5816148,-91.564962,-13.4149508,0.7569402000000001,-0.1131442,0.3321565999999999,-13.5248382,-53.645037,-156.1643158,27.911578200000008,13.0853574,-8.1586932,-0.8578096000000001,-0.1501186,-0.4223236,-157.75675959999998,63.2272522,174.8297302,92.77618673131292,0.8343189337976455,31.888039303666456,0.9678481942097532,-144.2319214,116.8722892,330.994046
1978.652,-13.922512799999998,-75.7289102,-12.935956199999998,0.7711998,-0.115604,0.3068478,-13.9503232,-55.1916526,-155.9851198,20.849852400000003,2.9651382,-8.2303512,-0.859816,-0.1614352,-0.42589,-156.952066,62.986496,175.0833558,78.07716161307445,0.8380149095934272,22.6107733287083,0.972999059483122,-143.0017428,118.1781486,331.0684756
1998.639,-18.8577578,-59.781469400000006,-12.834456,0.7862324,-0.1331205999999999,0.301351,-14.395249800000002,-56.42126,-155.9076662,11.014145000000005,-2.4956692,-8.8790584,-0.8438627999999999,-0.1650176,-0.4337823999999999,-156.3981018,62.9430024,175.46445319999998,63.98564193381617,0.8524640204460948,14.365842575618885,0.9630692623499932,-142.002852,119.3642624,331.3721194
2018.625,-19.9191248,-44.3133036,-11.731209,0.7936132,-0.1225363999999999,0.2990218,-14.7953092,-57.3520798,-155.9113832,2.820684800000003,-6.058256399999999,-8.3904324,-0.82545,-0.1727644,-0.4372544,-155.96935720000002,62.959571,175.88858340000002,49.98061297488686,0.8568845414724436,10.72651337611909,0.949950867533011,-141.174048,120.3116508,331.79996659999995
2038.612,-22.7976394,-27.744441400000007,-9.7045472,0.8053734,-0.1209792,0.2884722,-15.1867432,-57.95294199999999,-155.9918856,-2.983954599999997,-8.605250799999999,-5.8478146,-0.8403280000000001,-0.1882724,-0.4323746,-155.6905578,63.0446792,176.2707856,37.19764276358778,0.8639898670893311,10.823643655522616,0.9636106261924056,-140.5038146,120.9976212,332.2626712
2058.598,-26.0382696,-12.0377298,-7.9156418,0.7988632000000001,-0.1417042,0.3394396,-15.5794906,-58.2382592,-156.1494966,-8.346375999999996,-8.5054908,-5.5254026,-0.8329242000000001,-0.1788326,-0.4310354,-155.5443482,63.13011,176.6274018,29.758289729183016,0.8794781035705438,13.135274644039512,0.9547435979474072,-139.96485760000002,121.3683692,332.77689840000005
2078.584,-25.9376262,2.0718818,-6.0245666,0.8159024,-0.1477544,0.3339596,-15.906955,-58.2412248,-156.3807008,-11.2044186,-8.2858238,-3.431807,-0.8323076,-0.1783198,-0.4234988,-155.53075859999998,63.231352,176.89870920000004,26.70858569452777,0.8938999404168679,14.351695770671888,0.9507287340199831,-139.62380360000003,121.4725768,333.27941
2098.571,-25.3486174,15.977572199999996,-4.0787728,0.8121202000000001,-0.1356685999999999,0.3378174,-16.1598158,-57.9775964,-156.68550420000005,-10.260161199999995,-8.2131074,1.5289994,-0.8525812,-0.1824937999999999,-0.4184624,-155.671057,63.3779372,176.97464,30.24023156412357,0.8899807773299152,13.231170778850997,0.967113990099223,-139.5112412,121.3555336,333.6601442
2118.557,-26.4162722,28.3846788,-3.6647518,0.8250574,-0.1535562,0.3799903999999999,-16.346631000000002,-57.47120279999999,-157.09687200000002,-9.412026999999998,-9.359357800000002,4.7486848,-0.8768646,-0.1933891999999999,-0.4073586,-155.87287580000003,63.5801246,176.9579804,38.94791179613184,0.9212447687478936,14.097298961393308,0.9860182241742594,-139.5262448,121.05132740000002,334.0548524
2138.544,-22.132624,38.1006632,-2.7096788,0.823672,-0.1625014,0.4120168,-16.4064808,-56.771479,-157.5628602,-9.179519399999997,-11.718351000000002,5.5325892,-0.8638592,-0.1949128,-0.4021934,-156.0511198,63.8290244,176.96017160000002,44.14584850928091,0.9352005731757226,15.880581533121951,0.97262698298579,-139.644639,120.6005034,334.5230318
2158.53,-16.2101966,45.8558718,-1.5534046,0.8256036,-0.161573,0.3979424,-16.3222504,-55.924839,-158.0617372,-7.570705599999998,-17.329606000000002,5.9646226,-0.8717083999999999,-0.2180696,-0.3915314,-156.0772336,64.1837188,177.08681660000002,48.661530167063056,0.9306370357877016,19.82946167089612,0.9801666808562104,-139.7549832,120.1085578,335.1485538
2178.516,-13.441813000000002,52.305429200000006,0.9552086000000004,0.802115,-0.1501638,0.4022396,-16.2117608,-54.9395462,-158.5286102,-5.844013799999997,-24.2612438,4.7156608,-0.8804292,-0.2265534,-0.3920366,-155.88373700000002,64.65039060000001,177.4154512,54.01344910291044,0.9097990634550028,25.396808949123617,0.9900377341312604,-139.67197620000002,119.5899368,335.9440614
2198.503,-15.2857236,57.6351502,3.731812,0.7957388,-0.1722978,0.4439984,-16.1954156,-53.8225014,-158.93506159999998,-5.098905399999998,-28.7019194,1.8521698,-0.8846499999999999,-0.2216332,-0.387032,-155.4846954,65.173213,177.9556244,59.74437467540773,0.927373360040518,29.21009322974299,0.9907172486972456,-139.28927979999995,118.9957144,336.890686
2218.489,-12.130856599999998,62.7412528,7.957817200000001,0.7782671999999999,-0.176669,0.4622545999999999,-16.199352800000003,-52.580618400000006,-159.24360959999998,-4.702104399999998,-31.4710194,-0.4512188,-0.8834056,-0.2039864,-0.3754512,-154.94045420000003,65.72955920000001,106.6493806,64.39681156200116,0.9222749510737024,31.82355175446558,0.9813151935427068,-138.7411014,118.3101776,265.8929902
2238.476,-11.407074,67.6935676,11.4464394,0.7617176000000001,-0.1631208,0.4631946,-16.237187,-51.2274414,-159.4905638,-4.473291599999998,-35.2590772,-0.8440728,-0.893683,-0.192473,-0.3635384,-154.2880738,66.35369399999999,35.4565736,69.5956996271689,0.9062953905937956,35.55172740705985,0.98380655034034,-138.0508868,117.5811354,194.94713740000003
2258.462,-14.7743374,72.91153399999999,14.291414800000002,0.7361004,-0.1593242,0.4881774,-16.381289400000004,-49.757752200000006,-159.6927488,-3.828424799999998,-38.4911664,1.2641620000000002,-0.9031256,-0.1784089999999999,-0.3605686,-153.6278504,67.0516188,-35.7410034,75.75366243837885,0.8975216841149632,38.70174198720243,0.9886735234455912,-137.246561,116.809371,123.9517454
2278.449,-17.1744402,78.38745420000001,15.9457238,0.7168675999999999,-0.182166,0.5219962,-16.5833588,-48.1760178,-159.8901426,-4.2064109999999975,-38.2744336,2.8413816000000005,-0.909361,-0.1779128,-0.342868,-152.99516599999998,67.7588958,-106.9651672,81.81577158254001,0.905297542413653,38.60957925565297,0.9880024585742893,-136.4118072,115.9349136,52.9249754
2298.435,-15.9263438,83.04587260000001,17.842062000000002,0.6941338,-0.173287,0.55347,-16.756948200000004,-46.4900056,-160.0876006,-6.149797199999997,-39.2914682,3.9096756,-0.9055626,-0.1733586,-0.331688,-152.3917572,68.489862,-178.18157939999998,86.42108862507504,0.9045325630243722,39.961544542346886,0.9798539462882824,-135.63480900000002,114.9798676,-18.0939788
2318.421,-16.596161000000002,88.08923960000001,19.7385486,0.6654752,-0.1784906,0.5442508,-16.9561734,-44.7037294,-160.27589400000002,-6.786950599999997,-41.9898942,5.7406962,-0.9138644,-0.182135,-0.3268096,-151.76325060000002,69.27702939999999,-177.3629332,91.78647500628126,0.8780233877318075,42.92050216661879,0.9874845894820434,-134.8070772,113.98075880000002,-17.0870392
2338.408,-19.503353,93.928363,22.210601000000004,0.6238516,-0.1830496,0.5393665999999999,-17.2285718,-42.79557200000001,-160.4495268,-7.108974199999997,-42.80184559999999,5.5760244,-0.9197266,-0.1832806,-0.316334,-151.0401732,70.0701096,-176.4426788,98.46943155560298,0.8447569497070029,43.74502884959501,0.9897252126928564,-133.81160140000003,112.8656816,-15.993151999999998
2378.38,-20.2478964,101.7917312,26.1383972,0.5867142,-0.1921172,0.5774254,-17.663100200000002,-40.2376764,-160.6383788,-9.011098,-39.92209019999999,5.7996792,-0.9256044,-0.1811228,-0.3024674,-150.3884338,70.8129716,-175.561264,107.02686418606852,0.845318084263338,41.335329343377104,0.9904723630884208,-132.72533360000003,111.050648,-14.922885199999996
2398.367,-19.8546972,108.6353804,30.1215134,0.539763,-0.1845882,0.6216801999999999,-18.1028352,-37.5188782,-160.80520940000002,-9.772667399999998,-37.0690082,6.3215324,-0.9504912,-0.165765,-0.286088,-149.83219,71.5178116,-174.7655456,114.46903705833633,0.8437435456465904,38.85329032304652,1.006358733378133,-131.7293548,109.0366898,-13.960336199999997
2418.353,-20.7094178,116.94568920000002,33.5474274,0.4960052,-0.2129438,0.601747,-18.5770432,-34.626948600000006,-160.966336,-10.847911399999996,-34.7243548,5.7634328,-0.9535356,-0.1557948,-0.2673138,-149.3014496,72.1800522,-173.9764282,123.41233363499867,0.8083722362838052,36.83307149368145,1.002476347773273,-130.7244064,106.8070008,-13.010092199999995
2438.339,-21.407053,125.3991774,36.4597714,0.4362732,-0.2300767999999999,0.6176062,-19.0681546,-31.547031,-161.14430539999998,-13.305374199999996,-29.902696599999995,7.3030108,-0.9482156,-0.1535023999999999,-0.2567738,-149.0209046,72.7714354,-173.400235,132.33491807259995,0.7903841200422236,33.53413504622706,0.9942879840647576,-129.95274999999998,104.3184664,-12.255929599999996
2458.326,-22.5652782,132.8939758,38.9110384,0.3900726,-0.2477774,0.6836318,-19.5750756,-28.2992494,-161.3470918,-9.407899199999996,-20.095359599999995,10.551733,-0.9540874,-0.150139,-0.242568,-149.1383516,73.2296552,-173.3243042,140.29992691922777,0.8251682926486936,24.56971945533692,0.9958231373008763,-129.563276,101.5289046,-11.977212399999996
2478.312,-23.7103318,137.42644660000002,40.34693779999999,0.350668,-0.2486608,0.7151538000000001,-19.9637184,-25.4304024,-161.53803720000002,-4.574840599999997,-9.581420599999998,12.658539,-0.9657708,-0.1479314,-0.2148267999999999,-149.612146,73.53802160000001,-173.7235534,145.17604295821613,0.8344130855488066,16.5218460483093,1.0003736758016175,-129.64842760000002,98.968424,-12.1855162
2498.299,-25.2489942,141.9461884,41.0977014,0.3032278,-0.2830408,0.7373182,-20.3879082,-22.4770714,-161.7604584,0.549677800000002,-2.648696799999997,14.5464602,-0.9368438,-0.1363506,-0.1984898,-150.5979278,73.7875548,-174.79161059999998,149.91748787170727,0.8459889604532201,14.795852282728664,0.9672982954718984,-130.2100196,96.2646262,-13.031152200000005
2518.29,-21.342894,145.7331452,41.4990884,0.2539054,-0.3026634,0.7632148,-20.7332416,-19.4506152,-162.020752,4.551176200000002,5.868742000000003,17.880115,-0.9389082,-0.1527036,-0.1996774,-151.9521422,73.90879360000001,-104.3303528,153.02236134699572,0.8594009057405979,19.36114278340087,0.9719763688233166,-131.2189006,93.3594088,57.6903992
2558.258,-28.635811,147.59074420000002,41.1902048,0.1858372,-0.3042346,0.8428642,-21.2282058,-15.749176200000004,-162.3710632,13.205789000000005,13.663604000000005,20.460677,-0.9489582,-0.1536568,-0.1967534,-153.53507380000002,73.9084976,-34.2891052,155.88351553837725,0.915158028092766,27.923578579395336,0.9812461352510083,-132.30686799999998,89.6576738,128.081958
2578.244,-29.779862,148.8968996,41.2099656,0.1344882,-0.3575275999999999,0.9103274,-21.762192,-12.0206218,-162.7541564,16.527037200000002,15.214019600000004,22.559394,-0.9534792,-0.1177944,-0.2020594,-155.27225040000002,73.884047,35.525436400000004,157.33845097745404,0.9872228906846516,31.836074014341094,0.9817464574075936,-133.5100584,85.9046688,198.2795928
2598.231,-19.3582204,149.6681032,41.11790620000001,0.0521654,-0.385235,0.9025284,-22.1075792,-8.277976200000001,-163.16317439999997,16.948821600000002,16.358950200000002,21.7963058,-0.9433372,-0.1024964,-0.2078269999999999,-156.9790468,73.8170242,105.36400440000004,156.41599669730977,0.9826926004548524,32.092939282680554,0.9713818234071502,-134.87146760000002,82.09500039999999,268.5271788
2618.217,-14.8743222,149.5746706,40.5780976,-0.0118307999999999,-0.3666252,0.8668956,-22.383247,-4.5345048,-163.5951904,16.254750400000002,18.2160998,23.0763946,-0.9594282,-0.1184734,-0.2315414,-158.5234712,73.658168,175.4113218,155.69331890239556,0.94130865628817,33.59409457367127,0.9940572606126672,-136.1402242,78.1926728,339.0065122
2638.204,-20.5826232,149.41164880000002,38.7966862,-0.0912285999999999,-0.3836794,0.924196,-22.800092,-0.8046166000000001,-164.0754212,22.1411104,16.859038400000003,24.768782,-0.9679052,-0.1036224,-0.2595616,-160.0282198,73.51486359999998,173.3783294,155.732681332561,1.0048237586056177,37.255180945489805,1.0074474190563791,-137.2281278,74.3194802,337.45375060000003
2658.19,-11.885126199999998,147.5172762,38.6974796,-0.1204837999999999,-0.4224916,0.9785816,-23.0516488,2.239163,-164.51279920000002,22.990786000000003,16.083832000000008,23.7961368,-0.9659206,-0.0828762,-0.2356339999999999,-161.42976400000003,73.37156680000001,171.4358338,152.97090550052133,1.0726776990277929,36.79024353420802,0.9976945684861674,-138.3781152,71.1324038,335.94863300000003
2678.176,-1.5508769999999992,143.9601412,39.715411,-0.1743105999999999,-0.3579451999999999,0.9096368,-23.106036600000003,5.2164028,-164.9100068,19.577730000000003,19.645371200000007,21.142778,-0.964049,-0.1283608,-0.2365792,-162.70844440000002,73.13233340000001,169.68584,149.34604562790403,0.992949172611388,34.87470692487571,1.0009179223344338,-139.60240779999998,67.9159306,334.5958468
2698.163,-12.792958399999998,141.3621644,39.25106000000001,-0.2163672,-0.357589,0.8771791999999999,-23.4017714,8.1419842,-165.304779,22.7883118,19.072405600000003,20.6369492,-0.9951102,-0.1029438,-0.26815,-163.8662324,72.8839356,167.9959536,147.2669922949483,0.9716624964819214,36.17937924216378,1.0357345985350108,-140.46446099999997,64.7419514,333.3007326
2718.149,-16.4350978,139.893741,38.0707972,-0.2692119999999999,-0.4400474,0.9720454,-23.8067036,11.0224702,-165.73576039999998,23.890775600000005,16.8314856,18.9707162,-0.9823208,-0.076418,-0.266443,-164.8662172,72.6655152,166.4496706,145.91009838292268,1.1004494876421729,34.84187336257202,1.0206790568467838,-141.0595136,61.64304500000001,332.185431
2738.136,-6.361127999999999,135.6710756,40.0694784,-0.3151674,-0.4131354,0.9701006,-24.0182542,13.834573400000002,-166.11461179999998,18.808935800000004,17.496276600000005,16.9853834,-0.9737572,-0.084825,-0.244763,-165.7992342,72.42634280000001,165.07511000000002,141.60744261210766,1.1005028500082497,30.79608757678847,1.0076245785737066,-141.78098,58.59176940000001,331.18972180000003
2758.122,-5.827723999999999,131.765851,40.2695676,-0.3770603999999999,-0.3359732,0.854215,-24.2369252,16.5789724,-166.4698394,16.473499800000003,16.098856,13.3296816,-0.9907624,-0.0819542,-0.2736322,-166.50787359999998,72.192096,163.9832428,137.9051845706511,0.9923385524060828,26.612586716189668,1.0311164847039545,-142.2709484,55.61312360000001,330.45308220000004
2778.108,-20.0422008,131.188913,37.5115414,-0.4211278,-0.398377,0.8510638,-24.7857362,19.2903364,-166.90057059999998,16.900313200000006,11.712692800000005,11.544312199999998,-1.0062466,-0.0239274,-0.2811291999999999,-167.0697418,72.0363984,163.04104,137.9106103431966,1.0297390202047705,23.58132530322109,1.0450542414511126,-142.2840056,52.74606200000001,329.9416106
2798.095,-15.4046538,130.3049592,35.1090138,-0.4552616,-0.4690809999999999,0.9675332,-25.2948546,21.94805,-167.40936879999998,10.446273400000004,8.681751600000002,9.4200604,-0.9725828,-0.0539007999999999,-0.2561609999999999,-167.53638,71.9261858,162.32992240000002,135.82830559504197,1.1676560290161653,16.52982083179665,1.0071946470357551,-142.2415254,49.9781358,329.7392912
2818.081,-5.023907999999998,125.1860872,35.6426732,-0.5145188,-0.3954404,0.9242178,-25.592898,24.5139008,-167.8845824,4.723187600000003,8.145965800000003,8.6613372,-0.9616402,-0.0779502,-0.2784564,-168.0303498,71.81135259999999,161.7070252,130.25819065563775,1.129283510613008,12.79390565901075,1.004174324824649,-142.43745180000002,47.2974518,329.5916076
2838.067,-9.948549399999996,120.32535400000002,32.9100954,-0.551407,-0.366028,0.8187396,-26.02333,26.962387,-168.3931578,2.467259200000003,4.178000000000003,5.9541914,-0.980275,-0.0425752,-0.2865361999999999,-168.40559080000003,71.76421359999999,161.26151439999998,125.14087593439108,1.052787114777323,7.680849379321185,1.022181352398135,-142.3822608,44.801826600000005,329.6546722
2878.04,-16.304737999999997,118.638481,28.382427,-0.5895498,-0.4844547999999999,0.9750102,-26.971008,29.77471000000001,-169.16546920000002,-5.335479199999996,-2.9385433999999977,5.3846014,-1.0059556,-0.0086202,-0.2900522,-168.8543702,71.85587319999999,160.9063264,123.07110065992885,1.238107551881952,8.129963581972438,1.0469724235834676,-141.88336220000002,42.081163200000006,330.0717956
2858.054,-17.626770999999998,115.1457886,27.1048808,-0.6251988,-0.4550671999999999,0.9278014,-27.4041142,31.636134200000004,-169.6314116,-13.364328399999996,-12.191145199999998,5.906563,-0.9549164,-0.0595012,-0.284487,-169.373929,72.1244598,160.6437746,119.59903950862036,1.2077976378016475,19.029366288541997,0.9981676096525072,-141.9698148,40.4883256,330.2751862
2898.027,-6.4524215999999965,109.7324326,28.935326799999995,-0.6547986,-0.3917432,0.8165042,-27.865196200000003,33.8495246,-170.23179620000002,-16.789514399999995,-16.998448599999996,7.7284976,-0.9539988,-0.093655,-0.3160135999999999,-170.0363802,72.4937346,160.30452599999998,113.66658983993707,1.1175433100895196,25.11104784249066,1.0093312463266957,-142.17118399999998,38.64421,330.5363222
2918.013,-14.84712,105.2685852,26.6514614,-0.6854492,-0.362548,0.7255381999999999,-28.532750600000004,35.9567172,-170.860495,-15.2273904,-21.3781968,5.62383,-0.988372,-0.0385164,-0.2995257999999999,-170.52293400000002,72.9482268,160.119983,109.60023903742066,1.0619262393141435,26.842655991582543,1.0334787991626146,-141.9901834,36.99150959999999,330.98047800000006
2937.999,-23.2576826,101.9521454,26.2011932,-0.6953644,-0.4096662,0.740718,-29.4121104,37.9976136,-171.51195360000003,-20.385912,-26.839839799999996,4.178446,-1.0035426,-0.0494128,-0.2984054,-170.94422300000002,73.5031706,160.1092072,107.8038138318344,1.0954547912779422,33.962064418058034,1.0481341314773411,-141.53211259999998,35.505557,331.6211608
2957.986,-26.0722944,99.4985612,28.4949944,-0.6958637999999999,-0.364294,0.590792,-30.053947800000003,39.56118540000001,-172.0050292,-22.1278072,-31.791117799999995,3.901433,-0.9867318,-0.0792516,-0.2702032,-171.2936858,74.1567,160.20541400000002,106.7318739740217,0.9828386102766008,38.929888285317965,1.0261238865380926,-141.239738,34.5955146,332.2104432
2977.972,-18.6086278,96.3580734,27.996832600000005,-0.7189406,-0.4096342,0.7221244,-31.1666346,41.923265,-172.8725158,-21.293799399999997,-30.6920264,2.7683957999999995,-0.9768812,-0.0685172,-0.276318,-171.5583768,74.7848128,160.3712586,102.05381900542058,1.09824378587514,37.45784821277371,1.0175181191179252,-140.3917422,32.861547800000004,333.2437744
2997.959,-22.8111438,93.0642836,26.7523052,-0.7422602,-0.3804231999999999,0.6649102000000001,-32.1389082,43.7863204,-173.5837828,-18.488182599999995,-32.19677419999999,0.0669165999999999,-0.9759724,-0.0417098,-0.2566832,-171.5705288,75.434764,160.74187920000003,99.48364185613356,1.0666665784894174,37.12747826836726,1.0100238106797483,-139.4316206,31.6484436,334.325662
3017.945,-25.3834674,90.3249098,25.949678800000004,-0.7730606,-0.3963752,0.6509729999999999,-33.209606,45.5869278,-174.3433776,-18.8113816,-32.49193079999999,-0.0833143999999999,-0.9614072,-0.026913,-0.2618444,-171.5619748,76.0894852,161.13977060000002,97.34626637651888,1.085588244767048,37.54464790222508,0.9967901502283216,-138.3523688,30.5025574,335.4831482
3037.932,-24.0094684,86.6418166,24.6312752,-0.8093959999999999,-0.4106992,0.6511546,-34.2968246,47.296323400000006,-175.15176079999998,-16.577681799999997,-29.7489262,0.630634,-0.9387842,-0.0238158,-0.2713379999999999,-171.5840758,76.6792878,161.45904240000002,93.21994783616202,1.1170488041253166,34.06194127111744,0.9775005251882376,-137.2872512,29.3829644,336.6108032
3077.904,-13.4940872,79.07235940000001,23.6747094,-0.8496506,-0.3900228,0.6328452,-35.361745400000004,49.1355034,-176.092166,-11.539355799999996,-22.8917472,2.2413128,-0.9095918,-0.0408654,-0.2955727999999999,-171.67579940000002,77.1208176,161.6003876,83.63623781363209,1.1289450711895774,25.73348606806208,0.9572828754575315,-136.314054,27.9853142,337.6925536
3097.891,-12.1308812,70.69521019999999,23.0985032,-0.8808428000000001,-0.338004,0.463207,-36.365461,50.835109800000005,-176.9713194,-5.989148999999997,-17.9225528,3.2461458,-0.9418886,-0.0426748,-0.2976336,-171.794702,77.4607576,161.599289,75.35590138795439,1.0510430377376752,19.173556455906827,0.9887168620054784,-135.429241,26.6256478,338.5706084
3117.877,-24.2625986,62.7342034,20.2189286,-0.8998052,-0.37334,0.482074,-37.6105958,52.36460960000001,-177.849649,-2.616807799999997,-13.379675399999996,5.4087136000000005,-0.961844,-0.0096394,-0.2902824,-172.13628839999998,77.71406879999999,161.30263080000003,70.23573905633222,1.0869349083652802,14.666887184345928,1.0047391054985964,-134.5256926,25.3494592,339.1522798
3137.864,-24.2173818,56.27215579999999,19.8697278,-0.8677664,-0.4173108,0.4991895999999999,-38.8342324,53.770532200000005,-106.6952728,-0.7098839999999967,-9.952863399999996,6.495974800000001,-0.966249,-0.0471594,-0.2778146,-172.6113524,77.89612439999999,160.8312654,64.4037513074552,1.084599965661884,11.90634762447118,1.006499921004726,-133.77712000000002,24.1255922,267.5265382
3157.85,-20.0921036,52.339235,19.752667,-0.850193,-0.3951556,0.4756319999999999,-39.9644744,55.0966544,-35.531775,2.1249858000000037,-7.165778599999998,7.288293200000001,-0.983931,-0.0540902,-0.2387979999999999,-173.1213346,78.042978,160.265027,59.44119784350957,1.0512858245426693,10.439500244915264,1.0139380884950715,-133.1568602,22.946323600000003,195.796802
3177.836,-23.160157,51.39476620000001,18.1049984,-0.8402875999999999,-0.4070897999999999,0.4792008,-41.0268866,56.1070618,35.7095518,0.9077936000000032,-7.325791799999996,5.4173602,-1.0162782,-0.0317358,-0.1974606,-173.5354246,78.21333480000001,159.8237428,59.20815680361376,1.0494945272360594,9.156369709316689,1.0357698727754343,-132.508538,22.106273000000005,124.114191
3197.823,-21.5776486,51.6965286,17.4645234,-0.8177966,-0.4128047999999999,0.4948742,-42.1234206,57.0922478,106.8680052,-1.1339411999999969,-9.238403599999996,3.8732546,-1.018366,-0.0201608,-0.1726601999999999,-173.81531360000002,78.4264772,159.5608888,58.67823758417466,1.0412010159907836,10.081469382881222,1.033095984154754,-131.691893,21.334229400000005,52.6928836
3217.809,-18.457121,52.4940116,16.8000634,-0.8205235999999999,-0.3867264,0.4575038,-43.2385588,58.08553020000001,177.93097519999998,-2.197884199999997,-11.650270199999998,1.5422965999999998,-1.0033180000000002,-0.0437958,-0.1615274,-173.7927856,78.6826844,159.62570799999995,58.125112470545766,1.0159360283149526,11.95567520017122,1.0171805061897323,-130.55422679999998,20.5971542,-18.3052672
3237.796,-17.904249,52.88375620000001,14.813434999999998,-0.839029,-0.384208,0.4394467999999999,-44.45335,59.0503328,176.8671082,-1.7321111999999972,-14.391059199999995,-0.2000248,-1.0026503999999998,-0.0373766,-0.1414942,-173.573111,78.99856580000001,159.8829224,57.764103546876456,1.022105151212555,14.49630311588734,1.0132746140515707,-129.119761,19.948233000000005,-16.984185799999995
3257.782,-14.5827334,51.3380446,13.1610548,-0.8690964000000001,-0.3848102,0.4529462000000001,-45.6404556,59.9565522,175.7556368,-1.2435289999999968,-16.702250599999996,-2.1114316000000004,-0.9834944,-0.0116618,-0.1524358,-173.1961702,79.34699420000001,160.2934998,54.96784787687861,1.0528854176079372,16.881045076668677,0.9953059356460404,-127.55571460000002,19.390442000000004,-15.462136999999997
3277.768,-11.678527799999998,47.056145400000005,12.526024799999998,-0.8984743999999999,-0.3610624,0.3946986,-46.7222924,60.78812479999999,174.709418,1.7861640000000034,-16.566783599999997,-2.8331036,-0.9474832,-0.025847,-0.1879316,-172.6224916,79.66353000000001,160.84107980000002,50.075644067465866,1.045662129462036,16.90192819451254,0.9662871043172416,-125.9001992,18.875405200000007,-13.8683382
3297.755,-12.411636199999998,41.9498942,10.427257399999998,-0.934696,-0.3614342,0.3690388,-47.7928902,61.5158004,173.7112216,4.507763200000003,-15.151443399999996,-3.5495138,-0.9563364,-0.038852,-0.2007446,-171.89787619999998,79.9396332,161.4861756,44.97299226689502,1.0679330172117911,16.201395445672823,0.9779505009447668,-124.104986,18.423832800000007,-12.225045999999995
3317.741,-10.1689744,37.2517668,8.699349,-0.9429134,-0.3858512,0.3753602,-48.7840264,62.130377,172.767313,6.635208000000003,-13.556563999999998,-3.922876,-0.9761886,-0.0053664,-0.2049987999999999,-171.1770388,80.1840776,162.0866578,39.58258257230367,1.0857541656309866,15.594722466294035,0.9974956085218422,-122.3930124,18.05370060000001,-10.680655199999997
3337.727,-4.145306399999998,32.871410600000004,8.6127352,-0.9416874,-0.3730246,0.3720084,-49.5555092,62.6780446,171.942313,4.830573800000003,-11.957664199999996,-3.7341322,-0.989436,-0.0084436,-0.208762,-170.51768220000002,80.3934982,162.660855,34.23291409753182,1.0790332530531577,13.426239966732489,1.011254896216063,-120.962173,17.715453600000004,-9.281457999999995
3357.714,-1.4754983999999989,28.786571,7.8167046,-0.939956,-0.3583716,0.3462678,-50.20418780000001,63.1622076,171.209589,3.8198820000000016,-10.558065399999998,-3.02279,-0.9926812,-0.0367346,-0.2018562,-169.870627,80.5762222,163.2400482,29.865442174361068,1.0638838634641472,11.627618108138105,1.0136623309312822,-119.6664392,17.4140146,-7.969540799999999
3377.7,-1.2356589999999985,25.222977,6.4785556,-0.931336,-0.3637232,0.3463828,-50.7922226,63.5683974,170.538663,4.0563024000000025,-8.634340599999996,-2.14182,-0.9972244,-0.0267722,-0.191189,-169.3731538,80.7285416,163.6634734,26.071001219153462,1.058140990251337,9.777158056892304,1.0157393801409889,-118.5809312,17.160144199999998,-6.8751895999999935
3397.687,-0.6813965999999985,22.1259946,6.0219162,-0.9155374,-0.3571168,0.3332718,-51.3032684,63.9248786,169.9377504,3.579243400000003,-6.967714599999996,-1.320343,-0.9962202,-0.0092784,-0.1836142,-169.0386292,80.852855,163.9320098,22.940954929678565,1.0376951538463697,7.943760803369251,1.0130424226241663,-117.7353608,16.9279764,-6.005740599999996
3417.689,-1.5658845999999986,19.3044794,5.6472422,-0.909268,-0.3525356,0.3209482,-51.7699448,64.2385032,169.4028718,1.177937400000003,-5.663411799999997,-0.9608206,-0.9887304,-0.0290496,-0.175299,-168.782666,80.9509872,164.16832879999998,20.17439624749653,1.0266729723600403,5.863867832760415,1.0045702675996937,-117.01272120000002,16.712483999999996,-5.234542999999997
3437.66,-2.3607005999999986,16.5606266,4.9596306,-0.9152036,-0.3456874,0.3296014,-52.17350700000001,64.504441,168.9458588,1.4192580000000028,-4.803592799999997,-1.6121616,-0.984072,-0.038388,-0.1653306,-168.4230102,81.032309,164.5037292,17.447784856420146,1.0323441726738618,5.261925701042383,0.998601796025002,-116.2495032,16.527868,-4.442129599999992
3457.646,-2.4759035999999988,13.632264,4.7799168,-0.912305,-0.3354116,0.3249222,-52.4865228,64.7326842,168.58473199999997,2.9671122000000025,-3.5111859999999964,-2.1773814,-0.9823286,-0.0281624,-0.1619459999999999,-168.025122,81.0875092,164.84729900000002,14.656613695431536,1.024878427176804,5.086567771597149,0.9959864989384746,-115.5385992,16.354824999999998,-3.737432999999993
3477.632,-2.760322599999999,11.0321708,4.4247858,-0.917204,-0.3294036,0.3016918,-52.7480028,64.9312696,168.2910492,2.817931800000003,-2.529223199999997,-2.744172,-0.9878916,-0.024583,-0.1529834,-167.59091800000002,81.12607740000001,165.2307798,12.202741609668092,1.0201901055667029,4.676343613385727,0.9999690284779424,-114.84291520000002,16.1948078,-3.0602693999999984
3497.619,-1.699808799999999,8.779095600000002,3.7761628,-0.9222138,-0.3428008,0.3055888,-52.936207,65.0844694,168.0577058,1.627852800000003,-2.397390599999997,-3.1773806,-0.9980574,-0.0191152,-0.1452776,-167.1455932,81.16534419999999,165.650012,9.706764394101706,1.0302306518816648,4.30036439208267,1.0087564352347698,-114.2093862,16.0808748,-2.4076937999999983
3517.605,1.892551200000001,6.3397144,3.1665934,-0.9344216,-0.3351984,0.3311194,-52.9537248,65.19523139999998,167.9298462,0.597076400000003,-2.773734399999997,-3.323655,-1.0012332000000002,-0.0133488,-0.1428052,-166.71275939999998,81.21309360000001,166.0780028,7.3349193914529405,1.0464902058621857,4.369986877349325,1.0114541197655582,-113.7590346,16.017862200000003,-1.8518434000000008
3537.591,3.173921200000001,2.7237436,2.2380564,-0.9370154,-0.3224776,0.3226128,-52.844513000000006,65.254576,167.91845400000005,-0.2071635999999971,-2.464630599999997,-2.3231888,-0.9900766,-0.011318,-0.1555118,-166.4495056,81.2506928,166.3510742,4.743569482144366,1.0421461898710564,3.393306197805724,1.0022792479797236,-113.60499260000002,15.996116800000005,-1.5673798000000034
3557.578,3.6375442000000007,-1.8808914,1.0252264,-0.9482796,-0.3305744,0.3081626,-52.6237374,65.2418426,168.03042,0.1936208000000029,-1.0049513999999964,-1.4284454,-0.9913226,-0.013168,-0.1674002,-166.56069340000002,81.2021622,166.25406200000003,4.221441630154865,1.050465526207443,1.7572343586829144,1.0054435441409926,-113.936956,15.960319600000002,-1.7763580000000048
3577.564,5.163513000000001,-6.9372154,-0.0422832,-0.9513064,-0.3548103999999999,0.3265508,-52.2343574,65.1362854,168.3007478,-0.6034957999999971,0.3730528000000034,-0.2808438000000001,-0.9859332,-0.0143414,-0.1795648,-166.6099458,81.1991942,166.2401766,8.648040927063679,1.066541003248239,0.7630522997828649,1.002254193313872,-114.3755884,16.062908800000002,-2.060571200000004
3597.551,8.153297400000001,-12.500105199999998,-0.8549838,-0.9558842,-0.3448676,0.3448074,-51.604275400000006,64.948381,168.77478639999998,-0.642603199999997,2.216113800000003,0.7103782,-0.9831768,-0.0132478,-0.1939832,-166.8498324,81.1567642,166.03428979999998,14.948574708050804,1.0730985082620144,2.414277621616025,1.0022183425508235,-115.245557,16.208383200000004,-2.740496600000006
3637.523,6.229424800000002,-20.429486200000003,-2.429331,-0.9482746,-0.3580074,0.3546052,-50.6101402,64.520617,169.67372759999998,2.009181400000003,3.626618400000004,1.875431,-0.9767536,-0.0244208,-0.1999538,-167.219095,81.06711720000001,165.62128320000002,21.4958435247935,1.073843034771358,4.5504299086004565,0.9973091259584664,-116.60895480000002,16.546500200000004,-4.052444400000008
3657.51,6.793801800000002,-27.5247792,-4.027499000000001,-0.9399804,-0.3890894,0.3670529999999999,-49.4767318,63.958466400000006,170.7326264,3.541968200000003,6.224351200000004,2.7132574000000003,-0.9816572,-0.0259716,-0.1945896,-167.7060762,80.9338882,165.0573488,28.6354668392439,1.0815182006723325,7.658319156930423,1.0010946482458891,-118.2293444,16.9754218,-5.67527760000001
3677.496,8.816182600000001,-33.7913528,-5.9620614,-0.9308076,-0.3961626,0.3949322,-48.197779,63.2696426,171.9202178,3.0146630000000028,7.431435600000003,2.7982328,-0.9875004,-0.0284632,-0.1850692,-167.98818379999997,80.838237,164.6936554,35.42776842856434,1.0859645650081589,8.493793903993213,1.005095917086046,-119.7904048,17.5685944,-7.226562400000006
3697.482,9.473443,-40.1576316,-8.4687722,-0.9241548,-0.3864138,0.4198634,-46.8256088,62.45013659999999,173.2082702,3.2832652000000038,7.137048400000003,2.1878874,-0.9948174,-0.0314088,-0.1762176,-168.422101,80.67755600000001,164.1660736,42.12008547677771,1.086122918390474,8.15500714362363,1.0107921718186978,-121.5964922,18.227419399999995,-9.042196600000006
3737.455,9.440328400000002,-47.4802696,-11.371343,-0.9127618,-0.3996876,0.4366796,-45.1795212,61.2555824,174.7856506,3.0309902000000024,6.363556200000003,1.9273536,-0.998923,-0.0304764,-0.1619346,-168.789554,80.5405016,163.7106384,49.72728871768679,1.08792157538545,7.307286842767806,1.012422236798027,-123.6100328,19.2849192,-11.075012200000003
3757.442,12.3028076,-52.809127,-13.736795,-0.9076818,-0.3987542,0.4492444,-43.7135094,60.0487572,176.1529692,-0.4558373999999974,5.502903200000003,0.952385,-1.0039228,-0.0330628,-0.1610296,-169.0378298,80.43830599999998,163.4676818,55.936236074809074,1.0884446210075367,5.603281944720793,1.017292813883908,-125.3243204,20.3895488,-12.685287399999998
3777.428,14.1754974,-58.094275800000005,-16.2318888,-0.9000494,-0.387597,0.4709553999999999,-42.22909560000001,58.723702200000005,105.5210144,-1.947792799999997,2.753433800000004,-0.5392379999999999,-1.0093924,-0.045107,-0.1627042,-169.033832,80.383623,163.5097778,61.962600181718,1.087253119397006,3.4155632190545515,1.023416003062489,-126.8047364,21.6599208,57.9887634
3797.415,14.728708,-63.2802438,-18.6378218,-0.8892634000000001,-0.3862184,0.4910284,-40.7729738,57.28005,34.85949419999999,-2.8582143999999974,0.2683024000000036,-1.7433768,-1.005168,-0.0469732,-0.1631836,-168.8474398,80.3727542,163.755365,67.59210380055688,1.0867671952560405,3.3586810507982667,1.0194106518234936,-128.07446599999997,23.0927042,128.89587079999998
3817.401,16.4179826,-67.9647454,-20.1013364,-0.8746577999999999,-0.3827669999999999,0.4955738,-39.3281214,55.74230580000001,-35.8405638,-3.486417999999998,-0.5762891999999964,-2.697415,-1.0031692,-0.0443832,-0.1635158,-168.55597859999995,80.374428,164.120639,72.75177313994958,1.0756998813034608,4.445589656613127,1.0173768864685886,-129.2278572,24.6321222,199.9612028
3837.387,16.8251918,-71.2486236,-21.0792216,-0.8668210000000001,-0.3783222,0.5138856,-38.1631968,54.3517136,-106.81950980000002,-3.3898967999999976,-1.6959809999999962,-3.7945346,-0.9976652,-0.0485482,-0.1656758,-168.1015962,80.3912248,164.6490326,76.1825900535232,1.0763757443110655,5.363417259323422,1.012492592427184,-129.9383994,26.0395112,271.4685424
3857.374,17.725367600000002,-74.1576156,-22.0584222,-0.8557244,-0.3755946,0.532355,-37.0314074,52.897350200000005,-177.8511076,-2.6968881999999974,-2.407534599999996,-4.592286799999999,-0.996886,-0.0433442,-0.163131,-167.5428896,80.4197038,165.26980280000004,79.37326122811098,1.0755172701214613,5.8445296531843,1.0110747449277129,-130.5114822,27.522353599999995,343.1209104
3877.36,18.730868800000003,-77.2746778,-22.7908548,-0.8478108000000001,-0.3774574,0.5592461999999999,-35.922671,51.3763778,-176.9320922,-2.8012617999999976,-2.6410861999999966,-5.3880994,-0.9923296,-0.0384038,-0.159303,-166.9035616,80.4500048,165.97496339999998,82.7142329808559,1.08351906011193,6.622236716718152,1.0057685283899074,-130.9808906,29.073627,342.9070556
3897.346,20.4268676,-80.65572940000001,-23.303145,-0.8487098,-0.3821837999999999,0.5836802000000001,-34.8204028,49.790856000000005,-176.04691459999998,-3.272043199999997,-2.998391199999996,-5.9155198,-0.9941394,-0.0342172,-0.1535362,-166.2131472,80.48684239999999,166.741861,86.40393609023249,1.0986607108068076,7.395268148964964,1.006507490344031,-131.3927444,30.6959864,342.7887756
3917.333,22.5703848,-84.38891880000001,-24.0600644,-0.8594208,-0.3880398,0.5986496000000001,-33.7221892,48.137596,-175.19837339999998,-3.899277599999997,-3.605610199999996,-6.422348599999999,-0.9903198,-0.0348666,-0.1515706,-165.45791960000005,80.53162540000001,167.58721020000002,90.60793886401574,1.1169424073947771,8.333747791727783,1.0024582948192708,-131.7357304,32.3940294,342.7855836
3937.319,24.532154,-89.227995,-25.6432534,-0.8692218,-0.3873109999999999,0.6162314,-32.631639,46.3898062,-174.38911420000002,-4.097503199999998,-3.764445999999997,-6.9554974000000005,-0.9866808,-0.035341,-0.1482458,-164.6381626,80.57593080000001,168.50198059999997,96.02623660508806,1.1337096130236348,8.907274007367965,0.99838109186186,-132.00652359999998,34.18612460000001,342.8910948
3957.306,25.4487796,-95.5375196,-27.176133400000005,-0.8703386,-0.3935452,0.6478556,-31.555414000000003,44.5157912,-173.5993162,-4.5638951999999975,-2.3861441999999964,-7.2274884,-0.9799986,-0.0376834,-0.1513176,-163.8441654,80.587242,169.3999726,102.53584866291573,1.154159426398433,8.8746499712333,0.9923277234398322,-132.2887514,36.0714508,342.9992888
3977.292,26.0344082,-102.504112,-28.1429502,-0.862067,-0.4020564,0.6783174,-30.493098600000003,42.5074728,-172.81407140000002,-4.383314799999998,0.4301564000000038,-6.4446988,-0.9662904,-0.0306986,-0.17279,-163.285657,80.5351606,170.0567352,109.43906538888412,1.1682993436669902,7.805935292268406,0.9820977167645384,-132.7925584,38.0276878,342.87080660000004
3997.279,26.296989000000004,-109.6150542,-29.1632336,-0.8457608000000001,-0.4147909999999999,0.7079213999999999,-29.45686,40.359915,-172.0379942,-1.025953999999998,3.887212200000003,-4.508107000000001,-0.9481934,-0.0263172,-0.2048836,-163.0238496,80.4124328,170.3451202,116.43661765846356,1.178352923820194,6.040366629716599,0.9704332065466228,-133.5669896,40.0525178,342.38311439999995
4017.265,27.539919200000003,-116.8466262,-30.738469,-0.8197732,-0.416115,0.757671,-28.424665,38.0586194,-171.2776244,3.818990400000003,8.962823600000004,-2.2479692,-0.9363538,-0.0416636,-0.228437,-163.0508606,80.188475,170.2409056,123.92108246916266,1.1913207531577044,9.998512893633626,0.9647164128946912,-134.62619560000002,42.1298556,341.51853
4037.251,29.7029692,-123.820314,-31.9767632,-0.7866552,-0.4196454,0.7991504,-27.3838484,35.6117972,-170.5378632,9.626535400000003,16.363642200000005,-0.1384234,-0.9346578,-0.0524328,-0.2451762,-163.38842160000002,79.82473139999999,169.7020324,131.28689928208232,1.197317847210322,18.98573493164649,0.9677012817306384,-136.0045732,44.21293419999999,340.2398956
4057.238,31.164549600000004,-130.2966324,-33.1023762,-0.7484419999999999,-0.4231444,0.8237622,-26.360076400000004,33.0330962,-169.830414,15.821823400000005,23.608719800000003,1.9488308,-0.934767,-0.056163,-0.24907,-163.98925160000002,79.3334854,168.7681122,138.00075679733757,1.1907143959674795,28.486833586461103,0.9690095416238172,-137.62917520000002,46.3003892,338.5985262
4077.224,32.1252494,-136.0196214,-34.71734,-0.7012104,-0.4236824,0.8502297999999999,-25.374101,30.3282246,-169.174933,24.0086048,32.909651000000004,3.4804602000000004,-0.941929,-0.0537472,-0.2497032,-164.92836300000002,78.4926238,167.195044,144.00924536809134,1.1807173725942886,40.88486072604587,0.9759460490411752,-139.55426200000002,48.1643992,336.369977
4097.21,33.7486442,-141.1033814,-36.114244,-0.6398992,-0.4121617999999999,0.8691936,-24.4068296,27.5091434,-168.5694184,26.890409600000005,43.7042258,0.8022168000000001,-0.9724278,-0.0536014,-0.2318764,-165.7111908,77.4453046,165.7205782,149.51044728561143,1.155355291596849,51.32053227537065,1.0011271653350338,-141.3043612,49.9361612,334.2899966
4117.197,32.762776200000005,-145.865088,-37.1378844,-0.5712056,-0.4082174,0.8935264,-23.5069238,24.5807652,-168.0093536,24.4403878,49.17649,-2.161961,-1.0052202,-0.053153,-0.2198082,-166.3326202,76.2981854,164.45947900000002,154.04300003338938,1.136356770838754,54.95756362776656,1.0303438924379955,-142.8256964,51.71742020000001,332.4688326
4137.183,31.543622600000003,-149.7726778,-37.8378202,-0.4932372,-0.4072962,0.9090808,-22.6780214,21.5589576,-167.4924986,18.4028152,49.356370600000005,-6.508652799999998,-1.0291836,-0.0477672,-0.2109106,-166.6956786,75.1458356,163.58821419999998,157.6659626539646,1.1115759222504416,53.07614800794085,1.0516576767642407,-144.0176572,53.586878,331.0807128
4157.17,30.08393880000001,-152.885846,-38.4623366,-0.4221491999999999,-0.386202,0.9096872,-21.915178,18.4663786,-167.0174222,9.620590600000003,43.6367308,-11.5100302,-1.0481767999999998,-0.0500466,-0.2103178,-166.727899,74.09334080000001,163.2398408,160.49447534912085,1.0746593570562162,46.14326422793893,1.0702396195369706,-144.812721,55.6269622,330.257263
4177.156,26.191942200000007,-155.516623,-38.91218640000001,-0.3476285999999999,-0.3672675999999999,0.899459,-21.2655126,15.3122802,-166.5794644,-2.9080347999999967,31.477674200000003,-17.412360999999997,-1.0650668,-0.0653032,-0.1994476,-166.1229948,73.44504979999999,163.93064280000004,162.43643715607843,1.031870934869628,36.09003955433795,1.085546471385836,-144.8574822,58.1327696,330.5101072
4197.142,20.273568200000003,-157.6967164,-38.7916032,-0.2774671999999999,-0.3561404,0.9095812,-20.7625036,12.1086924,-166.1618344,-15.3732126,15.5047642,-20.789547,-1.0523618,-0.0886912,-0.1959118,-165.2720518,73.0896224,165.135907,163.65836492440076,1.0154614670096744,30.14860930470275,1.0741102924913808,-144.5095482,60.98093,331.2977414
4217.129,16.263563000000005,-158.8506898,-38.1746514,-0.2229925999999999,-0.365509,0.9284636,-20.3718412,8.8873678,-165.7547818,-25.205211,1.4654290000000003,-24.5088612,-1.0375902,-0.0986318,-0.1946787999999999,-164.1489866,72.9796112,166.8303864,164.1808427950786,1.0224319954210743,35.187134311128936,1.0602931152642272,-143.77714540000002,64.0922434,332.58516820000006
4237.115,13.182560200000005,-159.48862,-36.571465,-0.1974754,-0.340932,0.9088366,-20.0637728,5.6607892,-165.3356962,-35.514660199999994,-12.1653022,-28.8370686,-1.0184760000000002,-0.1257342,-0.1965758,-162.2294768,73.1429306,169.77378860000002,164.15806972298756,0.99056303571692,47.33774595584262,1.0448657793091325,-142.165704,67.4821414,335.1094848
4257.102,9.770599600000002,-159.694983,-36.3322416,-0.1699964,-0.3359894,0.912006,-19.8457216,2.424626,-164.9278898,-41.6139542,-18.4556996,-32.5220032,-1.00049,-0.1349218,-0.2128608,-160.0582518,73.3647064,101.1056978,164.06701067428082,0.9866826222049926,55.94653451310409,1.0317431135664925,-140.2125302,70.9400804,266.03358760000003
4277.088,8.775900400000001,-159.3496186,-36.4050336,-0.1435528,-0.3305136,0.917435,-19.6657874,-0.7932553999999999,-164.53588240000002,-42.9425568,-22.2140834,-36.453772,-0.9893876,-0.1257816,-0.2208354,-157.58551319999998,73.5932634,32.780441400000015,163.6906956647607,0.9856640530108624,60.55085613640294,1.0215072725269654,-137.91972579999998,74.3865188,197.3163238
4297.074,9.648020400000004,-158.8449098,-37.306269400000005,-0.120218,-0.3171846,0.916869,-19.483525000000004,-3.9977397999999993,-164.17485040000005,-46.9981056,-23.872029000000005,-37.0161176,-0.9867062,-0.1180856,-0.225177,-155.1063568,73.81557480000001,-35.45325919999999,163.45197277351636,0.9776027829144924,64.41186739058745,1.0189396524695662,-135.6228318,77.8133146,128.7215912
4317.061,12.700643400000004,-157.86585399999998,-37.4676854,-0.0739881999999999,-0.2881894,0.885849,-19.2542232,-7.189583600000001,-163.8334624,-46.243383,-27.0695446,-37.9941114,-0.9942058,-0.1112768,-0.2208079999999999,-152.406186,74.05122700000001,-103.47349239999998,162.74753961629236,0.934481586128159,65.68685726392829,1.0244920067213212,-133.15196279999998,81.2408106,60.35997000000001
4337.047,13.416256200000005,-157.15769360000002,-38.4941118,-0.0132695999999999,-0.280929,0.8866251999999999,-19.0237842,-10.3731672,-163.5277068,-41.925734,-23.6664516,-34.5207226,-0.9818758,-0.1259308,-0.2299298,-150.32075200000003,74.1487184,-172.4328614,162.35865616395827,0.9301620453448955,59.24144150508197,1.0162708132886231,-131.2969678,84.52188559999999,-8.905154599999992
4357.034,15.4024624,-156.452524,-37.8080766,0.0558214,-0.266493,0.872602,-18.7668214,-13.5383012,-163.2250792,-33.524523599999995,-19.8864132,-30.3178928,-0.9742156,-0.127993,-0.2198468,-148.2023988,74.16868,-169.5016114,161.6913070333265,0.91409452364127,49.3815525920397,1.0068817501586769,-129.4355774,87.7069812,-6.27653219999999
4377.02,18.000131600000003,-155.6329928,-36.111391600000005,0.1008246,-0.2545672,0.8607972,-18.4810018,-16.683438000000002,-162.9058714,-28.172395,-15.7495838,-25.3697532,-0.9798252,-0.154365,-0.2081736,-146.3908052,74.14630600000001,-167.0043488,160.77831255735558,0.9032950120579876,41.05310715814526,1.0135197203394712,-127.9098034,90.829744,-4.098477399999996
4397.007,21.388242400000003,-154.6664064,-34.746293200000004,0.1628034,-0.2459153999999999,0.8319762,-18.1467276,-19.811745,-162.5791288,-17.163053599999994,-10.0412124,-22.146152,-0.9720864,-0.1632008,-0.2085461999999999,-144.7773438,74.0466462,-164.9421296,159.95767900539033,0.8827025140868016,29.763205535450822,1.007510787892636,-126.6306162,93.8583912,-2.363000799999992
4416.993,23.1743012,-154.5267824,-33.795329800000005,0.2059888,-0.2233448,0.7975664,-17.7892268,-22.9362394,-162.2504332,-8.037692399999994,1.1377808000000005,-17.8439474,-0.9432374,-0.1619396,-0.2152664,-143.7056824,73.7931748,-163.6309784,159.86775482033906,0.8534790259997255,19.603711461859284,0.980948953705482,-125.9164556,96.7294142,-1.3805451999999945
4436.979,24.652397600000004,-153.7740756,-32.6195402,0.2564306,-0.2123422,0.7725432,-17.4197044,-26.036758000000003,-161.917816,1.1943252000000044,10.708574,-13.7992354,-0.9439362,-0.1407706,-0.211708,-143.1114288,73.43810119999999,-163.0058928,159.11706833939098,0.841230561964697,17.50768024100978,0.9775746461313324,-125.6917244,99.4748592,-1.088076799999999
4456.966,26.6607148,-152.19181239999998,-32.317686200000004,0.3129384,-0.208308,0.7541406,-17.019054999999998,-29.1086984,-161.6044432,6.165761200000004,20.6802964,-9.9671502,-0.9518066,-0.1396552,-0.2175869999999999,-143.2740356,73.00048360000001,-163.3052338,157.85301491123127,0.8426450674079331,23.77047230234685,0.986297866397165,-126.2549806,102.109182,-1.7007906000000048
4476.952,27.4702564,-150.1466188,-32.6102422,0.3710114,-0.2046698,0.7077222,-16.6069252,-32.1536558,-161.3222686,10.120797000000003,32.0264546,-6.217121199999999,-0.9430676,-0.1326092,-0.2304339999999999,-143.97060240000002,72.4202132,-164.2460296,156.0834713225488,0.8248696250528564,34.158116490470604,0.9798272941954618,-127.36367719999998,104.573869,-2.9237610000000016
4496.938,28.0735764,-147.6306978,-32.211646,0.417025,-0.1878818,0.6752044,-16.176034199999997,-35.15071999999999,-161.069165,13.898373000000005,42.702752,-3.5260229999999995,-0.9281496,-0.1450232,-0.2460258,-145.0371644,71.6843032,-165.65904519999998,153.68974839861923,0.815543011235827,45.04578380511501,0.9710932513327646,-128.8611302,106.8350232,-4.589880200000005
4516.925,25.450837400000005,-143.4781006,-32.3146022,0.4857272,-0.1837814,0.6164144,-15.786819,-38.0715548,-160.861148,18.755837400000004,54.84534620000001,-1.183424,-0.9333988,-0.1560216,-0.269112,-146.4086366,70.759793,-167.50314020000002,149.2579779827169,0.8060230941686225,57.97580468382367,0.9838685522222976,-130.6218176,108.8313478,-6.641992200000004
4536.911,24.186516600000004,-138.07783039999998,-32.3891654,0.5437086000000001,-0.1776544,0.5692094,-15.4063682,-40.9065782,-160.7030456,22.653448600000004,62.5338624,0.6391826,-0.930225,-0.1609512,-0.3094179999999999,-148.1023286,69.441751,-169.93832400000002,143.87332229611505,0.8069569186776206,66.51369208314269,0.993460285129929,-132.6959604,110.3483292,-9.2352784
4556.898,23.038090400000005,-131.53780799999998,-31.0916308,0.590881,-0.1700458,0.5409126,-15.0348086,-43.6116708,-160.5752136,25.344988400000005,62.5948572,0.4527527999999999,-0.9088488,-0.1808718,-0.3407964,-149.686554,67.86561120000002,-172.4782592,137.11177210045437,0.8189275737801237,67.5328776965889,0.98735147518482,-134.65174539999998,111.477282,-11.903045599999995
4576.884,22.572338800000004,-122.9399672,-29.263075800000003,0.6338322,-0.1570338,0.4923948,-14.6543942,-46.1488266,-160.4779572,28.995994400000008,60.44342820000001,0.5151228,-0.8880468,-0.1957686,-0.3736892,-150.98627,66.30628879999999,-174.8057556,128.3747390233593,0.8178358705549176,67.04059259368512,0.9831561838959464,-136.33187579999998,112.4551154,-14.3277984
4596.87,18.2592754,-113.1362684,-27.1185738,0.6754952000000001,-0.1450948,0.4433116,-14.3456996,-48.4910088,-160.4074158,30.523772200000007,54.5598382,-0.6330278,-0.8768584,-0.199887,-0.3956634,-151.95953960000003,64.8305892,-176.8230286,117.76516212596972,0.8208967297441501,62.52101517028691,0.9825400717116428,-137.61383999999998,113.321598,-16.4156128
4616.857,15.079750400000004,-102.5500166,-24.7081054,0.702054,-0.1541272,0.4378858,-14.0920298,-50.6211854,-160.3539978,29.062408200000004,43.7504094,-1.4412152,-0.8546906,-0.2136385999999999,-0.4137926,-152.58009320000002,63.5256118,-178.43652939999998,106.55700469346952,0.8416525331379214,52.54330589431681,0.973325119861334,-138.4880634,114.1467972,-18.082531600000003
4636.843,14.540121600000004,-91.0658858,-21.548418,0.7220952,-0.1499974,0.412605,-13.8525132,-52.5111016,-160.2996918,27.11472100000001,34.0384464,-3.6360108,-0.8461458000000001,-0.220526,-0.4144477999999999,-152.6659666,62.6345292,-179.28121019999998,94.70345828418388,0.8450819983260797,43.66972066284866,0.9676576928121224,-138.8134534,115.1456308,-18.98151840000001
4656.829,10.264856000000004,-79.08470600000001,-18.8732908,0.7412166,-0.132141,0.3670922,-13.681726,-54.16559600000001,-160.2662904,22.953118600000003,27.218044,-4.4409976,-0.8324579999999999,-0.2137418,-0.4262666,-152.5500426,62.0866922,-107.66467579999998,81.95095543938788,0.8376275874739323,35.88021784123959,0.9593618155350984,-138.8683166,116.2522882,52.601614600000005
4676.816,4.541685800000002,-67.7211272,-16.482070999999998,0.7668421999999999,-0.1241716,0.3580242,-13.6072902,-55.5856088,-160.2535126,17.770240400000006,20.5565002,-5.3657422,-0.8209742,-0.2204552,-0.4268256,-152.3780182,61.6489382,-35.871054,69.84580619903777,0.8553635915404864,27.69733441512474,0.9511988357268106,-138.77072800000002,117.234547,124.38245860000002
4696.802,2.162489600000003,-55.93063880000001,-14.422584999999998,0.7834144000000001,-0.1398046,0.3517886,-13.5627184,-56.76224599999999,-160.2647614,13.784179800000008,14.644115,-3.7254838,-0.8166815999999999,-0.2306662,-0.4311555999999999,-152.2289978,61.3297372,35.984274400000004,57.80072383567874,0.8700796902574385,20.453189150741643,0.9518775567331964,-138.6662794,118.0919832,196.2490358
4716.789,2.2885030000000026,-43.392195400000006,-11.7883316,0.7899266,-0.1171624,0.3249478,-13.4951976,-57.68078319999999,-160.2976472,9.967759600000006,10.5324666,-1.6362397999999998,-0.8245368,-0.227154,-0.4379579999999999,-152.161676,61.1061432,107.8352234,45.02315659218431,0.8621497167465522,14.593367151093402,0.960867880634086,-138.66647840000002,118.7869264,268.13287060000005
4736.775,-4.1895317999999975,-30.5430272,-9.4880656,0.8171284,-0.0984896,0.3188764,-13.5221452,-58.3391618,-160.36823120000005,6.061526400000006,6.6981348,-0.1918701999999998,-0.8280239999999999,-0.2314538,-0.4366484,-152.14871520000003,60.9663444,179.71179500000002,32.25603937362823,0.8826557550209935,9.035702865329078,0.9642906363399988,-138.62657,119.3055062,340.0800262
4756.762,-7.485827599999996,-18.139606800000003,-6.8207584,0.8244632,-0.1130072,0.3381419999999999,-13.6176164,-58.73793579999999,-160.43953240000002,2.5155222000000057,3.1557930000000005,1.07795,-0.8310314,-0.2304696,-0.4308157999999999,-152.1845154,60.90615,179.612912,20.77512201809411,0.8982484108363787,4.177182974211433,0.9640185049259998,-138.566899,119.6440858,340.0524444
4776.748,-6.418224599999997,-5.8305278,-3.7242414,0.8317973999999999,-0.1048255999999999,0.3437114,-13.6912546,-58.8832292,-160.5099854,-0.7235259999999946,-0.5495346000000001,3.2284391999999995,-0.8357222,-0.2308836,-0.4283667999999999,-152.2889496,60.93446720000001,179.5089202,9.437088292905386,0.9060975927305402,3.353848210245924,0.9670764952494916,-138.597695,119.8176964,340.01890560000004
4796.734,-7.4548751999999965,5.4887982,-0.6743453999999999,0.8439160000000001,-0.0833536,0.3422628,-13.7825862,-58.7954218,-160.58010860000002,-3.7889633999999934,-3.5251572,4.9100488,-0.8486212,-0.224389,-0.4258402,-152.4637664,61.03705140000001,179.395767,9.282069362291976,0.9144866658146528,7.133831799925816,0.9756271010721668,-138.6811802,119.8324732,339.9758756
4816.721,-11.198548199999996,15.795442200000002,2.7558786,0.8417554,-0.0739302,0.3541535999999999,-13.963163400000004,-58.497236,-160.6289734,-7.179587199999995,-6.6315912,5.5294122,-0.8514676,-0.2194778,-0.4171182,-152.6742248,61.2049042,179.31911,19.55756485197485,0.9162110020591108,11.22937547167384,0.9732189739795664,-138.7110614,119.7021402,339.9480834
4836.707,-13.802701199999996,25.1899966,5.7396206,0.837154,-0.0899448,0.3853338,-14.2142972,-58.0032342,-160.6563722,-11.132665999999997,-11.7423078,5.7741914,-0.8480992,-0.2149367999999999,-0.4120622,-152.8856568,61.4668228,179.3310456,29.291530068544343,0.9259584354524126,17.18020171771364,0.96709117341837,-138.6713596,119.470057,339.9874178
4856.694,-13.190482599999996,34.080607,8.6872782,0.8383077999999999,-0.0830514,0.377436,-14.4615206,-57.3282502,-160.67129540000002,-13.273741399999995,-18.9698194,6.2875912,-0.8630932,-0.2244312,-0.4054147999999999,-153.0166168,61.8645324,107.4780488,37.562553257646734,0.9231009894257508,23.99124969485765,0.9796225780772512,-138.55509619999998,119.19278260000002,268.1493442
4876.68,-15.039037799999996,42.3091242,11.43995,0.8300798,-0.0734606,0.3740696,-14.756539,-56.4814506,-160.6726106,-13.983636799999994,-26.2798478,6.4034738,-0.8777188,-0.2188974,-0.402713,-153.0386626,62.39558480000001,35.76408400000001,46.336887082791336,0.9134314422903124,30.449580871545106,0.9901939829998968,-138.2821236,118.8770354,196.4366946
4896.667,-19.15528,51.069684800000005,14.6933022,0.812102,-0.0849531999999999,0.3870626,-15.1609946,-55.4550108,-160.644559,-16.283318999999995,-34.1811938,4.6790854,-0.8817266,-0.2147224,-0.3949952,-152.89430240000002,63.050744400000006,-35.71325359999999,56.48832257192876,0.9036283311810228,38.1496307639984,0.9897316374817772,-137.7333078,118.5057552,124.9313054
4916.653,-22.7239378,59.8023134,17.1383944,0.8068134,-0.1170778,0.4110146,-15.645828,-54.2463964,-160.61387359999998,-18.0582888,-43.0340362,3.1803762,-0.8889406,-0.2128884,-0.3824534,-152.544284,63.8492452,-106.9250304,66.23004302988214,0.913010446317872,46.77761065745708,0.9908619804768372,-136.898456,118.0956416,53.6888432
4936.639,-20.7222334,67.2961854,20.0451282,0.7904102,-0.1141474,0.4229348,-16.0865802,-52.87889319999999,-160.5832674,-18.9172096,-50.3805694,2.5154844,-0.8946008000000001,-0.2109724,-0.3714005999999999,-152.0032042,64.76729259999999,-177.911328,73.21198461337927,0.9036878654944084,53.873836450406905,0.991341692154002,-135.916624,117.6461858,-17.328060600000004
4956.626,-22.581681,75.1701676,23.2048312,0.7652874,-0.12161,0.4289184,-16.5721586,-51.33955519999999,-160.5435426,-21.074402199999994,-55.0209662,1.448975,-0.9004973999999999,-0.2000432,-0.3585163999999999,-151.3169188,65.7527594,-176.6959472,81.84711726639091,0.8856775883792701,58.93671757249068,0.9896700755009014,-134.74476020000003,117.0923146,-16.152404600000004
4976.612,-27.662345199999997,82.7080048,25.7073078,0.7342354,-0.1615473999999999,0.457282,-17.161993000000002,-49.6448578,-160.508896,-24.6952188,-58.74454860000001,0.3465252,-0.9082124,-0.198942,-0.3403412,-150.4960234,66.7870314,-175.2633972,90.9213125415858,0.8799465964386247,63.725159093656806,0.9900807115054812,-133.33403040000002,116.4318892,-14.754501200000004
4996.599,-28.0598022,89.8397172,28.0739338,0.7084773999999999,-0.1866862,0.4810924,-17.749158,-47.7990198,-160.493451,-26.1625868,-59.1042228,0.5612182,-0.9204808,-0.1948534,-0.3167808,-149.60752240000002,67.8264724,-173.7360352,98.2174783075084,0.8764940735218693,64.63826317845789,0.9927753149171468,-131.8583644,115.62549219999998,-13.242584200000003
5016.585,-26.64544,95.71669319999998,30.794850399999994,0.6734652000000001,-0.1823732,0.5208921999999999,-18.2872624,-45.8137988,-160.4955688,-26.52723899999999,-58.8679992,-0.1904103999999999,-0.9214528,-0.1926302,-0.3080658,-148.5953246,68.8392562,-172.0775788,104.0191695847208,0.8707146741097913,64.56912570954286,0.990497952400468,-130.3080622,114.653055,-11.582010000000002
5036.572,-29.102694799999995,102.1020616,32.6699932,0.6400509999999999,-0.2167705999999999,0.532249,-18.8729282,-43.69492820000001,-160.51613460000002,-26.4836244,-57.5385086,0.5479109999999999,-0.9326982,-0.1870834,-0.2890898,-147.5306884,69.82964159999999,-170.3738558,111.0816199165289,0.8601998451675982,63.34321226253425,0.994232891883406,-128.6577602,113.5245698,-9.857721200000004
5056.558,-30.218672999999995,107.7075258,34.5666294,0.5980974,-0.231954,0.5505446,-19.463222,-41.4581766,-160.5664246,-21.713589399999996,-49.0344694,3.7956188,-0.9516042,-0.1883474,-0.258584,-146.7100982,70.8432876,-168.9683902,117.08514500104418,0.8453534849942479,53.7611930303471,1.003937737910275,-127.2468762,112.3014642,-8.4019656
5076.544,-30.9396752,112.5703904,35.9169498,0.5685952000000001,-0.2458908,0.5933328,-20.0394454,-39.1094468,-160.6596192,-16.210688799999993,-38.2279164,6.6067862,-0.9438626,-0.1913768,-0.2442738,-146.17851860000002,71.6962936,-167.9909518,122.14492858578134,0.8577916988077701,42.04532848662672,0.9935649835936448,-126.1390732,110.8057404,-7.331332600000001
5096.531,-29.154174599999997,116.4871566,37.7023536,0.5280236,-0.2511123999999999,0.6411792000000001,-20.5601028,-36.6646042,-160.7785522,-9.396072599999997,-27.5615398,10.175438,-0.9429922,-0.1804802,-0.235163,-146.0200346,72.4071914,-167.5513766,125.85980699309704,0.8677425459797162,30.845813248207588,0.9884882540636888,-125.4599318,109.0717956,-6.772824400000002
5116.517,-27.9034956,120.65719,38.71353380000001,0.4958322,-0.2718931999999999,0.6381342,-21.0475982,-34.1370228,-160.9280152,-8.004534799999995,-22.38688,14.311316199999998,-0.9457684,-0.1828072,-0.2241969999999999,-145.8318998,72.72782600000001,-167.18506499999998,129.75168694348088,0.8526375196839041,27.74993234001109,0.9890200370161364,-124.7843016,106.8648488,-6.257049799999999
5136.503,-25.9996808,124.073755,39.591799,0.453944,-0.2855192,0.6637778,-21.4833034,-31.531774599999995,-161.110492,0.3265058000000053,-14.7763606,17.6001798,-0.951829,-0.179401,-0.2273826,-146.20404639999998,73.173114,-167.5835696,132.80734403472692,0.8533389341155599,22.982901636020504,0.9949201027342648,-124.720743,104.7048886,-6.473077599999999
5156.49,-25.7593648,127.385402,40.2545356,0.4091806,-0.2989814,0.6960604,-21.8998626,-28.8456594,-161.3280364,3.776461400000005,-12.074352200000002,17.545564000000002,-0.9411898,-0.173087,-0.2202304,-146.5764128,73.44141379999999,-168.1242952,136.0551842230672,0.8609986767762654,21.630960631313418,0.98198715789831,-124.6765502,102.2870732,-6.796258800000004
5176.476,-23.0246628,129.3955262,40.924543,0.360128,-0.308728,0.757826,-22.2572918,-26.116474600000004,-161.56619259999997,5.308554800000005,-7.931242,17.9139246,-0.9430274,-0.159305,-0.2265876,-147.1367888,73.64122760000001,-168.8896486,137.65229935379736,0.894038813835283,20.29763652008904,0.9828635208662084,-124.879497,99.7577022,-7.323456000000005
5196.463,-17.404096399999997,131.079239,41.9648498,0.3160444,-0.3436976,0.7878133999999999,-22.5154388,-23.3466428,-161.80614939999998,6.7520514000000045,-5.7464228,19.1182566,-0.9516272,-0.1635956,-0.2430358,-147.84588920000002,73.8019362,-169.8383058,138.72893745378494,0.9157849399486104,21.074138381628927,0.9957028915298178,-125.3304504,97.148579,-8.032156400000002
5216.449,-12.439737799999996,131.58771059999998,42.9429458,0.2506826,-0.3298542,0.7858046,-22.6818034,-20.5508456,-162.0387878,15.218348200000005,0.2574779999999999,20.257685,-0.963368,-0.145199,-0.2221473999999999,-149.0364746,74.23128799999999,-171.3971162,138.97542679000424,0.8883323863180719,25.338473087701093,0.9992547825013198,-126.3546712,94.7821336,-9.358328400000005
5236.435,-18.0996434,131.6037628,43.2456108,0.1903286,-0.3319248,0.7949528,-22.9737754,-17.7505876,-162.27289739999998,14.428703200000006,7.3338566,21.294001200000004,-0.9557668,-0.1363256,-0.2305706,-150.56059580000002,74.34429159999999,-173.33803419999998,139.70443918426827,0.8822408985423653,26.74710107224062,0.992591379562587,-127.5868204,92.0948792,-11.065136800000005
5256.422,-19.487589799999995,130.8980864,43.0281784,0.1488944,-0.3812714,0.8913976,-23.3024696,-14.968714799999995,-162.5188204,18.394516600000006,14.6179014,25.380499,-0.9473138,-0.1257338,-0.2662721999999999,-152.54955139999998,74.3339156,-103.841205,139.1599774210141,0.980880779756174,34.58628357856332,0.9920248528266418,-129.2470818,89.3026304,58.6776154
5276.408,-8.666392399999996,130.9536102,44.7836616,0.106884,-0.3838356,0.8938492,-23.430784600000003,-12.1766832,-162.7397858,25.055551600000005,16.6403412,27.118638200000003,-0.9719468,-0.0987382,-0.2350716,-154.555533,74.296083,-34.501293999999994,138.6705834989802,0.9786318764601938,40.49817476202082,1.0048325588355702,-131.1247484,86.4727662,128.2384918
5296.395,-8.935648199999997,130.69855040000002,43.5831238,0.0502132,-0.3441186,0.8213560000000001,-23.5711754,-9.3975088,-162.9853302,23.71868820000001,18.2160016,26.2469298,-0.9615694,-0.1314634,-0.224697,-156.54447639999998,74.2082856,34.88165580000001,138.063194101765,0.8919443116339719,39.79070504711056,0.99618626690239,-132.973301,83.60579440000001,197.866986
5316.381,-20.55357,130.6577088,40.9982522,0.0106442,-0.3724364,0.8451147999999999,-23.9580598,-6.647549399999998,-163.28815619999995,24.972443400000003,20.888626,24.943395,-0.9668162,-0.1262648,-0.2577668,-158.5074462,74.0322952,104.2658478,138.47289551412325,0.923602293315494,41.01378523935709,1.0085237168672434,-134.5493864,80.6798446,267.554004
5336.368,-18.9697978,130.96608880000002,39.4168366,-0.0228362,-0.443541,0.9457624,-24.3289724,-3.9072202,-163.641626,29.235707200000007,21.5011574,24.858734400000003,-0.9792044,-0.1094102,-0.2441396,-160.0893736,73.8013336,174.01295180000002,138.07844383426934,1.0448524431541517,43.98844190231623,1.0150940809262756,-135.7604012,77.7085538,337.6545778
5356.354,-3.931010599999996,130.5649598,40.8564752,-0.0634514,-0.407388,0.9005246,-24.4114392,-1.1665801999999998,-163.9752166,27.77534380000001,19.8027516,22.1836794,-0.9914506,-0.1096033999999999,-0.226499,-161.3984344,73.576413,172.06937280000002,136.86457955833987,0.9904219393324848,40.69071547492727,1.0228826885488482,-136.98699519999997,74.7429932,336.04458939999995
5376.34,-8.663549999999997,129.6059112,39.432453200000005,-0.1091264,-0.376011,0.8173292,-24.6001854,1.546503,-164.33106700000002,23.659890000000008,18.6095246,20.040033,-0.9665702,-0.1271648,-0.2590192,-162.577133,73.34230500000001,170.34472680000002,135.74854578210028,0.9062669940313396,36.162241679563984,1.0087218565371328,-137.9769476,71.79580200000001,334.67579379999995
5396.327,-22.9518086,128.4706146,39.0021142,-0.1488342,-0.4014065999999999,0.8592684,-25.091225,4.229367000000001,-164.70271,26.585400400000005,18.9888048,18.9087348,-0.9842432,-0.0587488,-0.2693132,-163.6468474,73.0895522,168.6753268,136.20811005877223,0.9600109691309574,37.74782740632306,1.022113348871797,-138.5556224,68.8601852,333.3780368
5416.313,-22.074673999999995,127.62773280000002,40.0193992,-0.1769791999999999,-0.485307,0.960558,-25.5906168,6.894529400000001,-165.0774628,22.49416560000001,19.752709,18.509948,-1.0094052000000002,-0.0481138,-0.2601052,-164.7512542,72.8176254,167.0532412,135.56430844511928,1.090649436274388,35.196238063770515,1.0434886250479782,-139.16063739999998,65.923096,332.13070400000004
5436.299,-6.623031399999997,125.9698884,43.0048156,-0.2388614,-0.4182807999999999,0.90182,-25.78462,9.5510294,-165.4008972,18.410316600000005,16.76613,16.3368856,-0.9859974,-0.0792938,-0.24989,-165.70705859999998,72.5841476,165.66936960000004,133.27299611408097,1.022395671185378,29.781482562099274,1.0202565322629402,-139.9224386,63.0331182,331.0702668
5456.286,-14.6168738,123.9277252,40.5287528,-0.2865382,-0.4056905999999999,0.8326018,-26.1595624,12.1444926,-165.7658326,17.049250800000006,13.819453199999998,14.1775804,-0.9655358,-0.0951048,-0.2673658,-166.4928618,72.3901702,164.4914582,131.20333027959066,0.9694920114940812,26.12772522794044,1.0063740731330075,-140.33329940000002,60.2456776,330.2572908
5476.272,-26.446733199999997,123.073929,39.079216,-0.3328138,-0.4239663999999999,0.8183239999999999,-26.801931,14.705176999999996,-166.178305,15.885141800000008,12.0149906,12.8610406,-0.9835696,-0.0488028,-0.2693984,-167.2078674,72.2258682,163.4142152,131.8097371957917,0.9798809635743516,23.708734560052847,1.0209634514783377,-140.40593639999997,57.5206912,329.5925202
5496.259,-26.778073199999994,123.0887406,36.8753912,-0.3619628,-0.5044236,0.9510572,-27.4918168,17.227355799999998,-166.6698212,9.540834800000006,6.0624772,10.4690158,-0.99019,-0.0515948,-0.2730474,-167.7995636,72.164093,162.598047,131.2543246638056,1.13576847750439,15.407188267236194,1.0284420946916748,-140.3077468,54.9367372,329.26786819999995
5516.245,-8.880578599999996,122.2776612,39.0023956,-0.4051706,-0.451183,0.8834,-27.8276938,19.755499,-167.1425538,5.158981200000005,-3.2290402,8.671517,-0.9528644,-0.0603886,-0.262279,-168.22464,72.28070360000001,162.0468904,128.6541020230279,1.071505891067968,10.594196275152662,0.9901452527979518,-140.3969462,52.52520460000001,329.1894442
5536.231,-15.945360799999998,118.78654020000002,36.1281106,-0.4538638,-0.4103912,0.8145296,-28.3335204,22.1891446,-167.65741599999998,-0.8621459999999942,-8.4400786,8.069094,-0.9574192,-0.0798132,-0.3034606,-168.67564399999998,72.4953474,161.5954714,125.17882025028926,1.0187599105108327,11.708479853521974,1.0075266781456658,-140.34212359999998,50.3062028,329.2528874
5556.218,-25.970186,116.0106614,34.923983799999995,-0.4937336,-0.4398128,0.807578,-29.0705372,24.557433,-168.20321059999998,-2.6597855999999944,-12.4279864,6.4345916,-0.9767492,-0.0467116,-0.3005436,-169.0341492,72.7782134,161.28075280000002,123.90564460024696,1.0437386612063384,14.245465048756492,1.023009007182322,-139.96361199999998,48.2207804,329.4839634
5576.204,-24.4433252,113.664064,33.6466152,-0.5298301999999999,-0.5107820000000001,0.9143392,-29.8193712,26.8572098,-168.79325880000002,-5.432786199999994,-17.458881,4.3390194,-0.9893236,-0.0621908,-0.305552,-169.2729858,73.1504042,161.150992,121.03342640050278,1.1737267420539927,18.792412857870268,1.037299814819997,-139.45361459999998,46.2931944,329.9442508
5596.191,-5.6618108,110.50856179999998,35.7385678,-0.570486,-0.4693023999999999,0.8307262,-30.1952746,29.1187256,-169.33844,-5.433905999999995,-21.693073,3.7548804,-0.983287,-0.069571,-0.2880832,-169.4031554,73.60712120000001,161.1328798,116.2817421654604,1.111667683351549,22.67632857008535,1.0269787624543365,-139.2078808,44.4883956,330.47131980000006
5616.177,-10.324545,105.5359054,32.9196132,-0.6201522,-0.4235437999999999,0.7572994,-30.6870584,31.2638114,-169.9071656,-6.410800399999994,-19.5103356,2.850785,-0.9795914,-0.0938832,-0.2788586,-169.5062956,74.010553,161.161966,111.0320876651988,1.0665273005993048,20.73351229554444,1.022827201921302,-138.8192372,42.7467416,331.06913160000005
5636.163,-17.867037399999997,102.4600478,32.455172600000004,-0.6421948,-0.4603735999999999,0.7356484,-31.352011,33.3508292,-170.4863678,-4.025781199999995,-19.9356614,0.5709124,-0.9879596,-0.0522188,-0.2503142,-169.3970642,74.415004,161.3622742,108.95242378729844,1.0796001950474814,20.34609177936139,1.0205136809603483,-138.0450532,41.0641748,331.84864200000004
5656.15,-17.4996576,100.9593336,32.4609598,-0.6589826000000001,-0.4806351999999999,0.7673242,-32.052197,35.401833999999994,-171.092926,-6.307741199999994,-21.786068,-0.2548954,-1.0093234,-0.0309536,-0.2286132,-169.280841,74.8650284,161.61946400000002,107.48366837901722,1.1198458333571817,22.682269057828904,1.0353530056723457,-137.228644,39.463194400000006,332.71239
5676.136,-9.3744396,99.1277998,33.1231268,-0.6741322000000001,-0.4633914,0.7579,-32.6157292,37.4224724,-171.69884340000002,-10.110791599999995,-25.1339318,-0.8596657999999999,-1.0046146,-0.044712,-0.217151,-169.0971374,75.3775132,162.02180780000003,104.93494336974604,1.115167351867333,27.105011709891794,1.028787740147675,-136.48140819999998,37.9550408,333.7206512
5696.123,-9.499769199999998,97.0684294,32.212503600000005,-0.6976264,-0.4108872,0.670778,-33.2223522,39.399839,-172.3402802,-9.680702999999994,-24.6890924,-1.4640066,-0.9717182,-0.0737192,-0.213517,-168.8127656,75.87218779999999,162.516507,102.7140252799785,1.0514057306220088,26.559567192158653,0.9976273301934346,-135.5904134,36.4723488,334.85678720000004
5716.109,-15.8050692,96.3277068,30.5684858,-0.7145888,-0.4213950000000001,0.6451823999999999,-34.0251542,41.3412438,-173.048642,-7.759519599999993,-23.8536648,-2.0146322,-0.9572376,-0.0611952,-0.2399714,-168.46994639999997,76.3376098,163.03293159999998,102.2900759305044,1.0509382609745446,25.164781177566788,0.988754240534401,-134.4447922,34.996366,336.08157360000007
5736.095,-15.8526728,97.2478836,29.3846724,-0.7144898,-0.4358684,0.6458938,-34.919388600000005,43.277984,-173.858194,-6.5947503999999935,-21.0274508,-2.025508,-0.9593972,-0.0307308,-0.2549252,-168.1972016,76.73866419999999,163.4560792,102.81982820272717,1.05719238424283,22.13023051490392,0.9931637463336648,-133.27781299999998,33.4606802,337.3142732
5776.068,-4.691160199999998,96.161644,29.2800602,-0.7594034,-0.4155015999999999,0.6325481999999999,-35.923983199999995,45.5616616,-174.96138000000002,-7.804561799999993,-17.431688,-1.3697314,-0.9427506,-0.0403048,-0.2764664,-168.0306826,77.0559798,163.7928774,100.62996912510916,1.072125146080139,19.148135562699288,0.9832786182117252,-132.1066994,31.4943182,338.75425740000003
5796.055,-4.377321399999998,92.0437562,27.8821884,-0.8205444,-0.3664873999999999,0.4939248,-36.9795878,47.7558434,-176.12174380000002,-5.3849093999999935,-12.3858154,0.4493475999999999,-0.946551,-0.0511264,-0.2682904,-168.0129336,77.2818694,163.924991,96.2737265717757,1.0254598162703206,13.5132374224207,0.98516620075504,-131.0333458,29.526026,340.0467348
5816.041,-13.705066799999996,86.71713259999999,25.169054,-0.8728415999999999,-0.376079,0.4631126,-38.2916094,49.826011,-177.349237,-4.176502399999995,-8.2905426,2.0325338000000004,-0.9685042,-0.0363098,-0.2697706,-168.172104,77.4309356,163.8503296,91.33001271002516,1.0572422396075176,9.50302386336912,1.0060293055463343,-129.88049460000002,27.604924600000004,341.1995666
5836.027,-16.4105274,81.9582642,23.7330304,-0.8923264,-0.3938314,0.4753782,-39.7127054,51.786339,-106.6411102,-1.871890399999994,-7.597058199999999,3.3271836,-0.9959076,-0.0346584,-0.2462284,-168.37198200000003,77.5823242,163.6847504,86.88912021761111,1.085050233306348,8.502318370415702,1.0264801885057888,-128.65927660000003,25.7959852,270.3258606
5856.014,-12.714554199999998,76.9608262,22.376149,-0.9192856,-0.3989884,0.5022302,-41.0919794,53.62032859999999,-35.9695984,-1.5179915999999944,-9.124171999999998,3.608858,-0.9992562,-0.0571846,-0.2152639999999999,-168.4994112,77.7773682,163.58312080000002,81.14998892151216,1.1209428761065214,9.928679129039194,1.023778111414578,-127.4074318,24.1570396,199.5527192
5876.0,-14.920590399999998,72.5796738,20.7129992,-0.9069368,-0.3930648,0.4673028,-42.2832596,54.97081920000001,34.885437,0.4412232000000058,-11.834827,2.3561690000000004,-0.9966646,-0.066765,-0.1844932,-168.4005188,78.031543,163.6720612,76.93803612426157,1.0933463326325836,12.075153845343266,1.015793104408767,-126.1172592,23.0607238,128.7866242
5895.987,-16.6566604,69.855896,20.4363826,-0.8798085999999999,-0.3960178,0.467704,-43.5522682,56.2704484,105.6940124,2.479547200000005,-12.5222898,-0.6762001999999999,-0.966486,-0.0656584,-0.178718,-167.9410614,78.2839646,164.08709100000002,74.66549588275248,1.0722128063807108,12.78331501851894,0.9850615905670874,-124.3887932,22.013516200000005,58.3930786
5935.959,-17.525115999999997,67.83226020000001,21.1368694,-0.8665204,-0.4001379999999999,0.4955718,-45.2390046,57.760769,176.1763946,3.098174000000006,-12.477568,-1.735727,-0.9636374,-0.0509612,-0.1799604,-167.4120148,78.52937779999999,164.56265560000003,73.17863392197627,1.0754345315338354,12.973092674741402,0.9816210206349292,-122.1730102,20.768608800000003,-11.613739000000004
5955.946,-15.710170599999998,65.0523866,21.1828548,-0.8776626000000001,-0.3875472,0.50037,-46.919941,59.1919076,174.6339326,2.292305600000006,-12.2920208,-2.1869622,-0.9701134,-0.0131904,-0.1852266,-166.966754,78.7695298,164.9738006,70.1949841521091,1.0820603534769213,12.693748224053165,0.9877261203690424,-120.046813,19.5776222,-9.660132000000004
5975.932,-14.421156399999996,61.1715942,20.4488726,-0.8988754,-0.3655184,0.4223639999999999,-48.626368,60.5587678,173.0543702,0.3102764000000059,-11.2210834,-1.6039515999999998,-0.9670022,-0.0010222,-0.212103,-166.691107,78.9754564,165.254483,66.09152804629173,1.05828731163126,11.33938467683741,0.9899909001130668,-118.064739,18.416688600000004,-7.799887200000006
5995.919,-16.378801199999995,56.0293092,18.4738004,-0.939441,-0.3473372,0.3895112,-50.3879052,61.823539800000006,171.4709534,0.1070610000000058,-8.3184188,0.3056775999999999,-0.9586432,-0.0190726,-0.240643,-166.6325194,79.1114854,165.3164946,61.22768915611111,1.0746680873229093,8.324721748206134,0.9885694727362362,-116.2446142,17.287945600000004,-6.154458800000002
6015.905,-15.984483599999995,49.5677926,16.0645994,-0.9694144,-0.3562329999999999,0.4089016,-52.0888902,62.939001600000005,169.9531128,1.855180800000006,-4.281594,3.9944514,-0.9655924,-0.0272512,-0.2616648,-166.98876019999997,79.1704986,164.9196898,54.50267088022168,1.1107955472088102,6.14242500715203,1.0007895774828193,-114.89987,16.231497,-5.033422999999999
6035.892,-12.584959399999995,41.5755494,14.223360199999998,-0.981253,-0.3523451999999999,0.363614,-53.2210152,63.6772508,168.8819702,4.233797800000007,-0.6659098,5.313530999999999,-0.9733522,-0.0247242,-0.259815,-167.51255179999998,79.16566159999999,164.3035704,45.70789304256358,1.1041828340306872,6.826572446036293,1.0077348984407954,-114.2915366,15.4884108,-4.578399799999994
6055.878,-12.183327399999998,32.950347400000005,12.6589548,-0.9867882,-0.3567106,0.32621,-54.1602096,64.2784646,168.02673639999998,5.776576000000006,2.414755,5.8396292,-0.9697438,-0.0399684,-0.253091,-168.07383420000002,79.1032486,163.6156828,37.34177281470071,1.0988204438904474,8.561608563073513,1.003023212551933,-113.9136246,14.824783999999998,-4.411053599999991
6075.864,-12.628395399999995,24.2422446,11.7748494,-0.9755196,-0.366592,0.344196,-54.854253400000005,64.7405984,167.4572114,7.498027800000005,5.098519,6.150273400000001,-0.9751682,-0.0429096,-0.227296,-168.65540760000002,79.00319199999998,162.87066020000003,29.762558223675104,1.097496729318206,10.956330579974368,1.0022263834480711,-113.8011542,14.262593599999994,-4.586551199999991
6095.851,-12.067328599999996,15.9887354,11.1417474,-0.957826,-0.3707206,0.3590377999999999,-55.27052,65.0799348,167.184903,7.345565000000006,6.3867594,6.173217599999999,-0.9872364,-0.0235964,-0.2017522,-169.2987456,78.8955612,162.06687620000002,22.921575302692396,1.0880131209545223,11.526345315825967,1.007916886346667,-114.0282256,13.815626399999996,-5.118026799999996
6115.837,-10.746044199999996,8.5262352,9.8938272,-0.9436908,-0.3698182,0.3564458,-55.434954000000005,65.3065552,167.1610474,4.965125400000006,5.410772799999999,5.7030136,-0.998655,-0.0060478,-0.1795669999999999,-169.94640180000002,78.82073679999999,161.30823060000003,16.913366586742345,1.0744167884920264,9.298026492365464,1.0146884706149173,-114.5114478,13.514181599999995,-5.852816799999994
6135.823,-9.488126199999998,2.4763034,7.857934999999999,-0.9344862,-0.3742296,0.3565904,-55.4134102,65.4244568,167.3159118,1.663110200000006,3.7359828,4.680047,-0.9947984,-0.0143352,-0.1744939999999999,-170.4879484,78.7763382,160.7237366,12.565976276445973,1.0679274155478733,6.215009488443996,1.0100878727306848,-115.0745382,13.351881399999996,-6.592175199999997
6155.81,-8.114890999999997,-2.9686438,5.672753,-0.9254104,-0.3811324,0.3636671999999999,-55.2235208,65.4362686,167.62811879999998,-0.893604999999994,2.2422692,4.0473088,-0.9893562,-0.0196188,-0.1851164,-170.9738158,78.7519744,160.24756480000002,10.336557867693111,1.0648474759860025,4.712431387707525,1.0067167771229604,-115.750295,13.315705799999996,-7.380554000000001
6175.796,-6.409207199999997,-8.498066399999999,3.2006388,-0.9267116000000002,-0.3874548,0.372047,-54.86580359999999,65.3391464,168.0917234,-1.449691399999994,0.7253508,3.197153,-0.9887624,-0.0185806,-0.1961622,-171.3646514,78.74831700000001,159.879831,11.11481705649743,1.0711370509073992,3.584623584660401,1.008204310176742,-116.4988478,13.4091706,-8.2118924
6195.782,-4.894671399999997,-14.5857296,0.6706427999999999,-0.9286574,-0.3973411999999999,0.3700914,-54.34820119999999,65.126744,168.7089994,-1.8393393999999936,-0.9196552,1.8626718,-0.993292,-0.0244532,-0.1984958,-171.587738,78.7715226,159.690451,15.399710316869143,1.0757565896364103,2.774613729836032,1.0132263019049002,-117.2395368,13.6447786,-9.018548399999997
6215.769,-3.707827399999997,-20.8863504,-1.9550408,-0.9330622,-0.4068484,0.365217,-53.68827,64.7960334,169.47553699999995,-3.357730599999994,-2.444331,0.6257884,-0.9952026,-0.0313862,-0.2008401999999999,-171.67548219999998,78.8192368,159.6693482,21.302812058257366,1.0814407735703329,4.200085706424559,1.0157510002619934,-117.9872122,14.023203400000003,-9.8061888
6235.755,-2.270889199999997,-27.0629582,-4.7948854,-0.934894,-0.4189868,0.371525,-52.8965134,64.33965659999998,170.37613219999997,-4.493371199999993,-3.7297912,-0.036187,-1.0012452,-0.0299666,-0.2025826,-171.705017,78.8898102,159.7309328,27.57809946846876,1.0897740845859936,5.839780529742177,1.0219734132849836,-118.8085036,14.550153600000002,-10.6451994
6255.742,0.0226734000000027,-32.9004446,-8.058166199999999,-0.9364823999999998,-0.4238092,0.388034,-51.9802132,63.7541318,171.37227779999998,-5.717285199999994,-5.427135600000001,-0.9248552,-1.0065354,-0.034259,-0.1946918,-171.627194,78.9953126,159.9263368,33.87290674665461,1.0987192128430263,7.937033956075366,1.025764148097115,-119.64698079999998,15.241180800000004,-11.445941
6275.728,2.1368804000000026,-38.6345004,-10.8901632,-0.9362104,-0.4286664,0.3977433999999999,-50.9621956,63.0473952,172.4464692,-7.588352399999994,-6.7913262,-2.1410856,-1.0065316000000002,-0.0439728,-0.1918513999999999,-171.4109526,79.1238464,160.2998048,40.19684730826708,1.103831784195708,10.406221756618464,1.025595645769014,-120.448757,16.0764512,-12.146664399999995
6295.714,4.368482400000003,-44.2236846,-13.95061,-0.936113,-0.4365758,0.4112548,-49.87021320000001,62.2142784,173.5669404,-8.145643799999993,-7.6572074,-3.3380654,-1.0029188,-0.0439686,-0.1917596,-171.061682,79.2637268,160.819983,46.577220155903326,1.1117717789356232,11.667348400462304,1.02203282793243,-121.1914688,17.049448400000003,-12.746957400000005
6315.701,6.977155600000003,-49.6800704,-16.5306566,-0.932441,-0.4405328,0.4247329999999999,-48.7059546,61.2631286,174.7224854,-8.242439999999993,-8.1619002,-4.781327,-0.9966854,-0.0436244,-0.188084,-170.5445646,79.40781100000001,161.5127746,52.82094946934115,1.1153086961222172,12.546534179178284,1.015214492560326,-121.83861000000002,18.1446824,-13.2097108
6335.687,10.117717000000004,-55.3080482,-18.8760628,-0.9309392,-0.4365842,0.4387404,-47.4611098,60.1969918,175.91613460000002,-7.878763999999994,-8.349397999999999,-6.0627032,-0.9930974,-0.0400304,-0.1892136,-169.88746640000002,79.5480774,162.340988,59.309814869169465,1.1179207021870738,12.98243964828607,1.0117542514048952,-122.4263566,19.3510856,-13.5751466
6355.674,12.634520000000004,-61.1784048,-20.8165504,-0.927729,-0.433445,0.4482932,-46.154029,59.0180894,177.14856559999998,-7.810463799999994,-7.342508599999999,-7.2477104,-0.9851258,-0.0427934,-0.186558,-169.10448620000005,79.6613296,163.29538859999997,65.84646596483978,1.1178204053568892,12.94005731650569,1.003547709016965,-122.9504572,20.6432402,-13.853177000000006
6375.66,15.225729,-66.9196592,-23.35182,-0.9207328,-0.438306,0.4670992,-44.815885,57.712455,106.3828918,-7.541367399999993,-6.7452418000000005,-7.5422466,-0.9848344,-0.0412744,-0.1841088,-168.2921816,79.760231,164.27425820000002,72.49393842479512,1.121625027035542,12.619666912302458,1.0027454421517756,-123.4762966,22.047776,57.8913664
6395.647,18.203604,-72.37774879999999,-25.852592200000004,-0.9146044,-0.437615,0.4859204,-43.454779,56.2861594,35.59476019999999,-7.528216399999994,-5.9681572,-7.173217199999999,-0.9792206,-0.0353128,-0.182252,-167.545926,79.84360799999999,165.186276,78.9826958479148,1.1243339058573836,11.98949488208392,0.9966623143332952,-124.091147,23.5574486,129.59151579999997
6415.633,22.515432600000004,-77.56328119999999,-28.4405316,-0.9080436,-0.4336714,0.508493,-42.058982,54.741109400000006,-35.2336364,-7.543506999999994,-4.8652076,-6.4207264,-0.9754572,-0.027062,-0.1838574,-166.93024,79.9055556,165.9667388,85.62634602367436,1.1274658281863448,11.036325038426678,0.9930018350489588,-124.87125799999998,25.164446200000004,201.2003752
6435.619,26.036110600000008,-82.9874572,-30.8724086,-0.9081222,-0.4387058,0.5363536,-40.651706,53.0733702,-106.120175,-7.674523399999994,-2.9587844,-5.9435954,-0.9606412,-0.0397896,-0.1988436,-166.3913544,79.918425,166.670877,92.29248463695524,1.142288883478886,10.147858927957758,0.981811338632102,-125.7396484,26.845054800000003,272.791052
6455.606,30.285194,-88.9848968,-33.247263200000006,-0.9141688,-0.4421533999999999,0.5662688,-39.2167754,51.2763052,-177.06210919999998,-3.9819917999999945,-1.1380308,-4.369887799999999,-0.9579524,-0.0374306,-0.2100666,-166.01690979999998,79.8958298,167.1334746,99.70398860835188,1.1626971135590043,6.020572413118596,0.9814284624554556,-126.8001344,28.6195246,344.1955838
6475.592,35.5047268,-95.6916672,-35.373999600000005,-0.916226,-0.435669,0.5833682,-37.7293442,49.347182200000006,-176.052243,0.1554098000000056,2.5070666,-3.029318599999999,-0.957015,-0.042331,-0.2138474,-165.7908508,79.8057022,167.3606964,108.0222229189855,1.1702974055376865,3.935264454020537,0.9815295890969156,-128.0615066,30.45852,343.4129394
6495.579,39.7336686,-102.9296874,-36.8304358,-0.9106314,-0.4339964,0.6053789999999999,-36.2008666,47.2800292,-175.0729554,3.9975980000000058,6.499050200000001,-2.131270999999999,-0.9603476,-0.0559308,-0.2221574,-165.65672,79.63699040000002,167.4150726,116.31752219633232,1.1764719102128702,7.922168853739807,0.987294119089727,-129.4558534,32.3569612,342.48802800000004
6515.565,41.314358600000006,-110.4796218,-38.04810859999999,-0.9032704,-0.4447008,0.6430324000000001,-34.685019999999994,45.0650282,-174.1227388,9.814053200000007,10.7158178,-0.9593603999999992,-0.9627148,-0.0577612,-0.2265622,-165.636438,79.3912186,167.2351042,123.9366032600451,1.1946325311519688,14.56244360374712,0.9907000418054498,-130.951418,34.3261904,341.35784300000006
6535.551,44.5533768,-117.8714446,-39.14580539999999,-0.882805,-0.4470226,0.68481,-33.150980999999994,42.7024314,-173.2019046,14.224151800000003,14.922769400000002,-0.2227809999999992,-0.9793836,-0.0462986,-0.2103404,-165.73081659999997,79.0824996,166.84928580000002,131.95103226874852,1.203386309144225,20.617108729620185,1.0027855604181184,-132.5798356,36.3800682,340.05119040000005
6555.538,47.6939246,-124.8459182,-39.9590242,-0.8522596,-0.4471216,0.7173754,-31.6103676,40.2014838,-172.32146640000002,15.264783400000004,20.822550400000004,-0.9491449999999994,-0.980837,-0.0438092,-0.209194,-165.8707396,78.6598404,166.3954284,139.4917106855019,1.2003714489706423,25.83588770761479,1.0038538719403536,-134.26037200000002,38.4583566,338.7168948
6575.524,48.9590302,-131.1988096,-40.4169206,-0.816649,-0.447354,0.7499332000000001,-30.1045192,37.5742232,-171.48739340000003,14.646961600000006,27.5198074,-2.5617432,-0.9876006,-0.0619154,-0.2068125999999999,-165.96405620000002,78.103209,165.9987792,145.7519871197929,1.195592319722421,31.279958626374743,1.0109203298956255,-135.859537,40.5289858,337.48617260000003
6595.511,49.925371600000005,-137.0928176,-40.9996674,-0.7776105999999999,-0.4530104,0.7864464,-28.647614999999995,34.824460800000004,-170.711432,15.347500600000007,33.429559000000005,-5.932858199999999,-1.0018576,-0.063412,-0.2022122,-165.87978800000002,77.424881,165.76947019999997,151.55182642850457,1.1951546376153506,37.25962957441726,1.0240261257656469,-137.23217300000002,42.6004202,336.48090220000006
6615.497,51.551051400000006,-142.4147246,-41.4520408,-0.727548,-0.4443522,0.8150552000000001,-27.2223648,31.9647494,-169.9950348,13.375001600000004,36.412629,-9.7067256,-1.017497,-0.0600772,-0.1947284,-165.5928434,76.6825562,165.7889314,157.02782036895294,1.1794447630117657,39.98738226447611,1.037703505214953,-138.3704786,44.7178068,335.78396619999995
6635.483,51.980665,-146.98967280000002,-41.8541006,-0.6730824,-0.4318416,0.8305984000000001,-25.8540764,29.011310400000003,-169.3444092,8.908590800000004,35.596065200000005,-14.741382399999996,-1.0343965999999998,-0.068789,-0.189765,-164.99483320000002,75.9391434,166.2208344,161.430230070852,1.1530051113342386,39.5442941880055,1.0539065460644788,-139.14075680000002,46.92783300000001,335.5652436
6655.47,50.797080400000006,-150.9835816,-42.1904256,-0.6152833999999999,-0.4258616,0.8500211999999999,-24.5733204,25.9727706,-168.7605254,1.1025038000000051,29.0554668,-19.4535128,-1.0378012,-0.0805238,-0.1790154,-164.075299,75.3051056,167.145688,164.7920425938008,1.1324609508144463,34.98392239093096,1.0562016505028953,-139.50197859999997,49.332335,335.9062134
6675.456,49.891819,-154.70235,-42.523303,-0.5634478,-0.4190798,0.8902654,-23.3637626,22.853213200000003,-168.23796679999998,-8.413782999999995,18.8475988,-24.9892298,-1.040075,-0.0654062,-0.1859894,-162.8334838,74.83469699999999,168.6056122,168.01857634404914,1.1338755595434802,32.41119144514836,1.058596256150474,-139.4697212,51.9814838,336.843579
6695.443,49.3410172,-158.318509,-42.042214,-0.5128282,-0.3984356,0.9011502,-22.2071202,19.658037200000003,-167.7580138,-22.051803599999992,7.599762,-28.6059482,-1.0323444,-0.0694056,-0.1852602,-161.4308806,74.5499772,170.5170624,171.07552141769312,1.1107724217960402,36.90987262089507,1.0511296015367275,-139.2237604,54.89194,338.2750762
