Timestamp (ms),Wrist Gyroscope X (deg/s),Wrist Gyroscope Y (deg/s),Wrist Gyroscope Z (deg/s),Wrist Accelerometer X (g),Wrist Accelerometer Y (g),Wrist Accelerometer Z (g),Wrist Roll (deg),Wrist Pitch (deg),Wrist Yaw (deg),Arm Gyroscope X (deg/s),Arm Gyroscope Y (deg/s),Arm Gyroscope Z (deg/s),Arm Accelerometer X (g),Arm Accelerometer Y (g),Arm Accelerometer Z (g),Arm Roll (deg),Arm Pitch (deg),Arm Yaw (deg),Wrist Gyroscope Magnitude (deg/s),Wrist Accelerometer Magnitude (g),Arm Gyroscope Magnitude (deg/s),Arm Accelerometer Magnitude (g),Difference Roll (deg),Difference Pitch (deg),Difference Yaw (deg)
0.0,-1.130868,1.186189,0.163218,-0.962884,-0.02394,0.26256,-5.299235,74.779854,176.732895,0.223774,0.539196,0.80745,-0.972177,-0.221952,-0.053869,-104.408539,77.420296,-156.548767,1.6469811452074976,0.9983268375917778,0.996384781092124,0.9986454219561616,-99.109304,2.640441999999993,-333.281662
19.987,-1.550227,1.3066175,0.1582335,-0.9615065,-0.0234275,0.26111,-5.316843,74.794674,176.777321,0.7156515,0.694402,0.896641,-0.97441,-0.2149625,-0.0528635,-104.442665,77.42906199999999,-156.59612249999998,2.0335906380974267,0.9966052525441054,1.3410131580030265,0.9992388473926042,-99.125822,2.634387999999994,-333.3734435
39.975,-1.6672933333333333,1.486505,0.1863666666666666,-0.9622096666666669,-0.023345,0.2586673333333333,-5.333265333333333,74.813469,176.82165033333334,0.3527913333333333,0.7028083333333334,0.7334663333333333,-0.9751263333333332,-0.2083176666666666,-0.051737,-104.479899,77.436661,-156.63585899999998,2.2414943026577654,0.9966449824213012,1.0753483809497892,0.998470997763358,-99.14663366666666,2.6231919999999938,-333.4575093333333
59.963,-1.7790015,1.4581944999999998,0.1840525,-0.96230525,-0.02137975,0.26004275,-5.34608025,74.82940500000001,176.869423,-0.25039775,0.894323,0.6738585,-0.9747145,-0.2067565,-0.05365175,-104.5479755,77.44203025,-156.695587,2.307607605202572,0.9970510115912764,1.147431017341048,0.9978452370385712,-99.20189525,2.6126252499999976,-333.56501
79.95,-1.9745466,1.4421882,0.0835477999999999,-0.9638894,-0.0221444,0.2602031999999999,-5.371599,74.84447800000001,176.9045654,-0.4871857999999999,1.0036918,0.6467934,-0.9760158,-0.2088547999999999,-0.0529412,-104.6184754,77.4454852,-156.75607599999998,2.446573382238032,0.998638500746872,1.2896080549502007,0.99951485231092,-99.2468764,2.6010071999999984,-333.6606414
99.938,-2.2279394000000003,1.6241115999999998,0.0757478,-0.962923,-0.0227957999999999,0.2594952,-5.4182114,74.8777498,176.9779876,-0.6022798,1.281432,0.637674,-0.976837,-0.2093262,-0.0532718,-104.7530792,77.4528124,-156.8816742,2.7581135198776283,0.9975360200261842,1.5528802459906683,1.0004328399501288,-99.3348678,2.5750625999999985,-333.8596618
119.926,-2.1979918000000005,1.7399244,0.0191885999999999,-0.9650004,-0.0222394,0.2585851999999999,-5.467821,74.91370859999999,177.0431518,-0.5341944,1.5049626,0.629547,-0.9765446,-0.2084396,-0.056836,-104.9138612,77.4586122,-157.035077,2.8033681657878198,0.999293084420962,1.7165679449410445,1.000158364227046,-99.4460402,2.544903599999998,-334.0782288
139.929,-2.2332284,1.588894,-0.0786736,-0.9655538,-0.0219832,0.2596326,-5.523107,74.9456452,177.0987304,-0.4551526,1.945852,0.8531943999999999,-0.9744996,-0.2091174,-0.0614698,-105.1262894,77.4649858,-157.2424958,2.7419122460683383,1.000093240032868,2.1728885335842976,0.9985780358564672,-99.6031824,2.519340600000001,-334.34122620000005
159.901,-2.2971756,1.3997172,-0.1444232,-0.9666482,-0.0238286,0.257421,-5.5871372,74.9746474,177.1427398,-0.4252015999999999,2.4384646,1.031416,-0.974977,-0.2122684,-0.0647442,-105.3887252,77.469754,-157.5015626,2.693897183990035,1.000620865254268,2.681552716459574,0.9999149141808016,-99.801588,2.4951066,-334.6443024
179.889,-2.1706678,1.112441,0.0402764,-0.9664068,-0.0258124,0.255976,-5.637039,74.99865259999999,177.19693,0.0717626,2.8093412,1.1961398,-0.9751552,-0.2113836,-0.0686068,-105.6848936,77.47534479999999,-157.8049774,2.4394560592137746,1.0000660456469863,3.0542262964489453,1.0001587791157165,-100.0478546,2.4766922,-335.0019074
199.876,-1.7041301999999998,0.6465380000000001,0.189745,-0.9690524,-0.0245674,0.2559426,-5.6600962,75.0139282,177.2671998,0.6134326,2.7766548,1.218681,-0.977579,-0.2064324,-0.0683272,-105.968077,77.4842986,-158.1061828,1.83250492196366,1.0025830267779725,3.093750929352071,1.0014707400970837,-100.3079808,2.470370399999999,-335.3733826
219.864,-1.4332228,0.2910992,0.2736188,-0.968845,-0.0241106,0.25727,-5.6675286,75.02143099999999,177.3483154,0.5455165999999999,2.444547,1.2011706,-0.9809312,-0.2052558,-0.0638876,-106.2109588,77.496202,-158.3653472,1.4878620858110203,1.0027112285984234,2.7778065458899257,1.0042099322357052,-100.5434302,2.4747709999999983,-335.7136626
239.852,-0.9893512,0.1936406,0.3132248,-0.9685676,-0.0237772,0.2588191999999999,-5.6613528,75.0261216,177.4359406,0.5630738,1.8389956,1.0092994,-0.9835252,-0.2069281999999999,-0.060725,-106.3854004,77.507385,-158.5553496,1.055661998105852,1.0028339490156086,2.1720133977271314,1.0068905723142312,-100.7240476,2.4812633999999973,-335.9912902
259.84,-0.4694928,0.2503174,0.3746458,-0.9684664,-0.0244758,0.2593418,-5.642168,75.0316774,177.5277314,0.9332824,1.1050798,0.8119008000000001,-0.9838408,-0.2054802,-0.0593575999999999,-106.4806184,77.51964559999999,-158.672,0.6507240317156268,1.0028880306105163,1.6587345512644391,1.0068208167367418,-100.8384504,2.4879681999999974,-336.1997314
279.827,-0.0290859999999999,0.2960126,0.391188,-0.9687526,-0.0228932,0.25957,-5.6099838,75.0381196,177.6235322,0.6697879999999998,0.6450236,0.610126,-0.9817356,-0.2052542,-0.062407,-106.543715,77.52980339999999,-158.75002120000002,0.4914239575954351,1.0031860662474337,1.1121713651128406,1.0049023378289057,-100.9337312,2.4916837999999983,-336.3735534
299.815,0.1010348,0.2066646,0.4693032,-0.9677514,-0.0235236,0.2590264,-5.5705752,75.04297940000001,177.724286,0.0258243999999998,0.7322970000000001,0.598463,-0.9788344,-0.2079533999999999,-0.066895,-106.63564,77.53656,-158.8439604,0.5226507258527822,1.002093213157279,0.9460886629768692,1.0029139246315808,-101.0650648,2.4935805999999987,-336.5682464
319.802,0.3693588,-0.081633,0.6712084,-0.9672626,-0.0253496,0.2584031999999999,-5.513359,75.04259040000001,177.8381564,-0.1183152000000001,1.0236582,0.580317,-0.9762474,-0.2100356,-0.0706721999999999,-106.7620452,77.5391662,-158.9699218,0.7704612813483881,1.0015047445465048,1.1826421341501747,1.0010836624013797,-101.2486862,2.4965758000000022,-336.8080782
339.79,0.6548233999999999,-0.4429436,0.9171188,-0.9677668,-0.0255376,0.2578706,-5.4308954,75.0358154,177.9720126,0.0382315999999999,1.2231104,0.5522112,-0.9774412,-0.2083549999999999,-0.0689954,-106.897621,77.5413498,-159.1086852,1.2108260037189325,1.001859268829889,1.3425341393171943,1.0017801508832165,-101.4667256,2.505534400000002,-337.0806978
359.778,0.9225716,-0.7267904,1.00841,-0.9667474,-0.0235594,0.2604077999999999,-5.330390799999999,75.0221924,178.1183292,-0.2087058000000001,1.1455388000000002,0.5500984000000001,-0.9784034,-0.2078624,-0.0649238,-107.020262,77.54497060000001,-159.2296782,1.5479836467995134,1.0014828021668472,1.2877987043562518,1.0023447961015013,-101.6898712,2.522778200000002,-337.34800740000003
379.766,1.3018808,-0.8276325999999999,0.9378634,-0.9653976,-0.0235254,0.2617194,-5.2275540000000005,75.0056198,178.2580294,-0.1330128000000001,0.8156686000000001,0.5988664,-0.978716,-0.2078066,-0.0605963999999999,-107.1022476,77.5521406,-159.3111786,1.805396658646227,1.0005213715195094,1.0206118924639085,1.00236745525407,-101.8746936,2.546520800000002,-337.569208
399.753,1.4488869999999998,-0.7297667999999999,0.8184197999999998,-0.9650224,-0.0223654,0.2628742,-5.1296568,74.99027099999999,178.38829679999998,0.2275761999999999,0.3967442,0.4829764,-0.9785756,-0.2060126,-0.0589743999999999,-107.134642,77.56064280000001,-159.3494446,1.817042677039612,1.0004355494706092,0.6651789909468276,1.0017631337444397,-102.0049852,2.570371800000004,-337.7377414
419.741,1.3216572,-0.5916748000000001,0.7295558,-0.9643464,-0.022066,0.2625498,-5.0423358,74.9777312,178.50705280000005,-0.3685298000000001,0.1692258,0.4200216,-0.9781424,-0.2069852,-0.0592571999999999,-107.1574722,77.568547,-159.3657318,1.6214525859797813,0.9996915949576648,0.5838404999143517,1.0015572092739584,-102.1151364,2.590815800000001,-337.87278460000005
439.729,1.3294152,-0.5245656000000001,0.7838792,-0.9639274,-0.0234404,0.2618094,-4.955496,74.96698599999999,178.6214418,-0.8094148000000002,0.2299346,0.4486915999999999,-0.9754352,-0.2116166,-0.0641635999999999,-107.2036042,77.5729354,-159.3964418,1.630024675545447,0.9991244400730472,0.95359655549229,1.0001861738494289,-102.2481082,2.6059494,-338.0178836
459.716,1.3776798,-0.6171504000000001,0.9459012,-0.963358,-0.0244236,0.2606636,-4.8586068,74.9552306,178.74371960000002,-0.3442444000000001,0.4125538000000001,0.5531024,-0.9737884,-0.2119804,-0.066079,-107.262999,77.5774734,-159.4500674,1.7814615706519294,0.99829888348426,0.7711206842716386,0.9987822446357963,-102.4043922,2.6222427999999978,-338.193787
479.704,1.3741378000000002,-0.7160062,1.1067816,-0.9617824,-0.0233101999999999,0.2615603999999999,-4.7478526,74.94118940000001,178.885132,-0.3155564000000001,0.5977242,0.5952242,-0.9741186,-0.21038,-0.0634952,-107.333052,77.58300779999999,-159.51546639999998,1.9041756961808545,0.9969867567936698,0.9006341705222161,0.9985982333696573,-102.5851994,2.641818399999997,-338.4005984
499.692,1.4260534,-0.7173320000000001,1.1261236,-0.9605826,-0.0233402,0.2633272,-4.6355928,74.92609999999999,179.0319642,-0.6233702000000002,0.538269,0.6463846,-0.9744347999999998,-0.21111,-0.0594066,-107.3939086,77.590149,-159.5657074,1.953547506551228,0.996295593997404,1.04696560293364,0.9988091687978238,-102.7583158,2.664048999999997,-338.5976716
519.679,1.4863068,-0.5603048,1.0525848,-0.959023,-0.0221054,0.2660099999999999,-4.5264892,74.91248300000001,179.1752168,-0.4053412000000002,0.7029294,0.7303932,-0.9728518,-0.211125,-0.0576524,-107.461879,77.5978928,-159.62793259999998,1.905514138971506,0.995477314326228,1.091735066949871,0.9971650764111224,-102.93538979999998,2.6854097999999964,-338.8031494
539.667,1.198767,-0.3557672,0.9328418,-0.9577354,-0.0213416,0.2665072,-4.4325622000000005,74.9024168,179.30925299999998,-0.6566280000000001,1.102332,0.6790689999999999,-0.9717024,-0.210501,-0.0585762,-107.569957,77.602124,-159.7259734,1.56006616677373,0.9943533818293976,1.451699306113012,0.9959655598328688,-103.1373948,2.699707199999997,-339.03522639999994
559.655,0.8592088,-0.3797272,0.9776706,-0.9597982,-0.0210914,0.2678278,-4.3423426,74.8915892,179.4459472,-1.2200604,1.8351154,0.5767144,-0.9703614,-0.209961,-0.0643748,-107.7631912,77.5988602,-159.89899880000002,1.3558290122731702,0.9966891001360656,2.277892756503844,0.9949014941219056,-103.4208486,2.707271,-339.344946
579.642,0.386134,-0.8060294000000001,1.271405,-0.9610178,-0.0202634,0.2724342,-4.2364716,74.8704512,179.6047484,-1.9415498,2.9432922,0.4591743999999999,-0.9681078,-0.2099638,-0.0705306,-108.0754882,77.5848924,-160.1785338,1.5541085977644422,0.9990926937106686,3.555759515219813,0.9931223868525167,-103.8390166,2.7144411999999987,-339.7832822
599.63,-0.3086858,-1.6059864,1.8570064,-0.962072,-0.019364,0.274907,-4.0969454,74.83317240000001,107.8091062,-3.158249,4.3381182,0.2533434,-0.9676656,-0.2106894,-0.0782105999999999,-108.5392974,77.55615700000001,-160.5875916,2.4744599430476866,1.0007653852572045,5.371963248338154,0.9934201702442323,-104.442352,2.722984599999998,-268.3966978
619.618,-0.8062172000000001,-2.9961044,2.6366722,-0.9661052,-0.0199268,0.2768902,-3.9072236,74.7690032,36.074621400000005,-4.5204462,5.9386688,0.0188728,-0.9635596,-0.2076364,-0.0912468,-109.1869948,77.5104782,-161.1556856,4.071691054037381,1.0051987453639804,7.463415916707826,0.989891890999901,-105.2797712,2.741475,-197.230307
639.606,-0.4915777999999999,-5.185963,3.6688072000000007,-0.9695056,-0.0197546,0.2775202,-3.6305907999999993,74.6630554,-35.57647719999999,-4.9260936,7.8006148,0.0023882,-0.96388,-0.2074158,-0.1027268,-110.013896,77.4483628,-161.898166,6.371499606968024,1.0086371072197176,9.225833031083926,0.9912813747508222,-106.3833052,2.7853073999999998,-126.3216888
659.593,-0.2834144,-7.591021599999999,4.652218599999999,-0.9711598,-0.0181752,0.2803584,-3.2735944000000003,74.50967560000001,-107.14829419999998,-4.7953254,9.137446400000002,-0.0848994,-0.967638,-0.2104778,-0.1049426,-110.9330078,77.3720704,-162.7383364,8.907697264499948,1.010980972858362,10.319655048153429,0.9958097974169564,-107.6594134,2.8623947999999984,-55.59004220000001
679.581,-0.0764204,-9.7494454,5.5077438,-0.9721474,-0.015222,0.2863224,-2.8489866,74.31203620000001,-178.6539062,-3.712944,9.8730994,-0.2108693999999999,-0.9754414,-0.2119496,-0.0997155999999999,-111.8564362,77.2879594,-163.60647920000002,11.197891205559902,1.013549600834868,10.550284868820972,1.0031708521769758,-109.0074496,2.9759231999999995,15.047426999999994
699.569,0.4638428,-11.6236898,6.0890392,-0.9727306,-0.0096372,0.296813,-2.3696550000000003,74.07322860000001,-178.1129148,-2.6135962000000004,10.1151096,-0.1784132,-0.9789016,-0.2105141999999999,-0.0924607999999999,-112.7457642,77.20414740000001,-164.4636782,13.1301832846641,1.017052433638109,10.448835274163375,1.005541431479002,-110.3761092,3.1309187999999977,13.6492366
719.556,1.2823243999999998,-13.3462504,6.602880400000001,-0.9715342,-0.0025462,0.307905,-1.8375524,73.7957948,-177.5286802,-1.0574722000000003,10.2553352,-0.0168405999999999,-0.9825022,-0.2085568,-0.0907904,-113.5986466,77.12187200000001,-165.316263,14.94539344356781,1.0191617506211073,10.309725075090038,1.008488675475952,-111.76109419999996,3.3260771999999976,12.212417200000004
739.544,2.4328344,-15.3996242,7.242535999999999,-0.971271,0.0049126,0.3179766,-1.2457021999999998,73.4736284,-176.8989318,0.4838759999999996,10.8541912,0.156266,-0.977313,-0.2098108,-0.1016636,-114.4734696,77.0304902,-166.22267159999998,17.190736936802477,1.022008124834299,10.866095050766372,1.0047371593260597,-113.2277674,3.5568617999999987,10.676260200000002
759.532,3.7834888,-18.4262794,8.7756902,-0.971168,0.0127446,0.3317988,-0.5439482,73.0851258,-176.17843299999998,1.5141745999999998,12.7778744,0.3428226,-0.9639052,-0.215451,-0.1268314,-115.5050902,76.9110824,-167.30960380000002,20.75705418678108,1.0263625834638557,12.87184237926068,0.9958004679723744,-114.961142,3.825956600000001,8.868829200000004
779.519,4.273327,-22.6929114,11.6300372,-0.9717274,0.0117434,0.3388308,0.2984665999999999,72.60825360000001,-175.3140166,1.9357873999999995,16.3804882,0.3393529999999999,-0.9537982,-0.2267642,-0.154664,-116.8074934,76.7405394,-168.6823026,25.855121673095308,1.029173628880453,16.497964328575417,0.9925089226908138,-117.10596,4.1322858,6.631714000000005
799.507,4.583947,-28.194062,15.8857078,-0.9759074,0.0077,0.349275,1.330786,72.0153382,-174.2554168,2.3199315999999994,20.098231,-0.7261399999999999,-0.9481098,-0.229618,-0.1794798,-118.3328504,76.50325460000002,-170.2912168,32.68445218243124,1.0365556275471952,20.244709216425896,0.9918919383622794,-119.6636364,4.487916400000003,3.964200000000005
819.494,6.083550000000001,-35.0278634,20.8501668,-0.9752894,0.0205366,0.3664766,2.6053976,71.272339,-172.9720826,2.0780978,22.7856794,-1.7790104,-0.945569,-0.2314126,-0.1878336,-119.9694806,76.21274100000001,-172.0110838,41.21517015079984,1.0420730607973128,22.949304002284197,0.9914302731350906,-122.5748782,4.940402000000003,0.9609988000000044
839.482,6.1387352,-42.104905,25.173689,-0.976217,0.038853,0.3941215999999999,4.020832,70.3685638,-171.5542542,2.0521196,24.0293416,-2.71372,-0.9567192,-0.2217193999999999,-0.1773898,-121.5742582,75.89627820000001,-173.70104959999998,49.43907071116392,1.0534899250987453,24.269007577991207,0.9979670641504358,-125.5950902,5.5277144000000025,-2.146795399999996
859.47,5.650102,-48.7049706,28.5452128,-0.9786784,0.0458302,0.4197833999999999,5.459526800000001,69.31607360000001,-170.1078066,2.7425162,22.761017,-3.7685828,-0.9670934,-0.2309823999999999,-0.1679816,-123.0766386,75.52030160000001,-175.32609240000002,56.73558836880562,1.0658939538125545,23.233327490955904,1.0083850114772035,-128.53616540000002,6.2042280000000005,-5.218285799999995
879.457,6.588409199999999,-54.95506519999999,31.271152800000003,-0.9806606,0.060807,0.4500925999999999,6.8945176,68.11893599999999,-168.69166879999997,5.1509762,20.230061,-4.6695138,-0.9729358,-0.2329113999999999,-0.1664112,-124.24626,75.152867,-176.6609772,63.57162357816452,1.0807294074911258,21.391406756103677,1.0141718191002151,-131.1407776,7.033931000000001,-7.9693084
899.465,6.4376098,-61.0094506,33.8783602,-0.9786482,0.0786184,0.4776724,8.2699386,66.78012759999999,-167.33358159999997,8.131145,16.942042800000003,-5.2951316,-0.9810232,-0.2289702,-0.1595521999999999,-125.0613618,74.81584000000001,-177.6934814,70.08094728449267,1.091835186236256,19.52400450495173,1.0199464573942691,-133.3313004,8.0357124,-10.3598998
919.433,4.3483904,-66.6059516,36.3796122,-0.9805356,0.086699,0.5065358,9.5099412,65.31130420000001,-166.07339480000002,9.408357,12.613855,-6.3748818,-0.993101,-0.229176,-0.147735,-125.4924424,74.5165374,-178.3573272,76.01800754712494,1.107043493341612,16.978387360537077,1.0298528367694095,-135.00238359999997,9.2052332,-12.283932400000005
939.421,2.4025822000000003,-71.93949359999999,39.3170942,-0.9702652,0.0921366,0.5369588000000001,10.63807,63.7154074,-164.8756226,7.687467,7.4254762,-8.6997368,-0.9952984,-0.2473939999999999,-0.1442796,-125.5154098,74.23362420000001,-178.5646882,82.01766295734029,1.112757145242411,13.781156194678648,1.0356830109906794,-136.1534798,10.5182168,-13.689065599999998
959.408,-0.1396107999999998,-76.8259278,42.0363524,-0.9576362,0.1008068,0.5630752,11.6530148,62.0060118,-163.73055419999997,5.8886688,2.8479016,-11.525852400000002,-0.9969126,-0.2434117999999999,-0.1368849999999999,-125.0494186,74.0126266,-178.2066956,87.57452595705715,1.115474241446982,13.252631335171207,1.0352881432929677,-136.7024334,12.006614799999998,-14.4761414
979.396,-3.5678608,-81.35497439999999,44.179006,-0.9465724,0.111793,0.590597,12.523548000000002,60.193679,-162.65365,4.029643,-2.8167244,-13.9830828,-0.9995656,-0.2365202,-0.1262892,-124.207466,73.8220412,-177.41881719999998,92.6452700436502,1.12129469797184,14.822232073633858,1.0349020029684164,-136.73101400000002,13.628362199999998,-14.765167199999995
999.383,-5.866941,-85.9442412,44.7958244,-0.9318636,0.1220026,0.6182672,13.225572199999998,58.2849868,-161.6987642,2.771884,-8.31295,-15.802303599999998,-1.00041,-0.241524,-0.118279,-123.0151288,73.6597274,-176.24017039999998,97.09531129677111,1.1249483250387815,18.069346354490214,1.0359266057578598,-136.240701,15.374740599999996,-14.5414062
1019.371,-8.041222600000001,-90.4139876,44.238746000000006,-0.915506,0.131039,0.6477634,13.7412986,56.2888916,-160.89236160000002,2.6086572,-13.2004586,-17.850518,-0.9998958,-0.2555206,-0.1141226,-121.48462499999998,73.5026092,-174.70571,100.97730964077138,1.1291234998602055,22.353930135565644,1.038319004792246,-135.2259236,17.213717599999995,-13.813348399999995
1039.359,-11.074521,-94.4623258,43.0547136,-0.8989618,0.1348052,0.6744404,14.0584444,54.2211022,-160.2319458,3.9387898,-17.4462886,-19.455482,-0.9953152,-0.2654075999999999,-0.1096608,-119.6602568,73.3448516,-172.89136660000003,104.40059565971264,1.1318898413531415,26.42731221398419,1.0359145874759366,-133.7187012,19.1237494,-12.659420800000005
1059.346,-13.4415924,-98.5842192,42.190513,-0.8799914,0.1475816,0.7018150000000001,14.2286362,52.0790344,-159.67843620000002,5.4372164,-21.2582798,-20.6140654,-0.9948654,-0.2694366,-0.1022334,-117.591838,73.1870208,-170.851764,108.07203185248513,1.1352134103143428,30.106767919373112,1.035762962077849,-131.82047419999998,21.1079864,-11.173327800000004
1079.334,-16.3247246,-102.741603,41.1223864,-0.8605979999999999,0.1556704,0.7265834,14.249256400000002,49.8662902,-159.2243682,5.5084454,-24.636773,-22.1964048,-0.992828,-0.2730804,-0.0903834,-115.3163726,73.01164839999998,-168.59599,111.86323919637928,1.137007312287709,33.615382500036695,1.0336583098121543,-129.565629,23.1453582,-9.371621800000003
1099.322,-19.2246802,-106.6963684,40.1250794,-0.8398456,0.165654,0.7544052000000001,14.1422404,47.5863174,-158.847058,3.8726644,-27.8455834,-23.6884198,-0.9894234,-0.2811552,-0.0813706,-112.8909806,72.8086592,-166.1472932,115.60158024610692,1.1410123072703466,36.76296066780279,1.03180816312867,-127.033221,25.2223418,-7.300235200000003
1119.31,-21.877659,-110.4323442,39.2361236,-0.8142794,0.173515,0.7771558,13.9322766,45.2444954,-158.5260894,3.0084966000000004,-30.218702,-24.6713704,-0.9819242,-0.2888964,-0.0780916,-110.3893602,72.5724806,-163.5969422,119.21999833912945,1.1389159468384835,39.126685519872645,1.026515739026519,-124.3216368,27.3279852,-5.070852800000006
1139.297,-23.5422072,-114.2912492,38.4770188,-0.7925139999999999,0.182471,0.7971242000000001,13.6548034,42.8404334,-158.2454346,3.6150632,-31.2162278,-25.0739816,-0.9732056,-0.2929884,-0.0734672,-107.8942324,72.3044098,-161.0614656,122.87068869050825,1.138762967549718,40.20231477512987,1.0190038134775354,-121.5490358,29.4639764,-2.816030999999998
1159.285,-25.183169400000004,-118.1182344,37.5752456,-0.7670228,0.1866686,0.8165903999999999,13.310780599999998,40.3751824,-158.00389420000002,4.594116,-31.3602364,-25.246910199999995,-0.9764244,-0.2974548,-0.0580942,-105.440146,72.0072984,-158.5865846,126.48323367428095,1.13577683693495,40.52131295419985,1.02237904078284,-118.7509266,31.632116,-0.5826903999999956
1179.273,-25.8946764,-121.7912064,36.707579,-0.7312377999999999,0.1977452,0.8352058,12.930077,37.8478654,-157.7907228,5.4884794,-31.7905308,-25.4039822,-0.9725592,-0.2948396,-0.0422486,-103.0177294,71.68325519999999,-156.1603578,129.81170431925375,1.1275551483743578,41.06243497757883,1.017146366770663,-115.9478064,33.835389799999994,1.6303650000000005
1199.26,-26.6768762,-125.0945374,35.577346,-0.6950518000000001,0.203158,0.8492592,12.5121498,35.2687162,-157.6060946,5.7875958,-32.3746952,-25.3222104,-0.9671148,-0.2957695999999999,-0.0267244,-100.6382142,71.33312240000001,-153.78160400000002,132.76312198616694,1.1160696064457092,41.507005360287664,1.0116841830425936,-113.150364,36.0644062,3.8244906000000016
1219.248,-26.6989702,-128.04635779999998,34.5243148,-0.6560628000000001,0.2050276,0.8551544,12.0791246,32.645406,-157.4419222,5.5910776,-32.8249256,-25.1130798,-0.9624788,-0.2981653999999999,-0.0104177999999999,-98.3246186,70.958754,-151.463745,135.2798324510923,1.097152570130955,41.70614662631787,1.0076589585586189,-110.4037432,38.313348000000005,5.978177199999999
1239.236,-26.559266,-130.24353200000002,33.531904399999995,-0.6127036,0.2075252,0.8619158,11.640477,29.9897554,-157.28995379999998,4.5901288000000005,-33.844238600000004,-24.5667324,-0.9623844,-0.304176,0.007332,-96.05863200000002,70.5708602,-149.1708312,137.08814992910408,1.0776693631989545,42.07167823640423,1.0093366784989832,-107.699109,40.581104800000006,8.119122599999992
1259.223,-25.3022526,-131.6782228,32.6041056,-0.5655186,0.2115664,0.8699056000000001,11.2215852,27.313796000000004,-157.14471139999998,3.3198756,-35.205761599999995,-24.055425000000003,-0.951707,-0.3076888,0.0215514,-93.8299714,70.16934040000001,-146.885977,137.99415222529032,1.0589180239594944,42.76833753802145,1.0004414397336807,-105.0515566,42.8555444,10.258734399999993
1279.221,-24.2430374,-132.3683078,32.04095099999999,-0.5224542,0.2099982,0.8773446,10.8186632,24.6322968,-156.9979066,0.9040771999999996,-35.7620392,-23.424681600000003,-0.9452534,-0.3202774,0.0288652,-91.7164124,69.7497024,-144.66622900000002,138.33190634556345,1.0424927732363616,42.76045499509184,0.998456209822624,-102.5350756,45.1174056,12.331677599999988
1299.199,-22.8692154,-132.459473,32.151395,-0.4788404,0.2081993999999999,0.8841735999999999,10.4449052,21.9543416,-156.8329346,-1.4476862,-35.6957588,-22.8177892,-0.9363668,-0.3286373999999999,0.0344724,-89.75163119999999,69.313179,-142.54808340000002,138.21079987068794,1.0268388742979493,42.390264160737246,0.992962069357516,-100.1965364,47.3588374,14.284851199999986
1319.186,-21.8331878,-132.02744160000003,32.576492,-0.4353392,0.2032792,0.8939672,10.0932324,19.2871394,-156.64311519999998,-3.5324122000000004,-35.6328316,-22.1859788,-0.9295232,-0.3330692,0.0384924,-87.9283814,68.8653626,-140.5290862,137.72857821083304,1.0148990131461948,42.12355966794255,0.988144795151318,-98.0216138,49.5782232,16.114028999999988
1339.174,-20.382006,-131.4506074,33.1862402,-0.395556,0.1979498,0.903155,9.7712606,16.634424000000003,-156.4254424,-5.650238,-35.6085656,-21.8923222,-0.9232962,-0.3308316,0.0494298,-86.2278458,68.40575559999999,-138.5902464,137.09855904795305,1.005652835963306,42.18019564742155,0.9820227724554254,-95.9991064,51.7713316,17.83519599999999
1359.162,-19.0370674,-131.24436959999997,33.7294718,-0.3538072,0.1936192,0.9161836,9.4734418,13.9869194,-156.184442,-8.9691202,-35.7333292,-21.4230742,-0.9199168,-0.3333268,0.0585822,-84.6632768,67.93756859999999,-136.7200256,136.83994941098354,1.0010296290767022,42.61764940791932,0.9801966887708404,-94.1367186,53.9506492,19.464416399999987
1379.149,-18.0196162,-131.5241486,33.808002599999995,-0.3114024,0.1848552,0.9309474,9.185125199999998,11.3363998,-155.932791,-10.7306666,-36.254542,-20.8097006,-0.9182952,-0.3427753999999999,0.0662304,-83.1823274,67.4608366,-134.89523620000003,136.99010647762773,0.9989023782430192,43.15764892080846,0.982419215545156,-92.3674526,56.1244368,21.03755479999999
1399.137,-16.6226298,-132.21440420000002,33.4364586,-0.2658186,0.1741972,0.9408168,8.9100882,8.6744044,-155.6808532,-10.546296600000002,-36.7865412,-19.9007966,-0.9167884,-0.3550198,0.076538,-81.7373552,66.9798658,-133.1069976,137.38616110488837,0.9930460431198748,43.13369553781638,0.986102476525944,-90.6474434,58.3054614,22.573855599999995
1419.125,-15.4869778,-133.055365,32.5610344,-0.2212322,0.1654386,0.9533272,8.6427718,5.9995496,-155.438681,-8.970494200000001,-37.101404,-19.2076502,-0.9181214,-0.3706256,0.088146,-80.3090698,66.4906308,-131.36473080000002,137.85426216791012,0.9925453979272888,42.73075907550684,0.9940221113382338,-88.95184160000001,60.4910812,24.073950199999995
1439.112,-15.2347768,-134.24855340000002,31.3289546,-0.1705812,0.1568504,0.965874,8.3655564,3.3026036000000003,-155.2136322,-6.667340800000001,-37.8111696,-19.3097848,-0.9214642,-0.3867226,0.1023186,-78.87081599999999,65.9762816,-129.6557114,138.69490225119068,0.9932837347151116,42.9768050102101,1.0045495195053151,-87.23637240000001,62.673678,25.5579208
1459.1,-16.9285226,-135.26427,29.8947078,-0.1191308,0.1439346,0.9725848,8.0383072,0.58811,-155.0068664,-5.209145800000001,-38.9072122,-19.6467828,-0.9234798,-0.4051264,0.1153392,-77.4303604,65.42877039999999,-127.9690262,139.5589164851139,0.9903688756099116,43.896496848061375,1.0150100846994772,-85.4686676,64.8406604,27.0378402
1479.088,-18.0220014,-135.7891022,28.3308384,-0.0625467999999999,0.1301182,0.9715646,7.674366399999999,-2.1365772,-154.8160858,-4.6624966,-39.8668694,-20.1478636,-0.922449,-0.4193278,0.132708,-76.01032719999999,64.84575799999999,-126.310164,139.87890911495757,0.982232467461059,44.9114969461704,1.0219390269080832,-83.6846936,66.9823352,28.5059218
1499.075,-18.4286048,-135.84077159999998,26.8777044,-0.0068796,0.117179,0.9738584,7.288713800000001,-4.8624558,-154.63541560000002,-4.0014688000000005,-40.7162408,-21.0257216,-0.921202,-0.4266981999999999,0.1493566,-74.6169342,64.2238198,-124.6883912,139.69516705159032,0.9809069426748492,45.99896723016359,1.0261539224944765,-81.905648,69.0862756,29.9470244
1519.063,-18.0285636,-135.8679444,25.8265196,0.0437762,0.1117553999999999,0.9774546,6.902487600000001,-7.5869742,-154.45656739999998,-3.1916918000000005,-41.8810464,-21.4469682,-0.9184656,-0.4199183999999999,0.1622767999999999,-73.22960359999999,63.57799239999999,-123.084012,139.4709164507422,0.9847959789604952,47.16122760358292,1.0228608316189256,-80.13209119999999,71.1649666,31.3725554
1539.051,-18.0579012,-136.0812136,24.4742198,0.0892442,0.1064505999999999,0.9727378,6.5107026,-10.310801800000002,-154.2856994,-2.5588100000000003,-43.0133804,-20.4946874,-0.9121478,-0.4144578,0.1754067999999999,-71.84083100000001,62.9322214,-121.48435220000002,139.4387748275798,0.9826062716179048,47.71509838274383,1.017131467663802,-78.35153360000001,73.2430232,32.8013472
1559.038,-16.2360364,-136.8658296,22.8151232,0.130794,0.1052516,0.9674178,6.1554656,-13.0426106,-154.1311768,0.6065721999999998,-43.7635146,-18.7320244,-0.900362,-0.4144934,0.17994,-70.4157348,62.30030839999999,-119.9040864,139.70108817296145,0.9818768606578931,47.60779219939128,1.0073901494890447,-76.5712004,75.34291900000001,34.2270904
1579.026,-14.6182198,-138.683719,21.361553,0.1694974,0.1085185999999999,0.9616486,5.8353916,-15.8022392,-153.9932648,4.7656694,-44.309687,-17.965109599999998,-0.8951560000000001,-0.416085,0.1923425999999999,-68.9482284,61.6633296,-118.3610108,141.07863839846158,0.9824834273587926,48.0500273653208,1.0056971051642538,-74.78362,77.4655688,35.632254
1599.014,-14.9494442,-141.312262,20.1871144,0.2098087999999999,0.116029,0.9585358,5.5124878,-18.6063446,-153.8689514,7.8697424,-44.8578376,-17.4844974,-0.8892862000000001,-0.4263006000000001,0.2026026,-67.469336,61.0117166,-116.8649124,143.52756132967718,0.9880654539452738,48.78387119654341,1.0067819826544178,-72.9818238,79.6180612,37.004039000000006
1619.001,-17.3453096,-144.3574128,19.1976738,0.2579844,0.1083672,0.9407888,5.1351736,-21.469793400000004,-153.750238,8.937909399999999,-45.7398254,-17.5353,-0.8824730000000001,-0.4421122,0.2246815999999999,-66.0066346,60.32737139999999,-115.4031142,146.65767308518383,0.9815207419533424,49.79462418931479,1.0122764516160594,-71.14180820000001,81.79716479999999,38.347123800000006
1638.989,-18.5625846,-147.389859,19.2212848,0.310085,0.0978648,0.9234256,4.7155818,-24.3962332,-153.6103394,9.1267168,-46.2423752,-17.982756000000002,-0.8779634,-0.449048,0.2392227999999999,-64.5985406,59.61251,-113.9982176,149.79251607618704,0.9790020761159804,50.448327395866286,1.0147371019546885,-69.3141224,84.0087432,39.6121218
1658.984,-19.79845,-150.2011414,19.5732578,0.3622198,0.0849824,0.8994211999999999,4.2472586,-27.3828794,-153.4372956,8.8360606,-46.1394936,-17.708866,-0.8739740000000001,-0.4501625999999999,0.2583518,-63.2497614,58.8879288,-112.6466336,152.75952972292944,0.973336368801269,50.20490784372847,1.0164755637387453,-67.49701999999999,86.2708082,40.790662000000005
1678.964,-20.7011082,-152.3902496,19.4789374,0.410878,0.0733774,0.8749162,3.7389598,-30.414124800000003,-153.23615719999998,9.7366198,-46.1666428,-14.8869116,-0.8669188,-0.455865,0.2730888,-61.899832200000006,58.1958572,-111.303709,155.01855713459446,0.9693726480240712,49.47505239551302,1.0168277123996377,-65.638792,88.609982,41.9324482
1698.952,-21.9045158,-153.9806916,18.9291228,0.4568728,0.0617316,0.8419681999999999,3.185905,-33.477608999999994,-153.012259,13.7828532,-45.8264154,-10.3842238,-0.8549058,-0.4574398,0.2814808,-60.4682136,57.5692918,-109.9481854,156.6785655028289,0.9599239530450524,48.96794354140874,1.009626930240235,-63.65411859999999,91.0469008,43.06407359999999
1718.94,-21.529821,-154.9081756,17.9182584,0.4928182,0.0450388,0.7941014000000001,2.6155228,-36.5613932,-152.7667024,20.7242054,-44.8090912,-5.436872,-0.8416128,-0.4552856,0.2880676,-58.90624699999999,57.0209084,-108.5912732,157.42026567155082,0.9356790610239388,49.66796674694556,0.9992897602102006,-61.5217698,93.5823016,44.1754292
1738.927,-20.4328406,-155.1187836,16.889998,0.5265682,0.03334,0.7482302,2.0377532,-39.6489848,-152.495221,28.3442958,-43.7489212,-0.4781558,-0.8384195999999999,-0.4549678,0.2952472,-57.19590459999999,56.55057000000001,-107.2286452,157.3677541079132,0.9155512312499394,52.1305653482751,0.998555974299308,-59.2336578,96.1995548,45.2665758
1758.915,-20.4438972,-154.91532279999998,16.3016794,0.561552,0.0310228,0.7201858,1.4233166,-42.7254588,-152.1850068,34.0472196,-42.8801956,1.7502478,-0.8457804,-0.443599,0.3032385999999999,-55.4029274,56.116243,-105.89661099999998,157.10650821087185,0.9137672840201054,54.78127147617412,1.0020370284351372,-56.826244,98.8417018,46.2883958
1778.903,-22.1044586,-154.47620239999998,16.2862784,0.5944293999999999,0.0308926,0.6911517999999999,0.7200162000000001,-45.7883448,-151.8116946,36.2072922,-41.8143692,2.9659530000000003,-0.8514032,-0.4272074,0.3019037999999999,-53.6206102,55.7049996,-104.6203126,156.89725001429176,0.9121356669719476,55.39139244727739,0.999269471183544,-54.3406264,101.4933444,47.191382
1798.891,-24.6869148,-153.6915344,16.1309154,0.6186682000000001,0.0178374,0.6385232000000001,-0.1106588,-48.8363732,-151.3575868,35.1094666,-40.9954086,2.7757212000000004,-0.8569824,-0.4267726,0.307235,-51.9314616,55.28403860000001,-103.4190096,156.49516906349157,0.8892583378682711,54.04630236563458,1.0054586173709588,-51.8208028,104.1204118,47.938577200000005
1818.878,-28.066468800000003,-151.410663,15.9742584,0.6418076,-0.0005123999999999,0.6003736,-1.1135256,-51.833561,-150.79305719999996,31.983091800000004,-38.809874,2.2609956,-0.8592352,-0.4378744,0.2989994,-50.4224016,54.8677666,-102.3436922,154.81631849527656,0.8788433976246735,50.34120163530389,1.0096631915122785,-49.308876000000005,106.7013276,48.44936499999999
1838.866,-30.7033538,-147.6248476,16.2329318,0.6662332000000001,-0.0159593999999999,0.5637654,-2.3108828,-54.74647280000001,-150.0794464,28.8965888,-34.7722032,2.1986426000000003,-0.8499146,-0.444641,0.2922177999999999,-49.1111206,54.4889434,-101.4202118,151.65519983935485,0.8728990809181553,45.26536191107844,1.0027221393840868,-46.800237800000005,109.2354162,48.6592346
1858.854,-32.364597999999994,-142.6137362,16.7560314,0.6828644,-0.036388,0.5177571999999999,-3.7288588,-57.547728600000006,-149.17223800000002,27.4767592,-29.9158976,2.9777216,-0.8329362,-0.446217,0.2799116,-47.9580398,54.17804640000001,-100.6434722,147.19683945283126,0.8577297904836931,40.7283691212351,0.9855165286153248,-44.229181,111.725775,48.5287658
1878.841,-32.6321716,-136.6254198,17.8322064,0.700011,-0.0582299999999999,0.4645153999999999,-5.400944,-60.2161018,-148.0086424,27.032188400000003,-23.650601,3.1053028,-0.818221,-0.448689,0.2821368,-46.9649924,53.942176800000006,-100.0461302,141.59573278863414,0.8421286658570412,36.05181053475656,0.9748890180303807,-41.5640484,114.1582786,47.9625122
1898.829,-32.134848,-129.08528919999998,18.9219224,0.719786,-0.0827181999999999,0.418425,-7.362481,-62.718509,-146.539572,25.5294716,-15.9572738,3.4694836,-0.8149635999999999,-0.4371167999999999,0.2933822,-46.1528928,53.8124374,-99.636427,134.3640558004348,0.8366681941081782,30.305541139435903,0.9702112560901568,-38.7904118,116.5309464,46.903145
1918.817,-30.821493600000004,-121.29077,20.2568824,0.7398258,-0.0893346,0.3827968,-9.620612,-65.0411996,-144.7382598,21.5237634,-7.493898799999999,3.9742978,-0.8091117999999999,-0.4079246,0.3093657999999999,-45.5592978,53.8085122,-99.4074614,126.77443212057852,0.8377686286756266,23.134950899600067,0.95748189664037,-35.938685799999995,118.8497118,45.330798400000006
1938.804,-31.0292086,-113.4984848,20.0674884,0.7519819999999999,-0.0977604,0.3409125999999999,-12.1816778,-67.1861766,-142.6390412,17.208824999999997,0.9853823999999995,5.059644400000001,-0.7929662,-0.3788484,0.3129652,-45.180897400000006,53.9410196,-99.3452484,119.3625650232194,0.831417719904333,17.964260012850684,0.9328819437292372,-32.9992196,121.1271962,43.293792800000006
1958.792,-31.6412244,-105.6726776,18.3141238,0.7625812000000001,-0.1158524,0.2845954,-15.037588199999998,-69.1636584,-140.2674134,13.1220156,8.5261818,7.0786028000000005,-0.7883804,-0.3770108,0.324887,-44.98612060000001,54.2007646,-99.41196440000002,111.8181067772408,0.8221595993968325,17.175263814377423,0.9323263169029392,-29.9485324,123.364423,40.855449
1978.78,-30.929727199999995,-97.3930068,15.103501799999998,0.7748294,-0.1425668,0.2249255999999999,-18.0858746,-70.9650102,-137.70574040000002,10.1345282,15.7930272,10.101707,-0.7864942,-0.3791176,0.3257606,-44.9381622,54.6010904,-99.5847152,103.29647411617624,0.8193152122974161,21.311331593553327,0.931892295158491,-26.8522876,125.56610059999998,38.121025200000005
1998.767,-29.2960136,-88.5816406,11.8579034,0.7907424,-0.1496002,0.1955464,-21.2556106,-72.5771622,-135.006186,8.923183,22.3081294,13.220175,-0.7835319999999999,-0.367786,0.3260824,-44.975827,55.1361756,-99.8354126,94.05090822146634,0.8281860645717,27.42350924315228,0.9249425216789202,-23.7202164,127.7133378,35.1707734
2018.755,-27.9764372,-79.9518502,7.902804000000001,0.8090550000000001,-0.1580051999999999,0.1672214,-24.4649008,-74.01585539999999,-132.2595368,10.7415758,27.5898472,16.909983399999998,-0.7820986,-0.3614142,0.3186174,-45.0151396,55.7968986,-100.1304732,85.07310797115149,0.8411293793882128,34.095874497873915,0.918594301999724,-20.5502388,129.81275399999998,32.12906360000001
2038.747,-25.0374746,-72.2200402,3.7706044000000007,0.8302632000000001,-0.1704661999999999,0.1421132,-27.640318,-75.3073684,-129.5064666,14.013822,30.4598832,19.4211602,-0.7964812,-0.3679838,0.3237937999999999,-45.0034286,56.527173600000005,-100.4406524,76.52990786860101,0.8594136770094598,38.7475567632256,0.9352201900805608,-17.3631106,131.834542,29.0658142
2058.73,-21.3969758,-65.16783000000001,0.0595180000000002,0.8582612,-0.174491,0.1246072,-30.7360452,-76.4690872,-126.7755462,15.846739599999998,32.323781999999994,20.5336418,-0.8068998000000001,-0.375638,0.326632,-44.9817114,57.291774,-100.7793336,68.59067125117679,0.8846391076581908,41.443654330964094,0.9480926419438344,-14.2456662,133.7608612,25.9962126
2078.718,-18.9642096,-58.7178674,-3.155349,0.8839859999999999,-0.175997,0.1222872,-33.7933248,-77.5141418,-124.0487746,17.770165199999997,34.05359159999999,21.7021498,-0.8188922,-0.3782009999999999,0.3386994,-44.9338714,58.088506200000005,-101.1328904,61.78499352649085,0.909593508930687,44.11812754454252,0.9635028361049072,-11.1405466,135.602648,22.9158842
2098.705,-15.524542399999998,-53.654036,-5.2312452,0.9088968,-0.1790356,0.1170428,-36.8194738,-78.4586182,-121.2939634,20.2187506,35.7292886,22.9570034,-0.8267523999999999,-0.3729288,0.3362122,-44.8521148,58.9239776,-101.501793,56.09931302753374,0.9337270244292172,47.03619823917215,0.967281791518914,-8.032641000000002,137.3825958,19.7921704
2118.693,-11.7167042,-50.1602204,-6.579968599999999,0.9307212,-0.1735952,0.1095524,-39.889814,-79.3307892,-118.4251464,22.6705614,35.340507599999995,21.9436534,-0.8376608000000001,-0.3766022,0.3442408,-44.742846,59.7307914,-101.893213,51.92903671996872,0.9530891741795412,47.375412991932414,0.980819331623373,-4.853031999999999,139.06158059999998,16.5319334
2138.681,-8.6473144,-48.2262162,-6.9469346000000005,0.9510338,-0.169441,0.1059304,-43.2155846,-80.1411834,-115.2427628,26.127497,34.908840999999995,20.8678952,-0.8434274,-0.3773887999999999,0.3422204,-44.5919266,60.510964,-102.3125016,49.48539052728862,0.971800797935256,48.33986273797716,0.9853460750479296,-1.3763419999999995,140.65214740000002,12.9302612
2158.669,-6.0786338,-47.426027,-6.1575828,0.9673654,-0.1637242,0.103494,-47.0468758,-80.8850752,-111.504387,31.9827782,35.6569948,20.7323,-0.8519466,-0.3677202,0.3359364,-44.353267,61.30108700000001,-102.7629014,48.208854496016464,0.9865659830030632,52.19336780518788,0.9868558251257172,2.6936088000000007,142.1861622,8.7414856
2178.656,-3.8921204,-47.3131128,-4.3911294000000005,0.981432,-0.1549799999999999,0.094051,-51.5927918,-81.5512084,-107.0064682,36.545124,36.3003732,19.3631312,-0.8660302,-0.3544366,0.3235934,-44.08607479999999,62.0871528,-103.2806384,47.67558349345255,0.9980346495112282,55.02902899836656,0.9901243857491644,7.506717000000002,143.63836120000002,3.7258298000000014
2198.644,-3.019268,-47.245833,-2.6488272000000004,0.9902678,-0.1496451999999999,0.0735198,-56.89857400000001,-82.1311874,-101.7298264,38.5639874,34.6395284,17.101387600000002,-0.8920814,-0.3478375999999999,0.3269354,-43.7953698,62.81882459999999,-103.8157596,47.41625249484793,1.0042057371833324,54.58512168903903,1.0117741724183713,13.103204200000004,144.95001200000002,-2.085933199999997
2218.632,-2.2334276,-46.249267,-0.5567458000000004,0.9958714,-0.1511244,0.0500951999999999,-62.858266400000005,-82.597049,-95.781607,38.1947614,32.9584234,16.360084,-0.9074374,-0.3290626,0.3275142,-43.4767792,63.5202254,-104.3119494,46.30650993939781,1.0085177037000197,53.03536386132986,1.01930877600419,19.3814872,146.1172744,-8.5303424
2238.619,-1.3273518,-43.7933206,1.2065873999999996,0.9981926,-0.1518478,0.0148141999999999,-69.2384308,-82.933629,-89.39314399999999,35.253663,29.9101602,14.656697200000002,-0.91804,-0.3042952,0.3301726,-43.161839400000005,64.1588782,-104.74961720000002,43.83004272333289,1.0097849679913244,48.5000743393216,1.021962306611061,26.0765914,147.0925072,-15.3564732
2258.607,-0.0205892,-40.3543398,2.1586144,0.998384,-0.1498188,-0.0127808,-75.6817276,-83.14418359999999,-82.9139218,30.9353532,25.759161,12.699973600000002,-0.9236306,-0.2783725999999999,0.3382918,-42.8488114,64.7123252,-105.097751,40.41203757220004,1.0096433197610333,42.211607200785046,1.0222651963333,32.8329162,147.85650879999997,-22.1838292
2278.595,1.2349115999999998,-36.607636,1.8556667999999996,0.9997968,-0.1471168,-0.036722,-81.8914748,-83.2567522,-76.6422178,27.0986468,19.6558446,10.1603518,-0.9305444000000002,-0.2602466,0.3473706,-42.498082800000006,65.1418624,-105.3217636,36.67543482279294,1.01122969666465,34.984591380067066,1.0267947735196554,39.393392,148.3986146,-28.679545799999996
2298.582,2.7321358000000004,-33.083357,0.7531205999999996,1.0021602,-0.1463152,-0.0602032,-87.6874144,-83.3035706,-70.75438140000001,24.3693326,14.9099446,8.5466748,-0.9281588,-0.2496376,0.3493916,-42.105445200000005,65.47821200000001,-105.4399368,33.20452178630548,1.0145726339229342,29.81973288749326,1.0226789229771776,45.5819692,148.7817826,-34.6855554
2318.57,4.3627478,-29.7236748,-0.8544810000000004,1.0084765999999998,-0.1465517999999999,-0.0796786,-92.9639998,-83.31520379999999,-65.35440200000001,22.5045278,10.5931788,7.1161542,-0.9247118,-0.2463137999999999,0.351834,-41.6637932,65.7276642,-105.463147,30.05429336653785,1.0221796134382448,25.871004216843225,1.019583034718448,51.3002066,149.04286799999997,-40.10874499999999
2338.558,5.5010142,-26.7040142,-2.622980800000001,1.0160996,-0.1399246,-0.0843536,-97.7108976,-83.3146118,-60.46275860000001,21.7073792,7.509334399999998,6.0581372,-0.9251124,-0.2475147999999999,0.3550752,-41.1817512,65.91310899999999,-105.4237656,27.39061079822011,1.02915150519167,23.755029808392997,1.021359352288821,56.5291464,149.2277208,-44.961007
2358.545,6.2970906,-24.6417906,-4.0503428,1.0226669999999998,-0.141032,-0.0921184,-102.0934262,-83.2987854,-55.9201562,21.456628,5.284390999999999,5.238326799999999,-0.921581,-0.2442982,0.3497101999999999,-40.6692046,66.0549898,-105.34422920000002,25.754154437611977,1.0364475951689789,22.71016822999916,1.015524679201978,61.42422160000001,149.35377520000003,-49.424073
2378.533,7.757688799999999,-23.1798208,-4.8125944,1.0234185999999998,-0.1410042,-0.0987686,-106.172189,-83.2602036,-51.6520258,21.6430652,4.028535199999999,5.3593514,-0.909353,-0.2383616,0.3428022,-40.113797,66.1797884,-105.221013,24.9127857273463,1.0377972112072569,22.657758374070728,1.000626043678856,66.058392,149.43999200000002,-53.5689872
2398.521,9.3056432,-21.6062024,-5.433305,1.0222126,-0.1381084,-0.1025854,-109.9175458,-83.20874500000001,-47.687034,20.917167,1.7010323999999983,5.1405092,-0.9119376,-0.2400776,0.3438538,-39.5165794,66.26363380000001,-105.0350662,24.144228725277124,1.036588777694646,21.60662447878019,1.0037444276756708,70.4009664,149.47237880000003,-57.3480322
2418.508,10.0650158,-19.939097,-5.8563822000000005,1.0185832,-0.1306582,-0.1015386,-113.33673840000002,-83.15487700000001,-44.0343706,19.998014,-0.7603298000000016,4.9664882,-0.9137054,-0.2378225999999999,0.339647,-38.878218,66.3078476,-104.7828202,23.0904600366068,1.0319367169741755,20.619521584889,1.003382893849063,74.4585204,149.4627246,-60.7484496
2438.496,9.2982236,-18.0377672,-6.0240584,1.0095976,-0.1273275999999999,-0.1022664,-116.4460006,-83.09901440000002,-40.7087022,17.753380200000002,-2.5958634000000016,5.2510672,-0.9118006,-0.2288084,0.3328084,-38.2236732,66.33073420000001,-104.4634706,21.16854476064908,1.0227209043607546,18.69477793545908,0.9972437260677453,78.22232740000001,149.42974859999998,-63.7547684
2458.484,8.0174652,-15.0690876,-6.430269,0.9967424,-0.1261568,-0.1095413999999999,-119.1434798,-83.05568860000001,-37.8241982,14.111185,-3.891663800000002,5.8216538,-0.9051306,-0.2268543999999999,0.326662,-37.592997,66.3408614,-104.0888642,18.24021679536857,1.0106484395960649,15.753166100930628,0.9886518012423382,81.5504828,149.39655000000002,-66.264666
2478.471,6.1841322000000005,-11.0592036,-7.185288600000002,0.985754,-0.1236612,-0.1119599999999999,-121.336319,-83.049637,-35.486515,11.350163,-4.259155000000002,5.5505774,-0.8935243999999999,-0.2296062,0.3112572,-37.03889840000001,66.34458,-103.7333588,14.56632580984717,0.9997690145735864,13.33324832567011,0.9736456773516944,84.29742060000001,149.394217,-68.24684380000001
2498.459,3.6793674,-6.561082799999999,-7.9172054,0.97863,-0.121584,-0.112299,-123.006891,-83.0944368,-33.727666,10.7779372,-3.2394656000000013,4.8607192,-0.8698982,-0.230649,0.2811446,-36.5819244,66.3624694,-103.46558240000002,10.920974925272366,0.9925272849433412,12.259064352632132,0.942848941068186,86.4249666,149.4569062,-69.73791639999999
2518.447,1.485924,-1.0758086000000002,-8.161328200000002,0.9749594,-0.1232504,-0.1185594,-124.0049012,-83.19576119999999,-32.6937006,10.6613436,-1.6777794000000017,4.4113332,-0.864268,-0.2445634,0.2643122,-36.2218888,66.400357,-103.2948198,8.364963375037886,0.9898448484873172,11.65929035892612,0.9362859453780134,87.7830124,149.5961182,-70.6011192
2538.435,0.8495398,6.039231200000001,-7.820297000000001,0.9735726,-0.1264888,-0.127048,-123.9930252,-83.362166,-32.694269000000006,8.3398348,-0.5014872000000017,3.0397434,-0.872024,-0.2643508,0.257828,-36.0224434,66.43838639999998,-103.2430756,9.917211126473337,0.9899415226669704,8.890690290461054,0.9469859975842516,87.9705818,149.80055240000002,-70.5488066
2558.422,0.7065315999999999,15.055040600000002,-6.481388600000001,0.9758048,-0.12518,-0.128335,-122.46540679999998,-83.5948198,-34.229497800000004,4.117789,-0.6425932000000018,-0.1033121999999998,-0.8879585999999999,-0.2782048,0.262275,-36.0318932,66.433818,-103.3248382,16.406152277534698,0.9921365391557958,4.168907012620464,0.966776376253578,86.4335136,150.02863779999998,-69.09534040000001
2578.41,-0.1555872,25.6963364,-4.146146800000001,0.979814,-0.1233334,-0.1252294,-118.865509,-83.8694246,-37.8731418,-3.698499200000001,-3.1240102000000016,-3.2039286,-0.9083204,-0.2842255999999999,0.2754868,-36.236181,66.3495666,-103.4496978,26.029146068319623,0.9954541701032348,5.80547108648408,0.9908194173136496,82.629328,150.2189912,-65.576556
2598.398,-0.6442410000000001,37.0875054,-1.1880938000000003,0.9824324,-0.1207341999999999,-0.1166793999999999,-112.7620132,-84.13222520000001,-44.0476296,-13.6457406,-6.645853400000002,-6.572183,-0.9212988,-0.2877238,0.2910724,-36.6496598,66.1644532,-103.587944,37.112122953809966,0.9966766025164632,16.53986678671473,1.00811686128625,76.11235339999999,150.2966784,-59.5403144
2618.385,-1.2791652,48.161198,1.6460095999999993,0.9814484,-0.1204658,-0.1044354,-104.1758774,-84.30619820000001,-52.728003,-24.1086296,-10.378873800000004,-10.995875,-0.9282186,-0.285319,0.2997106,-37.3077194,65.8669404,-103.76754739999998,48.20629216199258,0.9943136947690904,28.45797444587277,1.0162790684154228,66.868158,150.17313860000002,-51.0395444
2638.373,-2.0895884,58.640214400000005,4.487366999999999,0.9798818,-0.1231582,-0.0873927999999999,-93.5499832,-84.2952684,-63.4664842,-32.6340718,-14.477098800000002,-14.724503199999996,-0.9275964,-0.2846943999999999,0.3082646,-38.1301774,65.4581026,-103.9432646,58.84876878195559,0.9914503445409254,38.618389743739016,1.0180928475819284,55.419805800000006,149.75337100000002,-40.4767804
2658.361,-2.6623558,68.32452140000001,6.989687999999999,0.9773342,-0.1251593999999999,-0.0641332,-81.7740952,-84.01383840000001,-75.3620682,-39.7276956,-18.0189702,-17.3314058,-0.9178733999999998,-0.2898512,0.3066266,-39.0691758,64.9608392,-104.09180139999998,68.73270037822024,0.9874006690499252,46.93986271559623,1.0102104574773316,42.7049194,148.9746776,-28.7297332
2678.348,-2.080089,77.0877042,9.0954432,0.9700984,-0.1305612,-0.043873,-69.9758866,-83.400519,-87.2618934,-45.182268,-20.517863,-19.435422,-0.912539,-0.3017514,0.3107046,-40.0970864,64.3957932,-104.2185532,77.65029295552623,0.9798275219430204,53.29311092466527,1.0101082528046783,29.878800200000008,147.79631220000002,-16.956659799999997
2698.336,-0.6580264,85.669061,10.8504026,0.9583262,-0.1433033999999999,-0.0290322,-59.155581600000005,-82.430745,-98.1524734,-49.1882266,-22.193354000000003,-21.1190562,-0.8989201999999998,-0.3114472,0.3109498,-41.1895936,63.781865800000006,-104.3283706,86.35596243425758,0.9694162360383904,57.94860768474962,1.0008729502169191,17.965988000000003,146.2126108,-6.175897199999995
2718.324,1.0560032,94.8757886,12.4396504,0.9414042,-0.1508666,-0.010703,-49.8808638,-81.10831920000001,-107.4682252,-50.6947268,-23.4595074,-22.2683536,-0.8840306,-0.3202648,0.3067904,-42.2899652,63.133838,-104.4131378,95.69365343273564,0.9534763515589676,60.13471031635495,0.9890399351833878,7.590898600000004,144.2421572,3.055087400000005
2738.311,2.5225768,104.6981214,13.5714772,0.9246644,-0.1538168,0.0134521999999999,-42.3181026,-79.4571396,-115.056427,-50.1153062,-23.1218746,-23.8834332,-0.8725707999999999,-0.3352494,0.2997376,-43.414859,62.4681664,-104.53721,105.6041903136005,0.9374672379739144,60.13803606667536,0.9816387268576764,-1.096756399999998,141.925306,10.519217000000005
2758.299,3.3331714,114.7070402,14.645241,0.9031988,-0.1551214,0.0349694,-36.349835600000006,-77.51068419999999,-121.0520906,-49.9814302,-21.981955,-27.2079824,-0.873686,-0.3488788,0.3086318,-44.6152176,61.768474600000005,-104.7534956,115.68620569010928,0.917089733884182,61.00511467687121,0.9900996069369384,-8.265381999999999,139.2791588,16.298595000000006
2778.287,4.0319474,125.1262998,15.1793462,0.8759924,-0.1590694,0.0635334,-31.6300942,-75.29112239999999,-125.8061694,-51.0367074,-18.3715378,-33.5314798,-0.8661,-0.3574986,0.2992762,-46.0488052,61.027768,-105.214601,126.1081284157976,0.8925817899720339,63.77004814917307,0.9836161359434888,-14.418710999999998,136.3188904,20.591568400000007
2798.275,5.7997266000000005,135.638954,15.595230999999998,0.8450936,-0.15646,0.1034648,-27.8213952,-72.8131088,-129.63352679999997,-53.7417412,-13.387339600000004,-40.9210788,-0.8685731999999999,-0.365039,0.2962802,-47.783031400000006,60.2431908,-105.9651046,136.65567643091973,0.8656603775153394,68.8616751098121,0.987651169285634,-19.9616362,133.05629960000002,23.6684222
2818.262,8.7451078,145.6173248,16.905852799999998,0.8123198,-0.1473682,0.1604249999999999,-24.7214216,-70.0817718,-132.70570379999998,-58.6056656,-7.031209400000002,-48.8304584,-0.869807,-0.3704968,0.2961916,-49.879203800000006,59.4147598,-107.03136279999998,146.85601809676572,0.8410214173659789,76.60597635693837,0.9907378866127003,-25.1577822,129.4965316,25.674341
2838.25,10.2164952,154.20505980000002,18.7725776,0.7730750000000001,-0.1301532,0.2177662,-22.2255144,-67.12817079999999,-135.14964300000003,-66.19209980000001,-1.924290800000002,-54.838792,-0.8540568000000001,-0.3655,0.3052156,-52.2810082,58.5441918,-108.2940078,155.67911520766432,0.8136380822931533,85.9790095257871,0.9778342549274904,-30.0554938,125.6723626,26.8556352
2858.237,9.9524234,161.512912,20.1772266,0.725358,-0.122225,0.2840808,-20.2123716,-63.9783646,-137.12034899999998,-76.04686039999999,3.945208599999998,-54.5477504,-0.8267952,-0.3636006,0.2961274,-54.94061740000001,57.7342278,-109.6411912,163.07235187952728,0.7885334994263972,93.670415400463,0.9505194033233408,-34.7282458,121.7125924,27.4791578
2878.225,9.7314572,167.1718202,22.1857332,0.6795332000000001,-0.1095971999999999,0.3617876,-18.6076092,-60.6696656,-138.6857908,-83.2819076,9.1478368,-48.7496406,-0.8021622,-0.3605794,0.2891606,-57.6827614,57.0552124,-110.9311386,168.91810289556932,0.7776034874303485,96.93341276486422,0.925794551401962,-39.075152200000005,117.724878,27.7546522
2898.213,8.1267458,170.77659620000003,23.652897,0.6328188000000001,-0.0928106,0.4354254,-17.3500378,-57.2529076,-139.933969,-88.07796019999999,13.191131199999996,-38.4414332,-0.7775238,-0.3705174,0.2703533999999999,-60.3973252,56.56637500000001,-112.0824844,172.59823099744762,0.773736854538389,97.0024577100934,0.9027277353448048,-43.0472874,113.8192826,27.851484600000003
2918.2,4.3791426,172.609848,23.4589974,0.5833162,-0.091864,0.4915877999999999,-16.3879964,-53.7832268,-140.96830140000003,-88.2888076,18.4538354,-22.8749986,-0.759534,-0.3889022,0.2476126,-62.9969894,56.366202,-113.0942718,174.25171756831392,0.7683458523264636,93.05226031295592,0.8885093235299223,-46.608993,110.1494288,27.8740296
2938.188,3.287866,173.681955,22.380491,0.5326451999999999,-0.1053098,0.5422414,-15.6059484,-50.2842742,-141.8587036,-82.85932,25.1774202,-6.019891799999999,-0.7553832,-0.4237628,0.2044248,-65.464112,56.4944284,-114.0650192,175.14884507999776,0.7673505059182798,86.80903464544157,0.8899259454365402,-49.8581636,106.7787026,27.7936844
2958.176,5.223154,174.8539948,21.050538,0.4859123999999999,-0.1150868,0.5848616,-14.896723599999998,-46.765048,-142.6534058,-70.60227359999999,33.023211999999994,8.4611774,-0.7668948,-0.4623022,0.17125,-67.7722586,56.9155802,-115.1249632,176.19400099128117,0.7690376604318933,78.40156306656436,0.9116893774152904,-52.875535,103.6806282,27.5284426
2978.163,7.6111054,176.5301728,19.6389172,0.4394692,-0.1253046,0.6293529999999999,-14.219083799999998,-43.22207,-143.3844972,-56.5328464,40.713995,21.560489,-0.7808636,-0.4845221999999999,0.144365,-69.9330718,57.6043314,-116.329251,177.78222043555488,0.7777657868142568,72.9276819655276,0.9302424293283982,-55.71398799999999,100.8264014,27.0552462
2998.151,10.7892752,177.7776826,19.4032322,0.4004261999999999,-0.1365152,0.6761956,-13.565069200000002,-39.6574842,-144.03245539999998,-42.1471046,49.1376762,29.9849958,-0.8131894000000001,-0.4860146,0.126821,-72.0335494,58.487301,-117.7889968,179.15858424807556,0.7976327669653748,71.34416319241123,0.95580895461725,-58.4684802,98.1447852,26.2434586
3018.139,12.6959996,179.24324959999998,19.162138,0.3613871999999999,-0.1431252,0.7206702,-12.948079000000002,-36.0684874,-144.6101134,-32.8345746,54.7460242,32.5270582,-0.8413384,-0.4812784,0.1260726,-74.1645096,59.426839400000006,-119.494127,180.71114649003292,0.8188107646867621,71.6466745216841,0.9774320958981652,-61.2164306,95.4953268,25.115986400000004
3038.127,12.0162246,180.7392182,18.5615454,0.3253508,-0.1497838,0.7663325999999999,-12.4048962,-32.455079999999995,-145.137619,-28.473518,58.0347808,32.56116,-0.8693666,-0.4824,0.1205492,-76.396222,60.354293000000006,-121.4083802,182.08675299653493,0.8459042402221659,72.38097920272959,1.0015189238432791,-63.991325800000006,92.809373,23.729238800000005
3058.114,11.0936876,181.6651948,17.0443602,0.2885738,-0.1655156,0.8155338000000001,-11.927527,-28.8320648,-145.641217,-24.2424192,60.6914192,32.516180199999994,-0.8801435999999999,-0.4809886,0.1083198,-78.7531236,61.249082,-123.5501206,182.79995383182043,0.8807755848297796,72.99620009272763,1.0088290088131684,-66.8255966,90.0811468,22.091096400000005
3078.102,13.5124696,181.007486,15.345975599999996,0.2498472,-0.1762898,0.8519382,-11.4411528,-25.2251168,-146.1261504,-19.5294592,62.1572944,32.0449978,-0.8992708,-0.4902606,0.0992046,-81.20396880000001,62.08859,-125.891623,182.15871044187517,0.9051521493931944,72.60723729611767,1.0290213701892492,-69.762816,87.3137068,20.2345274
3098.089,15.9717114,180.5198242,12.9877884,0.2047498,-0.1806548,0.884974,-10.9265002,-21.622801599999995,-146.6138184,-13.3107946,62.5239432,32.6354504,-0.9006822,-0.5050824,0.0800798,-83.6881454,62.8779004,-128.3929062,181.68980472708688,0.926141251666872,71.77390437318479,1.0357361780659398,-72.7616452,84.500702,18.220912200000004
3118.077,17.5052178,180.0505098,10.796552199999995,0.1582848,-0.1867102,0.9120705999999998,-10.4069958,-18.0272664,-147.100177,-5.373193200000001,61.5000702,32.2103146,-0.9131946,-0.5210494,0.067308,-86.09174479999999,63.5992804,-130.9670242,181.22136813541792,0.9443450407978218,69.63213486889819,1.0535403274547777,-75.684749,81.6265468,16.1331528
3138.065,18.9515176,179.31266799999997,9.917208399999998,0.107078,-0.1868262,0.9596712,-9.891703,-14.427707000000002,-147.55923460000002,0.1435275999999999,61.935765,31.4360512,-0.913942,-0.5087766,0.0534425999999999,-88.5078154,64.2597182,-133.665976,180.5838972529676,0.9835337000834696,69.45707236384362,1.0473775439478927,-78.6161124,78.6874252,13.8932586
3158.053,23.1686924,177.2622438,10.656901599999998,0.0585618,-0.1778446,0.9951274,-9.3356768,-10.84692,-147.9541596,2.3985212,60.622818,28.8802342,-0.933565,-0.4827956,0.0447582,-90.9316374,64.8285942,-136.4126832,179.0872997625698,1.0125891212131208,67.1933545349153,1.05196886696879,-81.5959606,75.6755142,11.5414764
3178.04,26.52057,174.4591402,11.1484,-0.001248,-0.1751644,1.0161608,-8.745999799999998,-7.311754,-148.2900758,3.7466704,58.24805,24.9225374,-0.943554,-0.4652085999999999,0.0183516,-93.3374144,65.274373,-139.1561188,176.81521160524667,1.0311483384983948,63.46657181810858,1.0521644232972909,-84.59141460000001,72.586127,9.133957000000004
3198.028,27.479020400000003,171.4523104,11.0932918,-0.0611776,-0.1712592,1.0271584,-8.164421599999999,-3.826605,-148.5792848,4.123688,56.6530648,20.7727292,-0.9579048,-0.4383602,0.0118605999999999,-95.7296386,65.60106819999999,-141.8865326,173.99440343471255,1.0431331607311505,60.48207033800079,1.0535093472007924,-87.565217,69.4276732,6.692752200000001
3218.016,28.7320158,168.3142518,9.877382199999998,-0.1075334,-0.1542112,1.0504426000000002,-7.5786304,-0.4000957999999999,-148.8472566,3.337921,55.869992,19.2850956,-0.9559719999999998,-0.3979964,0.0005162,-98.154239,65.87135020000001,-144.6298034,171.0344373804589,1.0671336290342277,59.1989242721812,1.0355114029596195,-90.5756086,66.271446,4.2174532
3238.003,31.3377748,164.7170534,6.592670999999998,-0.1529616,-0.1407452,1.042631,-6.9639152,2.9416222,-149.1353944,3.3154112,52.9142768,19.1300718,-0.9602746,-0.3757746,-0.0028846,-100.4885422,66.1135316,-147.2713652,167.80115351542793,1.0631490321486448,56.3637497667185,1.031184841979109,-93.524627,63.17190939999999,1.8640291999999987
3257.991,34.255446400000004,161.3666994,0.9309267999999982,-0.211889,-0.1394528,1.0187974,-6.321102,6.2003356,-149.4951294,6.3339996,49.5442678,18.976268,-0.9483866,-0.3855844,-0.0318678,-102.6714448,66.310193,-149.80679619999998,164.96518998873728,1.0499010305717391,53.43082228432144,1.0242695100703525,-96.3503428,60.1098574,-0.3116668000000004
3277.978,36.274967,158.8479798,-4.797923400000002,-0.259686,-0.1209484,0.9964312000000002,-5.670129,9.4125806,-149.9312134,11.3729594,47.623621,18.707570600000004,-0.946571,-0.3910775999999999,-0.037571,-104.6793092,66.467012,-152.2607024,163.00789547241126,1.036793359542778,52.414947108813095,1.024865809412998,-99.0091802,57.05443140000001,-2.329489000000001
3297.966,36.3833296,156.94416800000002,-10.601493800000002,-0.3013694,-0.0993356,0.9975018,-5.0465716,12.570036,-150.44829399999998,15.7838434,43.2451536,19.0785842,-0.9532986,-0.3887395999999999,-0.0338444,-106.42230220000002,66.6193878,-154.5208678,161.454669219524,1.0467573346707248,49.83237298624064,1.0300689980683235,-101.3757306,54.0493518,-4.072573799999998
3317.954,37.4418456,154.95415640000002,-15.997766800000004,-0.3448584,-0.0923041999999999,0.9892456,-4.4493948,15.6757988,-151.0450012,18.4173092,38.3004874,21.1872726,-0.9549978,-0.3772042,-0.0425018,-107.9775892,66.80181259999999,-156.6264526,160.21426568866173,1.0516911326561424,47.48710491778451,1.0276722286340718,-103.5281944,51.1260138,-5.581451400000003
3337.941,43.1378352,153.1890318,-22.466017200000003,-0.3947226,-0.0977858,0.9641126,-3.8154652,18.7427852,-151.7545136,23.9533414,34.327414999999995,23.0013456,-0.9606196,-0.3670904,-0.0646451999999999,-109.3293288,67.02389360000001,-158.6241058,160.72484007892018,1.0463656622381872,47.7618664230976,1.030400106540833,-105.5138636,48.28110840000001,-6.8695922
3357.929,49.0020204,151.73396580000002,-28.6983272,-0.4453253999999999,-0.0819062,0.9475524,-3.1414944,21.7807026,-152.5734774,27.8238064,31.8193276,23.204593600000003,-0.9651854,-0.3418446,-0.0792006,-110.5336012,67.25729659999999,-160.5410064,162.01230930011414,1.0501804074678598,48.21915569192356,1.0269923670420729,-107.3921068,45.476594,-7.967528999999996
3377.917,51.3916856,149.80466600000003,-35.708498,-0.4958086,-0.05663,0.951505,-2.5048504,24.775243000000003,-153.52184459999998,28.9477872,32.630597,25.4784602,-0.9524224,-0.3115678,-0.0647354,-111.8291624,67.51239160000002,-162.5756562,162.3503622835404,1.074427703365359,50.51615759849394,1.0041780688860715,-109.324312,42.737148600000005,-9.053811599999994
3397.904,54.8835946,146.5496948,-43.7684006,-0.5452526,-0.0395038,0.9456136,-1.9112846,27.7018124,-154.6329286,27.7156824,31.0691998,28.0820324,-0.9340572,-0.3145882,-0.0944874,-113.178601,67.80186460000002,-164.6354006,162.49521498577235,1.0922664640673356,50.22006342911804,0.9901295153715196,-111.2673164,40.10005220000001,-10.002471999999994
3417.892,60.246277600000006,142.2235382,-52.385492,-0.6082076,-0.0320374,0.9201774,-1.3539442,30.551860200000004,-155.936609,31.7249216,31.7159412,28.230276,-0.9208714,-0.3552076,-0.1415141999999999,-114.5284286,68.0551818,-166.7771944,163.09932113551295,1.1034805513316852,53.00301934573331,0.9970972085194904,-113.1744844,37.50332160000001,-10.840585399999991
3437.88,63.85765,136.87955319999998,-58.5015534,-0.6769646,-0.0203468,0.9015746,-0.8530729999999999,33.3070878,-157.38891600000002,37.6534452,33.678778,26.7151702,-0.9177558,-0.389629,-0.1682676,-115.8526564,68.2282852,-169.016202,161.97605779240084,1.1276221979406755,57.14667393486392,1.0111381959378252,-114.9995834,34.9211974,-11.627285999999993
3457.867,63.8754052,130.5547684,-61.4797166,-0.7359506,0.0088435999999999,0.9019506,-0.4451976,35.9488506,-158.9227812,43.4274626,33.8814334,27.4165492,-0.9223264,-0.3800868,-0.1709562,-117.11900620000002,68.39668879999999,-171.313904,157.81118621523046,1.1641376120294713,61.52693074702374,1.0121155991237565,-116.6738086,32.4478382,-12.391122799999994
3477.855,62.6092292,123.775615,-63.6039268,-0.7835366,0.0232001999999999,0.8883519999999999,-0.1552478,38.45783,-160.53053260000002,44.4515004,29.499316,27.202465,-0.9361736,-0.372104,-0.203287,-118.2078552,68.5855376,-173.43711260000003,152.5967822531855,1.184751927081615,59.88421857514116,1.02771980642681,-118.0526074,30.1277076,-12.906580000000002
3497.843,63.838941,116.8492082,-64.6601394,-0.827007,0.0151604,0.8500736,0.0577492,40.8373474,-162.2084622,43.2538292,29.7715084,24.6496672,-0.9344976,-0.3685,-0.2171365999999999,-119.3042038,68.709581,-175.5391724,148.0205440882983,1.1860841206230357,58.00726287237486,1.027728717836239,-119.361953,27.8722336,-13.330710200000004
3517.831,66.7404424,109.5649736,-63.7724334,-0.8625769999999999,0.0167208,0.815672,0.2573287999999999,43.0777198,-163.913162,39.0788314,28.7206696,21.2528744,-0.9493356,-0.3531206,-0.2083413999999999,-120.3505784,68.78068400000001,-105.49882499999998,143.26790761881688,1.1872823917104305,52.95013310770961,1.034088187015827,-120.6079072,25.702964200000004,58.414337
3537.818,65.7386892,102.8269304,-62.453096,-0.8766387999999999,0.0360086,0.793569,0.3846046,45.1806786,-165.629721,34.170911000000004,25.2192846,18.619012400000003,-0.955731,-0.3164976,-0.1846698,-121.2634798,68.84928280000001,-35.211422600000006,137.09610524448115,1.1830232299918713,46.3716626514197,1.023569934200297,-121.6480844,23.6686042,130.4182984
3557.806,62.7902762,97.5197374,-63.0481758,-0.87172,0.0398124,0.7640176000000001,0.3569296,47.1674432,-167.420639,28.821608200000004,20.1939098,16.9991664,-0.9635676,-0.308232,-0.1635308,-122.0027406,68.94374540000001,35.3737398,132.01435694478442,1.1598291592745549,39.08261442815376,1.0247984231752114,-122.35967019999998,21.7763022,202.7943788
3577.794,61.994548,93.7317826,-64.3392152,-0.8602028,0.0317536,0.7285602,0.1846756,49.065928,-169.322461,27.4393672,15.3524432,14.4724468,-0.970592,-0.323789,-0.152157,-122.4642686,69.03682260000001,106.2822024,129.49326493547792,1.1277220904393246,34.613120358102535,1.0344273293151145,-122.6489442,19.9708946,275.6046634
3597.781,61.3865686,91.4416336,-65.8535052,-0.8557174,0.0324532,0.6954742,-0.1445312,50.9054574,-171.34645700000002,31.8897228,9.5207598,12.000798800000002,-0.9695466,-0.3353336,-0.1451299999999999,-122.4910798,69.1427552,177.5581208,128.3221232174935,1.1031726255299483,35.37822012578102,1.0361138691092402,-122.3465486,18.2372978,348.9045778
3617.769,58.656505800000005,90.7268448,-67.4707506,-0.8526854,0.0335184,0.6685128,-0.6915452,52.712121,-173.5216462,38.4762776,4.6214506,10.36281,-0.9629524,-0.3355329999999999,-0.1456254,-122.1286148,69.2702118,177.1104828,127.37444102549036,1.0840227111438026,40.11445593170375,1.030080810363886,-121.4370696,16.5580908,350.632129
3637.756,56.1934762,90.2632844,-68.620772,-0.8625934000000001,0.0342998,0.6467213999999999,-1.4514062,54.4882646,-103.84862360000002,42.914949,0.7679498,9.4115762,-0.962637,-0.3370636,-0.1580425999999999,-121.5001128,69.41756,176.8556732,126.5463457709911,1.07865305785575,43.94155619839069,1.032114009026483,-120.0487066,14.929295399999996,280.7042968
3657.744,53.97958,89.0570878,-68.44184980000001,-0.8853325999999999,0.0356944,0.6285374000000001,-2.3945206,56.218027600000006,-34.29769900000001,44.823105600000005,-0.86723,7.356488199999999,-0.9491526,-0.3447572,-0.1876274,-120.74040519999998,69.5330858,176.7061278,124.61639839298466,1.0863457856561511,45.43105548122772,1.0271086730572183,-118.3458846,13.3150582,211.0038268
3677.732,51.59468460000001,86.5552506,-67.0675676,-0.9202742,0.031208,0.6001092,-3.5082304,57.880568,35.15004879999999,46.6087974,-0.7016568,5.5298456,-0.9237122,-0.3452806,-0.2234398,-119.9518676,69.603354,176.55627120000003,121.04495656235682,1.0990948978019506,46.940936395635234,1.0111321700891729,-116.44363719999998,11.722786000000005,141.4062224
3697.72,48.8579932,82.2748048,-63.9909142,-0.9538482,0.0251618,0.5762642,-4.7496828,59.4376724,104.5456878,46.5673018,1.4322474,5.1340162,-0.9173278,-0.3383274,-0.241856,-119.29246659999998,69.6428848,176.2748748,115.11335328519064,1.1146927527458497,46.87134574437727,1.0071991098981372,-114.5427838,10.205212400000002,71.729187
3717.707,45.4068564,76.0654924,-58.96658180000001,-0.977234,0.027311,0.5596116,-6.0385578,60.850637000000006,173.9963806,42.9375014,3.4219476,5.3615762,-0.920536,-0.3195704,-0.2392513999999999,-118.8221892,69.6776672,175.87153619999998,106.41804128699592,1.1264534275022469,43.40605085930479,1.0033708189169743,-112.7836314,8.827030200000005,1.8751555999999996
3737.695,40.8824424,68.7606988,-53.57905040000001,-0.9863422,0.022252,0.5410744000000001,-7.3585898,62.099827600000005,171.5389586,37.7613776,5.6311444,5.865467,-0.9333458,-0.3097013999999999,-0.221918,-118.5583298,69.7108656,175.3568512,96.28147505008106,1.1252233526461313,38.62687055187777,1.0081155381520512,-111.19974,7.611038000000002,3.817892599999999
3757.683,37.2362906,61.51018380000001,-48.671961,-0.9807582,0.0099218,0.5170646000000001,-8.688115,63.188501,169.1741148,33.220161,6.140974,3.9574692,-0.954014,-0.3010583999999999,-0.1812838,-118.3108766,69.7233168,174.9152742,86.8274371172094,1.1087564608856355,34.01400036754785,1.0166821964355428,-109.6227616,6.534815800000004,5.741159399999998
3777.67,33.0652224,55.60701300000001,-44.2419188,-0.9666302,0.0026931999999999,0.4980288,-10.0366028,64.14198,166.89848320000002,28.1715268,4.9516228,2.3675958,-0.9739846,-0.285838,-0.1296679999999999,-118.0113542,69.7410216,174.6297488,78.37599253757125,1.0873885609604876,28.701202073585275,1.0233099010100313,-107.9747514,5.599041600000002,7.7312656
3797.658,28.105619,51.7610336,-40.8888908,-0.949177,-0.0001972,0.4844973999999999,-11.452229,64.9976472,164.6663452,24.0378182,1.7239748,1.0582805999999998,-0.9918247999999998,-0.2737413999999999,-0.0893891999999999,-117.5613436,69.7844878,174.5869234,71.70098890230047,1.0656804149573174,24.12278488806014,1.0327832381703528,-106.1091146,4.786840600000002,9.9205782
3817.646,23.7918362,50.1908248,-39.6490936,-0.9333078,-0.0059755999999999,0.4701868,-13.016555599999998,65.7951066,162.37157280000002,22.7258644,-2.6501582,-0.6652613999999999,-0.9887642,-0.2731972,-0.074806,-116.8678164,69.83980260000001,174.82954420000002,68.24383479240807,1.045071664638574,22.88953524959702,1.028536480114089,-103.8512608,4.044696000000002,12.457971400000002
3837.633,20.2387872,50.2977302,-39.455139200000005,-0.9222522,-0.010317,0.4547912,-14.768779,66.5638764,159.956958,23.382344600000003,-6.077751999999999,-1.98244,-0.9708402,-0.2816538,-0.0776882,-115.9630494,69.8938996,175.28370360000002,67.05354710893566,1.0283436179075942,24.24052756687142,1.013851573658452,-101.1942704,3.330023200000002,15.326745600000004
3857.621,16.940453400000003,50.8380386,-39.3397928,-0.9216634,-0.0180713999999999,0.4329854,-16.7214976,67.3149246,157.40551159999998,24.1915232,-7.6110252,-2.3879896,-0.9494836,-0.2932976,-0.0979128,-114.98587340000002,69.93783119999999,175.8012542,66.47634487274095,1.018462741100861,25.47273039273335,0.9985637211708424,-98.2643758,2.6229066000000016,18.39574260000001
3877.609,14.0393448,50.99682,-38.2913728,-0.926129,-0.0280611999999999,0.4168424,-18.8270536,68.0421966,154.76047060000002,23.5049318,-7.539601999999999,-2.8318686,-0.9341142,-0.3073772,-0.128011,-114.0617798,69.9545106,176.282382,65.29937276447811,1.0160019399706874,24.846466489396864,0.9916838699114148,-95.2347262,1.9123140000000036,21.521911400000008
3897.596,11.9046084,49.959198,-35.9770416,-0.936609,-0.0373892,0.3995198,-20.9919204,68.733441,152.1068726,22.7512346,-5.6422078,-2.4543268,-0.9204106,-0.3048735999999999,-0.1562735999999999,-113.308853,69.9537874,176.60391840000003,62.705571429089815,1.0189457501504582,23.568557544402584,0.9821023483457718,-92.3169326,1.2203464000000026,24.4970458
3917.584,10.1993148,46.7946952,-32.5057674,-0.9497504,-0.0457893999999999,0.3837556,-23.098566,69.3607756,149.5611786,21.0694536,-2.7670222,-1.5881308,-0.9230412,-0.3023078,-0.1598989999999999,-112.7648666,69.9456468,176.7404052,57.88259181751716,1.0253735182770616,21.309632711423124,0.9843590569702096,-89.6663006,0.5848712000000006,27.179226600000003
3937.572,9.0053582,41.9646376,-28.3626136,-0.9551338,-0.0520852,0.3702822,-25.037997,69.90364199999999,147.226773,17.012100999999998,-1.0275903999999998,-2.1082674,-0.927519,-0.2997212,-0.1439624,-112.359079,69.91886459999999,176.8138428,51.44477753312328,1.025720406152827,17.173011206374838,0.9853169366778386,-87.321082,0.0152226000000012,29.587069799999995
3957.559,6.7634698,37.0171336,-23.8649586,-0.9519134,-0.0582838,0.3649242,-26.7775482,70.3654478,145.1591888,12.0443702,-0.0850886,-1.7610414000000003,-0.9342906,-0.2953392,-0.1204145999999999,-112.0778474,69.8991532,176.85675659999998,44.55949901733047,1.0211296657073674,12.17273019486639,0.987230390637444,-85.30029920000001,-0.4662946000000005,31.697567799999995
3977.547,4.790228600000001,32.4083232,-19.7397096,-0.9488048,-0.0650976,0.3596104,-28.3159854,70.7570846,143.3535766,9.2491274,-0.1580314,-0.6852226000000002,-0.9419892,-0.286481,-0.0969005999999999,-111.8427872,69.9105514,176.906537,38.24789978244882,1.0167536013297225,9.27582134349123,0.9893456133010344,-83.52680180000002,-0.8465332000000018,33.5529604
3997.535,3.5672442,28.35563,-16.484681000000002,-0.943191,-0.0670463999999999,0.356444,-29.663031,71.0882218,141.7829496,6.614951199999998,-1.4554358,-0.1938006000000002,-0.9469308,-0.286747,-0.0768156,-111.5748216,69.945497,177.043741,32.99260055756586,1.010523036536011,6.775945057249461,0.992372116900208,-81.9117906,-1.142724800000002,35.2607914
4017.522,2.2541772,25.2903794,-14.051218600000002,-0.9360878,-0.0698283999999999,0.3548048,-30.8652698,71.3739334,140.3989318,4.0792702,-3.0615866,-0.1073340000000002,-0.939928,-0.2915881999999999,-0.0740774,-111.2725602,69.99028919999999,177.2708468,29.01932716638913,1.003505266980916,5.101497668475758,0.9869021150823418,-80.4072904,-1.3836442000000004,36.871915
4037.51,0.9746558,22.921064,-11.9258024,-0.9301196,-0.0771844,0.348276,-31.9509898,71.6296174,139.1716156,2.7957963999999995,-3.5686104,0.2526075999999998,-0.9311712,-0.2923386,-0.0879834,-111.0002672,70.03999619999999,177.49631979999998,25.856331752675505,0.99618074368235,4.540403979473509,0.9799401713548436,-79.0492774,-1.589621200000002,38.3247042
4057.497,-0.0024509999999999,20.313659,-9.7655108,-0.929735,-0.0808002,0.34049,-32.8906542,71.8581086,138.12509759999998,1.1551643999999996,-2.96739,0.4255421999999997,-0.925987,-0.2963394,-0.101695,-110.8159028,70.0821898,177.6657564,22.53907604939916,0.9934129466868448,3.212614879986115,0.9775534958181878,-77.9252486,-1.7759188000000024,39.5406588
4077.485,-0.8460905999999999,17.0183804,-7.4150136,-0.9318570000000002,-0.083126,0.3353354,-33.6386214,72.05236199999999,137.3034332,-1.4024696000000003,-1.1897243999999998,0.8971722,-0.9252946,-0.2982213999999999,-0.112497,-110.800232,70.11679079999999,177.7122986,18.58288372214328,0.9938396403938417,2.046285191104202,0.9786529901942363,-77.16161059999999,-1.9355712000000007,40.4088654
4097.473,-1.7712028,12.982982000000002,-4.610573,-0.93733,-0.0853072,0.3313228,-34.139363,72.2080642,136.76477359999998,-3.930931,0.7594650000000002,1.5429314,-0.9333958,-0.2932804,-0.1135426,-110.95263380000002,70.1526018,177.634436,13.89072943942761,0.9978174407534076,4.290645979114562,0.9849533158970328,-76.8132708,-2.055462399999999,40.8696624
4117.46,-2.8160998,8.5059842,-1.2723724,-0.944262,-0.0849486,0.3291146,-34.3396774,72.3262252,136.567221,-8.141018200000001,2.1183542,2.0387892,-0.9442538,-0.2851666,-0.105556,-111.260405,70.19508379999999,177.4798156,9.049923580809478,1.0035753131774017,8.655649210280275,0.9920067024501396,-76.92072759999999,-2.1311413999999984,40.91259459999999
4137.448,-4.2488192,4.0034418,2.2079646,-0.9511636,-0.0779888,0.3323538,-34.2194916,72.4086166,136.73652940000002,-13.251398,3.159832,2.6700444,-0.9505898,-0.2820292,-0.1060455999999999,-111.7374466,70.243889,177.2539184,6.241403569320689,1.0105708759235246,13.88211886999241,0.9971996323685846,-77.517955,-2.164727599999994,40.517389
4157.436,-5.4646476,-0.3995169999999998,5.527462,-0.9577336,-0.0729446,0.3381619999999999,-33.786788200000004,72.45291139999999,137.25982040000002,-15.7537652,5.1252358000000005,4.2654108,-0.9500898,-0.2813059999999999,-0.1253706,-112.425966,70.30209520000001,176.85975960000002,7.782982936311679,1.0182966667342677,17.10680827258812,0.9987599716870916,-78.6391778,-2.150816199999994,39.5999392
4177.423,-5.7083048,-5.2865302,8.9278312,-0.9631756,-0.0649462,0.3410571999999999,-33.0033562,72.45180979999999,138.15801679999998,-16.6753268,6.1020094,5.3214468,-0.9489558,-0.285916,-0.1396415999999999,-113.2200914,70.3635316,176.37460040000002,11.842225938602445,1.0238384926352593,18.536958721692105,1.000882033938166,-80.21673519999999,-2.0882781999999964,38.21658359999999
4197.411,-7.0458798,-10.7645198,13.032698,-0.9651644,-0.0569579999999999,0.3475166,-31.841697400000005,72.3952638,139.4850798,-19.2776806,7.465138400000001,5.810501,-0.9412204,-0.2916476,-0.154207,-114.160872,70.41153260000002,175.7905062,18.313124415015697,1.02740173255982,21.473685815848476,0.9973635058547712,-82.3191746,-1.983731199999997,36.3054264
4217.399,-8.1233106,-16.9932864,17.9346338,-0.966178,-0.0498474,0.3580698,-30.2521286,72.2670656,141.2905516,-21.2049838,8.6938534,6.4477238,-0.9363556,-0.2926828,-0.1748854,-115.244092,70.4518782,175.0990084,26.007903554815787,1.03160005459616,23.807720745590924,0.9964988380326192,-84.9919634,-1.8151873999999963,33.808456799999995
4237.387,-8.374894399999999,-24.2100952,23.6000282,-0.9713706,-0.0450118,0.3679666,-28.1931194,72.0445558,143.5981108,-22.400454,9.841664,6.924877599999999,-0.9353674,-0.2882606,-0.1872512,-116.4369096,70.48718260000001,174.318155,34.83143546919951,1.0397049213114071,25.4281855323968,0.9965286540770214,-88.2437902,-1.557373200000001,30.72004419999999
4257.374,-7.6279752,-32.7876316,29.96499,-0.9777882,-0.0371564,0.3781312,-25.6262794,71.69413,146.43229960000002,-24.7752298,8.614697600000001,6.153104999999999,-0.9437838,-0.280376,-0.1804606,-117.58211980000002,70.5225006,173.6362916,45.06789785744653,1.0490155225417972,26.942266562471666,1.000951842333486,-91.9558404,-1.1716294000000005,27.203991999999992
4277.362,-7.728395000000001,-42.0014,36.6601316,-0.9851006,-0.0288934,0.3949194,-22.6145414,71.18476100000001,149.75231300000002,-28.3854784,5.9857572,4.8852164,-0.9552962,-0.2781368,-0.1669736,-118.6081558,70.5633438,173.1539186,56.28330960564902,1.061705869429137,29.418191863692904,1.008876153125665,-95.9936144,-0.6214171999999991,23.401605599999996
4297.35,-6.9341072,-51.2703088,43.065902,-0.9931038,-0.0186618,0.4184928,-19.2553482,70.4878188,153.445175,-30.3952908,2.334175000000001,4.332638,-0.9616506,-0.2821466,-0.1626005999999999,-119.4616562,70.62687079999999,172.89490059999997,67.31566178967606,1.077840268316934,30.791132291395744,1.0152918474469694,-100.206308,0.139051999999998,19.449725599999997
4317.337,-5.946459,-60.15061899999999,48.9996592,-0.9994386,-0.0066866,0.4469686,-15.691815,69.58369139999999,157.3609558,-28.0497916,-0.7754745999999999,4.6904266,-0.9654328,-0.2910616,-0.1641498,-120.1162568,70.7208132,172.79559640000002,77.81017891277455,1.0948530290296867,28.449820234030717,1.0216273797967828,-104.4244418,1.137121799999997,15.434640599999994
4337.325,-4.068205799999999,-68.9845102,54.1816918,-1.005014,0.0071983999999999,0.470718,-12.060664,68.4547318,161.3461792,-24.169741,-4.3447552,4.731302,-0.9684804,-0.297371,-0.1588048,-120.5014024,70.848227,172.8973604,87.81269083837053,1.1098109715994704,25.008768389711083,1.0254768458274424,-108.4407384,2.393495199999998,11.551181200000002
4357.313,-3.3425232,-77.4512194,58.8252984,-1.0083162,0.0221348,0.5004092,-8.516836800000002,67.0922524,165.25831599999998,-21.769422,-8.3078402,4.4711392000000005,-0.9700344,-0.2998976,-0.1534236,-120.6190354,71.0101822,173.2297302,97.31536147874353,1.1258778246320156,23.725914708364705,1.0268612899053502,-112.1021986,3.917929799999999,7.971414199999998
4377.3,-3.1714304,-85.5589342,63.3415254,-1.0072094,0.0353846,0.535563,-5.156274600000001,65.4956552,169.010559,-20.611392400000003,-12.1864636,4.089016,-0.9664692,-0.2911044,-0.1534774,-120.5074036,71.2060424,173.7801482,106.50135225536256,1.141293376978295,24.29113919908161,1.0209602335834438,-115.351129,5.710387199999997,4.769589200000001
4397.288,-3.6518016,-93.5120592,67.7754946,-1.006922,0.048612,0.567058,-2.0500724,63.6691194,172.5349272,-20.841949,-16.7308858,3.1070694,-0.969301,-0.2821034,-0.1472611999999999,-120.1278182,71.4332442,174.61740719999997,115.54807890668152,1.1566372880000022,26.906565333160955,1.020202243635055,-118.0777458,7.764124799999998,2.082480000000004
4417.275,-4.2576358,-101.6614122,71.4365784,-1.0065326,0.0594341999999999,0.5904352,0.7439058000000001,61.6167786,103.7725584,-23.5899838,-21.883917,1.0904790000000002,-0.9691864,-0.2834526,-0.143044,-119.4551588,71.67138499999999,175.82009580000002,124.32358958219916,1.168440851901131,32.1959982512826,1.0198672660340264,-120.1990646,10.054606399999996,72.04753740000001
4437.263,-5.2048332,-109.4663088,74.94005899999999,-1.0020764,0.0689992,0.6230956000000001,3.2127754000000004,59.3488648,34.7174406,-26.64934,-27.6553092,-1.84055,-0.974654,-0.3059502,-0.138094,-118.4080336,71.89607079999999,105.47792359999998,132.76285434510763,1.1820178204142946,38.44985141305106,1.0308374738202135,-121.620809,12.547205999999996,70.76048300000001
4457.251,-6.6651902000000005,-116.827875,78.7035446,-0.995721,0.0774303999999999,0.6599562,5.366365,56.8803276,-34.601996,-27.3826806,-33.67129,-4.5573718,-0.980322,-0.3179397999999999,-0.1275194,-116.9238006,72.109935,35.607299999999995,141.02278209573797,1.1970789291452757,43.638705352349206,1.0384498723984703,-122.2901656,15.229607399999995,70.20929600000001
4477.238,-7.972898000000001,-123.7502856,82.3982024,-0.9886734,0.0904046,0.6965747999999999,7.231014999999999,54.2277962,-104.1626282,-25.5816016,-39.6059666,-6.1114182,-0.9843074,-0.31643,-0.1177797999999999,-114.9837738,72.3276962,-33.824941800000005,148.88641323959465,1.212792041350767,47.54366796069409,1.040606113706238,-122.2147888,18.0999,70.3376864
4497.226,-8.8373542,-130.2762576,85.0221296,-0.9738864,0.1035388,0.728836,8.815015800000001,51.40919720000001,-173.9633026,-23.5900366,-45.0785636,-8.291799600000001,-0.9847298,-0.3220834,-0.1076012,-112.5791002,72.515837,-102.8145964,155.81644536196112,1.2208099434827684,51.54920623671275,1.0416374195491636,-121.39411599999998,21.1066398,71.1487062
4517.214,-10.3316496,-136.1025638,87.2471236,-0.9536808,0.1156236,0.7617096,10.135999000000002,48.4469498,-171.974759,-23.114298,-50.0045174,-10.417914,-0.986516,-0.3205623999999999,-0.0875048,-109.7634798,72.6632782,-171.38688340000002,161.99602289211896,1.2260005709206503,56.06474350740492,1.0409760614792254,-119.8994788,24.2163284,0.5878756000000009
4537.202,-12.4708554,-141.5032168,89.2921646,-0.9291404,0.1272212,0.7948818,11.211286,45.356179,-170.165509,-22.539596,-54.130725,-11.154292000000002,-0.9860014,-0.3036988,-0.0737159999999999,-106.6466004,72.7796738,-167.65632,167.7849017584985,1.2293592610025923,59.68741079063578,1.0343431590044958,-117.8578864,27.423494800000004,2.509188999999998
4557.19,-13.3239884,-146.76514,90.177971,-0.9014056,0.1390326,0.8223804000000001,12.0744684,42.1515572,-168.53467099999995,-20.586103,-55.9826828,-11.256689599999998,-0.9869612,-0.3023296,-0.0623614,-103.3636002,72.8464906,-163.7931732,172.77037199641546,1.2280763990396852,60.700588720067394,1.0341105074176358,-115.4380686,30.694933400000004,4.741497799999996
4577.177,-13.589084200000002,-152.008069,89.8414812,-0.8673740000000001,0.1522684,0.8469620000000001,12.7451178,38.843145,-167.0831422,-18.4042728,-57.12843779999999,-12.7899658,-0.9886058,-0.3159446,-0.0424424,-99.9295884,72.817966,-159.81904300000002,177.09491239082337,1.2218297553090447,61.36740900453968,1.038731811094933,-112.6747062,33.974821000000006,7.264099199999999
4597.165,-14.171107,-156.786374,89.1090366,-0.8277713999999999,0.1655764,0.8699335999999999,13.2430058,35.4456022,-165.7871766,-16.047279999999997,-57.5089112,-14.314285000000002,-0.9900065999999998,-0.324849,-0.021233,-96.4427292,72.6878924,-155.8380432,180.89557139259503,1.2121903742003066,61.39779163674464,1.0421567929700213,-109.685735,37.2422902,9.9491334
4617.152,-14.7136708,-161.0144256,88.56887400000001,-0.7833365999999999,0.1809172,0.895471,13.598628,31.9701394,-164.6125794,-14.429127,-57.5941596,-17.130699200000002,-0.9937288,-0.331082,0.0033815999999999,-92.9785644,72.42986920000001,-151.91204520000002,184.3545030676945,1.203418287212057,61.79601751806731,1.04743670638946,-106.5771924,40.459729800000005,12.700534200000003
4637.14,-15.5886328,-164.6389526,87.941608,-0.7334712,0.1963712,0.9228076000000002,13.823151,28.4293976,-163.53797619999995,-14.589261,-57.499617,-20.1736466,-0.992147,-0.3209778,0.0298891999999999,-89.6272186,72.0472642,-148.095987,187.3038082993081,1.1950378722185504,62.65802828700007,1.0432045734075748,-103.4503696,43.6178666,15.441989200000004
4657.128,-16.5424544,-167.86013780000002,87.25629460000002,-0.6774146,0.212738,0.9427276,13.9353574,24.8335716,-162.5422638,-17.2204848,-58.3376624,-22.5107954,-0.9848886,-0.3032248,0.0546513999999999,-86.41431259999999,71.56379999999999,-144.36278079999997,189.9061336743315,1.1802047808490357,64.8580284975119,1.0319581431758558,-100.34967,46.7302284,18.17948300000001
4677.115,-17.5934782,-171.0486938,86.0533862,-0.6197625999999999,0.225076,0.9533142,13.944549599999998,21.1705154,-161.61976,-21.357696,-58.6082054,-23.6877602,-0.978965,-0.2952442,0.0744054,-83.4390318,71.00186299999999,-140.7825928,192.2820100850477,1.1591258991396922,66.72467985632983,1.0252208407986056,-97.3835814,49.8313476,20.83716720000001
4697.103,-17.6122198,-174.4232086,84.2923006,-0.556606,0.2341064,0.9660442,13.8792064,17.4351432,-160.76953120000002,-24.224416400000003,-58.5448668,-23.7907008,-0.9689896,-0.298911,0.090529,-80.70851259999999,70.3839982,-137.3881624,194.52207567534177,1.1392354638574942,67.67807047416062,1.0180786466035718,-94.587719,52.948855,23.38136880000001
4717.091,-17.394908,-178.11729739999998,82.07281359999999,-0.4898898,0.245051,0.9814718,13.74963,13.627542,-159.9920502,-23.639970400000003,-58.510424,-22.3665774,-0.9591008,-0.2985874,0.1089724,-78.139195,69.74664620000001,-134.1651034,196.8865185573376,1.1239790491554011,66.95208511885828,1.0103978246023495,-91.888825,56.1191042,25.82694680000001
4737.078,-17.639883,-182.1501832,79.3134248,-0.4243737999999999,0.2528774,0.9859482,13.5499524,9.7397018,-159.29010620000005,-20.749394,-58.12518,-19.8870282,-0.9487968,-0.3099602,0.1268076,-75.68156880000001,69.107785,-131.110277,199.4504300961833,1.102784636563477,64.84263868803637,1.0061664179906027,-89.2315212,59.3680832,28.17982920000001
4757.066,-18.4052042,-186.1350068,76.1423508,-0.3578116,0.2502334,0.9827318,13.275132000000005,5.7735354,-158.6622528,-17.850643400000003,-57.8923538,-18.6892534,-0.9398582,-0.3244074,0.1464329999999999,-73.3312012,68.4427292,-128.21999060000002,201.9471462621594,1.0753639785213935,63.39919787306263,1.004995632214887,-86.60633320000001,62.6691938,30.44226220000001
4777.053,-18.9995602,-189.6406678,73.22192240000001,-0.2862612,0.2447168,0.9846926,12.9393038,1.7531972,-158.0913452,-15.693490000000002,-57.8763686,-18.606851,-0.9329064,-0.337784,0.1624553999999999,-71.1069978,67.7348114,-125.4981994,204.1715359480234,1.0542539083742777,62.78673884539128,1.0053875565204295,-84.0463016,65.9816142,32.59314580000001
4797.041,-21.0998656,-192.7427918,70.70481720000001,-0.2165767999999999,0.2365014,0.983095,12.5208014,-2.3129182,-157.55869439999998,-15.3056516,-58.4198944,-19.7603626,-0.9352716,-0.3360586,0.1878008,-69.014432,66.9689224,-122.9158874,206.3835247651363,1.0340764969407243,63.54226123369558,1.0114037220028214,-81.53523340000001,69.28184060000001,34.642807000000005
4817.029,-23.8344702,-195.4664796,67.97749940000001,-0.1442131999999999,0.2249747999999999,0.9730786,12.0106688,-6.42123,-157.0570098,-17.0979598,-59.2828292,-21.6845416,-0.9379444,-0.3495012,0.2041684,-67.1157694,66.1259918,-120.4900238,208.3174669623479,1.0091050834612023,65.39887928459416,1.0215554423776323,-79.12643820000001,72.5472218,36.56698600000001
4837.016,-26.3092832,-197.3826966,64.52968519999999,-0.0685742,0.1989596,0.9521372,11.4194682,-10.5482518,-156.58807359999997,-19.793067,-59.7111006,-25.4663594,-0.9365396,-0.3774956,0.2143622,-65.48520679999999,65.17509700000001,-118.2796004,209.3231653964667,0.9751167063288578,67.86542932318174,1.0322599009824804,-76.904675,75.72334879999998,38.30847320000001
4857.004,-27.869653600000003,-198.4804658,61.4310784,0.0101854,0.1772962,0.9352924,10.7632146,-14.6659594,-156.13288559999998,-19.0902298,-59.44904079999999,-28.5108624,-0.9315308,-0.4115866,0.2212413999999999,-64.06698779999999,64.139798,-116.2975006,209.63060437196643,0.9520029193260702,68.64032780114475,1.0421616562329283,-74.83020239999999,78.80575739999999,39.83538500000002
4876.992,-30.2670154,-198.4991486,58.70371779999999,0.089754,0.1557738,0.9173976,10.0193226,-18.7512394,-155.6710814,-14.6361528,-58.8742156,-30.808054400000003,-0.9263228,-0.4339546,0.2347096,-62.759308,63.0457008,-114.5184602,209.19878273950533,0.9348473745848568,68.04062350694319,1.049513754551678,-72.77863060000001,81.7969402,41.15262120000001
4896.98,-32.6676662,-197.6839752,56.566707,0.1677744,0.1352572,0.8985014,9.1787484,-22.7888182,-155.1769438,-6.8606438,-58.3147476,-31.1453972,-0.91618,-0.4498006,0.2451877999999999,-61.454815800000006,61.9313362,-112.8976762,208.19683668743068,0.9239845914565676,66.46588589455459,1.0496777740950791,-70.6335642,84.72015439999998,42.27926760000001
4916.967,-35.1328468,-196.0894928,54.049389,0.2342584,0.1046961999999999,0.8603828,8.233814800000001,-26.7623754,-154.6433042,2.957322,-56.6525536,-29.3973924,-0.8978425999999999,-0.4544474,0.256362,-60.0946252,60.8468492,-111.4180466,206.4140076693121,0.8978289674547375,63.89416454365871,1.0384436666403816,-68.32844,87.60922459999999,43.22525760000001
4936.955,-36.1781788,-194.3180602,51.51424959999999,0.2954206,0.086764,0.8298712,7.210319399999999,-30.6692296,-154.0615018,14.936512400000002,-55.2705338,-25.2469042,-0.881621,-0.452511,0.2704634,-58.5646026,59.832854600000005,-110.0026018,204.25985178939763,0.8851483102790176,62.57265761413905,1.027215772611363,-65.774922,90.5020842,44.058900000000015
4956.943,-37.409346,-192.808148,48.5916536,0.3524665999999999,0.0707594,0.7996077999999999,6.106385199999999,-34.528763,-153.432916,26.1876486,-53.678904,-20.634635600000003,-0.8759546,-0.4411324,0.2857554,-56.8596342,58.904068200000005,-108.6327394,202.32545540025365,0.8767053271337866,63.19023548130744,1.0215431484866804,-62.96601940000001,93.4328312,44.80017660000001
4976.93,-37.692125,-192.2821074,45.6634722,0.4034408,0.058658,0.7679328,4.934002999999999,-38.3611758,-152.7495786,35.8813636,-52.27565,-15.2599424,-0.875659,-0.428069,0.2983813999999999,-54.9858488,58.0704394,-107.28049939999998,201.19209180919844,0.8694400642853307,65.21565516629595,1.0193395964583931,-59.91985179999999,96.4316152,45.46907920000002
4996.918,-37.2492744,-192.010199,42.0824342,0.4521342,0.0430396,0.7144072,3.7001096,-42.1778242,-152.0127072,43.1603362,-51.3564864,-10.677668,-0.8725392,-0.4227584,0.3089344,-52.9970204,57.3041582,-105.95038300000002,200.065879728512,0.8465550126185776,67.92875613588578,1.0175901846080082,-56.69713,99.4819824,46.06232420000002
5016.906,-36.8565826,-190.8853362,38.5768692,0.5003312,0.027709,0.661674,2.3864887999999995,-45.9667274,-151.202969,46.6414924,-51.2798308,-7.4471288,-0.880105,-0.4076008,0.3252743999999999,-50.9542906,56.57525879999999,-104.6294694,198.2013978114473,0.8300069762661275,69.71735499529278,1.022998855561921,-53.3407794,102.5419862,46.57349960000001
5036.893,-37.78314279999999,-188.5792328,35.6456226,0.5475886,0.0148976,0.6075775999999999,0.9367404,-49.706179,-150.2834806,46.965873,-51.7849044,-4.387448999999999,-0.8785963999999999,-0.3694054,0.3389664,-48.8894882,55.8763192,-103.2853868,195.6024113701654,0.8180621940644122,70.04797826559215,1.011578076062881,-49.8262286,105.5824982,46.998093800000014
5056.881,-38.5891836,-185.2910096,31.948946,0.5857671999999999,0.000515,0.547006,-0.6520656,-53.3762938,-149.2532256,45.699209,-52.4861702,-0.5894965999999997,-0.8650938,-0.33815,0.3492534,-46.8153772,55.20906219999999,-101.8926072,191.94431088212204,0.8014605678739535,69.59571302695635,0.9923258752597356,-46.1633116,108.585356,47.36061840000002
5076.874,-38.4294974,-180.9270874,26.8171284,0.6172196,-0.0196754,0.46719,-2.3549064,-56.9656156,-148.1277222,44.016624,-52.6227554,2.4125328,-0.8398852,-0.3231128,0.3606187999999999,-44.7727312,54.5578498,-100.48677519999998,186.8972862325345,0.7743472425787542,68.64719869562545,0.9694611645735584,-42.4178248,111.5234654,47.64094700000002
5096.856,-38.78257979999999,-175.3410674,20.8509198,0.6442876,-0.0389316,0.4004778,-4.1790962,-60.44655680000001,-146.91365059999998,43.0715182,-50.433091000000005,5.895829000000001,-0.8230183999999999,-0.3154634,0.3684218,-42.784491200000005,53.9627014,-99.1113388,180.7853403056253,0.7596082209173094,66.58388053774317,0.9553067916608567,-38.605395,114.4092582,47.802311800000005
5116.844,-38.4737312,-169.2248076,14.3136516,0.6738291999999999,-0.0523648,0.3495084,-6.0983864,-63.8060072,-145.62421279999998,45.517982,-46.0768768,11.0580118,-0.7979676,-0.323988,0.3690188,-40.792653,53.4716246,-97.772972,174.1325475660224,0.7608836867236936,65.7057446952977,0.9369607193192252,-34.6942666,117.2776318,47.851240800000014
5136.832,-35.9010196,-162.7221372,7.200689800000001,0.7007496,-0.0683324,0.3001316,-8.0666534,-67.0388778,-144.2643098,49.97974119999999,-39.3252236,15.7231768,-0.7813198,-0.3529946,0.3687801999999999,-38.8113252,53.1081626,-96.533644,166.79096821126447,0.7653746116173962,65.51080849976614,0.933308444949064,-30.7446718,120.1470404,47.73066580000001
5156.819,-33.09099199999999,-155.44635899999997,1.5114266,0.7242316000000001,-0.0803188,0.2610329999999999,-10.161052,-70.12405779999999,-142.74601760000002,53.2898874,-31.1120156,19.190007,-0.7770514000000001,-0.3719498,0.3755544,-36.880323,52.8856888,-95.4225922,158.9366813805678,0.7740159863730206,64.62217871953382,0.9397854219561824,-26.719271000000003,123.0097466,47.323425400000005
5176.807,-32.027082,-146.9773832,-2.439988,0.7468956,-0.0909192,0.2285261999999999,-12.5793986,-73.0307222,-140.9002656,53.9765084,-21.3295774,22.8968602,-0.7740796000000001,-0.3715122,0.3761009999999999,-35.0423294,52.845108800000006,-94.43546,150.44613220416971,0.7863482449363259,62.39134986627718,0.9373753272227728,-22.4629308,125.875831,46.46480560000001
5196.794,-31.6571692,-137.4949964,-5.2043066,0.7661742,-0.0980626,0.2042807999999999,-15.5147546,-75.7298004,-138.54459860000003,50.5163476,-11.362309399999996,25.1742916,-0.7736744000000001,-0.3606604,0.3872266,-33.3803982,52.976583000000005,-93.581769,141.188296979531,0.7989804900703397,57.57385176716237,0.9373326203067298,-17.865643600000002,128.7063834,44.962829600000006
5216.782,-31.3594344,-127.8806502,-6.832087800000001,0.7810052,-0.100322,0.1781368,-19.269378600000003,-78.21288919999999,-135.3766314,42.365197,-0.9039429999999988,25.8931804,-0.7787798,-0.3422242,0.3936684,-32.006546400000005,53.280231400000005,-92.8884204,131.84669978869235,0.8073204726905419,49.65968003343358,0.937331419036106,-12.737167800000002,131.49312059999997,42.488211000000014
5236.77,-32.8716136,-118.3586028,-7.80017,0.7878438,-0.1021984,0.1466695999999999,-24.4363674,-80.4713654,-130.843062,33.0502364,10.363429200000002,25.8546664,-0.7837942,-0.3181514,0.3942602,-30.9581752,53.7709684,-92.3752992,123.08592319784084,0.8078702480752462,43.22247754970308,0.9332710038245268,-6.521807800000002,134.24233379999998,38.46776280000001
5256.757,-36.117324,-108.6204574,-9.137136,0.7920917999999999,-0.1015132,0.1137267999999999,-31.8488342,-82.4854752,-124.1553514,28.3493332,21.6658546,26.209052199999995,-0.7654096,-0.2852921999999999,0.3788441999999999,-30.125578,54.4564978,-92.0217866,114.83184276579684,0.806627630595258,44.27198172270232,0.9004256898970842,1.7232561999999991,136.94197300000002,32.13356480000001
5276.745,-39.4669928,-99.0909408,-11.5168056,0.7941317999999999,-0.1008824,0.0780387999999999,-42.9531432,-84.2230224,-113.8778412,27.9278008,31.215919000000003,26.8735016,-0.7565607999999999,-0.2703624,0.3740112,-29.3960964,55.3064734,-91.7899262,107.28138179820648,0.8043087894002153,49.76525640227572,0.8862079040246932,13.5570468,139.5294958,22.087915
5296.733,-39.7067306,-90.7636536,-14.170978,0.7982389999999999,-0.0989446,0.0451484,-59.3219806,-85.6048676,-98.345095,32.1079186,40.9240744,28.847056200000004,-0.751588,-0.2528608,0.3617464,-28.6426418,56.342491,-91.6357132,100.07737949825751,0.8056139975277986,59.47983653076831,0.871598281224556,30.6793388,141.9473586,6.7093818000000125
5316.72,-39.5610184,-83.3805038,-16.3375524,0.8063134,-0.0884932,0.0129822,-80.3202498,-86.5039414,-78.13022040000001,39.2344536,49.834242800000006,31.4158806,-0.7563854,-0.2349202,0.3583898,-27.764182,57.5544356,-91.5098404,93.7245870047433,0.8112588261354325,70.77959916962911,0.869338612075433,52.55606780000001,144.058377,-13.379619999999992
5336.708,-40.396045,-76.12431799999999,-18.7212816,0.8175334,-0.0798946,-0.0184966,-103.3471694,-86.8720596,-55.855211800000006,45.819188,56.5208838,34.5904224,-0.7705064,-0.218087,0.3622686,-26.7079194,58.9065322,-91.3374192,88.18865362025687,0.8216362525085416,80.56367429755714,0.878908749846035,76.63925,145.77859180000002,-35.482207399999986
5356.696,-39.4243446,-69.22569739999999,-20.7847616,0.8362624000000001,-0.0741701999999999,-0.0484338,-125.9557692,-86.7527526,-33.9399354,49.3664008,60.580211600000005,37.1490704,-0.79573,-0.2147464,0.3753402,-25.5091076,60.34243300000001,-91.086,82.33153977926533,0.8409410521577836,86.5277816486195,0.905639285228396,100.4466616,147.0951856,-57.14606459999999
5376.683,-36.5458596,-63.0739098,-22.1928522,0.8647012000000001,-0.0647714,-0.0685262,-145.77314760000002,-86.2156432,-14.7174982,51.324372800000006,62.6584732,37.955896800000005,-0.8214948,-0.1970678,0.3796598,-24.2020604,61.81537540000001,-90.7635056,76.20000420034432,0.8698271895186078,89.44789326172389,0.926191658329916,121.5710872,148.03101859999998,-76.04600739999998
5396.671,-35.398016,-57.64780040000001,-22.8962564,0.8979098000000001,-0.0513654,-0.0882908,-160.5418702,-85.39568,-0.5123536000000002,51.330957,61.310817,37.164338,-0.856236,-0.1928734,0.3883982,-22.8346234,63.245681000000005,-90.3764694,71.41797382192412,0.90370110026371,88.17636557900072,0.9597882047028918,137.7072468,148.64136100000002,-89.8641158
5416.659,-33.6439396,-52.8289498,-23.6068624,0.9325464,-0.0509943999999999,-0.1129682,-98.2461946,-84.463458,8.6193108,51.1139862,57.65834500000001,34.9764878,-0.8858534,-0.193056,0.3959764,-21.4256248,64.5780708,-89.9403366,66.93352344790988,0.9407470601578088,84.61961375601028,0.9893453263570412,76.82056980000002,149.04152879999998,-98.5596474
5436.646,-30.948992600000004,-48.686393,-22.987402,0.9702064,-0.0467924,-0.1311524,-32.633782999999994,-83.52199379999999,14.450818000000002,51.50473939999999,51.4313568,31.6327378,-0.9119646,-0.187407,0.4087136,-19.9579848,65.7536064,-89.4527878,62.1017363446056,0.9801484271907394,79.36342195038195,1.0167829769066357,12.675798200000008,149.2756002,-103.9036058
5456.636,-28.922533999999995,-45.3606956,-22.003693,1.0068788,-0.0436936,-0.156867,34.878634600000005,-82.5990492,18.4043584,51.124205800000006,43.7005882,27.858245,-0.9442356,-0.1750022,0.4238752,-18.4421356,66.7433258,-88.9105608,58.12287143573744,1.0199614229270637,72.79771728692293,1.049703207333978,-53.32077019999999,149.342375,-107.3149192
5476.622,-27.8452558,-43.1543014,-20.5378848,1.0365216,-0.0414372,-0.178716,103.643811,-81.6945632,21.1164322,49.9634544,35.19120780000001,24.2194098,-0.9657344,-0.1662042,0.4364,-16.9097678,67.5335114,-88.32901480000001,55.312355870524506,1.052631691270218,65.73695834965288,1.0727123227785724,-120.5535788,149.2280746,-109.445447
5496.609,-26.1638348,-41.450454,-19.444681,1.0567788,-0.0432478,-0.2141764,173.2472138,-80.8020538,23.018642,48.578791,27.072534,20.9448638,-0.9691058,-0.1582754,0.4344186,-15.388597199999998,68.13932639999999,-87.731354,52.7331205926557,1.0791308236962005,59.42649536867699,1.0737488877129326,-188.635811,148.9413802,-110.74999599999998
5516.597,-24.6384736,-39.253505,-18.271337600000003,1.0682546,-0.0395354,-0.2440277999999999,171.4145356,-79.9412078,24.3843372,46.416204,18.564428000000003,16.963414800000002,-0.9640048,-0.1506968,0.423726,-13.9520728,68.55544119999999,-87.1781236,49.81700326009279,1.0964855245041587,52.7907134107284,1.063747386849566,-185.3666084,148.496649,-111.56246079999998
5536.585,-22.8644212,-36.4003472,-16.7740882,1.0753058000000002,-0.0323838,-0.2690784,169.972702,-79.1330062,25.3919532,42.9761328,10.856964200000004,11.9867606,-0.9591598,-0.1441349999999999,0.4041287999999999,-12.7148408,68.8004578,-86.76383059999999,46.14257327060268,1.1089339292142883,45.91845045039118,1.0507533046107824,-182.6875428,147.933464,-112.15578379999997
5556.573,-20.3559142,-33.0572954,-13.902829399999998,1.0781874,-0.0202698,-0.2828895999999999,168.9331634,-78.399214,26.0420196,38.239867,4.433394400000003,6.231223200000002,-0.9518166,-0.13815,0.3788285999999999,-11.7796648,68.9017608,-86.5704346,41.236351528792255,1.114865669082585,38.99705830767057,1.0337075847228363,-180.7128282,147.3009748,-112.6124542
5576.56,-16.7212436,-28.094382,-9.7812912,1.0712216,-0.0054624,-0.2967727999999999,168.317453,-77.7760634,26.3334274,31.973724000000004,0.491991200000003,0.4392558000000012,-0.9473748,-0.1293784,0.3525703999999999,-11.2150268,68.9131774,-86.6393386,34.12576658526021,1.111584296821505,31.980525752821627,1.0190994402008864,-179.5324798,146.6892408,-112.97276599999998
5596.548,-13.4893372,-21.1874186,-4.061856000000001,1.0642292,0.0149479999999999,-0.2936274,168.148532,-77.3152236,26.2321056,24.8455876,-1.990426399999997,-5.722130399999999,-0.9446878,-0.107701,0.336525,-11.0518542,68.86048880000001,-86.9889098,25.44341956561,1.1040943269790855,25.5735761433104,1.0086047890501213,-179.2003862,146.1757124,-113.22101539999998
5616.536,-11.0674822,-13.541804,2.6870758,1.0545212,0.0371667999999999,-0.2787938,168.4341796,-77.03856040000001,25.7116106,17.384345800000002,-3.2337839999999973,-11.1923766,-0.942802,-0.0793698,0.3247905999999999,-11.2596748,68.770311,-87.58176719999999,17.694349215969446,1.091385502556324,20.927066966224896,1.0003319999902032,-179.6938544,145.8088714,-113.2933778
5636.523,-9.1926206,-6.464631,9.521517800000002,1.0407038,0.0578253999999999,-0.2620176,169.1609282,-76.9324462,24.77367,9.6544262,-2.695750599999997,-15.045506799999998,-0.9375372,-0.0538589999999999,0.317882,-11.7782838,68.6798888,-88.348001,14.72939335741368,1.0747378279977682,18.07878014185396,0.991426123918893,-180.939212,145.612335,-113.121671
5656.511,-7.427283200000001,0.3247595999999998,15.384706,1.0225128,0.0689731999999999,-0.2534906,170.2796934,-76.9786178,23.4674592,1.9889496,-0.8167963999999971,-17.415495,-0.9262906,-0.035813,0.3146238,-12.551774,68.6158814,-89.228137,17.086813138711104,1.0557211813591882,17.547721873947573,0.978920314501543,-182.8314674,145.59449920000003,-112.6955962
5676.499,-6.7282438,6.8060752,20.0211732,1.0064398,0.0782047999999999,-0.2450908,171.7035032,-77.1617614,21.8609834,-4.693993000000001,1.073544400000003,-18.834459,-0.915474,-0.0225312,0.3144434,-13.517902800000002,68.57810980000001,-90.1758528,22.19097340282061,1.038800540051708,19.440239548048304,0.9682329014514018,-185.221406,145.7398712,-112.0368362
5696.486,-6.9361046,12.6844028,23.4881374,0.9928946,0.080041,-0.2422772,173.392761,-77.4590774,19.9780922,-9.7052648,3.2326538000000027,-18.7785882,-0.9030844,-0.0154741999999999,0.3126127999999999,-14.585296199999998,68.576761,-91.127629,27.580721889320948,1.025155836948705,21.38404990206375,0.955786402452368,-187.9780572,146.0358384,-111.1057212
5716.474,-6.458013800000001,18.3718262,25.7220516,0.9839924,0.071556,-0.2512004,175.3500792,-77.8533996,17.8326716,-13.4738542,5.711661600000003,-17.760849599999997,-0.897108,-0.0169856,0.3151574,-15.701845200000005,68.6194688,-92.0523574,32.26226710380191,1.018068241992608,23.013378799072346,0.9510076030432776,-191.0519244,146.47286839999998,-109.885029
5736.462,-5.288207999999999,24.8859846,26.7748596,0.9777216,0.0600524,-0.2652085999999999,105.5638274,-78.35123300000001,15.452501000000002,-16.7600134,6.864272000000002,-16.651783199999997,-0.8987684,-0.024032,0.3241623999999999,-16.844029,68.678296,-92.9340516,36.93467855501674,1.01483073434257,24.602808030750587,0.9557423478303764,-122.4078564,147.029529,-108.3865526
5756.45,-4.8920254,32.494493,26.5923668,0.9723866,0.0455044,-0.275693,36.00441279999999,-78.9710328,12.8536156,-20.0593536,5.743193000000002,-15.619849999999996,-0.9076384,-0.038721,0.336273,-17.9903514,68.7085342,-93.74796,42.27266208635359,1.011737604583283,26.064183215815184,0.9687034177314334,-53.99476419999999,147.679567,-106.60157559999998
5776.437,-3.9407174,40.7410492,25.857462,0.9717968,0.0267094,-0.280873,-33.217886400000005,-79.72505040000001,9.9367142,-23.9006192,2.806271400000002,-14.6275534,-0.923329,-0.0621515999999999,0.3503342,-19.1304084,68.6752976,-94.4697754,48.4145709949487,1.0119249254107738,28.16167743199468,0.989511654965822,14.087478,148.40034800000004,-104.4064896
5796.425,-2.4692528,49.363744,24.7771092,0.9723032,0.0067527999999999,-0.2794538,-101.8863494,-80.6173126,6.493898400000001,-30.5979886,-3.430303399999997,-14.746889,-0.952397,-0.0913454,0.3686239999999999,-20.3140598,68.5109376,-95.0911728,55.28816845760554,1.0116884596418605,34.139048360493334,1.025323208108624,81.5722896,149.1282502,-101.5850712
5816.413,-0.9364914,58.551474000000006,23.397939,0.9696642,-0.0167318,-0.2732044,-169.5827302,-81.6475998,2.1040986000000004,-39.8475886,-13.103909999999996,-15.534143599999998,-0.969998,-0.1209108,0.3891002,-21.5468324,68.1464142,-95.5636642,63.060412884492536,1.0075560818496607,44.73088856604986,1.0521000461936498,148.0358978,149.794014,-97.6677628
5836.4,0.9451714000000002,68.10765,22.1533126,0.9690816,-0.0422062,-0.2565732,-163.3646516,-82.7964172,-4.1780262,-49.46069680000001,-24.5474218,-17.235546199999998,-0.9691104,-0.155511,0.3967094,-22.8375024,67.5468842,-95.8870634,71.62621445149253,1.0033595156947683,57.84462375866041,1.0586486605845775,140.5271492,150.3433014,-91.70903719999998
5856.388,3.7818478,77.381111,21.292202,0.9707528,-0.0617406,-0.2259002,-153.41988080000002,-83.9862854,-14.1636722,-56.7678074,-35.3701214,-20.4063904,-0.9616206,-0.1855412,0.3981536,-24.1892076,66.7177004,-96.1153852,80.34610493599233,0.9986009216680304,69.92889398532945,1.0571972400809415,129.23067319999998,150.7039858,-81.95171299999998
5876.375,6.3359246,86.3590818,21.3701566,0.9725768,-0.0824247999999999,-0.1945696,-137.70736240000002,-85.003244,-29.89093,-64.42271840000001,-45.2275178,-24.694062,-0.9547664,-0.2169002,0.4053508,-25.6447344,65.6671082,-96.288719,89.189228850711,0.9952672047231538,82.49613148781499,1.0596857300113276,112.062628,150.67035219999997,-66.39778899999999
5896.363,8.9492816,95.6444852,22.4363278,0.9641584,-0.1027077999999999,-0.1628256,-117.2486688,-85.5595016,-50.2904428,-72.7923472,-52.3973298,-29.1470546,-0.9302978000000002,-0.2485348,0.4054502,-27.2530062,64.4432686,-96.4444242,98.64758484361477,0.9831899554443994,94.30671647825883,1.0448030475529444,89.9956626,150.0027702,-46.15398139999999
5916.351,11.568281,105.36661359999998,24.4847012,0.9501094,-0.1141226,-0.125082,-94.8720344,-85.4557646,-72.52948719999999,-78.7298922,-55.2382646,-33.5459162,-0.8911556,-0.274619,0.3819004,-29.0381078,63.1315522,-96.6605268,108.79084970566204,0.9650789327941628,101.85769629998832,1.0076814050544547,65.83392660000001,148.5873168,-24.13103959999999
5936.339,14.5836624,115.7000258,27.1106218,0.9286292,-0.1263132,-0.0871092,-73.0357062,-84.576898,-94.1451744,-80.709125,-52.9093888,-38.8480868,-0.8610441999999999,-0.3004736,0.3512702,-31.0030766,61.8089662,-97.036984,119.72537322347536,0.9412200743245543,104.03143817844452,0.9772779809545694,42.0326296,146.3858642,-2.891809599999989
5956.326,17.942097,126.6634612,30.91896,0.8969014,-0.13235,-0.0515646,-54.3467886,-82.89298679999999,-112.5137694,-81.12120379999999,-46.1102376,-44.0070114,-0.8500907999999999,-0.3169572,0.3373582,-33.1732796,60.5478104,-97.6428144,131.61129638219856,0.9080790449047484,103.16695580392648,0.967949786912379,21.173509000000003,143.44079720000002,14.870955000000013
5976.314,21.572168,138.11372380000003,34.7014702,0.8587294,-0.1325158,-0.0116638,-41.367264000000006,-80.5348006,-125.0803574,-81.01909800000001,-36.4264466,-48.9153314,-0.8330948000000001,-0.3334964,0.3164576,-35.5675846,59.386924,-98.5158002,144.031077091593,0.868972188222638,101.40852971327452,0.9515315061508788,5.799679400000001,139.9217246,26.564557200000014
5996.302,26.067334800000005,149.88502820000002,38.219623600000006,0.8163398000000001,-0.130985,0.0393242,-33.5233088,-77.70306839999999,-132.4480758,-78.5662554,-24.120461,-53.7607582,-0.8147400000000001,-0.341274,0.2911914,-38.1741356,58.3578346,-99.7025464,156.86225565831882,0.8277162146500938,98.2072922377428,0.9300869003001604,-4.650826799999999,136.060903,32.74552940000002
6016.289,30.4280012,161.3604584,41.8379356,0.7692522,-0.1240083999999999,0.1000054,-28.605881,-74.51903680000001,-136.8282348,-74.7709612,-10.275429199999996,-57.51135420000001,-0.8135260000000001,-0.3569574,0.2896216,-40.964515,57.473246,-101.2084836,169.450505007672,0.7855750190176366,94.88855013084547,0.9344109424002484,-12.358634,131.9922828,35.61975120000001
6036.277,32.5885556,171.8427948,45.4375702,0.714286,-0.1100086,0.169477,-25.2846016,-71.04775839999999,-139.5802764,-72.69498139999999,1.848264200000003,-58.9463212,-0.8144389999999999,-0.3489956,0.3115104000000001,-43.87323239999999,56.7223312,-102.9243284,180.711186334574,0.7423131653143167,93.60900162010552,0.9392270986553358,-18.5886308,127.77008959999998,36.65594800000001
6056.265,32.1790654,180.7361908,48.5528808,0.6638638,-0.0998291999999999,0.2426388,-22.9048978,-67.34111859999999,-141.39943239999997,-75.29911799999999,10.207003000000004,-55.9199592,-0.8049056,-0.33155,0.3241696,-46.8394104,56.0945602,-104.6651198,189.89061364082872,0.713830933336823,94.34607526945462,0.928915688841307,-23.9345126,123.4356788,36.73431260000001
6076.252,30.2015858,188.4129882,50.0093392,0.6053911999999999,-0.0998434,0.3121678,-21.1069456,-63.4466154,-142.67988580000002,-80.3855286,18.0494096,-44.4753238,-0.7760544,-0.3133169999999999,0.320395,-49.769204,55.7085328,-106.2576338,197.2625760617273,0.6884155321590587,93.62515058639336,0.896147828359451,-28.6622584,119.1551482,36.422252000000015
6096.24,29.254389600000003,194.5247954,49.0626084,0.5474678000000001,-0.1078538,0.3679949999999999,-19.644486800000003,-59.422618,-143.6567872,-81.7160858,24.452905000000005,-31.702882,-0.7584694,-0.3267692,0.3191034,-52.57700199999999,55.553972,-107.6815826,202.73839024539035,0.6684113660286456,90.99745034075356,0.8853704991112816,-32.9325152,114.97659000000002,35.97520460000001
6116.228,28.0938854,199.0734618,45.701571,0.4903026,-0.1134674,0.4253097999999999,-18.3757362,-55.3266418,-144.4864656,-79.58513780000001,28.790470600000003,-19.8021138,-0.761572,-0.3388288,0.3151168,-55.2014138,55.5987046,-108.9427764,206.17503045173157,0.6589081244039717,86.91840465035358,0.8911203423419758,-36.825677600000006,110.9253464,35.54368920000001
6136.215,27.528139600000003,202.0646026,41.1933716,0.454461,-0.1203564,0.4851174,-17.2116616,-51.199572,-145.249576,-73.5089438,33.442113600000006,-4.8441014,-0.7684278000000001,-0.3660902,0.2962922,-57.585357,55.9018434,-110.0537062,208.0499842766365,0.6755437478984763,80.90367790774623,0.9012726480536952,-40.3736954,107.1014154,35.19586980000001
6156.203,28.4167786,204.9763122,34.6768348,0.4171856,-0.1357642,0.5255502,-16.055207399999997,-47.0488046,-146.0288912,-60.6721552,39.1965816,6.881432200000001,-0.7695788,-0.4169182,0.2788422,-59.6945566,56.4276902,-111.1363264,209.822031114132,0.6846011653284267,72.55919331732915,0.9185996339001666,-43.639349200000005,103.4764948,34.89256480000001
6176.191,30.3121282,208.2598144,27.8948352,0.3739458,-0.1495528,0.5656836000000001,-14.8795092,-42.8694818,-146.83811980000002,-42.7898244,45.0936256,13.6701766,-0.7929942,-0.4509109999999999,0.26957,-61.55474019999999,57.10496380000001,-112.3396286,212.29483564319423,0.6944058155246398,63.649649411532494,0.9512247452913742,-46.675231,99.9744456,34.49849120000001
6196.178,31.9116368,211.2920806,22.1624878,0.3351394,-0.1488297999999999,0.6234606,-13.7128878,-38.6542738,-147.6497622,-24.9084708,50.414045,20.2200392,-0.8216004,-0.4517076,0.2610449999999999,-63.16291879999999,57.9317178,-113.660266,214.83452179064977,0.7233061914243235,59.75665516163045,0.9732478950416076,-49.450031,96.5859916,33.989496200000005
6216.166,32.26052,214.1818236,16.7724672,0.2979328,-0.146667,0.6757807999999998,-12.5910462,-34.3958684,-148.4555726,-10.5888072,54.3865502,26.7592414,-0.8374438,-0.4489704,0.2614734,-64.557386,58.88992940000001,-115.0582108,217.24619758989337,0.7529640441969855,61.531103361465625,0.9855226416182228,-51.9663398,93.2857978,33.39736180000001
6236.154,33.29239199999999,217.1358,10.8654458,0.2474701999999999,-0.1446493999999999,0.7243256,-11.4875746,-30.0933906,-149.277652,0.6329887999999997,57.0289872,30.2125518,-0.8547312,-0.4511258000000001,0.2574106,-65.83185660000001,59.9125596,-116.5657594,219.9418034825449,0.7789817222655228,64.54071848179545,1.0001700498772397,-54.344282,90.0059502,32.71189260000001
6256.141,34.5877804,219.804785,5.4133864,0.187196,-0.1421688,0.7738356,-10.4101784,-25.755331,-150.1049712,8.3358852,58.66528100000001,32.5789394,-0.878401,-0.4300096,0.250567,-67.04245,60.9835458,-118.1656296,222.57529695411063,0.8087495569932636,67.62018536875964,1.0095941731122262,-56.6322716,86.7388768,31.939341600000017
6276.129,37.222409,221.208554,0.5779986000000001,0.126497,-0.1259174,0.8280958,-9.340565,-21.3936506,-150.9235502,12.7437422,58.149733000000005,32.0660622,-0.8957740000000001,-0.4201894,0.2458374,-68.2434236,62.024377400000006,-119.84098199999998,224.3191168333983,0.8471123518220002,67.61676388474694,1.0195127356669558,-58.9028586,83.41802799999999,31.08256820000001
6296.116,38.5987664,221.8568176,-4.468015599999999,0.0637668,-0.1101636,0.8760071999999999,-8.300423200000001,-17.022110000000005,-151.7415616,12.830274,58.13474120000001,30.1527124,-0.9012488,-0.4289616,0.2398712,-69.5783738,62.99814140000001,-121.6522858,225.23382393992972,0.8852066640051011,66.73417513076167,1.0265454916200452,-61.2779506,80.02025139999999,30.089275800000017
6316.104,41.5260772,221.3917634,-8.559805399999998,0.0035112,-0.1003028,0.9266836000000002,-7.262964800000001,-12.6584504,-152.54264819999997,10.606962,58.933007800000006,26.014113,-0.9093628,-0.4547336,0.2178285999999999,-71.17640839999999,63.8600448,-123.6867248,225.41516864991095,0.9321027168302002,65.28660755776085,1.0397945219949756,-63.91344360000001,76.5184952,28.855923400000016
6336.092,44.2954628,219.9641542,-10.5526136,-0.0681287999999999,-0.087836,0.9706838,-6.2322426,-8.3165502,-153.288266,6.863513599999999,60.69906920000001,20.962792,-0.9121114,-0.4533896,0.1892464,-73.119052,64.6023078,-126.002719,224.62785849350584,0.9770280118133152,64.58268706951607,1.0360132891575669,-66.88680939999999,72.918858,27.28554700000001
6356.079,45.9249932,216.9063906,-10.521316,-0.1500387999999999,-0.0637676,1.0170088,-5.2268362,-4.0251254,-153.9411958,2.3721878,63.5351716,19.6430012,-0.9273092,-0.4335791999999999,0.1634606,-75.43814239999999,65.2988022,-128.6173248,221.96437861492925,1.0299926444361822,66.54466771532574,1.036635250620796,-70.2113062,69.3239276,25.323871000000008
6376.067,43.6234384,212.4361054,-9.7441722,-0.2325883999999999,-0.0371048,1.0590358,-4.3160902,0.1879106000000003,-154.494922,-2.385943,64.227504,19.5529644,-0.9408076,-0.4023982,0.1313852,-78.04296099999999,65.9649598,-131.42517080000002,217.08766005285,1.0849105749688497,67.18023080413562,1.0316517447084748,-73.7268708,65.77704920000001,23.06975120000001
6396.055,42.5512306,206.646811,-9.893412,-0.3120777999999999,-0.021331,1.087472,-3.4724102,4.294653200000001,-154.9791108,-7.7665522,65.52127300000001,19.8449146,-0.9344908,-0.3775254,0.0763843999999999,-81.004454,66.595337,-134.48460680000002,211.2140888365306,1.1315665758574878,68.89976185805831,1.0107586554134276,-77.5320438,62.3006838,20.494504000000006
6416.043,44.2005204,198.9340484,-11.1732696,-0.4008214,-0.0082886,1.0945428,-2.6379098,8.255016600000001,-155.4241882,-11.988108399999998,71.00824580000001,22.0750794,-0.9248242,-0.3653512,0.0369362,-84.4638504,67.2158372,-137.97604660000002,204.09136084116503,1.1656545099727276,75.32061367991949,0.9950605926864554,-81.8259406,58.9608206,17.448141600000003
6436.03,46.561454000000005,189.4065186,-13.7943896,-0.486095,0.0049292,1.0916564000000002,-1.7904665999999998,12.0302378,-155.8620024,-13.2432994,70.46444240000001,23.9869926,-0.9454428,-0.3606062,-0.0031152,-88.0827546,67.7946748,-141.59604180000002,195.53281942222088,1.1950005613800356,75.60422234064322,1.0118837008378585,-86.292288,55.764437,14.265960600000003
6456.018,47.1770576,179.1137024,-17.1076014,-0.5508982,0.0256476,1.0911202,-0.9575224,15.6057046,-156.3121762,-10.0852554,68.552034,25.4752152,-0.9566106,-0.3583058,-0.0376,-91.732248,68.3247438,-145.3019744,186.01092219783968,1.2225751171183878,73.824659372778,1.02220381839729,-90.7747256,52.7190392,11.01020180000001
6476.005,48.9561538,168.6908418,-21.819435400000003,-0.5907662,0.0368137999999999,1.0818436,-0.1214796,18.9920496,-156.809335,-6.7049786,69.46427539999999,26.5521072,-0.9623752,-0.3597848,-0.0608722,-95.5347872,68.7974764,-149.2335692,177.0011097797317,1.233185117406888,74.66764152987419,1.029231049191055,-95.4133076,49.805426800000006,7.575765800000011
6495.993,50.7384476,158.1015962,-26.8672384,-0.6295322,0.042094,1.0647514,0.6946152,22.186956400000003,-157.3738858,-0.3827121999999995,67.02175539999999,27.8349818,-0.9839086,-0.3663864,-0.0684406,-99.22177,69.21092080000001,-153.1697416,168.2033093761482,1.2376502896516448,72.57305544988297,1.0521403152561353,-99.9163852,47.0239644,4.204144200000014
6515.981,51.9232926,148.5538972,-31.801417800000003,-0.6526322,0.0467252,1.0300578,1.4669532,25.2149174,-158.01724520000002,7.9185414,59.0135446,27.209213800000004,-1.0122352,-0.3650316,-0.0773334,-102.4106692,69.5389466,-156.744171,160.54787093519346,1.2202995960552967,65.46482307143138,1.0788181607078924,-103.8776224,44.3240292,1.2730742000000137
6535.969,49.7718186,141.38518059999998,-36.4443118,-0.6698508000000001,0.0532506,0.9943692,2.1288934,28.1222408,-158.7426512,13.473287,55.52105340000001,27.6935466,-1.016814,-0.3492476,-0.0600864,-105.3410158,69.8355058,-160.16098619999997,154.2568996272826,1.2001274209723067,63.49054541044984,1.076798482617207,-107.4699092,41.713265,-1.4183349999999848
6555.956,48.5600266,136.312204,-41.538363200000006,-0.6746278,0.0500781999999999,0.969691,2.6884486,30.9372184,-159.57104180000002,14.470945600000002,53.39983600000001,28.9130474,-0.9986616,-0.3311088,-0.0609828,-108.2553956,70.10135340000001,-163.5761932,150.54743026722656,1.1823413763076551,62.42527582109432,1.0538865833892372,-110.9438442,39.164135,-4.005151399999983
6575.944,49.5371978,131.8969208,-46.844636,-0.6822294,0.046579,0.9420818,3.1623666,33.6577616,-160.5262604,18.1524304,49.3140076,30.300993,-0.9877062,-0.3259751999999999,-0.0757044,-111.0115174,70.3503386,-166.89481199999997,148.47609775438704,1.1640982241016435,60.65914812941038,1.0428588230018674,-114.173884,36.69257699999999,-6.368551599999978
6595.931,51.67053979999999,127.5308806,-52.52568,-0.7028032000000001,0.0510066,0.8972608,3.5476782,36.298829,-161.636612,22.8140082,45.5158874,28.5554962,-0.9871687999999998,-0.3411232,-0.0850882,-113.4876008,70.5423706,-170.0125184,147.28515624222706,1.140881656610553,58.37457785018544,1.0479061403822958,-117.035279,34.2435416,-8.375906399999986
6615.921,50.0737814,123.8285354,-58.137192600000006,-0.7404508,0.0464382,0.8728138,3.7434002,38.8740262,-162.9252472,26.0361692,41.2290786,26.1888508,-0.9863716,-0.3500672,-0.0947598,-115.6579926,70.69803920000001,-172.86997379999997,145.6736864585143,1.1455251298467093,55.349570323902846,1.050930729162698,-119.4013928,31.824013,-9.944726599999983
6635.907,49.045481,119.9498916,-62.326419,-0.7707016,0.0381901999999999,0.8557938,3.7720722,41.3701048,-164.3718414,28.269600000000004,36.1968612,24.5623146,-0.9795922,-0.3587764,-0.1052912,-117.5167328,70.8309296,-175.44138800000002,143.79853339563888,1.152311796232704,52.08349396307278,1.048526404195545,-121.288805,29.4608248,-11.06954659999999
6655.894,48.214765,115.8234602,-65.2315306,-0.8051494,0.0378328,0.8346622,3.6555468,43.7813582,-165.95216059999998,30.4887014,29.085730800000004,21.767564600000004,-0.9778342,-0.3781698,-0.1297352,-118.9415864,70.9394258,-105.5975738,141.4032887917567,1.160326620044994,47.42749748662271,1.0564105936806578,-122.5971332,27.158067600000003,60.35458680000001
6675.882,45.8288772,111.991519,-66.97360819999999,-0.846683,0.0342366,0.8087108000000001,3.361492,46.1142906,-167.6570372,32.311814000000005,22.7711942,15.6944904,-0.9768552,-0.3910928,-0.1420168,-119.8586594,70.9768388,-35.25484920000001,138.3034725112394,1.1713485413424989,42.531137278238894,1.0617760740669946,-123.2201514,24.862548200000003,132.402188
