Timestamp (ms),Wrist Gyroscope X (deg/s),Wrist Gyroscope Y (deg/s),Wrist Gyroscope Z (deg/s),Wrist Accelerometer X (g),Wrist Accelerometer Y (g),Wrist Accelerometer Z (g),Wrist Roll (deg),Wrist Pitch (deg),Wrist Yaw (deg),Arm Gyroscope X (deg/s),Arm Gyroscope Y (deg/s),Arm Gyroscope Z (deg/s),Arm Accelerometer X (g),Arm Accelerometer Y (g),Arm Accelerometer Z (g),Arm Roll (deg),Arm Pitch (deg),Arm Yaw (deg),Wrist Gyroscope Magnitude (deg/s),Wrist Accelerometer Magnitude (g),Arm Gyroscope Magnitude (deg/s),Arm Accelerometer Magnitude (g),Difference Roll (deg),Difference Pitch (deg),Difference Yaw (deg)
0.0,-2.461639,-16.4631,1.19996,-1.030319,-0.398643,0.393418,-55.788792,70.242607,171.427795,1.428838,0.234022,0.911111,-0.990527,-0.128988,-0.108139,-132.925095,80.49868,-135.274231,16.689314910382663,1.1727110496341373,1.710692135087141,1.004726671883453,-77.136303,10.256072999999986,-306.702026
19.972,-1.6894875,-23.537134,0.3071274999999999,-1.0181235,-0.3497365,0.3573045,-55.0487595,70.046112,172.217926,1.2289285,0.5348615,0.6496375,-0.9908555,-0.1275029999999999,-0.1133639999999999,-132.96871950000002,80.4941825,-135.3288345,23.599690087962355,1.134265218723007,1.4894196734637115,1.0054367376345714,-77.91996,10.448070499999991,-307.5467605
39.956,-4.479996333333333,-30.09029633333333,-0.7114156666666666,-1.0123206666666666,-0.373,0.3431766666666667,-54.27692166666666,69.77037033333333,173.115575,0.9691446666666668,0.435399,0.4445566666666666,-0.9902993333333332,-0.1247539999999999,-0.115597,-132.99571733333337,80.49137366666666,-135.362493,30.430287754559146,1.1321185259083473,1.151713638022587,1.0047979879186884,-78.71879566666667,10.721003333333329,-308.478068
59.939,-3.9335015,-35.14886375,-1.8224115,-1.0068675,-0.38816575,0.34087275,-53.43547075,69.4370975,174.06820275,0.70394175,0.36594625,0.348178,-0.989639,-0.12335125,-0.11627575,-133.018917,80.48953625,-135.38856900000002,35.41519787664469,1.1316576530567335,0.8664170848766343,1.0040522552315816,-79.58344625,11.052438749999997,-309.45677175000003
79.923,-2.3585956,-39.531726,-3.251805,-1.0039134,-0.3816705999999999,0.3491586,-52.528969,69.052925,175.0581908,0.5477526,0.3915724,0.3023824,-0.9891562,-0.1216294,-0.1171186,-133.0503386,80.4874756,-135.4214632,39.73530633456146,1.129347727477184,0.7381036316658252,1.0034642322518328,-80.5213696,11.434550599999998,-310.47965400000004
99.908,-0.6942034000000001,-49.6251992,-5.8257832,-0.9988276,-0.3662942,0.3751532,-50.731579,68.2913054,105.0114746,0.3597035999999999,0.3615448,0.1573994,-0.9888768,-0.1213013999999999,-0.1187052,-133.10153780000002,80.4833206,-135.48027059999998,49.97081211961292,1.1280815302741376,0.5337376634455919,1.0033355768272347,-82.3699588,12.1920152,-240.49174520000005
119.891,0.987998,-58.5211968,-8.3028976,-0.995149,-0.3805974,0.4069766,-48.7832956,67.34674220000001,35.1086302,0.341233,0.315524,0.0771182,-0.9887286,-0.1206798,-0.1184426,-133.1429258,80.47899620000001,-135.5287478,59.11552015764067,1.1405287659832697,0.4711078131768141,1.003083500054088,-84.3596302,13.132254,-170.63737799999998
139.875,6.848639,-66.61204380000001,-10.4896664,-0.9951556,-0.3683394,0.458022,-46.672033,66.24310840000001,-34.721524200000005,0.713666,0.2316034,0.0881512,-0.9883542,-0.1221696,-0.1174048,-133.1641202,80.4757812,-135.56447459999998,67.77980035784061,1.1557649995945196,0.7554666958304648,1.0027728171848498,-86.4920872,14.2326728,-100.8429504
159.859,12.445693599999998,-75.2822518,-12.3064888,-0.9935378,-0.3472882,0.5021506,-44.4038734,64.963391,-104.4806428,1.0999192,0.1462386,0.1249318,-0.9896156,-0.1214628,-0.1154177999999999,-133.1697264,80.47545,-135.5923128,77.29011833247644,1.1661396481418682,1.1166091210937872,1.0036999133725375,-88.765853,15.512059,-31.111669999999997
179.843,17.1337198,-84.5860048,-13.9351372,-0.995949,-0.3594024,0.5553022000000001,-42.048072000000005,63.48556599999999,-174.2123232,1.1471588,0.0500604,0.0445062,-0.9892398,-0.1216202,-0.1149536,-133.1581298,80.4753828,-135.603705,87.42164841155399,1.195594006781399,1.1491127698811985,1.00329516350127,-91.1100578,16.9898168,38.60861820000001
199.827,24.260299600000003,-94.3409882,-15.102205800000002,-0.995961,-0.3619756,0.5829259999999999,-39.5696394,61.7970368,-171.9360232,1.0354502,0.024987,-0.0764608,-0.9893156,-0.1212202,-0.1158552,-133.14018860000002,80.4737044,-135.6063082,98.57413865340062,1.2094492010797149,1.0385700365337334,1.0034251943510486,-93.5705492,18.6766676,36.329715
219.811,31.328415,-104.7287278,-16.6354628,-0.9960968,-0.3601222,0.6160095999999999,-37.039432000000005,59.891983800000006,-169.7192506,0.9961542,-0.1326767999999999,-0.079142,-0.9890202,-0.1219468,-0.1166004,-133.1096406,80.47356099999999,-135.5953188,110.57266676529468,1.2253018653357384,1.0080623887438118,1.003308343092212,-96.0702086,20.5815772,34.123931799999994
239.795,37.708286400000006,-115.4954286,-18.508472,-0.9928826,-0.3608984,0.6489194,-34.4931224,57.743943,-167.6000398,1.0914556000000002,-0.1810188,0.0996336,-0.9887712,-0.1205206,-0.1151512,-133.0873964,80.4778228,-135.59468099999998,122.89699925749574,1.2398225277037356,1.1108420171085358,1.0027230424375615,-98.594274,22.7338798,32.0053588
259.779,43.521748,-126.39380959999998,-20.6363324,-0.9920522,-0.3654532,0.694481,-31.9976204,55.3534974,-165.6295228,1.0108996,-0.1736638,0.1893978,-0.9882934,-0.1190277999999999,-0.113008,-133.0729462,80.4846802,-135.6003632,135.26047415671675,1.264921921810228,1.0430477665742064,1.001829461395701,-101.0753258,25.1311828,30.029159599999996
279.763,49.480671,-137.6185746,-22.1674016,-0.9865094,-0.3489004,0.7226163999999999,-29.540992,52.7278374,-163.8128204,0.8384940000000001,-0.1270306,0.2111373999999999,-0.9878352,-0.12383,-0.1122466,-133.05470280000003,80.4893768,-135.59906619999998,147.91417298975,1.2716551210754743,0.8739496341615575,1.0018740192612043,-103.5137108,27.761539400000004,28.213754199999997
299.747,52.2571282,-148.677205,-23.428436,-0.9811242,-0.3539174,0.7466954,-27.2162068,49.8713144,-162.1653014,0.6693984000000002,-0.1415126,0.2663296,-0.9879742,-0.1247952,-0.110663,-133.0369964,80.4952896,-135.5950592,159.32548555623285,1.2827377916899307,0.7342012596812132,1.0019546703208084,-105.8207896,30.6239752,26.5702422
319.731,53.7317298,-160.0350618,-23.999423200000003,-0.9796324,-0.3469416,0.7924751999999999,-25.019452,46.7841592,-160.66635739999998,0.2876287999999999,-0.080628,0.1855725999999999,-0.9868464,-0.1225342,-0.1088534,-133.02659279999995,80.5006226,-135.5906922,170.511853272911,1.3069296291519907,0.3516651686536498,1.0003646885282185,-108.0071408,33.716463399999995,25.0756652
339.715,52.4239966,-171.14263320000003,-23.800315,-0.9672072,-0.3400383999999999,0.8084900000000002,-22.9962598,43.480694,-159.2917602,-0.3233782,-0.0178318,-0.0188378,-0.9863632,-0.1231498,-0.108542,-133.01519760000002,80.501863,-135.5729982,180.56724872535932,1.305669162271362,0.3244168553502114,0.9999297981949934,-110.0189378,37.021169,23.718762
359.699,50.571692600000006,-181.2408998,-23.8878692,-0.9378718,-0.33071,0.8248254000000002,-21.1546388,39.98180179999999,-158.0524872,-0.6471688,0.0785065999999999,-0.0710104,-0.985762,-0.1257035999999999,-0.1087896,-133.0090972,80.4997908,-135.5542604,189.6744319819064,1.2920176306151556,0.6557691810730053,0.9996815956919082,-111.8544584,40.517989,22.498226800000005
379.682,47.6810966,-189.3873108,-24.4671128,-0.8899509999999999,-0.3309298,0.8573722,-19.5180566,36.3130372,-156.9535798,-0.7373172,0.1071268,-0.0950288,-0.9867332,-0.1230199999999999,-0.1094605999999999,-133.0133452,80.49796280000001,-135.5439668,196.823982466066,1.2793023115205726,0.7510947194086243,1.0003789038832236,-113.4952886,44.1849256,21.409613
399.666,44.5726852,-195.8815796,-24.9474946,-0.8263356,-0.3201796,0.885991,-18.0745296,32.505886399999994,-155.99089680000003,-0.774337,0.1466332,-0.1875074,-0.9881746,-0.1238729999999999,-0.1100842,-133.0138672,80.4937804,-135.52915359999997,202.4319514783831,1.253126311336778,0.8100975928652054,1.0019740971221762,-114.9393376,47.987894,20.461743200000004
419.65,40.5913026,-200.5262726,-25.2219598,-0.7486504,-0.3153807999999999,0.902414,-16.8350352,28.5978244,-155.1518464,-0.7620976,0.0044209999999999,-0.2753384,-0.9898436,-0.125484,-0.1105682,-132.9923432,80.4896148,-135.4923006,206.142152665987,1.2142048829686034,0.8103231032627172,1.0038734549574464,-116.157308,51.891790400000005,19.6595458
439.634,35.738833,-203.5861694,-25.0307622,-0.6654606,-0.310615,0.9184684,-15.796662,24.6147734,-154.412909,-0.5862301999999999,-0.143065,-0.2468812,-0.9898292,-0.1256356,-0.1117481999999999,-132.9596924,80.4874024,-135.4476442,208.2093456391435,1.1759692556252992,0.6519844848847861,1.0040088691656264,-117.1630304,55.872629,18.965264800000007
459.618,29.1892022,-205.6760986,-24.048468,-0.5831154,-0.2983342,0.9093866,-14.965487,20.5731322,-153.7384002,-0.3604561999999999,-0.1879308,-0.27335,-0.9898494,-0.1237848,-0.1144996,-132.9280792,80.4851426,-135.40828879999998,209.1243550463132,1.120718900021928,0.4898641446432674,1.004108893393321,-117.9625922,59.9120104,18.330111400000003
479.602,22.5446914,-206.8109162,-22.7542846,-0.5005906,-0.279425,0.9190354,-14.3212162,16.511858,-153.1024536,-0.026139,-0.249072,-0.2409846,-0.9891552,-0.1258999999999999,-0.1145728,-132.882721,80.4832368,-135.361896,209.27679192271287,1.0831875857332007,0.347553860490946,1.003696042727518,-118.5615048,63.9713788,17.740557600000006
499.586,16.965062,-206.9924318,-20.8425746,-0.4295723999999999,-0.2721262,0.9016588,-13.8339854,12.4384692,-152.480957,0.3385467999999999,-0.1816018,-0.160354,-0.987981,-0.1258838,-0.1150101999999999,-132.84401859999997,80.4813416,-135.3296022,208.72971294738576,1.0351684438706776,0.4163010387561865,1.0025869207043745,-119.0100332,68.0428724,17.1513548
519.57,13.147023999999998,-206.031717,-19.0762028,-0.3547028,-0.2440956,0.9008034,-13.4626496,8.3747218,-151.8679748,0.7124873999999999,-0.1660792,-0.0857484,-0.9863182,-0.1257814,-0.113694,-132.80253,80.4807098,-135.3021364,207.33020562207372,0.9984205044562936,0.7365958077086509,1.000785130721475,-119.3398804,72.105988,16.5658384
539.564,11.3382012,-204.7381958,-17.341204400000002,-0.2940526,-0.2298816,0.9021494,-13.1695058,4.3320652,-151.2562652,0.6920244,0.0830378,-0.0981722,-0.9864912,-0.1234474,-0.1142182,-132.78908099999998,80.47729480000001,-135.3024964,205.7838696203699,0.9763124610009236,0.7038684729955164,1.000724710125337,-119.6195752,76.14522960000001,15.9537688
559.538,10.577551599999998,-203.5767944,-15.7176546,-0.2388716,-0.2247534,0.9176664,-12.9352744,0.3147515999999998,-150.6403992,0.635699,-0.0609966,-0.1645358,-0.9862294,-0.124702,-0.1141518,-132.7560518,80.474385,-135.28193979999998,204.45645130969928,0.9745180110121516,0.6594739064543798,1.000614636946512,-119.8207774,80.1596334,15.358459399999996
579.522,9.247180599999998,-202.4934814,-14.0808846,-0.1823478,-0.2070938,0.881855,-12.7693614,-3.6899292,-150.011908,0.6679013999999999,-0.0623382,-0.116092,-0.9864054,-0.1219846,-0.1128267999999999,-132.7294588,80.4739014,-135.2684692,203.1929911922645,0.9240166682415852,0.680775795519494,1.0003028254406563,-119.9600974,84.1638306,14.743438800000002
599.506,8.1593348,-201.3401428,-13.265667400000002,-0.118559,-0.189336,0.902617,-12.6685932,-7.6720078,-149.3787964,0.7142945999999999,-0.2256656,-0.0447078,-0.9849296,-0.1205206,-0.1116326,-132.694217,80.47760919999999,-135.24714360000002,201.94159001718864,0.9298504213399056,0.750426895835537,0.9985356124662156,-120.0256238,88.149617,14.1316528
619.49,9.054353,-200.218988,-11.824658,-0.0772164,-0.1977228,0.8871857999999999,-12.599192,-11.6290086,-148.721756,0.7067707999999999,-0.1094048,0.0659013999999999,-0.9861466,-0.1202236,-0.111876,-132.6795624,80.4814926,-135.2465026,200.7721270515649,0.9122254774947036,0.7182181900492633,0.9997274979035636,-120.0803704,92.1105012,13.475253400000003
639.473,9.745575400000002,-199.2221954,-10.6516272,-0.0212562,-0.177412,0.866306,-12.5688262,-15.5617034,-148.0394898,0.6228815999999999,-0.1602696,0.0328725999999999,-0.9869584,-0.1220892,-0.1111036,-132.6534636,80.48513039999999,-135.232727,199.7446283179616,0.8845410840760536,0.6440096584163003,1.000668109824711,-120.0846374,96.0468338,12.806762799999996
659.457,6.9392218,-197.1124238,-10.2436248,0.0378195999999999,-0.1648919999999999,0.8232694,-12.6432586,-19.4479982,-147.3436432,0.5828212,0.1484806,0.1296609999999999,-0.9884358,-0.1222424,-0.111287,-132.6565306,80.485045,-135.2453582,197.50036016307303,0.8404714146147506,0.6152552435102037,1.0021643235759292,-120.013272,99.9330432,12.098285
679.441,5.8783140000000005,-194.9365754,-10.5963262,0.0939382,-0.1685514,0.8043574,-12.7827498,-23.2884876,-146.64164739999998,0.5771682,-0.1038603999999999,0.0860417999999999,-0.9872172,-0.1234708,-0.1104054,-132.62932719999998,80.48743440000001,-135.2273162,195.3128391404397,0.8271788118635293,0.5927168844622532,1.0010155796877689,-119.8465774,103.775922,11.414331199999998
699.425,4.5874196000000005,-192.890445,-11.8698472,0.135359,-0.158504,0.7845267999999999,-12.983106,-27.0932874,-145.9468812,0.5171762,0.1558186,0.1192465999999999,-0.9895684,-0.1212644,-0.1119436,-132.6375944,80.487314,-135.2437742,193.3097552205678,0.8117437260707592,0.5531459206791278,1.0032357861275083,-119.6544884,107.5806014,10.703107
719.409,4.4738974,-190.405838,-14.278364,0.2034989999999999,-0.1498898,0.7393452,-13.2124062,-30.853158200000003,-145.279294,0.4169165999999999,-0.0694231999999999,0.0850022,-0.9877234,-0.1222504,-0.1113485999999999,-132.6217558,80.4893694,-135.23386219999998,190.99285479028916,0.7813514701516087,0.4311199439351419,1.0014695132302731,-119.4093496,111.3425276,10.045431800000006
739.393,5.4976468,-187.105945,-17.1664828,0.2652078,-0.1436818,0.6915834,-13.4312276,-34.5511172,-144.65669880000002,0.3342172,0.0953442,0.1032452,-0.9889536,-0.1223954,-0.1136586,-132.6288512,80.48863080000001,-135.2453734,187.9721971633126,0.7544980026399274,0.3625620285861717,1.002959687249732,-119.1976236,115.039748,9.411325400000004
759.377,7.0087026,-183.18542180000003,-19.573161,0.3277546,-0.1389378,0.6644517999999999,-13.6318834,-38.1787002,-144.0703982,0.3391874,-0.1997981999999999,0.0141383999999999,-0.9865652,-0.1246034,-0.1121744,-132.600656,80.4909196,-135.22379740000002,184.36140947527792,0.7538056676712108,0.3939128169995995,1.0007097467087849,-118.9687726,118.6696198,8.8466008
779.361,5.7544776,-177.88708200000002,-20.991486,0.3792689999999999,-0.1380882,0.6153114,-13.8839594,-41.7116906,-143.4977204,0.1738433999999999,0.1373998,0.0718527999999999,-0.989236,-0.1217897999999999,-0.1126012,-132.61738580000002,80.49075480000002,-135.2442138,179.2137562783946,0.7358814064169579,0.2329443230290019,1.0030451880755322,-118.7334264,122.2024454,8.253506600000003
799.345,5.3611086,-170.78604439999998,-21.7081646,0.451329,-0.1432496,0.5311058,-14.1687598,-45.1115524,-142.9325378,-0.0866146,-0.1436528,-0.010334,-0.985222,-0.123186,-0.1106535999999999,-132.6002044,80.4929718,-135.2251984,172.24360324122475,0.7115417661211462,0.1680625105042764,0.9990402389658588,-118.4314446,125.6045242,7.7073394
819.329,2.2851448000000003,-161.5387514,-21.046568,0.5133772,-0.1344932,0.4458727999999999,-14.5520668,-48.3332084,-142.3517212,-0.3358344000000001,0.1457437999999999,0.0204157999999999,-0.9875638,-0.1202126,-0.113755,-132.6303284,80.4919784,-135.24868460000002,162.92006664375813,0.6931429319454393,0.3666644301693853,1.0013358718702732,-118.0782616,128.8251868,7.103036599999996
839.313,-5.4322064,-150.6385072,-21.0980092,0.5826422,-0.1285284,0.39768,-15.1008906,-51.35673440000001,-141.7851806,-0.330547,-0.1034228,0.0556461999999999,-0.9852418,-0.1219512,-0.1124454,-132.63398739999997,80.494429,-135.2456482,152.2057643784227,0.7170361673077587,0.3507906702625941,0.9991083362828276,-117.5330968,131.8511634,6.5395324000000015
859.297,-8.7127474,-138.88208939999998,-20.9746528,0.6258622,-0.1451934,0.3524395999999999,-15.729586800000002,-54.1551344,-141.2257048,-0.3608326,0.0066443999999999,0.1966811999999999,-0.9864582,-0.1216367999999999,-0.1127256,-132.6604646,80.4976074,-135.26510620000002,140.72697958617013,0.732801670604373,0.4110082817992357,1.000301130838529,-116.9308778,134.6527418,5.960598600000009
879.281,-6.214082200000001,-124.8994844,-20.155878,0.677556,-0.1464378,0.275237,-16.2913712,-56.6775396,-140.6990082,-0.3513656,-0.1324516,0.1922963999999999,-0.985204,-0.1219168,-0.1125183999999999,-132.6729646,80.5024094,-135.2706146,126.66789427050996,0.7458428578285375,0.421875712335849,0.9990750813011005,-116.3815934,137.179949,5.428393600000004
899.265,-9.7016014,-108.3591218,-18.6249446,0.7531954000000001,-0.1344416,0.1765694,-16.8858044,-58.8685698,-140.2256868,-0.368406,-0.0377426,0.1815979999999999,-0.9867352,-0.1222105999999999,-0.1142474,-132.6966738,80.5050844,-135.28704520000002,110.37530932389176,0.7852099129583631,0.4124625053198896,1.0008167934632992,-115.8108694,139.3736542,4.938641600000006
919.249,-18.0713528,-89.58328259999999,-17.8795802,0.8178192000000001,-0.1407216,0.1223723999999999,-17.5466292,-60.6927726,-139.87775879999998,-0.2108838,-0.0981202,0.2585394,-0.9865016,-0.1241201999999999,-0.112493,-132.709189,80.5095492,-135.2955718,93.12044727954093,0.8388121463575502,0.3477674109269584,1.000622759035392,-115.16255979999998,141.2023218,4.582187000000005
939.232,-26.4418866,-67.808148,-15.767508400000002,0.8412613999999999,-0.1563106,0.0644628,-18.2605926,-62.081298,-139.6662628,-0.0935733999999999,0.032415,0.3065163999999999,-0.9873614,-0.1233722,-0.1118478,-132.73453080000002,80.5135484,-135.3194884,74.46967586408064,0.8580846108549902,0.3221164647786884,1.00130572968881,-114.4739382,142.5948464,4.346774400000004
959.217,-36.5394734,-44.1252188,-13.2604366,0.8545476000000001,-0.1444954,0.030827,-19.0098888,-63.00771099999999,-139.642862,0.0221584,0.0803176,0.2817944,-0.9874084,-0.1233841999999999,-0.112449,-132.7609742,80.5162462,-135.34682619999998,58.80482318075449,0.867225936660061,0.2938536973251826,1.0014208839450074,-113.7510854,143.52395719999998,4.296035799999999
979.201,-49.9388514,-18.792066,-11.1589726,0.8645332,-0.1482836,0.013567,-19.801337,-63.4424782,-139.87353520000002,0.0722514,0.1263802,0.2421193999999999,-0.9868172,-0.124009,-0.1134101999999999,-132.7879852,80.5170184,-135.3757416,54.51195550690865,0.8772626422116697,0.2825137582673806,1.0010236219794617,-112.9866482,143.95949660000002,4.4977936
999.185,-60.112505600000006,8.733619200000001,-10.3353012,0.8290734000000001,-0.162474,0.052563,-20.4755828,-63.3587494,-140.464801,0.0736912,0.1799106,0.2541756,-0.9876104,-0.1217516,-0.1126495999999999,-132.8236236,80.5185426,-135.4133454,61.61662019889895,0.8464770358565908,0.3200053946188407,1.001442802495919,-112.3480408,143.877292,5.051455599999997
1019.169,-66.195566,34.1806804,-9.099782,0.7932132000000001,-0.1279698,0.1380746,-20.9817604,-62.792408,-141.3829286,-0.0304705999999999,0.1732098,0.1225379999999999,-0.9867398,-0.1227826,-0.1129246,-132.84812000000002,80.51757660000001,-135.43760079999998,75.05316717577496,0.8152472296987215,0.2143493730441029,1.0007412078314553,-111.8663596,143.3099846,5.945327799999996
1039.153,-65.258069,56.4441476,-5.928938199999999,0.7775468,-0.1305932,0.1954426,-21.3059998,-61.7976334,-142.4922762,-0.0336148,0.1731724,0.0952401999999999,-0.9875174,-0.1223632,-0.1132002,-132.8718964,80.51636060000001,-135.461017,86.48531480013683,0.8123000800019904,0.2004727677188101,1.0014877199931311,-111.5658966,142.313994,7.031259199999994
1059.137,-61.535734000000005,77.7124314,-0.6641916000000002,0.7805630000000001,-0.1419876,0.1883354,-21.4772084,-60.3675126,-143.6987032,-0.0917453999999999,0.0856652,-0.0136772,-0.9875054,-0.1204848,-0.1128382,-132.8837646,80.51567539999999,-135.4710938,99.12774436806264,0.8154197069092213,0.126264843531523,1.0012072519910349,-111.4065562,140.883188,8.227609399999995
1079.126,-60.9844926,95.4518128,5.2889064,0.7759886,-0.1270102,0.2338464,-21.6456636,-58.564676,-144.9096376,-0.1268568,0.07326,-0.0302326,-0.9887598,-0.1204624,-0.113204,-132.8947266,80.514894,-135.47951360000002,113.39369222048312,0.8203499479045269,0.1495783587588793,1.0024830559794016,-111.249063,139.07957,9.430123999999989
1099.104,-61.3860046,107.9529404,13.2178396,0.7757438000000001,-0.1152399999999999,0.2849144,-21.9583902,-56.477578,-145.980185,-0.2583344,0.046582,-0.134444,-0.989553,-0.122218,-0.1123788,-132.8969514,80.5139236,-135.4832368,124.88710976497332,0.8344069248069553,0.2949266588210703,1.0033849580407512,-110.9385612,136.9915016,10.496948199999991
1119.088,-53.6390694,119.668123,22.3076652,0.7643408,-0.1698789999999999,0.2849914,-22.3110276,-54.1148986,-146.85183419999998,-0.3818332,0.0139079999999999,-0.1400604,-0.989846,-0.1218084,-0.1120276,-132.8984254,80.5136566,-135.4836946,133.02346167167818,0.8332441606513664,0.4069483268603029,1.0035848609800369,-110.5873978,134.6285552,11.368139599999996
1139.072,-46.893359,130.8174942,29.6785422,0.7477886,-0.1785454,0.2844955999999999,-22.6395958,-51.4844512,-147.6120484,-0.4991601999999999,-0.0921536,-0.1759352,-0.9889398,-0.1210438,-0.1124118,-132.892923,80.51440120000001,-135.4746216,142.10214556503746,0.819758498931533,0.5372209841918314,1.0026414824461034,-110.2533272,131.99885239999998,12.137426799999997
1159.056,-47.59515639999999,140.9306978,34.8352374,0.7256992,-0.180804,0.3454634,-23.0459842,-48.6355842,-148.3220582,-0.6746321999999999,-0.0455384,-0.1587368,-0.987561,-0.1217356,-0.1136144,-132.8978028,80.5138458,-135.4724794,152.77517553532624,0.8238169554192242,0.6945500146322364,1.00150113175958,-109.8518186,129.14943,12.849578799999994
1179.04,-43.1717906,151.0249026,41.5050986,0.6845709999999999,-0.211369,0.3836676,-23.4445986,-45.553559,-148.9573488,-0.7891422,0.0212287999999999,-0.1432844,-0.9868158,-0.1218112,-0.1134192,-132.9112702,80.51261600000001,-135.4767396,162.4653745225285,0.8127208226025465,0.8023256776731255,1.0007533694690818,-109.4666716,126.06617500000002,13.480609199999998
1199.024,-31.2089964,159.9693362,47.2121704,0.6209278,-0.245559,0.4282681999999999,-23.679194000000003,-42.2532448,-149.5270632,-0.5585153999999999,0.0743645999999999,-0.0212308,-0.9861656,-0.1219825999999999,-0.114389,-132.93085019999998,80.510666,-135.4851716,169.68552977329114,0.7932617515203163,0.5638442095463603,1.0002435646616878,-109.2516562,122.7639108,14.041891599999996
1219.008,-22.4681414,167.4948336,51.084436,0.5568059999999999,-0.276626,0.498449,-23.7757322,-38.77629219999999,-150.0724396,-0.1798372,0.0853592,0.0973619999999999,-0.9854612,-0.120975,-0.1145264,-132.9558868,80.51062479999999,-135.5067384,176.54732017818955,0.7968728073620029,0.2216009263800131,0.9994423563304689,-109.1801546,119.286917,14.565701199999996
1238.992,-11.358416600000002,172.6197544,53.2175926,0.4771222,-0.3230616,0.5602560000000001,-23.691194,-35.1886042,-150.5937562,-0.0239998,0.1534425999999999,0.2166057999999999,-0.9858496,-0.1196368,-0.1132308,-132.992929,80.51249399999999,-135.5436556,180.99366121197465,0.8036797724612709,0.2665308509130603,0.9995166891068104,-109.301735,115.7010982,15.05010059999999
1258.976,4.486993599999999,175.1580844,54.4563836,0.4007354,-0.297018,0.6070398000000001,-23.341672,-31.5388674,-151.0712434,-0.1996358,0.2122551999999999,0.1943423999999999,-0.9863546,-0.1201574,-0.1140471999999999,-133.0371948,80.51273499999999,-135.58432320000003,183.48292933413265,0.7856881518269192,0.3502508972243183,1.0001699663276036,-109.6955228,112.0516024,15.486920199999991
1278.96,11.732809,174.8838992,51.270675,0.3652791999999999,-0.3313424,0.766276,-22.8648048,-27.913244,-151.5667512,-0.233011,0.2029697999999999,0.2414957999999999,-0.9872154,-0.121434,-0.1146895999999999,-133.0832518,80.5130752,-135.6261902,182.621792569731,0.9112604392633316,0.3921875664152039,1.0012463067104518,-110.218447,108.4263192,15.940560999999995
1298.944,27.210616800000004,176.7779482,48.0151108,0.2998028,-0.3422996,0.6582199999999999,-22.0970066,-24.276732,-152.0849886,-0.3670202,0.1611104,0.2784061999999999,-0.9863734,-0.1208196,-0.1144525999999999,-133.131735,80.5147764,-135.6677856,185.1926334970552,0.8001901670528074,0.4880270488350414,1.0003145793291628,-111.0347284,104.7915084,16.417202999999994
1318.928,19.314249600000004,178.58566,39.95289,0.2345284,-0.2542304,0.6650214,-21.4854726,-20.659867400000003,-152.7095676,-0.640038,0.0696148,0.2232996,-0.9872638,-0.121065,-0.1135508,-133.1700072,80.517256,-135.6935852,184.0166068989394,0.7495933091674978,0.6814378718439414,1.0011195379154678,-111.6845346,101.1771234,17.015982399999995
1338.912,4.695244000000001,181.4982118,36.6964454,0.1905304,-0.296849,0.7863093999999999,-21.1835954,-17.005089599999998,-153.37772239999998,-0.8662722,0.1113044,0.1132338,-0.9876358,-0.1230502,-0.1157368,-133.2079376,80.51588120000001,-135.714444,185.2303304208368,0.8618025496907745,0.8807031778156816,1.0019784588682132,-112.0243422,97.5209708,17.663278400000003
1358.901,9.951256600000002,182.2960848,36.71573239999999,0.1108673999999999,-0.3016124,0.7501937999999999,-20.8096934,-13.3322912,-154.0048342,-0.765306,-0.0136129999999999,0.1115626,-0.9875868,-0.1229678,-0.1152462,-133.2315338,80.5164168,-135.7228486,186.2228102220462,0.8161203083951286,0.7735145771889241,1.0018634906939767,-112.4218404,93.848708,18.2819856
1378.88,2.448534200000002,186.5505098,36.290142,0.0207432,-0.3039971999999999,0.6880051999999999,-20.6241056,-9.5815066,-154.627414,-0.6007127999999999,0.0222848,0.0927656,-0.9873044,-0.122892,-0.1158442,-133.2548554,80.5159606,-135.73427139999998,190.06331164311703,0.7524597884147164,0.6082416764233111,1.0016447976188965,-112.6307498,90.0974672,18.8931426
1398.864,-8.7564538,189.572806,37.918978,-0.0530675999999999,-0.3226132,0.8294318,-20.6993882,-5.7627134,-155.2263702,-0.1916,-0.0935785999999999,0.1022063999999999,-0.9875052,-0.123903,-0.1165181999999999,-133.2599184,80.5165786,-135.735489,193.52615624361903,0.8915450397120944,0.2364606998613511,1.0020453903727515,-112.5605302,86.279292,19.490881200000004
1418.847,1.5913944,189.2392824,43.5014586,-0.1090241999999999,-0.3240478,0.8208371999999999,-20.6268944,-1.9082656,-155.6961456,0.2614954,0.092077,0.2460977999999999,-0.987662,-0.1221001999999999,-0.1172496,-133.2896242,80.517218,-135.7707184,194.1813982845185,0.8891945578861354,0.3707049302545084,1.0020639469535864,-112.6627298,82.42548359999999,19.9254272
1438.832,2.6895404,188.3752474,45.411218,-0.2019835999999999,-0.3107166,0.849963,-20.5733684,1.9505106,-156.10373239999998,0.3959082,0.0361274,0.2593899999999999,-0.9870324,-0.1209762,-0.1144228,-133.3082368,80.5203156,-135.7975432,193.79021177762812,0.9272428385021478,0.4746911247937968,1.0009799082779036,-112.7348684,78.569805,20.3061892
1458.816,4.098638599999999,190.4250948,46.140277600000005,-0.2832052,-0.3181112,0.8789994,-20.513814,5.852911000000001,-156.5121094,0.1683923999999999,0.1589542,0.276651,-0.9882998,-0.1225989999999999,-0.1135348,-133.33714300000003,80.52175919999999,-135.830371,195.97816405142555,0.9767496434976776,0.3607744640026508,1.002325875298089,-112.823329,74.6688482,20.681738399999997
1478.799,9.4782506,188.312723,46.493311,-0.3754384,-0.2888415999999999,0.8777552,-20.3801498,9.7189942,-156.9007172,-0.2416533999999999,0.0668996,0.296334,-0.9882234,-0.1218026,-0.1118749999999999,-133.3653626,80.525699,-135.8542694,194.1987302889848,0.9974154867517148,0.388182639704199,1.0019667545878557,-112.9852128,70.8067048,21.046447799999992
1498.783,6.538530399999999,182.135602,45.7533888,-0.4701912,-0.2368311999999999,0.9387519999999998,-20.3274098,13.4653476,-157.25005800000002,-0.9423562,0.1186541999999999,0.172641,-0.9888746,-0.1204244,-0.1114037999999999,-133.4036834,80.52789320000001,-135.8741638,187.90822888415,1.0763011192760508,0.9653594883446684,1.0023900524720704,-113.0762736,67.06254559999999,21.375894199999998
1518.767,2.836092,175.09137900000002,45.7042518,-0.5816784,-0.3330344,1.0528516,-20.3573108,17.0841114,-157.55889580000002,-1.462945,0.1070025999999999,0.039344,-0.988082,-0.1235464,-0.1126928,-133.43607160000002,80.52640079999999,-135.8776154,180.98042173271648,1.248101824464847,1.46738051635142,1.002132435783215,-113.0787608,63.44228939999999,21.6812804
1538.751,19.096967,167.1231234,45.2302452,-0.6364062,-0.2612194,0.8648340000000001,-20.0683764,20.5406396,-157.81362900000002,-1.507092,0.1680184,0.1076726,-0.990169,-0.1227166,-0.1130516,-133.48264139999998,80.5254668,-135.89448860000002,174.18555509692197,1.1050729722017456,1.5202466470916225,1.004128814813677,-113.414265,59.9848272,21.9191404
1558.735,-3.813864600000001,158.261075,38.9455006,-0.6856108000000001,-0.2751484,0.9607954,-20.2852824,23.7860986,-158.1339598,-1.3867585999999998,0.1899406,0.0723526,-0.9896038,-0.1212391999999999,-0.113383,-133.5296142,80.5241422,-135.91410520000002,163.02719233406236,1.2119804502385176,1.4015747375466925,1.0034292846434572,-113.2443318,56.73804359999999,22.2198546
1578.72,1.496328999999999,150.0631318,36.6552262,-0.7311572,-0.3165654,0.9950028,-20.4319136,26.859918200000003,-158.470581,-1.1946642,0.198437,0.0474358,-0.9893414,-0.1231129999999999,-0.1151612,-133.5710052,80.5208662,-135.931958,154.4823230465984,1.2746901880836927,1.2119611994004924,1.0036011750234253,-113.1390916,53.660948,22.538623
1598.703,7.878850799999998,140.8583024,32.36461559999999,-0.7554594,-0.3245836,0.9337384,-20.482826,29.7343644,-158.8362884,-0.7823591999999999,0.1499368,0.1447632,-0.9898722,-0.1217346,-0.1155072,-133.68132020000002,80.522415,-136.0284638,144.74324159653975,1.244162697588977,0.8096439624261518,1.0039961147443948,-113.1984942,50.7880506,22.807824600000004
1618.687,5.814646599999999,133.25354320000002,28.516162,-0.7411356,-0.3082401999999999,0.8312484,-20.6193858,32.4350616,-159.24078980000002,-0.5055755999999999,-0.0291581999999999,0.2214816,-0.9890702,-0.1199273999999999,-0.1155867999999999,-133.78052680000002,80.528166,-136.119217,136.39460541255804,1.1555379271083923,0.5527304832204932,1.0029968844084414,-113.161141,48.0931044,23.121572800000003
1638.671,-7.702361200000001,127.52796480000002,25.0526416,-0.7274917999999999,-0.3252714,0.8876662,-21.0727882,35.001488,-159.7025696,-0.3037437999999999,-0.133682,0.2892374,-0.986848,-0.119962,-0.1180098,-133.87746280000002,80.53509199999999,-136.2116182,130.19348303668414,1.19289441500396,0.4402152277252571,1.0010924879570515,-112.8046746,45.533604,23.4909514
1658.655,-2.1167898000000007,123.4461854,24.945573000000003,-0.7109399999999999,-0.3745079999999999,0.8691644000000001,-21.4505302,37.480403,-160.181366,0.1681806,-0.1864687999999999,0.4212688,-0.9860654,-0.1183188,-0.1181226,-133.9746032,80.54517039999999,-136.3136964,125.95921205361236,1.1836970388960852,0.4904311668758828,1.0001386204628635,-112.524073,43.0647674,23.8676696
1678.639,1.4748323999999997,118.7070558,24.743315000000003,-0.7032961999999999,-0.3194874,0.7949086000000001,-21.7659702,39.8650726,-160.6482148,0.6887348,-0.2543786,0.4894429999999999,-0.9857752000000002,-0.1165688,-0.1168067999999999,-134.0611418,80.5582716,-136.41557619999998,121.26735696180415,1.1084121192260394,0.882393646349519,0.9994923004179274,-112.2951716,40.69319899999999,24.232638599999994
1698.623,-6.612415799999999,117.008687,24.998868,-0.6935202,-0.3223124,0.7321304000000001,-22.2756534,42.2167144,-161.13294079999997,1.0931964,-0.1591613999999999,0.6230027999999999,-0.9856026,-0.1172914,-0.1165344,-134.0859984,80.5694258,-136.4626862,119.8319668429818,1.058711704670332,1.2682835680677882,0.9993748165848888,-111.810345,38.3527114,24.6702546
1718.607,-13.3394054,117.99846499999998,24.7412932,-0.7272722,-0.3289247999999999,0.7291996000000001,-22.9863102,44.5692436,-161.6961976,1.22862,-0.0836661999999999,0.5769371999999999,-0.9865804,-0.1156263999999999,-0.1146355999999999,-134.10985399999998,80.58025660000001,-136.5115508,121.30007859844996,1.081132939831194,1.3599131112561127,0.999925832663843,-111.1235438,36.011013000000005,25.184646800000003
1738.591,-9.269720199999998,117.5245302,24.4022712,-0.792737,-0.3238033999999999,0.7482648,-23.667078,46.9006722,-162.32039500000002,1.0540318,-0.1213481999999999,0.3484793999999999,-0.9865864,-0.1168773999999999,-0.113645,-134.1094024,80.5881072,-136.5323912,120.38859477141244,1.1371810779025475,1.116757052039001,0.9999641180166016,-110.4423244,33.687435,25.788003799999995
1758.575,-3.1177732,113.7478364,24.3162826,-0.8513874000000001,-0.2631698,0.663282,-24.24822,49.1776444,-162.95478839999998,0.9699808,-0.2135599999999999,0.2396537999999999,-0.9869404,-0.1161732,-0.114011,-134.09636220000002,80.5957596,-136.5386962,116.35966824845656,1.110883369231352,1.0217164821138394,1.0002729995713169,-109.8481422,31.4181152,26.4160922
1778.559,-11.4090196,109.8024492,22.209187,-0.9122862000000002,-0.271705,0.632438,-25.0821148,51.370192,-163.6761414,0.9287538,-0.2397651999999999,0.2094839999999999,-0.9876314,-0.1136946,-0.113927,-134.0852204,80.60437479999999,-136.54592280000003,112.60546863164654,1.1428331206171094,0.9818118548894588,1.0006605846460228,-109.0031056,29.234182800000003,27.1302186
1798.543,-10.760708,104.9214066,19.7503152,-0.9672258,-0.2970484,0.6879607999999999,-25.989357,53.4352898,-164.4857728,0.7390922,-0.2637022,0.0432579999999999,-0.9876142,-0.11443,-0.1143483999999999,-134.0614472,80.61036700000001,-136.5365204,107.30502947244896,1.223541402023176,0.7859181795515866,1.0007754940665765,-108.0720902,27.1750772,27.94925239999999
1818.527,-2.983536199999999,95.897905,16.7723564,-1.0070039999999998,-0.2791078,0.6836735999999999,-26.773513,55.30064539999999,-165.3189362,0.8062239999999999,-0.3444759999999999,-0.0084298,-0.9886952,-0.1180498,-0.1150914,-134.0184968,80.6150498,-136.5092134,97.3992895808504,1.2487464960406494,0.8767735821066006,1.002347237307032,-107.2449838,25.3144044,28.809722799999985
1838.51,-4.449263599999999,85.26400220000001,13.0940638,-1.0147438000000002,-0.2777694,0.6632693999999999,-27.6218974,56.9323942,-166.17352599999998,1.1436302,-0.3428695999999999,0.0784526,-0.9897924,-0.1177864,-0.113384,-133.97296160000002,80.62177899999999,-136.4862092,86.37824103639969,1.2436989652609511,1.196496722687931,1.0032041480071343,-106.3510642,23.6893848,29.68731679999999
1858.494,-6.449879399999999,75.13759680000001,9.9227352,-1.0064921999999998,-0.3205353999999999,0.6889732,-28.545773,58.3274314,-167.049356,1.1557697999999998,-0.3030537999999999,0.087459,-0.9902114,-0.1176073999999999,-0.1119374,-133.928586,80.6286896,-136.4647004,76.06392095470254,1.2611318573536392,1.1980377761020224,1.0034341526694617,-105.38281299999998,22.3012582,30.58465559999999
1878.478,-5.558425999999999,63.976496,7.152233,-0.9953456,-0.3484877999999999,0.7241052,-29.428268,59.48421020000001,-167.88257140000002,0.6669898,-0.2289446,-0.0521328,-0.9905592,-0.1192312,-0.1115634,-133.88432619999998,80.631996,-136.43353280000002,64.61456938587287,1.2792517152051197,0.7071130404744633,1.0039272881925465,-104.4560582,21.1477858,31.449038599999987
1898.462,-4.573302599999999,51.4114056,4.5437102,-0.9697794,-0.3552938,0.7287956,-30.2207264,60.397391600000006,-168.6227844,-0.0061583999999999,-0.2183468,-0.1758578,-0.989722,-0.1193087999999999,-0.1114216,-133.8440918,80.63327,-136.39281,51.81402343787309,1.2640604398374944,0.2804268474694247,1.0030947113747537,-103.6233654,20.235878400000004,32.22997439999999
1918.446,-6.336782,39.0982844,2.7459552,-0.9370854,-0.3580926,0.7419072,-30.936859400000003,61.084939000000006,-169.222995,-0.7590844000000001,-0.0169927999999999,-0.3011088,-0.9889208,-0.1172161999999999,-0.112636,-133.8342224,80.63018919999999,-136.3673888,39.70353786628106,1.2477121665190891,0.8168013167304765,1.0021930226812996,-102.897363,19.545250200000005,32.85560619999999
1938.43,-7.4276456,26.056074,0.7605430000000001,-0.9281692,-0.3756734,0.7478838000000001,-31.5354072,61.5337832,-169.65422059999997,-1.4326274,0.0898864,-0.473517,-0.9880672,-0.1191802,-0.115004,-133.8339964,80.6213544,-136.3380614,27.10474750126856,1.2497834794870029,1.511528756400195,1.0018516016875354,-102.2985892,19.087571200000003,33.31615919999999
1958.414,-8.085319,11.3204672,-2.1357244,-0.9278712,-0.3614022,0.7630166,-31.972454400000004,61.7056954,-169.88148499999997,-1.5199534,0.1796572,-0.5219056,-0.9881076,-0.1214496,-0.1176161999999999,-133.84027999999998,80.6087096,-136.3135374,14.074326970437776,1.2544922661498714,1.6170715825203164,1.0024670593193374,-101.8678256,18.903014200000005,33.56794759999999
1978.398,-8.161629999999999,-4.3429308,-5.5624608,-0.9316014,-0.3430352,0.77375,-32.22076940000001,61.5739556,-169.88754880000002,-1.1535418,0.1538638,-0.4472166000000001,-0.9875902,-0.1211146,-0.11787,-133.84461059999998,80.597618,-136.294418,10.78954226749334,1.258667302912489,1.2467298988206066,1.001946349047293,-101.6238412,19.0236624,33.5931308
1998.382,-6.729059799999999,-20.736582,-8.6553474,-0.9453596,-0.338507,0.7791478,-32.2231074,61.1285752,-169.6463622,-0.5658918,0.1122614,-0.3671631999999999,-0.986664,-0.1225527999999999,-0.1184816,-133.8383362,80.58745880000001,-136.2765072,23.456366245635465,1.2709693373980349,0.6838457184712352,1.0012806435872013,-101.61522879999998,19.4588836,33.36985500000001
2018.366,-3.2483741999999998,-37.909302,-11.7785924,-0.9637768,-0.3298404,0.7718550000000001,-31.9414856,60.3552582,-169.1697632,0.3121456000000001,-0.0931063999999999,-0.236249,-0.9868502,-0.1255183999999999,-0.1188056,-133.8015656,80.5808412,-136.2456356,39.82966673217048,1.2780534224810012,0.4023894473284806,1.0018697303392092,-101.86008,20.225583,32.924127600000006
2038.35,-0.5533147999999992,-55.6096888,-14.379931,-0.973702,-0.3250114,0.7810908,-31.3908524,59.2395044,-168.44664000000003,1.0927434000000005,-0.3019307999999999,-0.0534278,-0.9867746,-0.123784,-0.1192223999999999,-133.7519196,80.5803652,-136.2173704,57.44150121006157,1.289895667400507,1.1349470807244897,1.0016289585085487,-102.3610672,21.34086080000001,32.22926960000001
2058.334,2.5935238000000007,-73.0474752,-16.4411058,-0.9840818,-0.3376262,0.7868064,-30.585802,57.7843844,-167.50239860000002,1.6164292000000002,-0.5855162,-0.1108782,-0.9862848,-0.1223945999999999,-0.1194438,-133.6671174,80.5834184,-136.1639464,74.91975679834108,1.304405133039057,1.722778730513678,1.0010019811062514,-103.0813154,22.799034,31.338452200000017
2078.318,8.4988354,-90.2201124,-18.6628992,-0.9905186,-0.3329518,0.7996456,-29.5171162,55.9933352,-166.39216000000002,2.0932334,-0.8340274000000001,-0.0256154,-0.984761,-0.1219072,-0.1197764,-133.5611268,80.5910524,-136.0986236,92.52136343123291,1.315833227908674,2.253416055579501,0.9994808545088796,-104.0440106,24.5977172,30.29353640000001
2098.301,13.625899600000002,-106.9341766,-21.1986586,-0.9897158,-0.3173238,0.8020296,-28.2732522,53.8754686,-165.1882324,2.8855428000000005,-0.9037034,0.109939,-0.9846464,-0.1172116,-0.1183966,-133.45326540000002,80.60404980000001,-136.0472076,109.86339877988766,1.3128150052814906,3.0257434903713176,0.9986415007894874,-105.1800132,26.7285812,29.141024800000007
2118.286,16.376239400000003,-123.4157516,-23.8170834,-0.994509,-0.3226392,0.8036367999999999,-26.9641926,51.43421500000001,-163.9460418,3.2169272,-0.9204628,0.207487,-0.9828006,-0.1130992,-0.1171967999999999,-133.3531036,80.62052320000001,-136.0100982,126.75520668422884,1.318702510338052,3.3524503324363626,0.9962045665079236,-106.38891099999998,29.186308200000003,27.93594360000001
2138.27,20.652864,-139.8937302,-25.0824078,-0.988869,-0.3305016,0.8225256,-25.5858036,48.6792474,-162.6821106,3.2654668,-0.7290775999999999,0.2601548,-0.9836064,-0.1123769999999999,-0.1151304,-133.2703614,80.63615259999999,-135.99169899999998,143.61728211367316,1.3280216750561415,3.355966044030696,0.9966770536408068,-107.6845578,31.9569052,26.690411600000004
2158.253,23.9864956,-156.09350899999998,-25.2782796,-0.9766604,-0.3205892,0.841649,-24.169445,45.6297494,-161.4052368,2.9035094,-0.4615763999999999,0.3170968,-0.9849616,-0.1141491999999999,-0.1118374,-133.2109772,80.64943539999999,-135.9899748,159.93600889930218,1.328539051471879,2.9570204580786315,0.9978411684100632,-109.0415322,35.019686,25.415261999999995
2178.237,24.0455308,-171.17939159999997,-24.6558614,-0.9551216,-0.3300733999999999,0.8624573999999999,-22.8026634,42.3073464,-160.12799379999998,2.3332564,-0.1799321999999999,0.1380326,-0.9869516,-0.115914,-0.1102476,-133.16502680000002,80.656131,-135.9905242,174.60951623945328,1.3285475102490238,2.344251271387212,0.9998320106119428,-110.3623634,38.3487846,24.1374696
2198.221,24.295424000000004,-184.465387,-23.8241388,-0.9259536,-0.35163,0.8855128000000001,-21.5046822,38.7430742,-158.8776368,1.4111636,-0.0833395999999999,-0.0153391999999999,-0.9878448,-0.117581,-0.1086975999999999,-133.12576299999998,80.6591446,-135.97938240000002,187.5775472117098,1.3285957418330077,1.4137055867293444,1.0007386315586104,-111.6210808,41.9160704,22.8982544
2218.205,26.6921964,-195.4704408,-23.6190404,-0.8859562000000001,-0.360207,0.9211332,-20.249786,34.9705072,-157.68113720000002,0.4645554000000002,0.190578,-0.0778551999999999,-0.9896738,-0.1167104,-0.1078332,-133.1243806,80.65835259999999,-135.9874604,198.69329541939584,1.327838033537856,0.5081270765469994,1.002349014513827,-112.8745946,45.6878454,21.6936768
2238.189,30.040164000000004,-204.3384522,-25.1713532,-0.840982,-0.3520382,0.9323904,-19.0506172,31.0071836,-156.6014924,0.3015944000000002,0.1271766,-0.0468875999999999,-0.9885620000000002,-0.114529,-0.109008,-133.1373842,80.6538468,-135.9934236,208.0629989271464,1.3040450439288511,0.3306531668269338,1.0011265972638028,-114.08676699999998,49.6466632,20.608068799999995
2258.173,32.6966908,-211.3526062,-27.3735642,-0.7710736,-0.3445928,0.9349206,-17.932450199999998,26.8808232,-155.65950039999998,0.2441810000000002,0.1117538,0.1035176,-0.9865456,-0.1158981999999999,-0.111953,-133.16653459999998,80.64989779999999,-136.0144808,215.61147871533788,1.2599107995144578,0.2878005665129937,0.999618971334378,-115.2340844,53.7690746,19.6450196
2278.157,35.9953796,-216.6738036,-29.664772,-0.6920504000000001,-0.3348942,0.9403402,-16.868253799999998,22.6279926,-154.853937,0.4094302000000002,0.195243,0.3091841999999999,-0.9858512,-0.1174452,-0.114423,-133.2187868,80.6462066,-136.0622468,221.63754920331405,1.2146306323610647,0.5489515345189229,0.9993941096852031,-116.350533,58.01821399999999,18.791690200000005
2298.141,39.7031684,-220.6450804,-31.5697758,-0.5998062,-0.3090132,0.9406278,-15.8257974,18.2655804,-154.1707614,0.7425784000000002,0.1831402,0.4795416,-0.9869826,-0.118227,-0.1149704,-133.2763246,80.64478899999999,-136.1221436,226.40062683169296,1.1575997984906183,0.9027309450401932,1.0006650134325272,-117.45052719999998,62.37920859999999,18.04861780000001
2318.125,41.8412184,-223.2346128,-32.6310528,-0.5036454,-0.2909252,0.9146092,-14.818638000000002,13.819028800000002,-153.5934268,1.1289166000000002,0.0029456,0.4754944,-0.9885184,-0.1189346,-0.1138687999999999,-133.3050446,80.646057,-136.1607912,229.45405970694617,1.0838847492518937,1.2249719550856175,1.0021377998205436,-118.4864066,66.8270282,17.43263560000001
2338.109,41.269772,-224.204849,-32.1276932,-0.4025524,-0.2651506,0.8984614000000001,-13.886623600000002,9.3485924,-153.09059159999998,0.8968416000000001,-0.1067823999999999,0.3368377999999999,-0.9890246,-0.1228952,-0.114141,-133.302423,80.6504698,-136.17638879999998,230.2242321442252,1.0196009821082364,0.963943483794128,1.003145581393449,-119.4157994,71.3018774,16.91420280000001
2358.093,39.899925800000005,-223.7229764,-30.1118614,-0.3101214,-0.2544124,0.8857884,-13.033004,4.8835942,-152.62818299999998,0.9044280000000002,-0.258214,0.22021,-0.9895746,-0.1199128,-0.113337,-133.28197920000002,80.6568328,-136.173929,229.2393911287789,0.972379576907228,0.966000476749365,1.003235886587995,-120.2489752,75.7732386,16.45425400000001
2378.077,40.7414534,-222.6571012,-26.044569000000003,-0.223495,-0.2346778,0.8685474000000001,-12.2068418,0.4449857999999999,-152.15947260000002,0.8281552000000001,-0.436025,0.0963094,-0.9886538,-0.1166109999999999,-0.1131178,-133.24491559999998,80.66511240000001,-136.15287199999997,227.8472521544361,0.9270373621837472,0.9408689262805952,1.0019132189228168,-121.0380738,80.2201266,16.006600600000002
2398.061,39.017974,-221.09801,-21.2244434,-0.1549193999999999,-0.2112438,0.8356458,-11.4557302,-3.954535,-151.6643188,0.6584414000000002,-0.3848789999999999,0.0163868,-0.987881,-0.116491,-0.1148746,-133.2142576,80.6707292,-136.13473240000002,225.5154303338567,0.8757441787373982,0.7628534912348506,1.0013367050933266,-121.7585274,84.62526420000002,15.529586399999994
2418.045,35.633276800000004,-218.4690184,-16.2909988,-0.0773852,-0.1911363999999999,0.8259666000000001,-10.812687999999998,-8.280005599999999,-151.1326018,0.6246644000000001,-0.3453103999999999,-0.0199694,-0.9861978,-0.1176552,-0.1159536,-133.1850188,80.67417,-136.11734040000002,221.95458782838116,0.8513180468541474,0.7140333759089138,0.9999370401004456,-122.3723308,88.95417560000001,15.015261399999996
2438.029,33.97702460000001,-215.2333648,-12.2422294,-0.0217488,-0.181938,0.8410998,-10.2405388,-12.5378666,-150.5731812,0.5434328000000002,-0.1759609999999999,-0.015392,-0.9861722,-0.11692,-0.1146392,-133.1713012,80.6761292,-136.11406879999998,218.24232335750344,0.8608271137141766,0.5714178815025307,0.9996739671660356,-122.9307624,93.2139958,14.4591124
2458.013,36.066280000000006,-212.1279906,-9.500813,0.0284993999999999,-0.1674966,0.8188686000000001,-9.6636184,-16.7294574,-150.005295,0.4089490000000001,-0.0267077999999999,0.0151799999999999,-0.986048,-0.1173658,-0.113299,-133.1714692,80.67677760000001,-136.1222688,215.3818153807165,0.8363092196537595,0.4101012357721446,0.9994508755885104,-123.5078508,97.406235,13.883026199999994
2477.997,33.495035200000004,-207.9639892,-9.0662706,0.075954,-0.1302456,0.749372,-9.1520888,-20.8461052,-149.4783542,0.2788710000000002,0.240322,0.0774298,-0.9862166,-0.1170153999999999,-0.1113606,-133.1986206,80.6755798,-136.1552978,210.8391221989396,0.7643895085748887,0.3761902075453853,0.9993582786894196,-124.0465318,101.521685,13.323056399999995
2497.981,25.99308,-203.0578338,-11.160185,0.1415446,-0.1300463999999999,0.7425248000000001,-8.7907426,-24.8731036,-149.03471399999998,0.0223916000000001,0.3706712,0.1053952,-0.9861924,-0.1178514,-0.1096132,-133.23781739999998,80.6733414,-136.195526,205.0187157424147,0.767000663987431,0.3860138215699536,0.9992394387302574,-124.4470748,105.546445,12.839188000000002
2517.965,24.6054528,-197.6391448,-13.5824446,0.1884262,-0.1222206,0.7300204000000001,-8.4428874,-28.811314,-148.6784548,-0.4336591999999998,0.4359226,0.1629338,-0.985768,-0.1189102,-0.1079098,-133.28927299999998,80.671248,-136.23914159999998,199.62750979281503,0.7637879891219554,0.6361102405384148,0.9987605871399212,-124.8463856,109.482562,12.439313199999996
2537.949,22.7404514,-192.5330534,-16.206684000000003,0.2435563999999999,-0.1141211999999999,0.7072338,-8.1097776,-32.6557244,-148.41346760000002,-0.9764685999999998,0.4702294,0.2541779999999999,-0.984655,-0.1173912,-0.1068498,-133.36246020000002,80.6709704,-136.2937742,194.54758129485663,0.7566525068569059,1.1131994749793586,0.9973680577512396,-125.2526826,113.3266948,12.1196934
2557.932,21.709029,-185.334143,-17.3858746,0.3016912,-0.1044926,0.652808,-7.794852799999999,-36.363667,-148.20405580000002,-1.5322797999999995,0.6526752,0.2147821999999999,-0.9845024,-0.1178183999999999,-0.1090052,-133.4629912,80.6665576,-136.3647704,187.4094318258134,0.7267011548609236,1.679284876255342,0.997501019854797,-125.6681384,117.0302246,11.8392854
2577.916,15.2189316,-177.8792144,-18.1507558,0.3600664,-0.0948246,0.6410397999999999,-7.5990876,-39.9298646,-148.04460439999997,-1.6876429999999996,0.6474358,0.2775018,-0.9854568,-0.120656,-0.110509,-133.56721499999998,80.6614962,-136.4364716,179.44938208508236,0.7413309263467699,1.8287480033000387,0.998947052692604,-125.9681274,120.5913608,11.608132799999998
2597.9,10.556447799999995,-169.4282836,-17.8337818,0.4181015999999999,-0.0980542,0.6075132,-7.4849056,-43.3330926,-147.91160879999998,-1.5285381999999996,0.6329754000000001,0.4029206,-0.9861396,-0.1202142,-0.1096547999999999,-133.6752472,80.6590472,-136.5153138,170.6910239206683,0.743973025206183,1.7027718272771484,0.999473331176395,-126.1903416,123.9921398,11.396295
2617.884,5.640057399999999,-160.70194999999998,-16.9915026,0.4644052,-0.090288,0.5574378,-7.468581,-46.567415,-147.7874512,-1.3638122,0.7377504,0.4705009999999999,-0.9866786,-0.1186042,-0.1119904,-133.8033508,80.655916,-136.6176026,161.6961290256622,0.7311367954082737,1.6203797581338764,1.0000717302512654,-126.3347698,127.223331,11.1698486
2637.868,0.1305713999999991,-149.00845020000003,-15.8889602,0.5266778000000001,-0.0638448,0.4516908,-7.556261399999999,-49.5745972,-147.673584,-1.1338549999999998,0.8825088000000001,0.4604372,-0.9892256,-0.1202796,-0.1151266,-133.9410096,80.6489458,-136.73417360000002,149.85324266139045,0.6967712984218855,1.5087913567641749,1.0031393741146242,-126.38474820000002,130.223543,10.939410399999996
2657.852,-14.3426974,-137.241072,-16.838381599999998,0.5771212,-0.0570717999999999,0.4560316,-7.8751086,-52.3536232,-147.6303132,-0.7568053999999999,0.8888808000000001,0.5456654,-0.9906796,-0.1193441999999999,-0.1135842,-134.1286622,80.6404268,-136.899112,139.01207108493986,0.7377607268235685,1.2886482137631512,1.004286054079932,-126.2535536,132.99405,10.731201199999996
2677.836,-16.8522416,-124.1498458,-17.384318,0.618425,-0.1016522,0.4252896,-8.2135988,-54.8744384,-147.6297884,-0.5816727999999999,0.9064340000000002,0.4737606,-0.9925318,-0.1182736,-0.1135983999999999,-134.3088226,80.63126079999999,-137.05998540000002,126.48872191398596,0.7573994284774712,1.1766116388716372,1.005988377144965,-126.0952238,135.5056992,10.569803000000004
2697.82,-12.3023408,-110.2105332,-16.579593199999998,0.6532644000000001,-0.060698,0.347206,-8.440306,-57.1159796,-147.65313740000002,-0.5072087999999998,0.93883,0.4143023999999999,-0.9922142,-0.1192196,-0.1161594,-134.48747859999995,80.619397,-137.22078240000002,112.12757077572464,0.742287430815961,1.144687299808642,1.0060791906774336,-126.0471726,137.7353766,10.432355000000005
2717.804,-18.6840894,-94.9983246,-15.6435248,0.7160299999999999,-0.0408592,0.2794576,-8.770472999999999,-59.047991,-147.70585039999995,-0.1598181999999998,1.0091536,0.3463083999999999,-0.9924396,-0.1185178,-0.1165778,-134.66017459999998,80.6057496,-137.38255320000002,98.07393507799291,0.7697174711037811,1.0788245238938352,1.006266968561445,-125.8897016,139.6537406,10.323297200000004
2737.788,-26.150931199999995,-79.9361268,-14.7783772,0.7420624,-0.0661505999999999,0.2846506,-9.2329226,-60.672856,-147.7817872,0.1836364000000002,0.8776765999999998,0.3256446,-0.990038,-0.115297,-0.1152053999999999,-134.81567679999998,80.595375,-137.533777,85.39353607316124,0.7975327400517674,0.9539826765207426,1.0033648009782683,-125.5827542,141.268231,10.248010200000005
2757.772,-24.8454812,-64.03829540000001,-12.5789048,0.7647136,-0.0826902,0.2313612,-9.6821546,-61.9766974,-147.8450166,0.5849636000000003,0.6775964,0.2305494,-0.9898304,-0.1140574,-0.1149,-134.88572059999998,80.5909958,-137.61650999999998,69.83144033860879,0.8032138968334898,0.924376719989356,1.0029832108559544,-125.203566,142.5676932,10.228506600000008
2777.756,-25.5333144,-47.367889,-9.4645824,0.8054558,-0.0439496,0.1834692,-10.1579496,-62.9420166,-147.8906494,0.9879706000000004,0.5066292,0.2006434,-0.9877852,-0.1137754,-0.1161488,-134.93374920000002,80.58806,-137.6850066,54.63739902824766,0.8272554384483912,1.1282804734287306,1.001076913491486,-124.7757996,143.5300766,10.205642800000003
2817.726,-35.119488000000004,-26.39651299999999,-5.804207,0.8334004,-0.0624835999999999,0.2027055999999999,-10.9869326,-63.4714028,-147.9396758,1.4185996000000003,0.1063496,0.0602228,-0.9880248,-0.112593,-0.1179429999999999,-134.93438700000002,80.5886062,-137.7139892,44.31526999624578,0.8599709223342845,1.4238545740981277,1.0013894049334855,-123.9474544,144.060009,10.225686600000008
2837.708,-34.55351900000001,-6.1302616,-1.6000072,0.8374114,-0.0845344,0.2247064,-11.8172308,-63.5946686,-147.97363260000003,1.7530372,-0.3402855999999999,-0.1389835999999999,-0.9859642,-0.1131828,-0.1209398,-134.879959,80.590979,-137.6937438,35.12955743541111,0.8711468784506319,1.7911588860902763,0.99978106859528,-123.0627282,144.1856476,10.279888800000004
2857.692,-29.7012164,14.9862706,3.4482292,0.8563598000000001,-0.087575,0.1869128,-12.557434,-63.2862488,-147.9964598,2.363624,-0.6112488,-0.2012888,-0.9866868,-0.111911,-0.1247824,-134.79825440000002,80.5953186,-137.6578582,33.44608866148307,0.8808847157743629,2.4496654240697606,1.000822442077015,-122.2408204,143.88156740000002,10.338601600000004
2877.676,-28.7235842,36.4265222,8.764822,0.8771829999999999,-0.0616576,0.1669518,-13.27961,-62.53585819999999,-148.0151762,2.793057,-0.8110408,-0.1068369999999999,-0.9865844,-0.1105768,-0.126101,-134.70620739999998,80.6037886,-137.61998279999997,47.20972265935553,0.8950556288019198,2.9103897898877125,1.0007384619482755,-121.4265974,143.13964679999998,10.3951934
2897.66,-33.4427446,56.216951,13.6445836,0.8793431999999999,-0.06005,0.1990279999999999,-14.0894854,-61.377636800000005,-148.041223,2.9204204,-1.064231,-0.0613819999999999,-0.9874884,-0.1115004,-0.1246212,-134.58886739999997,80.6166884,-137.5591796,66.8201871273541,0.9035832062794436,3.1088921956255025,1.0015468650163906,-120.499382,141.9943252,10.482043400000004
2917.644,-31.830447600000003,70.55919659999999,18.8867828,0.8714700000000001,-0.0760686,0.211011,-14.7365216,-59.9266518,-148.0269194,3.0274124,-1.1616024,-0.0661463999999999,-0.9874308,-0.115324,-0.1232668,-134.4489658,80.6297012,-137.4779876,79.67740070928627,0.8998733438250963,3.2432886583824883,1.0017554161305444,-119.7124442,140.556353,10.548931800000002
2937.628,-31.0621824,84.5286034,24.3190804,0.8595084,-0.0876248,0.2135166,-15.3914868,-58.16880260000001,-147.98421319999997,3.3974896,-1.3784592,0.0558328,-0.9895536,-0.116019,-0.1191886,-134.2823794,80.64887680000001,-137.3775358,93.2810894003014,0.8899562538244,3.666906414094671,1.003435427919465,-118.8908926,138.8176794,10.6066774
2957.612,-33.8289022,95.9316498,30.003453200000003,0.8439462000000001,-0.0702614,0.2427814,-16.1376058,-56.16004399999999,-147.8969726,3.754047,-1.6962961999999997,0.1688972,-0.9890906,-0.1182479999999999,-0.1143106,-134.0740938,80.67487020000002,-137.242471,106.05415249452328,0.8809793760414373,4.122962034813233,1.0026712909945712,-117.936488,136.8349142,10.654501599999998
2977.596,-40.1710734,105.803682,35.6012056,0.8193944,-0.0939956,0.2918174,-17.040802,-53.9325888,-147.7728912,4.174901,-2.1025158,0.2879446,-0.9863994,-0.1206312,-0.1123814,-133.8224184,80.70746460000001,-137.07218919999997,118.6405499946742,0.874871276539286,4.683298318676679,1.0000826174870554,-116.7816164,134.6400534,10.700702
2997.58,-38.557566,115.47993780000002,42.155149400000006,0.7806078000000001,-0.1396858,0.3314276,-17.9536296,-51.4849164,-147.597403,4.6885298,-2.3783438,0.4171218,-0.982949,-0.120673,-0.1110712,-133.5448274,80.74552,-136.8861022,128.8384979385919,0.859479443724072,5.273786259654606,0.9965377669709462,-115.5911978,132.2304364,10.711300800000004
3017.564,-34.1350424,125.1941788,48.2077876,0.7377784000000001,-0.1444594,0.3253091999999999,-18.7881306,-48.8132916,-147.4037386,5.441395600000001,-2.3946004000000003,0.6528598,-0.9779648,-0.121598,-0.1131424,-133.2755006,80.7850006,-136.7234526,138.42967279576618,0.8191529535804409,5.980729309192615,0.9919689643939472,-114.48736999999998,129.5982922,10.680286
3037.548,-38.5786692,134.348436,53.1609064,0.6941135999999999,-0.1388218,0.3902859999999999,-19.6813814,-45.9387602,-147.23537000000002,6.6857718,-2.285773,1.5179268,-0.9664478,-0.1268596,-0.1111091999999999,-133.0451784,80.83262640000001,-136.62596119999998,149.54563832542453,0.808324404961399,7.226922203771291,0.9810504383372142,-113.363797,126.7713866,10.609408800000006
3057.532,-37.9726122,143.3409118,58.81594259999999,0.6460142,-0.2066023999999999,0.4829108,-20.5481698,-42.8552222,-147.0777802,8.421844,-1.1774926,2.780478,-0.9533784,-0.1333896,-0.1099909999999999,-132.9677522,80.8793824,-136.71895139999998,159.5238269879251,0.8325993868866587,8.946787305612823,0.9689278502838692,-112.4195824,123.73460459999998,10.358828800000008
3077.516,-19.4847688,151.99326760000002,64.01961539999999,0.5717594,-0.243925,0.4526248,-21.032484,-39.5696564,-146.9268952,9.4021356,0.3035218,4.0935296,-0.9522722,-0.1255974,-0.1042172,-133.1214448,80.92983260000001,-137.0657348,166.07263702030684,0.7689456591257928,10.259106389444392,0.966156444141134,-112.0889608,120.499489,9.861160400000012
3097.499,-16.1021502,158.8804228,64.938028,0.478437,-0.2001042,0.4517504,-21.3993,-36.1445146,-146.84920960000002,8.871938199999999,2.503889,5.357421199999999,-0.9476894,-0.1187522,-0.0969686,-133.5904146,80.9723894,-137.72110579999998,172.3926201166944,0.6877660050677119,10.662209408145651,0.9600105172669516,-112.1911146,117.116904,9.128103800000009
3117.483,-23.0869906,166.95333839999998,62.446206,0.3834271999999999,-0.3155751999999999,0.5643748,-21.8223942,-32.5864222,-146.92003160000002,7.6843616,4.557856200000001,6.984754000000001,-0.9467892,-0.1154269999999999,-0.084169,-134.38004460000002,81.0143434,-138.6779448,179.73857399474335,0.7517466590746645,11.34064613591082,0.957505927985117,-112.5576504,113.6007656,8.24208680000001
3137.467,-1.3267146000000012,171.81479480000002,60.556482,0.2950617999999999,-0.282587,0.5685962,-21.78348,-28.948530800000004,-147.0742552,6.07771,7.7635332,9.5281666,-0.9457234,-0.0964736,-0.078899,-135.7507202,81.05173199999999,-140.18975519999998,182.17895431693609,0.7001560662042999,13.711198538018396,0.9538998673894028,-113.96724020000002,110.0002628,6.884500000000008
3157.451,-1.2612332000000008,176.4688414,53.5139648,0.2106148,-0.3033052,0.6264725999999999,-21.6760448,-25.2753656,-147.3999876,3.0263824,10.9186246,12.445056,-0.9514848,-0.0603728,-0.0758536,-137.8160646,81.08763280000001,-142.3409118,184.40875012552624,0.7272004929019507,16.83017446225353,0.9564109829167794,-116.1400198,106.3629984,5.059075800000005
3177.435,0.7684603999999993,180.638269,47.139418,0.1372422,-0.3081078,0.7128365999999999,-21.4812772,-21.5706524,-147.866937,-2.1130252,14.2440382,14.643379,-0.9488052,-0.0508287999999999,-0.0857136,-140.4946474,81.08443439999999,-145.0080566,186.68931273129013,0.788607542559187,20.537430420491635,0.954023949217964,-119.0133702,102.6550868,2.8588804000000043
3197.419,2.1949828,183.42815560000005,43.2391908,0.109234,-0.3465805999999999,0.814996,-21.247538,-17.8373038,-148.408627,-4.9617382,17.3296122,17.435297600000002,-0.9494796,-0.0457447999999999,-0.1099168,-143.7440796,81.0351668,-148.1948608,188.4683894910468,0.8923388700871211,25.078355356129197,0.9569147299866586,-122.4965416,98.8724706,0.2137662000000034
3217.403,17.1704824,183.81085220000003,44.245472,0.0762444,-0.2909918,0.762446,-20.758824800000003,-14.085603200000005,-148.890875,-3.9509022,21.9814146,20.0621196,-0.947599,-0.0328185999999999,-0.1384666,-147.5356568,80.9011976,-151.9505372,189.8391862731237,0.8196422018872624,30.02134005762837,0.9582243602740018,-126.776832,94.9868008,-3.0596622000000027
3237.387,6.3026904,185.3131074,43.5485192,0.0027684,-0.3441965999999999,0.8489341999999999,-20.5112822,-10.3086998,-149.3575316,-3.3915758000000005,27.4557774,21.478594800000003,-0.95739,-0.0223978,-0.1625922,-151.65754099999998,80.6368024,-156.05339959999998,190.4656011069583,0.9160612640100878,35.0235996669115,0.9713565241689994,-131.1462588,90.9455022,-6.695868000000002
3257.373,17.4199482,185.96386120000005,48.30654080000001,-0.0681594,-0.3471814,0.8270768000000001,-20.0897386,-6.4839058000000005,-149.7007812,-5.465171,32.3119488,21.9958422,-0.973708,-0.0342159999999999,-0.1829182,-155.8239654,80.2302274,-160.1643462,192.92364850314647,0.8995758230480408,39.46830631532551,0.991330959776421,-135.7342268,86.71413319999999,-10.463565
3277.355,14.1852054,184.494626,50.7962196,-0.1347036,-0.2748154,0.8661899999999999,-19.7694794,-2.6668966000000003,-149.9497834,-6.437919000000001,36.0202444,22.4671088,-0.9919832,-0.0402622,-0.1990602,-159.8794158,79.7124266,-164.14869979999995,191.88471278549392,0.9186695162190373,42.93804589775052,1.0125594684042611,-140.1099364,82.3793232,-14.198916400000002
3297.339,11.2569588,184.5278352,52.7436324,-0.2209775999999999,-0.3016548,0.881517,-19.5393758,1.1666072,-150.13613,-8.998969,38.77081,21.7236728,-1.002683,-0.0449814,-0.2143484,-163.64255980000002,79.09703199999998,-167.7908752,192.2475795524344,0.957548400528036,45.34396443894734,1.0263243938528983,-144.103184,77.9304248,-17.6547452
3317.323,11.885174,183.2172944,51.6834968,-0.3308437999999999,-0.2924044,0.9386258,-19.315262,4.9681514,-150.327286,-15.0234208,41.0985038,20.4672902,-1.0077219999999998,-0.0465866,-0.2346026,-167.0614624,78.38909299999999,-170.9677184,190.738087884256,1.0372927964482546,48.308385972453095,1.035718263095867,-147.7462004,73.42094159999999,-20.6404324
3337.307,13.9363152,180.1562348,50.1240028,-0.383267,-0.26209,0.9366222,-19.071470400000003,8.705078,-150.5093752,-19.8111084,41.0570022,18.81121,-1.0110738,-0.0515346,-0.2673248,-170.00158679999998,77.6298874,-173.5670044,187.5177470944041,1.0453927046434943,49.31550534417604,1.0470857618832563,-150.9301164,68.9248094,-23.0576292
3357.291,6.833421400000001,176.81916199999998,46.119281,-0.4645498,-0.2468928,0.9467274,-18.9934886,12.3531886,-150.7417574,-21.9418514,39.5852242,16.524899600000005,-1.0047864,-0.0520806,-0.2944732,-172.43166200000002,76.8593034,-175.6083374,182.8625160561048,1.083076793806718,48.18202076100615,1.0483427702996573,-153.43817339999998,64.5061148,-24.86658
3377.275,2.6348728,173.6047668,43.5987602,-0.5256033999999999,-0.3029556,0.965016,-19.0218868,15.924269,-151.0099336,-23.8737636,38.2777992,14.061716800000005,-0.993215,-0.0432502,-0.3146328,-174.4575744,76.0885072,-177.200409,179.0151097011972,1.1398670580023444,47.25334252079537,1.0427561627057784,-155.4356876,60.1642382,-26.190475400000004
3397.259,7.794486000000001,168.44419539999998,41.7094566,-0.5721527999999999,-0.2959774,0.9421818,-18.9657226,19.3937342,-151.2881286,-24.469271400000004,36.9673088,11.6426968,-0.993363,-0.0341867999999999,-0.3235432,-176.1321624,75.3331804,-106.422577,173.7063031263542,1.1413448173579446,45.83535263896359,1.045284166784076,-157.16643979999998,55.9394462,44.8655516
3417.257,2.8107454,163.59736,39.3454344,-0.5867287999999999,-0.2654231999999999,0.9235884,-19.0353416,22.7598216,-151.5863738,-24.8531228,32.9800408,8.598698000000002,-1.0069602,-0.0372332,-0.3215588,-177.4208404,74.6579834,-107.242798,168.28564911125943,1.1259288132303216,42.181730777396375,1.057712256440153,-158.3854988,51.8981618,44.3435758
3437.227,-1.7159742000000002,161.3637938,37.7171408,-0.6194782,-0.3335697999999999,0.9270682,-19.2382054,26.0692858,-151.9317534,-22.6777698,25.9189392,5.535490200000001,-1.0163433999999998,-0.033373,-0.305123,-178.3331146,74.13300939999999,-35.72093220000001,165.7220601703678,1.1638202177306085,34.88143208226097,1.061681547820042,-159.09490920000002,48.0637236,116.2108212
3457.21,5.0770074,158.2313416,36.8947996,-0.6438264,-0.2975518,0.8838416,-19.3322228,29.321301800000004,-152.2951506,-20.906427,19.6951928,2.2251294000000006,-1.0213352,-0.0272473999999999,-0.2948568,-178.9235534,73.73954619999999,-35.902484400000006,162.555097447603,1.1332367276570063,28.80851454313889,1.0633948204086947,-159.59133060000002,44.418244400000006,116.39266619999998
3477.195,-1.0093774,154.6567536,35.480648,-0.669272,-0.2799416,0.8081113999999999,-19.5784474,32.4969866,-152.6860198,-18.065690600000003,13.3742076,-0.6805009999999994,-1.0221834,-0.0258282,-0.2960096,-179.2253264,73.4738738,-35.843316800000004,158.6776816673556,1.0859725338168178,22.4878119743524,1.0644940969507344,-159.64687899999998,40.9768872,116.842703
3497.179,-12.4612738,153.7685608,33.4270694,-0.7078985999999999,-0.285221,0.8478277999999999,-20.1128998,35.6248772,-153.1589782,-15.594612,7.4051898,-3.0468404,-1.0122709999999997,-0.0165882,-0.2926432,-179.3191894,73.3293334,-107.6177338,157.85253436006113,1.1407381054281476,17.53031647825105,1.053853779386153,-159.2062896,37.7044562,45.54124439999999
3517.163,-9.4318024,153.3088654,32.6224628,-0.7584913999999999,-0.3258575999999999,0.9018468,-20.6611206,38.7281638,-153.7181122,-12.6122124,2.9278996,-5.1803084,-1.000722,0.0021063999999999,-0.2907394,-179.241696,73.27431340000001,-107.272464,157.02481391769055,1.2226283286518271,13.945468540336122,1.0421028533294203,-158.5805754,34.5461496,46.44564819999999
3537.146,-1.6217832,149.7532958,31.739618600000007,-0.819542,-0.2610608,0.7680960000000001,-21.102613,41.755635,-154.3167572,-12.6875264,1.4901221999999996,-7.232196399999999,-0.9858752,0.0030377999999999,-0.2934074,-179.0318816,73.24396060000001,-178.7871062,153.0884815150492,1.1531579667489793,14.679865635958755,1.028614135902594,-157.92926859999997,31.4883256,-24.470349000000017
3557.13,-14.9386898,144.5098006,29.7538142,-0.8870438,-0.2579702,0.7494558,-21.8762686,44.6600104,-154.9771302,-10.904307200000002,0.8579979999999999,-8.5509796,-0.9721614,-0.0021648,-0.2945642,-178.6922576,73.2224792,-178.20399160000002,148.29543614636464,1.189571066964946,13.883779319752673,1.0158102883563644,-156.815989,28.5624688,-23.22686140000002
3577.115,-17.1770612,137.2829848,28.0571414,-0.9600622,-0.2856868,0.8328118,-22.742381,47.4020454,-155.6816102,-8.3833046,2.6130158000000003,-9.7026264,-0.9559408,-0.004925,-0.2959332,-178.2326386,73.1604874,-177.5481414,141.16965867567,1.302655698863794,13.086199090851697,1.0007115106722215,-155.4902576,25.758442,-21.86653120000001
3597.098,-4.2283702000000005,124.4833328,25.781784,-1.0392288,-0.2657696,0.7537678,-23.3605058,49.894896800000005,-156.3717074,-4.475475000000001,6.45999,-10.672161,-0.9449592,-0.0137924,-0.2972384,-177.6385742,73.017183,-176.8341828,127.1954387773652,1.3110285562681083,13.253541703471038,0.9907011589762876,-154.2780684,23.122286200000005,-20.462475400000017
3617.082,-6.6113012,107.5826736,22.2695372,-1.0795874,-0.2296917999999999,0.6671016,-24.005332000000003,52.05463580000001,-157.0082918,-1.0478612000000005,12.3755072,-9.236907999999998,-0.8603080000000001,0.0249672,-0.3010524,-177.095926,72.7519134,-176.245816,110.06213358636766,1.2896867146514923,15.47810262765373,0.9118035772498374,-153.090594,20.697277600000003,-19.237524200000017
3637.066,-13.860884000000002,90.3866944,18.7931418,-1.0928972,-0.2874708,0.761853,-24.7628348,53.8583748,-157.5873752,0.4566241999999992,30.641386,-3.5952987999999992,-0.9416006,-0.0473906,-0.3280104,-176.92348339999998,72.12832780000001,-176.07743539999998,93.35449002878948,1.362895353367044,30.8549706712274,0.9982226111428651,-152.1606486,18.269953000000005,-18.490060200000023
3657.05,-4.731444,72.403859,16.4374964,-1.0661566,-0.3192092,0.8132366000000001,-25.2489924,55.3099534,-158.03995379999998,3.659787599999999,38.2804086,-5.930279199999998,-0.9728176000000002,-0.0133484,-0.3227828,-176.608841,71.3524718,-175.8232392,74.39688601223192,1.3783824493469727,38.90953532554739,1.0250565831348823,-151.35984860000002,16.042518400000002,-17.78328540000002
3677.034,0.4815474000000002,54.477142,13.5223748,-1.0278868,-0.3318168,0.814086,-25.5311786,56.4185792,-158.3538728,1.900125,42.3244598,-9.1799136,-0.9968154,-0.027309,-0.3201326,-176.19420780000002,70.5025968,-175.4227266,56.13239268567024,1.3525493254489762,43.35021552519556,1.0473163823510638,-150.66302919999998,14.0840176,-17.068853800000017
3697.018,-0.1197283999999999,38.2123114,10.600779,-0.9650156,-0.3619286,0.844678,-25.7288044,57.1989296,-158.53610840000002,-2.139503400000001,40.441896400000005,-13.266258399999998,-1.0337242,-0.0483696,-0.3259096,-175.6585998,69.6910976,-174.805124,39.65566280907656,1.3325645738294711,42.61593682136432,1.0849619381535742,-149.9297954,12.492168,-16.269015600000017
3717.002,-0.3398671999999999,22.9408542,6.6255604,-0.919647,-0.3855568,0.8996022,-25.851403,57.6618988,-158.6137756,-7.413176000000002,33.6375312,-21.648656,-1.1219304,-0.1109948,-0.3315264,-174.7623076,69.0007976,-173.6890688,23.880878370640843,1.343014805905013,40.68295699975956,1.1751414476428614,-148.9109046,11.3388988,-15.07529320000001
3736.986,0.8395236,7.132648800000001,1.9450586,-0.8871526,-0.3981496,0.9124022,-25.8769786,57.8072144,-158.5989134,-15.1414984,13.0405586,-36.5406552,-1.0471499999999998,-0.0648928,-0.3114646,-173.143936,68.6838344,-171.6404786,7.440613666663011,1.333431893360797,41.64781656752877,1.094415092661372,-147.26695739999997,10.876619999999996,-13.041565200000008
3756.97,0.6190551999999999,-9.3507948,-4.374092200000001,-0.8690364,-0.3957355999999999,0.931493,-25.8611218,57.6007064,-158.5238464,-26.835427600000003,1.510722200000001,-44.1457944,-1.0173267999999998,-0.1293096,-0.3227876,-171.3105284,68.5507778,-169.1114626,10.341821662862635,1.3339828104894456,51.684365326929246,1.0751123780164378,-145.4494066,10.950071399999995,-10.587616200000008
3776.954,2.8530212,-26.7601802,-11.1927056,-0.8588619999999999,-0.3968462,0.9224416,-25.7589208,57.021292,-158.3938964,-22.305364000000004,-10.56616,-49.9343542,-1.0057596,-0.1545674,-0.311784,-165.61618319999997,68.5537808,-162.1825716,29.146588701808533,1.3213740374734928,55.70110169187997,1.0642615828784387,-139.8572624,11.532488799999994,-3.788675200000005
3796.938,3.3621378,-44.813622,-17.9280952,-0.8612499999999998,-0.3921021999999999,0.9235446,-25.6015642,56.05785519999999,-158.2050902,-17.347711200000003,-18.9073514,-53.8893618,-0.981684,-0.1803254,-0.307005,-159.5387786,68.5841948,-154.9466494,48.383688210442735,1.3222822414046105,59.686634484220896,1.0442570544488363,-133.9372144,12.526339599999996,3.258440799999994
3816.922,4.7212472,-63.3247346,-23.730314,-0.8628674000000001,-0.3903364,0.9362324,-25.3512014,54.7098656,-157.94540999999998,-10.989639600000004,-22.7519988,-56.48388239999999,-0.962125,-0.1910992,-0.3025862,-153.2291808,68.5481856,-147.591913,67.78967465493946,1.3317033310604431,61.87773912248345,1.0265290197047914,-127.8779794,13.83832,10.353496999999988
3836.906,8.0370932,-82.00805,-28.7092372,-0.8650855999999999,-0.3736872,0.947649,-24.960657,52.973552,-157.5920866,0.1581193999999989,-23.4930138,-54.274109,-0.9425094,-0.2141192,-0.2886102,-146.8518126,68.425296,-140.4002566,87.25901347433313,1.3364332553375795,59.14072714209327,1.0086956173400576,-121.8911556,15.451744,17.19182999999999
3856.89,13.104675600000002,-100.4036196,-33.725219,-0.8675657999999998,-0.3593434,0.9471654,-24.4126588,50.8488542,-157.18314479999998,14.3124216,-22.8714252,-49.7883332,-0.932491,-0.2150732,-0.2739256,-140.5048736,68.2242966,-133.5367952,106.7239886246794,1.3337617446194654,56.62884093436456,0.9954050335288644,-116.0922148,17.375442400000004,23.646349599999983
3876.873,17.9977032,-117.776172,-38.78348,-0.8727069999999999,-0.3459326,0.945422,-23.7485864,48.3589708,-156.75826999999998,16.297057,-18.1821978,-42.5072094,-0.9105404,-0.2047348,-0.2664094,-138.00280759999998,67.97954860000002,-131.1890504,125.29685683351866,1.3323324020963236,49.0209060980621,0.9705535156659628,-114.2542212,19.620577800000007,25.569219599999983
3896.858,22.8513276,-134.0591844,-43.354815,-0.8704547999999999,-0.3438092,0.9599772,-22.9880466,45.5298952,-156.34081099999997,19.9077134,-11.1039804,-34.0332634,-0.9115006,-0.1848444,-0.2536158,-136.04211719999998,67.72798300000001,-129.4954254,142.73642870255634,1.340691071562543,40.96191464267635,0.9640133661009894,-113.0540706,22.198087800000003,26.845385599999982
3916.842,28.5964558,-149.47932759999998,-47.2768968,-0.8729498,-0.3397534,0.9801726,-22.1271656,42.384276,-155.9313262,22.0407502,-3.929874399999999,-23.5686928,-0.8996914,-0.1877466,-0.2445076,-134.69661259999998,67.5010788,-128.5091766,159.3641478975347,1.355806790041398,32.50725861218302,0.9510401503108478,-112.569447,25.1168028,27.42214959999999
3936.825,34.5873474,-164.09326800000002,-50.1951204,-0.8696712,-0.3349419999999999,0.9889532,-21.1746378,38.957977,-155.55285339999998,24.624711999999995,3.3624040000000006,-13.195280999999998,-0.8907594,-0.1797071999999999,-0.2478498,-133.94749159999998,67.3106614,-128.219586,175.0498080977486,1.3588754804115348,28.138899097354905,0.9419004776409448,-112.7728538,28.3526844,27.333267399999997
3956.809,37.7573112,-177.4507142,-51.434903,-0.8537075999999999,-0.3435876,0.9808716,-20.194276,35.2918496,-155.1869324,27.9373082,11.6798142,-2.259832999999999,-0.8729632,-0.1955632,-0.2625617999999999,-133.7924164,67.1414048,-128.6449034,188.57338032119787,1.3449826024369536,30.3647508535176,0.9323349251034846,-113.5981404,31.8495552,26.542028999999992
3976.794,38.6504614,-189.569922,-51.287835,-0.8251142,-0.344333,0.9867492,-19.2192442,31.4031952,-154.8191712,33.7230028,24.5079368,6.578079400000002,-0.8820479999999999,-0.199905,-0.2878834,-134.253775,66.906363,-129.863394,200.15258057918263,1.3315602283153698,42.20368482294296,0.949129883274444,-115.0345308,35.5031678,24.955777199999996
3996.777,38.2326476,-200.489438,-50.4286712,-0.7860151999999999,-0.3486711999999999,0.9996536,-18.2712592,27.310952800000003,-154.442279,37.545257,38.5616834,14.407263,-0.8503114,-0.2014252,-0.3118896,-135.3176026,66.5582992,-131.8250946,210.23986532306225,1.3185972927067005,55.71551827802604,0.9278344199010728,-117.0463434,39.247346400000005,22.6171844
4016.761,38.1601438,-209.9299836,-49.38621740000001,-0.7264934,-0.3449792,0.9928426,-17.3475732,23.0403486,-154.06590880000002,48.3456514,54.3321796,20.5938398,-0.8559276,-0.2117252,-0.332993,-137.242749,65.82045360000001,-135.24703979999998,219.01094278189163,1.2777087841331296,75.58699615069408,0.9425093924231206,-119.89517580000002,42.780105000000006,18.818869
4036.745,36.6279394,-217.2581056,-48.3314314,-0.6567258,-0.3434941999999999,0.9786028,-16.485513,18.621571,-153.70481560000002,57.1959054,66.9624148,23.0713098,-0.8541696,-0.2233584,-0.356359,-139.30299680000002,64.888143,-139.02907720000002,225.5628906863089,1.227575041285509,91.0363769394443,0.9520958025827652,-122.8174838,46.266572,14.67573839999999
4056.729,33.844673,-222.4353426,-47.5734252,-0.577117,-0.338917,0.9656436,-15.7115032,14.0903704,-153.3723144,61.41653219999999,77.14982760000001,23.8424928,-0.8602675999999999,-0.2307622,-0.3667146,-141.42969680000002,63.7801344,-143.0005676,229.96994219531447,1.1749026882252671,101.45220938501738,0.9632191518090574,-125.7181936,49.689764,10.371746799999988
4076.726,32.0532832,-226.2041536,-46.2818672,-0.4847751999999999,-0.327326,0.9551096,-15.0044942,9.484115,-153.05979299999998,61.2148484,75.74825139999999,21.8850292,-0.8328057999999998,-0.2660784,-0.3773082,-143.2699862,62.62178180000001,-146.6808654,233.10457589097263,1.119992702129438,99.81988658517618,0.9522209267010674,-128.265492,53.1376668,6.378927599999986
4096.697,29.7261512,-228.5375582,-44.2720382,-0.3962859999999999,-0.3213516,0.9288306,-14.3731022,4.840066,-152.75428459999998,59.1358766,60.73928,17.7775196,-0.8109482,-0.2949962,-0.384952,-144.52829300000002,61.6129134,-149.686395,234.67652830985443,1.059733800590941,86.61611997369317,0.9449062299517768,-130.1551908,56.7728474,3.067889599999984
4116.681,26.4420894,-229.2005892,-41.2643478,-0.3058838,-0.296658,0.8824808,-13.8341984,0.1948603999999999,-152.4365264,51.326988400000005,39.9590826,14.4206958,-0.7998651999999999,-0.3182992,-0.3815522,-144.76814900000002,61.096147,-151.1341214,234.3818264730099,0.9799710355082336,66.62690513451376,0.9416372975920824,-130.9339506,60.901286600000006,1.3024049999999818
4136.665,21.4707584,-228.1394868,-38.7978386,-0.2106572,-0.2791682,0.8551459999999999,-13.4199418,-4.42034,-152.1139586,42.0929968,24.5283826,11.089776400000002,-0.8204062000000001,-0.3209322,-0.3856004,-144.72559819999998,60.7958846,-152.0578702,232.40888791883623,0.9238971918558252,49.96443808529012,0.9616399942158396,-131.3056564,65.2162246,0.0560883999999873
4156.649,20.6803852,-225.6457764,-36.1865212,-0.1270311999999999,-0.2626118,0.840962,-13.0456342,-8.976786200000001,-151.7809996,32.4022294,10.3502996,8.8721428,-0.8089628000000001,-0.2840169999999999,-0.4048116,-144.5161652,60.7034476,-152.5692258,229.46276180621817,0.8901230076324732,35.15320881176533,0.9481344311685976,-131.470531,69.6802338,-0.788226200000014
4176.633,20.9309708,-222.1250244,-33.7304302,-0.0585195999999999,-0.2448153999999999,0.8027622000000001,-12.6928326,-13.4549542,-151.4402556,21.4349644,-4.201872799999999,10.479337400000002,-0.8225814,-0.2424897999999999,-0.4126317999999999,-144.3071136,60.8830734,-152.82043119999997,225.64435274300155,0.8413003467312731,24.226637121145927,0.9516861169005462,-131.614281,74.3380276,-1.3801756000000125
4196.617,21.055409200000003,-217.945703,-31.8327054,0.0042384,-0.209777,0.7619507999999999,-12.3613482,-17.845832,-151.10212399999998,10.910031399999998,-9.6332788,13.9336236,-0.8665836,-0.2299804,-0.4294784,-144.3248076,61.2001046,-153.08269019999997,221.26224451050575,0.7903122012117743,20.148814163964893,0.994137724985668,-131.9634594,79.04593659999999,-1.9805662000000095
4216.601,21.2281826,-213.0174682,-30.6069008,0.0724742,-0.1923316,0.7317802,-12.0466418,-22.1261976,-150.7781494,-1.6440748000000007,-9.2035098,16.4274272,-0.8707174,-0.2178492,-0.4482357999999999,-144.70665259999998,61.5323282,-153.46662579999995,216.24953149410055,0.7600961880816401,18.901532715576028,1.0032558980664106,-132.6600108,83.6585258,-2.6884764000000074
4236.585,21.4778346,-208.0921906,-29.546772,0.1302938,-0.1651349999999999,0.7091234,-11.7402352,-26.3016812,-150.4710328,-13.1108522,-15.2451886,19.262138200000003,-0.8539220000000001,-0.2219342,-0.4484033999999999,-145.2725706,61.9865908,-153.8011778,211.2739191273539,0.739663463320313,27.844931116734948,0.9896985300308372,-133.5323354,88.288272,-3.33014500000001
4256.569,22.558223200000004,-202.6056946,-29.1134914,0.1896794,-0.1441973999999999,0.6813442000000001,-11.4131306,-30.366219800000003,-150.196573,-24.1943036,-30.170844,19.199897600000003,-0.8745622000000001,-0.2625613999999999,-0.4222469999999999,-145.705969,62.68775960000001,-153.74481799999998,205.9260457052176,0.7218040480800589,43.17731142870981,1.006026868154027,-134.2928384,93.0539794,-3.5482450000000085
4276.553,25.1986994,-196.5744782,-28.540834,0.2514966,-0.1249342,0.654934,-11.0289078,-34.2982964,-149.95784,-31.371941400000004,-36.220514,9.478514800000005,-0.8879914,-0.2786501999999999,-0.3673364,-144.1359556,64.3053704,-150.6308288,200.2275683727628,0.7125992130905001,48.84635692089073,1.0005551914806898,-133.10704779999998,98.6036668,-0.6729888000000074
4296.537,24.2813452,-190.3453004,-28.0759356,0.3160028,-0.096296,0.6167035999999999,-10.6398342,-38.1074768,-149.76842960000002,-37.9022392,-37.54169520000001,-2.5941443999999985,-0.8914177999999999,-0.2722828,-0.3111511999999999,-142.11810599999998,65.7849504,-146.90012499999995,193.9308517717156,0.6996099052163283,53.41056262605527,0.98263863479619,-131.4782718,103.8924272,2.868304599999988
4316.521,20.134201,-183.602121,-28.1082228,0.3746902,-0.0889502,0.5996286,-10.312409,-41.795406400000005,-149.6312866,-38.27686200000001,-40.783022200000005,-13.117109599999996,-0.8980708,-0.2703413999999999,-0.2720024,-139.5662628,67.1733834,-142.5883696,186.82932605611327,0.7126425064462826,57.44938318721229,0.9765249305431788,-129.2538538,108.9687898,7.0429169999999885
4336.505,19.3513104,-176.92436819999998,-27.3908346,0.4261520000000001,-0.0792808,0.5658443999999999,-9.9796678,-45.3554764,-149.5325896,-35.0697788,-35.4829032,-18.5983174,-0.8702574000000001,-0.2380758,-0.2211514,-136.8924988,68.421321,-138.2135192,180.07488191652624,0.7127908931545072,53.2430579014076,0.9289434700359114,-126.912831,113.7767974,11.319070399999992
4356.489,15.8787584,-170.1195098,-26.0097418,0.473258,-0.0612819999999999,0.5217552000000001,-9.708414,-48.7829064,-149.45158680000003,-35.837373,-23.6437344,-21.1902028,-0.926297,-0.2585058,-0.167188,-134.3870972,69.43492119999999,-134.01187420000002,172.82733942122854,0.7070764504740913,47.87868183883094,0.9761163906966422,-124.6786832,118.2178276,15.439712599999996
4376.473,8.2013774,-163.407727,-25.6160644,0.5295228000000001,-0.0625434,0.4724321999999999,-9.571152,-52.0886392,-149.4039,-32.484761400000004,-11.6287308,-11.6012738,-0.9107944,-0.2499586,-0.160517,-134.1107576,69.4446244,-133.0298978,165.60655358381413,0.7123891185302033,36.40160239627323,0.958014325610176,-124.5396056,121.53326359999998,16.374002199999996
4396.456,5.906412,-154.9101348,-24.817062,0.5795776,-0.0673826,0.429453,-9.4697024,-55.2289796,-149.3779172,-25.126450400000003,-1.8471066,-1.327487399999999,-0.8999877999999999,-0.2425044,-0.1473227999999999,-134.4566468,69.4550964,-132.86801119999998,156.99656726431877,0.7244863617857275,25.22920005256969,0.943658005618582,-124.9869444,124.684076,16.509906
4416.44,2.3811568000000007,-146.17878860000002,-23.7177296,0.6373576,-0.052429,0.3725163999999999,-9.4189324,-58.201410800000005,-149.3749632,-23.995741,2.2293286,16.3055752,-0.9160372,-0.2948518,-0.1104581999999999,-135.64636839999997,69.6530884,-133.6285306,148.10955013654046,0.7400959252608542,29.097032060825622,0.9686396387172684,-126.22743599999998,127.8544992,15.746432599999997
4436.424,-3.5633462,-136.28424360000002,-22.59099,0.6913910000000001,-0.0606426,0.3082552,-9.4926046,-60.9828156,-149.373172,-16.335865599999998,4.334586799999999,23.8053658,-0.9365794,-0.3148907999999999,-0.1728838,-137.0674622,69.9073564,-134.79734159999998,138.18988862773318,0.7594210348303503,29.194941145681508,1.003108168011526,-127.5748576,130.890172,14.57583039999999
4456.408,-9.4476202,-125.400601,-21.2035174,0.7424956,-0.0689036,0.2308587999999999,-9.6865158,-63.542900200000005,-149.37132259999998,-4.6230642,8.377453800000001,33.5222904,-0.8854424,-0.306069,-0.1938922,-138.8459962,70.22463239999999,-136.59198580000003,127.53100567601884,0.7806043861327965,34.86113033781877,0.9567030164578764,-129.1594804,133.7675326,12.779336799999982
4476.392,-14.537914999999998,-112.0228926,-19.0959808,0.7864858000000001,-0.059501,0.1666272,-9.9969112,-65.83461700000001,-149.3541444,4.6644472,7.589919399999999,35.914225,-0.9397354,-0.2955514,-0.1931038,-140.5625276,70.580269,-138.5144438,114.56498558343353,0.8061419889712235,37.00264181826359,1.003863700723141,-130.5656164,136.414886,10.83970059999998
4496.376,-21.3258486,-97.4443114,-16.7918686,0.8397226,-0.0643628,0.109439,-10.4665372,-67.827192,-149.3129214,3.536992199999999,11.3933562,35.8184628,-0.945515,-0.2966783999999999,-0.2301477999999999,-142.45048839999998,70.852347,-140.5910948,101.15410270379525,0.8492664538857048,37.75289600385543,1.0173419769656613,-131.9839512,138.679539,8.721826599999975
4516.361,-25.1129126,-80.0443718,-13.8867794,0.8692949999999999,-0.0743921999999999,0.0370182,-11.0276272,-69.4603592,-149.2539186,10.0118818,13.3981766,30.404026200000004,-0.929789,-0.2731504,-0.2509288,-144.1000186,71.0088396,-142.5499846,85.03294936797228,0.873257318078171,34.700918180247704,1.00104145179438,-133.0723914,140.46919880000002,6.703933999999981
4536.344,-30.2489604,-58.7054674,-11.2216888,0.9015772,-0.0706888,-0.0182066,-11.6245518,-70.6578186,-149.26297300000002,9.8060544,14.641814,30.4029356,-0.9578804,-0.2227476,-0.1855064,-145.81775539999998,71.1311448,-144.574597,66.9869973013963,0.9045274093629446,35.14085817398463,1.0007816837107282,-134.1932036,141.7889634,4.688375999999988
4556.328,-36.6351444,-35.88602279999999,-8.945638200000001,0.9288708,-0.0525156,-0.0343948,-12.2351288,-71.3992508,-149.391681,3.1359192,11.310971399999998,23.7663922,-0.9915413999999998,-0.171081,-0.1961375999999999,-147.2704104,71.22380840000001,-146.17736799999997,52.05732302391537,0.93098971723808,26.50685687600036,1.0251307304967108,-135.0352816,142.6230592,3.2143129999999926
4576.312,-42.0755274,-12.2432646,-6.1463664,0.9380788,-0.0532696,-0.0408914,-12.8374776,-71.6666534,-149.64320379999998,-2.059730600000001,7.5456612,21.561678,-0.9350026,-0.1596669999999999,-0.2387284,-148.64708879999998,71.3316758,-147.58785079999998,44.24958026893377,0.9404794478815368,22.93655273282029,0.978117918178744,-135.80961119999998,142.9983292,2.0553529999999967
4596.296,-46.9855606,12.3126322,-2.9712331999999995,0.9275854,-0.049399,-0.0295502,-13.4084494,-71.44099279999999,-150.03115540000002,4.431402799999999,-7.9452094,21.701944000000005,-0.9241798,-0.1493776,-0.2510096,-149.42222619999998,71.6994508,-148.50082379999998,48.6628404772834,0.9293697594683186,23.531639478898036,0.9692408314768626,-136.0137768,143.1404436,1.5303315999999996
4616.281,-50.4201158,36.2040316,0.8863016,0.9147416,-0.0388714,0.0110167999999999,-13.944882799999998,-70.732666,-150.5286012,-5.208477800000002,-3.3044114000000007,21.5297866,-0.9116689999999998,-0.0785922,-0.2770932,-150.597101,71.9705888,-149.624063,62.07822091446702,0.9156334148504848,22.39596139340936,0.956084588803773,-136.6522182,142.70325480000002,0.904538199999996
4636.264,-49.8825662,57.4496228,6.4867272,0.8995850000000001,-0.0319456,0.0449132,-14.4775728,-69.58529060000001,-151.01968399999998,-13.6216094,-9.608751000000002,21.008078000000005,-0.971938,-0.1063543999999999,-0.2793764,-151.75719320000002,72.3385714,-150.5532714,76.35972236936749,0.9012718175548374,26.818196801430435,1.016870644241597,-137.2796204,141.923862,0.4664125999999896
4656.248,-48.467238,78.09813919999999,13.628061400000002,0.8779112,-0.0469804,0.0575119999999999,-15.058682,-68.0030426,-151.4310182,-8.6722716,-20.125332,26.482045000000006,-0.9610474,-0.047673,-0.3056358,-152.89180000000002,72.9383548,-151.5568908,92.91994706936389,0.8810464591686412,34.37347800552652,1.009602923043213,-137.833118,140.9413974,-0.1258726000000081
4676.232,-48.8553926,97.7964562,21.144844,0.8574118000000001,-0.0449632,0.085906,-15.727419,-66.0022636,-151.7596344,-6.8888674000000005,-22.2934546,31.280947000000005,-0.9483534,-0.0824606,-0.3061437999999999,-154.31938480000002,73.6153186,-152.89844340000002,111.34675863788308,0.8628768886518401,39.02502091317637,0.9999489727592904,-138.5919658,139.6175822,-1.138809000000009
4696.216,-47.7373628,115.02638240000002,28.9513842,0.84002,-0.0443056,0.1173146,-16.4683764,-63.6288672,-151.98979500000002,-7.391879,-12.966981799999996,40.95918300000001,-0.9383872,-0.072783,-0.3203007999999999,-156.80428780000005,74.18563400000001,-155.3234862,127.85971649517242,0.8493287360995859,43.59400376404606,0.9942135106170504,-140.3359114,137.8145012,-3.33369120000001
4716.2,-44.2605454,130.3743362,37.1297162,0.8139254000000001,-0.0608306,0.1517736,-17.237381,-60.91960300000001,-152.1160064,7.404014200000001,-19.9021034,46.72190020000001,-1.0040032,-0.094908,-0.3106382,-159.2840394,74.889563,-158.0450774,142.6011193637295,0.8301868129032647,51.32103958725752,1.0552374355440013,-142.0466584,135.809166,-5.92907100000001
4736.184,-43.0795312,144.2509872,44.263955,0.7775947999999999,-0.0758038,0.1648818,-18.0271158,-57.9040756,-152.1953094,17.2617924,-24.4379722,50.4614548,-0.990105,-0.075905,-0.2971066,-161.92620240000002,75.6849976,-161.1318114,156.91874020915526,0.7984897601426834,58.66466042381148,1.0365046125384876,-143.8990866,133.58907319999997,-8.936502000000008
4756.168,-44.3018136,156.7710418,51.1333474,0.7379982,-0.07439,0.2416307999999999,-18.8605308,-54.6098282,-152.2502532,14.4636502,-15.855638999999996,49.5527306,-0.9576898,-0.1340522,-0.265696,-164.9835206,76.2837798,-164.5862548,170.7466821101821,0.7801029796199217,54.0006627285486,1.00286295662213,-146.1229898,130.893608,-12.336001600000014
4776.152,-49.410752200000005,162.8493042,62.103386,0.6945876,-0.0816534,0.4205389999999999,-19.9222774,-51.1248758,-152.131424,11.91721,-11.263594399999995,49.4498894,-0.9675118,-0.1173222,-0.2419579999999999,-168.40488299999998,76.7471266,-168.35718079999998,181.15780100249324,0.8160712360611173,52.09779280031011,1.004184871184624,-148.4826056,127.8720024,-16.225756800000017
4796.136,-46.010049,167.9877808,75.9610108,0.6105312,-0.1827752,0.3703276,-21.0622676,-47.440056000000006,-151.7939514,10.769213400000002,-13.021068599999998,43.962670200000005,-1.0262467999999998,-0.1021441999999999,-0.1783738,-171.56557019999997,77.17424919999999,-171.8290162,190.01814194662825,0.7370872751786183,47.0982011955299,1.0466294208698317,-150.5033026,124.6143052,-20.03506480000001
4816.12,-42.2937092,173.68975840000002,82.94074880000001,0.4929044,-0.1270182,0.3640446,-22.1444478,-43.594368,-151.4242646,2.5143558000000006,-12.711083399999998,35.43886440000001,-1.004576,-0.051288,-0.162521,-174.387137,77.540184,-102.7743774,197.068662710359,0.6257929701265108,37.73336370180026,1.0189290820076733,-152.2426892,121.134552,48.64988719999999
4836.104,-51.1998126,179.679007,86.8250506,0.3983336,-0.2264618,0.4832204,-23.3711828,-39.6117378,-151.1155336,-7.845389599999999,-4.761694199999999,30.0196922,-0.9402872,-0.0350272,-0.190272,-105.174042,77.6999876,-33.46797180000001,206.0207654059992,0.6659253402029089,31.391173750161727,0.959984560921518,-81.80285919999999,117.3117254,117.6475618
4856.088,-32.3286494,183.2771882,88.04483359999999,0.2592366,-0.2626938,0.5598044,-24.181862,-35.555839000000006,-150.8796084,-7.862688199999999,0.4480738000000013,29.018634400000007,-0.958712,0.0051445999999999,-0.1999586,-36.00791339999999,77.7222838,35.794925,205.8823984953013,0.670516676598994,30.068318514701307,0.9793562209773928,-11.826051399999994,113.2781228,186.6745334
4876.072,-14.0397452,190.5539612,80.9184114,0.1904736,-0.2870595999999999,0.524375,-24.467095,-31.4167696,-150.927225,-4.8716518,3.792156200000001,25.910654200000003,-1.0057656,0.046541,-0.208235,33.497589000000005,77.63941179999999,105.3450104,207.49871295454264,0.627417362585799,26.63598019554789,1.0281499511498116,57.964684,109.0561814,256.2722354
4896.056,-11.5126624,196.9795044,68.731682,0.1243846,-0.2818352,0.6500138,-24.5194838,-27.2580562,-151.3126254,-1.0627623999999998,10.1637734,25.858748400000003,-0.9717876,0.0575672,-0.2455746,103.1984892,77.3745574,175.01524360000002,208.9437978494579,0.7193195040221279,27.804794954466107,1.003988050822698,127.717973,104.63261359999998,326.327869
4916.04,-13.374845,201.5383454,62.86332480000001,0.1095832,-0.3813782,0.7584372,-24.5543508,-23.0643926,-151.8504458,7.0095772,18.9386264,31.4695148,-0.9655028,0.0643042,-0.27453,172.7854338,76.88784319999999,172.3993164,211.5381496332376,0.8559700903076696,37.39165821662575,1.0058316995628445,197.3397846,99.9522358,324.2497622
4936.024,-1.8821060000000005,202.3887176,62.1636712,0.098192,-0.3213586,0.7654569999999999,-24.3817984,-18.8596014,-152.3810274,15.4161258,24.845398,35.58434580000001,-1.015207,0.0736674,-0.2791824,170.43193660000003,76.2625366,169.6667968,211.72873530021727,0.8359649738517517,46.056448001054186,1.0554690668804652,194.813735,95.122138,322.04782420000004
4956.008,-14.1271636,202.2046416,64.4244286,0.0974052,-0.3738214,0.7611638000000001,-24.4928404,-14.6389676,-152.866382,18.2381366,27.297617,34.61732500000001,-1.031924,0.0635976,-0.2888996,168.4529998,75.5775878,167.2535216,212.689446932381,0.8535810111028947,47.70900031099556,1.073487203175669,192.9458402,90.2165554,320.1199036
4975.992,-18.5761624,202.7180968,71.6538934,0.0258088,-0.4320024,0.7289254,-24.74792,-10.3553,-153.2145844,16.9979774,30.8933144,31.75652100000001,-1.019371,0.0588226,-0.3068518,166.8925536,74.8184172,165.29079280000002,215.8100577338876,0.8477171736660524,47.45318468060495,1.0661779218662335,191.6404736,85.1737172,318.5053772
4995.977,-21.4296594,202.6719696,80.4298242,-0.0008221999999999,-0.3791602,0.7688302,-25.1096016,-5.996474999999999,-153.4242706,11.7014934,32.547484600000004,25.68337080000001,-1.0314067999999998,0.0643349999999999,-0.3040003999999999,165.8228698,74.05556,163.9410034,219.09841209918943,0.8572415118908556,43.080148992636666,1.077197856715005,190.9324714,80.052035,317.365274
5015.96,-17.8321204,199.9712004,87.57093060000001,-0.0800533999999999,-0.3862036,0.8104929999999999,-25.4400952,-1.6280848,-153.5139924,0.0321746000000004,30.842269800000004,15.582185800000008,-1.041589,0.0589211999999999,-0.2954696,165.28451840000002,73.3823926,163.3818084,219.0322656448749,0.901366002550307,34.555045303495106,1.0842885396676478,190.7246136,75.0104774,316.8958008
5035.944,-11.938425600000002,199.1881622,91.5428514,-0.1906851999999999,-0.4241921999999999,0.8221078,-25.6707444,2.7580308,-153.5535432,-11.8741272,26.8823602,3.7615372000000056,-1.0329044,0.0589847999999999,-0.3034032,165.24794620000003,72.8433546,163.5931916,219.54166713601936,0.9445428009681296,29.62778001793769,1.078157784343572,190.9186906,70.0853238,317.1467348
5055.928,-9.898238,201.0856416,91.6497498,-0.2674723999999999,-0.3870234,0.7973844,-25.8815576,7.178475000000001,-153.6289856,-18.9918272,23.1665026,-5.550701799999994,-1.0186062,0.0686526,-0.3125228,165.5869752,72.4186782,164.3472718,221.2082435434785,0.92582421564392,30.46615554320876,1.067680790632219,191.4685328,65.2402032,317.9762574
5075.912,-16.770065600000002,201.2811402,88.3769714,-0.3549261999999999,-0.3919492,0.8789042,-26.262713400000003,11.5813534,-153.8073426,-23.8865584,17.450992399999997,-13.882791799999996,-1.018956,0.0688276,-0.3218174,166.23647780000002,72.14246519999999,165.53012400000003,220.46728005370045,1.025704331474095,32.67777097819886,1.07078242766704,192.4991912,60.561111800000006,319.3374666
5095.896,-6.1587844,199.0753082,87.20321200000001,-0.4540293999999999,-0.3835734,0.8635302000000001,-26.4468134,15.9314922,-154.02019660000002,-25.9789868,10.5247318,-20.781102999999995,-1.0152956000000002,0.0713294,-0.3415312,167.1406802,72.0208284,167.0253694,217.42426070548711,1.0483108582686531,34.89315085390132,1.07357188825768,193.5874936,56.089336200000005,321.04556599999995
5115.88,-11.75616,198.6080658,84.0445192,-0.5345712,-0.4444516,0.8745692,-26.7807894,20.24819,-154.32061760000002,-24.157133,4.305089000000001,-24.929084999999997,-0.9997824000000002,0.0673048,-0.3578512,168.2375522,72.02198200000001,168.68484819999998,215.9788237451114,1.1172174713101477,34.97942459525077,1.064026439894348,195.0183416,51.773792,323.0054658
5135.864,-6.834576200000001,197.880017,81.22448440000001,-0.6315732,-0.4515124,0.8295876,-27.0623944,24.525223,-154.70879499999998,-20.5637652,0.0583472000000014,-27.1119184,-0.9843904,0.062805,-0.3708497999999999,169.4931642,72.0951004,170.435196,214.01081614208132,1.1362058529974923,34.028340584353174,1.0538019272126995,196.5555586,47.56987740000001,325.143991
5155.847,-7.672947200000001,192.6785856,78.76759059999999,-0.7067713999999999,-0.4228577999999999,0.8491630000000001,-27.401520999999995,28.685482,-155.1366332,-19.3789172,-3.1976263999999985,-30.812952999999997,-0.9884124,0.055746,-0.3723501999999999,170.98622740000002,72.230696,172.409079,208.298451257996,1.182967595265314,36.54046139580946,1.05769152423086,198.3877484,43.545214,327.5457122
5175.832,-4.9252578,185.3334104,77.2701342,-0.7970037999999999,-0.4045435999999999,0.8290979999999999,-27.711668,32.693545799999995,-155.559204,-20.2218582,-7.180470799999999,-33.392729,-0.9863686,0.0700896,-0.3461778,172.5759582,72.44645080000001,174.504782,200.8566772954718,1.2191284079699725,39.69328734229505,1.0476996880342,200.2876262,39.752905000000005,330.063986
5195.815,-8.646079,180.1603086,72.01183499999999,-0.9011906,-0.4620495999999999,0.8323839999999999,-28.1744446,36.5610904,-156.08205560000002,-24.6135754,-9.618392,-36.00097179999999,-0.9670396,0.0756708,-0.332723,174.2378936,72.702037,104.7683898,194.2117294526484,1.3109147393497869,44.65883483904997,1.0254736723435662,202.4123382,36.1409466,260.8504454
5215.8,-0.3745639999999993,172.8011442,66.8505006,-0.9924712,-0.4521166,0.8042766,-28.570739600000003,40.2454384,-156.7046996,-27.300199000000003,-10.0494894,-37.7529096,-0.9346654,0.0567385999999999,-0.349023,175.99795820000003,72.953572,35.187945400000004,185.2818533086549,1.355090163838761,47.661045791149874,0.999317633796242,204.5686978,32.70813360000001,191.892645
5235.784,-2.3943482,160.2117736,62.5036774,-1.0427114,-0.4032908,0.8019306,-29.0252464,43.6708008,-157.31969600000002,-24.1910076,-6.483673799999998,-36.0492934,-0.8904894000000001,0.0287742,-0.3583826,105.7683014,73.1112366,-34.4507326,171.98911300394502,1.3758572674049296,43.89526659319143,0.9603319291165738,134.79354780000003,29.440435800000007,122.8689634
5255.767,-6.524634999999999,146.5692246,58.6498352,-1.1042704,-0.4672116,0.8047686000000001,-29.5675814,46.8157852,-157.9102812,-18.4627268,2.5556544000000017,-32.34428899999999,-0.8781302,0.0048825999999999,-0.3538766,35.4548952,73.06555639999999,-104.30026859999998,158.0028848809908,1.4440748924611493,37.330372101268935,0.9467656182827722,65.0224766,26.249771200000005,53.61001259999999
5275.751,-1.3073245999999994,132.9603608,55.063205,-1.1206764,-0.4658628,0.7634212,-29.9804194,49.6782128,-158.4500058,-11.634949200000005,17.103233600000003,-29.81890419999999,-0.8758438,-0.0290537999999999,-0.3742258,-34.8814664,72.69978319999998,-174.31934500000003,143.91707051822576,1.4337906648288097,36.291317007674536,0.9528858455652072,-4.901046999999994,23.0215704,-15.869339200000008
5295.735,-1.3837499999999994,116.6626038,49.5698692,-1.1125226,-0.4660796,0.7827374,-30.3810904,52.182042,-158.9467924,-0.8736060000000023,32.8037396,-26.620823399999995,-0.8847676,-0.0612025999999999,-0.3711328,-105.2749968,72.01001579999999,-172.6235198,126.7645448142476,1.4379202225456318,42.25537548859117,0.9614047116029544,-74.8939064,19.8279738,-13.67672740000001
5315.719,0.0578138000000002,98.8818376,45.584951800000006,-1.0705696,-0.420783,0.7676564,-30.6582862,54.3274216,-159.30475760000002,8.368649799999996,47.666284000000005,-22.606420999999997,-0.9380352,-0.0757762,-0.3419728,-175.8607694,71.0255204,-171.3207212,108.8834651367992,1.382922250162358,53.41497168653127,1.0012978901732092,-145.20248320000002,16.6980988,-12.01596360000001
5335.703,-4.047900199999999,82.909227,39.3307274,-1.0218532000000002,-0.4489744,0.810066,-30.9791082,56.1271926,-159.60238020000003,11.557961999999998,52.37780300000001,-24.3303498,-1.0083483999999998,-0.0707366,-0.3164104,-174.4387754,69.948143,-170.0655606,91.85440400753684,1.3791188848542393,58.89810399402185,1.0591910609471171,-143.4596672,13.8209504,-10.46318040000001
5355.688,2.1974310000000004,66.87875439999999,32.8476238,-0.9740568,-0.4404874,0.8205874000000002,-31.114230600000003,57.586065600000005,-159.818402,10.2466252,44.217821400000005,-29.829174399999992,-1.0426452,-0.0718149999999999,-0.3006741999999999,-172.843817,69.0160812,-168.5834166,74.54235629762185,1.3476570336045297,54.31379845616755,1.087506957151852,-141.72958640000002,11.4300156,-8.765014600000006
5375.671,3.4755584000000006,48.9435852,24.559649200000003,-0.9370296,-0.4486470000000001,0.8320638,-31.1698172,58.65737299999999,-159.96116339999998,3.9379455999999977,27.5232814,-35.48606339999999,-1.0605842,-0.0810492,-0.2809864,-171.0739012,68.3942994,-166.76898179999998,54.87012308395645,1.331029214238215,45.08102849537668,1.100164158248777,-139.90408399999998,9.7369264,-6.807818400000008
5395.655,4.7365854,29.8449326,16.6247238,-0.9093182,-0.4393163999999999,0.8512434000000001,-31.107960400000003,59.3341758,-159.985791,-7.218321800000003,6.8979328,-42.0468868,-1.0768892,-0.0960978,-0.265924,-169.0796018,68.1403428,-164.4708464,34.4896605459712,1.3207853020849982,43.21604257788634,1.1133915349136978,-137.9716414,8.806167,-4.485055400000005
5415.639,6.0952564,10.7018104,8.0983226,-0.9021876,-0.4473528,0.8561418,-30.9397216,59.6008384,-159.9121856,-16.507060000000003,-15.217305399999995,-50.398893,-1.039581,-0.1255792,-0.2718258,-166.6713132,68.2488984,-161.5290434,14.739868566339384,1.3217585917893024,55.17334346499148,1.0818447469851111,-135.7315916,8.64806,-1.6168578000000082
5435.623,9.7241554,-8.951801999999999,-0.7212536,-0.9156412,-0.4419392,0.8603987999999999,-30.6198734,59.4391022,-159.7418548,-20.9503568,-29.4583172,-53.9641854,-0.9961602,-0.1740754,-0.2765316,-163.9659972,68.5651216,-158.181088,13.236848720373974,1.3319140958318294,64.95262279684088,1.048383095413008,-133.34612380000002,9.1260194,1.5607667999999932
5455.607,13.6357596,-28.3741722,-9.294877199999998,-0.9303667999999998,-0.4294717999999999,0.8580207999999999,-30.150503800000003,58.8545632,-159.4797484,-20.601522800000005,-35.1158162,-56.2375192,-0.9694972,-0.2178659999999999,-0.2958844,-160.95916440000002,68.90389719999999,-154.5297726,32.824112022525824,1.336498448472769,69.4276735519884,1.036792164769391,-130.8086606,10.049334,4.949975799999987
5475.591,17.072586199999996,-47.277719000000005,-16.9271292,-0.9433376,-0.4050190000000001,0.8732362,-29.543467600000003,57.8642608,-159.12953779999998,-14.413746200000002,-34.699655,-58.3960526,-0.9464504,-0.254471,-0.297871,-157.65858459999998,69.13140580000001,-150.70442780000002,53.03945339417521,1.3477639551958644,69.4400539739062,1.024329528102241,-128.115117,11.267145,8.425109999999984
5495.575,19.9159062,-65.9605682,-22.8194644,-0.9529818,-0.3959354,0.871611,-28.7887426,56.47922140000001,-158.65890480000002,-1.9035182000000013,-32.743711,-60.02530979999999,-0.92803,-0.2787951999999999,-0.2992532,-154.0138764,69.2202164,-146.7835722,72.58214541150542,1.350794169155834,68.4018406782685,1.0141592193306137,-125.2251338,12.740995000000002,11.875332599999984
5515.559,22.462917,-84.34676440000001,-28.125649,-0.9609874,-0.379203,0.8767146,-27.9041372,54.7040468,-158.0805906,10.1084858,-30.5225412,-61.74736779999999,-0.9466872,-0.2706644,-0.2702118,-150.08834539999998,69.1717804,-142.8198852,91.70611449935711,1.3549613234409756,69.61712746661539,1.0210241372908089,-122.1842082,14.4677336,15.260705399999985
5535.543,24.4737752,-102.0367586,-33.095034600000005,-0.9636048,-0.3702468,0.8887162,-26.9366824,52.556209,-157.435742,16.2582178,-27.715722400000004,-64.4523024,-0.9570126,-0.2798862,-0.2658288,-146.03699339999997,68.9566956,-138.8490448,110.02612005024083,1.362142939502209,72.01798524568112,1.0319274937797906,-119.100311,16.4004866,18.586697199999985
5555.527,27.058888000000003,-119.18505260000002,-37.5985324,-0.9632248,-0.3669882,0.8981042,-25.9037982,50.0534266,-156.76683640000002,23.8279966,-25.2245496,-62.9499342,-0.9482982,-0.2595432,-0.239004,-142.0766388,68.6423494,-135.126712,127.87067616031116,1.3671406322437791,71.88007749214522,1.0118078181183816,-116.1728406,18.5889228,21.640124399999983
5575.511,28.930978,-135.75022600000003,-41.5319054,-0.958164,-0.372442,0.906076,-24.8389614,47.21037320000001,-156.0821684,29.4503544,-23.0840514,-58.86915419999999,-0.9408732,-0.2348344,-0.2221572,-138.3744202,68.2854584,-131.7906692,144.87934467425686,1.3703156614576073,69.75510102886253,0.9948584800932444,-113.5354588,21.0750852,24.291499199999983
5595.495,31.0812678,-151.1515,-44.8261856,-0.9456474,-0.371024,0.9098598,-23.767276,44.06669480000001,-155.4266508,30.2384394,-19.9471256,-51.06759219999999,-0.9454734,-0.2205346,-0.2249259999999999,-135.18816220000002,67.93377699999999,-129.01339560000002,160.69289989215753,1.363727490871545,62.611101333191286,0.9965676923223632,-111.4208862,23.8670822,26.413255199999988
5615.479,31.2955454,-165.4787048,-47.505256,-0.9228314,-0.3758912,0.922186,-22.7431748,40.6526238,-154.8121916,32.551356,-18.6920278,-43.84183499999999,-0.9365346,-0.2240066,-0.2447632,-132.3822236,67.6012162,-126.6830184,174.9838914065936,1.3576962125819605,57.715588681758526,0.9935718584556228,-109.6390488,26.948592400000003,28.12917319999999
5635.463,32.997579,-178.1835204,-49.1486726,-0.8868952,-0.3743204,0.934123,-21.7294342,37.0049446,-154.2350218,35.1061454,-14.832175799999998,-35.00787619999999,-0.9192914,-0.2165374,-0.2516984,-130.07810060000003,67.3087144,-124.9388336,187.7599509489189,1.3413741598704665,51.74926356811827,0.977413529820045,-108.3486664,30.3037698,29.29618819999999
5655.447,33.3528144,-189.4423674,-50.430368,-0.8447081999999998,-0.3715436,0.9558074,-20.7560344,33.1500694,-153.6897368,35.5098974,-7.062626599999999,-27.0993672,-0.902619,-0.2302552,-0.2724618,-128.3784332,67.00536819999999,-123.850911,198.85683999081564,1.3285873609751673,45.223989325246286,0.9705534239532,-107.6223988,33.8552988,29.838825799999995
5675.431,34.7766434,-198.9181518,-51.5193816,-0.791272,-0.3645636,0.9624994,-19.809888,29.1234596,-153.1986998,36.6826902,-0.2671014000000006,-19.794297199999995,-0.8872026,-0.2533299999999999,-0.285969,-127.16344139999998,66.70547960000002,-123.312195,208.40367732394992,1.2982384570753247,41.683393637142665,0.9659621169113,-107.3535534,37.58202,29.886504799999997
5695.415,33.3496598,-207.0326386,-52.5572944,-0.7295453999999999,-0.354898,0.9769898,-18.9438664,24.927695,-152.7592284,40.1253966,10.828925,-14.376433599999991,-0.8874846,-0.2561337999999999,-0.2996254,-126.4343398,66.35003520000001,-123.3807756,216.1873780984964,1.2699205291549545,43.97720900669034,0.971086411739326,-107.4904734,41.4223402,29.37845279999999
5715.399,32.5308344,-213.5070862,-53.2035308,-0.6617921999999999,-0.3469272,0.9693596,-18.143253,20.5913798,-152.37420939999998,40.42045900000001,25.0003938,-7.496168599999995,-0.8725674,-0.2559896,-0.3122534,-126.4210372,65.9262224,-124.2348694,222.42784612984275,1.2239221511978775,48.11471437726079,0.9614607265315002,-108.2777842,45.3348426,28.139339999999983
5735.383,32.2377184,-218.9011048,-53.71672120000001,-0.5842913999999999,-0.3359624,0.959343,-17.390595,16.133211,-152.0377012,44.1833396,36.9644924,-0.6332595999999941,-0.8508289999999998,-0.2441907999999999,-0.3097778,-126.9273148,65.4678438,-125.7425156,227.68937240630447,1.1724359965374314,57.610261363055606,0.9378173699705502,-109.5367198,49.3346328,26.2951856
5755.367,30.6818806,-222.8716738,-53.8262932,-0.493649,-0.3121877999999999,0.9356512,-16.702211600000002,11.5796974,-151.7465788,47.6404556,45.3567016,5.785145600000005,-0.8593691999999999,-0.2541754,-0.312507,-127.7659836,65.0026598,-127.700937,231.32321677518368,1.1029930760123927,66.03265328169248,0.9490949272453204,-111.063772,53.4229624,24.04564179999999
5775.35,25.2891184,-224.8397004,-53.64775159999999,-0.3956478,-0.3001114,0.9063342,-16.1504978,6.9682498,-151.5002408,50.8354134,58.8514136,12.232054600000009,-0.8652274,-0.2394734,-0.3412849999999999,-129.1020112,64.453844,-130.28640439999998,232.5306681647526,1.033462972797981,78.72325766890333,0.9604381366039773,-112.9515134,57.4855942,21.2138364
5795.335,22.5401046,-224.639627,-52.9383666,-0.2944721999999999,-0.2968308,0.8872779999999999,-15.6771308,2.3601294,-151.2839476,52.3551354,63.8266508,14.908327200000006,-0.8252767999999999,-0.2473053999999999,-0.3461178,-130.5553866,63.852402000000005,-133.0465896,231.89111451790055,0.980859138554298,83.88778084440983,0.9284607094348364,-114.8782558,61.4922726,18.237358
5815.318,22.6523802,-223.199469,-51.257907,-0.2121083999999999,-0.277278,0.8656078,-15.2231198,-2.2132204,-151.08171380000002,53.1319076,64.4941924,19.03442400000001,-0.799427,-0.2514666,-0.3546658,-132.028351,63.2744586,-135.860727,230.12715250623503,0.9333541268218618,85.70186553135778,0.910003741164947,-116.8052312,65.487679,15.220986799999997
5835.302,20.3668014,-220.6274048,-48.9561652,-0.1316197999999999,-0.2670802,0.8306636000000001,-14.833624,-6.7265592,-150.8810364,49.847728800000006,61.4554724,19.603277,-0.8370198,-0.2830736,-0.3709778,-133.3946046,62.7200144,-138.49881280000002,226.90959534391624,0.8824157871145779,81.522141922083,0.9583096246526172,-118.5609806,69.4465736,12.382223599999993
5855.286,18.4051778,-216.9373016,-46.324623,-0.0666177999999999,-0.2595872,0.7964244,-14.5013118,-11.1518782,-150.6737152,45.0930688,61.2192856,20.775273400000003,-0.8133464,-0.2728626,-0.3847167999999999,-134.80857559999998,62.1556734,-141.09482400000002,222.59046271444583,0.8403066527143767,78.82130275516035,0.9402092219681532,-120.3072638,73.3075516,9.578891199999992
5875.27,18.840992,-212.7147216,-43.4200584,-0.0042243999999999,-0.2297744,0.7711582,-14.1778936,-15.477471599999998,-150.45302740000002,37.865703,49.47912219999999,18.875299600000005,-0.7928352,-0.284738,-0.3716304,-135.9113526,61.70462740000001,-143.1917112,217.91704209714527,0.8046732814490363,65.10201173816752,0.9207456419702458,-121.733459,77.18209900000001,7.261316199999993
5895.254,17.9081278,-208.39873660000003,-41.4062882,0.0484328,-0.2044351999999999,0.744433,-13.884003000000002,-19.7104048,-150.2355042,29.2314774,40.960439,20.856158400000005,-0.7939702000000001,-0.2888008,-0.3727294,-136.9773498,61.384173,-145.0574736,213.22573756532955,0.773511459904687,54.47215965303122,0.9234293617776296,-123.0933468,81.0945778,5.178030599999988
5915.239,15.6542746,-202.828473,-40.3183816,0.1048594,-0.1917606,0.7149896,-13.639837,-23.8308514,-150.04010920000002,22.1456308,33.9760296,20.810465800000003,-0.8241835999999999,-0.3061232,-0.372982,-137.96495059999998,61.15335319999999,-146.68222340000003,207.38856686810664,0.7476481455797774,45.58371461084489,0.9550421940475718,-124.3251136,84.9842046,3.3578857999999854
5935.223,14.9984162,-196.7902374,-39.7548074,0.1625052,-0.167297,0.7020959999999999,-13.4039062,-27.8233484,-149.87918380000002,16.317931199999997,31.1175682,22.19452380000001,-0.8024813999999999,-0.289661,-0.3742807999999999,-139.02165839999998,60.970958,-148.2546294,201.32509713363575,0.7398209374247527,41.55929277596469,0.9316469339377444,-125.6177522,88.7943064,1.6245543999999823
5955.206,15.438757199999998,-190.3641204,-38.9376526,0.2196572,-0.1572344,0.6833737999999999,-13.1586634,-31.6847868,-149.745053,7.942632799999998,24.7200214,19.738497200000005,-0.8253722,-0.2999276,-0.3672834,-139.9898224,60.84485479999999,-149.5413878,194.917916953636,0.7348276618239408,32.615535340179555,0.951889137289716,-126.831159,92.5296416,0.2036651999999833
5975.19,15.476672399999998,-184.2350464,-38.262428400000005,0.2643448,-0.1581922,0.6569989999999999,-12.907342600000002,-35.4272814,-149.6406982,-1.7212188000000013,16.857216,18.16871380000001,-0.8555544000000002,-0.3196444,-0.3673588,-140.902701,60.81742319999999,-150.5502226,188.801729699842,0.7256380857072484,24.84412378359197,0.9844279362899856,-127.9953584,96.2447046,-0.9095244000000208
5995.174,14.400890800000004,-178.25354,-36.69580620000001,0.3207658000000001,-0.1404525999999999,0.6205466,-12.6787464,-39.0403694,-149.545874,-12.9266616,6.292710600000001,14.009008000000003,-0.8919101999999999,-0.3440352,-0.3661398,-141.6551088,60.9005768,-151.1279082,182.56038006926116,0.7125276935445808,20.073591904796984,1.0236807983190463,-128.97636240000003,99.9409462,-1.582034200000021
6015.158,10.824095000000002,-172.8606138,-34.819527,0.3830282,-0.121358,0.595002,-12.5218378,-42.5328392,-149.4521454,-25.7392556,-2.7295619999999987,8.869297600000007,-0.8953580000000001,-0.3486218,-0.3611093999999999,-142.3033266,61.059092,-151.2979704,176.66451906476723,0.7179594321152415,27.36099829083985,1.026451706787806,-129.78148879999998,103.5919312,-1.8458250000000191
6035.142,5.928449200000001,-166.7277342,-33.3632832,0.4404082000000001,-0.1045623999999999,0.5428308000000001,-12.453342799999998,-45.91624899999999,-149.369977,-39.124726,-17.6304756,1.6401296000000056,-0.9121598,-0.3475366,-0.3610803999999999,-142.6702394,61.365255000000005,-150.84435720000002,170.136393894035,0.7067941394420586,42.94494009265897,1.0407671422271938,-130.21689659999998,107.281504,-1.4743802000000188
6055.126,0.0900078,-160.765338,-33.06526219999999,0.495929,-0.1018768,0.5088922,-12.4796834,-49.1852982,-149.31819779999998,-48.9597884,-37.9227718,-3.291569799999994,-0.9126264,-0.3595182,-0.360076,-142.59945699999997,61.9239112,-149.67684020000002,164.1304772673651,0.7178410176634378,62.01638439086821,1.0448899501307305,-130.1197736,111.1092094,-0.3586424000000192
6075.11,-2.5167812,-151.66246940000002,-32.2035094,0.5551022000000001,-0.1012468,0.4384686,-12.534356,-52.27503899999999,-149.2979952,-53.311362800000005,-53.3795564,-7.639785799999994,-0.938523,-0.3483615999999999,-0.3488144,-142.0771456,62.6743568,-147.9089996,155.06419583446885,0.7145936468658535,75.82773089130312,1.0601191968504862,-129.54278960000002,114.9493958,1.3889955999999812
6095.094,-7.114197,-141.1663254,-32.63153140000001,0.6147644000000001,-0.0695212,0.373732,-12.607734,-55.1684838,-149.3676026,-53.158928200000005,-64.8394586,-14.262911799999994,-0.93209,-0.3359776,-0.3328576,-140.9863102,63.50575859999999,-145.5197418,145.06329676180215,0.7228029278999915,85.04973657765466,1.045211412911053,-128.3785762,118.6742424,3.847860799999984
6115.078,-13.655769400000002,-129.1067918,-33.537952,0.6672484000000001,-0.0872382,0.3236606,-12.731312400000002,-57.8443802,-149.54175119999996,-54.3762202,-76.6095956,-24.196001799999998,-0.9343624,-0.3285456,-0.2817744,-139.20057400000002,64.3582802,-142.3446776,134.08891807732968,0.7467175602824405,97.01159706107322,1.0297437148671895,-126.4692616,122.2026604,7.197073599999982
6135.062,-14.350634,-115.2681658,-33.2482902,0.6952006000000001,-0.1035973999999999,0.2548544,-12.7805612,-60.241394,-149.8191192,-56.3858156,-82.5019212,-32.91659659999999,-0.9397692,-0.3256014,-0.2189578,-136.8924746,65.1309624,-138.56537459999998,120.82276087029985,0.7476543725054245,105.21135648918964,1.0183933125916724,-124.1119134,125.3723564,11.253744599999989
6155.046,-13.8441198,-98.7166368,-31.1570702,0.7496334,-0.0700969999999999,0.1811044,-12.7431542,-62.3109358,-150.178537,-57.79149639999999,-77.0070512,-38.253976,-0.916902,-0.3353948,-0.1963193999999999,-134.50459,65.70199740000001,-134.6780196,104.43848456190652,0.7743788656103161,103.601687585093,0.995861564820834,-121.7614358,128.0129332,15.500517399999987
6175.03,-18.2974942,-81.6747568,-29.0616368,0.7947230000000001,-0.0620641999999999,0.1367383999999999,-12.7109816,-64.03873660000001,-150.6281402,-56.70139939999999,-62.9618638,-38.49901319999999,-0.8456170000000001,-0.3166375999999999,-0.164987,-132.43545840000002,66.02792059999999,-131.1719132,88.6010323068151,0.8087855103086355,93.06674489022298,0.9179042382469752,-119.7244768,130.0666572,19.456226999999988
6195.014,-18.5057496,-63.10821500000001,-24.9675124,0.8152913999999999,-0.0813533999999999,0.1150088,-12.6570322,-65.392375,-151.10155019999996,-57.473662,-46.2237676,-35.5011956,-0.8464722,-0.3159036,-0.150923,-130.9709532,66.13821420000001,-128.314595,70.34547778065253,0.8273726286764385,81.85470911229551,0.9160174789788676,-118.313921,131.5305892,22.786955199999987
6214.998,-16.264650800000002,-43.2076568,-19.0633372,0.8461270000000001,-0.0613994,0.0661442,-12.5809788,-66.3256958,-151.54262680000002,-48.4220778,-24.9413208,-21.699256599999995,-0.8306402,-0.2600252,-0.1690378,-130.43047159999998,66.1456008,-126.6681564,49.94848643345893,0.8509264607726099,58.63126161622662,0.8866510160823818,-117.8494928,132.47129660000002,24.87447039999999
6234.982,-18.5647066,-22.2621954,-12.9971124,0.8918984,-0.0483556,0.0542044,-12.5926812,-66.8232698,-151.9351134,-43.2203582,-10.9779856,-8.884672399999994,-0.8308899999999999,-0.2380878,-0.1905596,-130.6407682,66.157544,-125.9565598,31.767571608640445,0.8948514608320646,45.46925262664251,0.8850858454189626,-118.048087,132.98081380000002,25.97855359999999
6254.966,-22.311309400000003,-1.0495825999999997,-7.482185199999999,0.903579,-0.0508905999999999,0.066174,-12.7061462,-66.8826236,-152.2969602,-36.5533698,-0.8110334000000001,5.125982800000005,-0.886566,-0.2060492,-0.2073328,-131.5061216,66.25357819999999,-126.10391380000002,23.5558749814956,0.9074270552972068,36.9199447260876,0.9335108114705905,-118.7999754,133.1362018,26.193046399999997
6274.95,-22.6811306,19.099846000000003,-1.2606125999999995,0.9128232,-0.0330152,0.0931864,-12.8986332,-66.5214708,-152.5804014,-30.927768200000003,2.7935692,13.839468200000008,-0.90719,-0.2329268,-0.2420166,-132.66953420000002,66.4291198,-126.6970716,29.67872885831284,0.9181611530849256,33.9979669210812,0.9673782222759616,-119.770901,132.9505906,25.88332979999999
6294.934,-22.8467918,39.5108724,5.355864800000001,0.9212636,-0.0351442,0.0866462,-13.1744418,-65.7266848,-152.77651039999998,-25.6903018,2.9502052,22.639534800000007,-0.9133064,-0.261199,-0.2223008,-134.02442620000002,66.724333,-127.6114394,45.95400114372532,0.925996381987014,34.3692282901086,0.9755875888727776,-120.8499844,132.4510178,25.16507099999999
6314.918,-23.4005218,59.6826332,11.681682,0.9157452,-0.0305477999999999,0.1100433999999999,-13.5175094,-64.510164,-152.91098000000002,-24.6304808,0.7389156,23.686007400000005,-0.9244258,-0.340135,-0.2666895999999999,-135.3402068,67.0520156,-128.50348060000002,65.1618202672941,0.92283909176597,34.17943134775573,1.0204794072781675,-121.8226974,131.5621796,24.40749939999999
6334.902,-25.725508,77.97232199999999,18.642648,0.8977974,-0.0193984,0.1452462,-13.9871648,-62.9052194,-152.9562682,-11.6250872,6.3314794,29.3002646,-0.8869078,-0.3533226,-0.273361,-136.79109499999998,67.36494880000001,-129.82296000000002,84.19639591088,0.9096773757677828,32.151761840220225,0.993060190367432,-122.8039302,130.2701682,23.133308199999988
6354.886,-27.5790664,94.6986832,26.5588472,0.8743052,-0.0305896,0.1637122,-14.597868,-60.9368904,-152.88372180000002,-3.501386600000001,12.664870400000002,24.16706540000001,-0.8759252,-0.3515384,-0.2813676,-138.1158692,67.4961866,-131.1804658,102.14606144097048,0.8900263989365933,27.50828421438409,0.9848816827413128,-123.5180012,128.433077,21.70325599999999
6374.87,-29.2154136,110.2086258,34.4357,0.8429110000000002,-0.0452651999999999,0.1850144,-15.3184474,-58.6275086,-152.7197326,-1.3070322000000003,17.898779400000002,25.3600476,-0.9014798,-0.3332758,-0.2415712,-139.6141662,67.55318279999999,-132.774341,119.10205299252188,0.8641633065916421,31.067775128836747,0.9910071812772702,-124.2957188,126.1806914,19.945391599999983
6394.854,-31.0952618,123.5224196,42.0773358,0.8121994000000001,-0.0452928,0.2075464,-16.134373399999998,-56.0193604,-152.48304760000002,6.3578162,23.4934546,27.8180314,-0.9152272,-0.2656314,-0.2689946,-141.2508544,67.54814139999999,-134.6820862,134.14620992884954,0.8395205841700132,36.9622389317345,0.9902317724224768,-125.116481,123.5675018,17.800961399999988
6414.838,-35.4823848,134.7626128,48.796035800000006,0.7761614000000001,-0.0646538,0.2440222,-17.0625474,-53.1564584,-152.211609,4.5737044,27.1430078,30.073143800000004,-0.9318386,-0.2139924,-0.2590806,-143.1325592,67.4940962,-136.814868,147.65166626073977,0.8161822509692551,40.76831640361077,0.99057492447774,-126.0700118,120.6505546,15.396740999999992
6434.822,-36.5423836,144.6784118,57.1314798,0.7343604000000001,-0.072631,0.3371039999999999,-18.0498674,-50.0512444,-151.8760682,5.6850798,26.9826434,33.3391114,-0.9569346,-0.190061,-0.2886174,-145.1538634,67.4482634,-139.1190366,159.78483853068704,0.8112949932454657,43.26522305646351,1.017421749315848,-127.103996,117.4995078,12.757031599999994
6454.807,-32.0105674,151.79234,67.1005396,0.6870232000000001,-0.1293068,0.3934114,-19.008103,-46.7417344,-151.42316599999998,5.5353276000000005,21.33624,39.5996712,-0.9603612,-0.1652084,-0.2847218,-147.2745176,67.55416699999999,-141.5260374,169.02092569429593,0.8021805629123908,45.32117549363687,1.015211285049196,-128.26641460000002,114.2959014,9.897128599999991
6474.79,-25.9122342,159.2904876,78.1017664,0.6100742,-0.1514538,0.390011,-19.9011734,-43.212121,-150.8491974,3.364983,14.474143400000004,42.0636612,-0.9672742,-0.1513084,-0.3088202,-149.3852416,67.77753580000001,-143.8748472,179.28967966919225,0.7397549345297266,44.61138342735448,1.0265882942174238,-129.4840682,110.9896568,6.974350199999992
6494.774,-32.1981938,165.9646332,85.93446839999999,0.5220402,-0.190483,0.4744078,-20.9235074,-39.4987344,-150.2305694,-4.495754600000001,9.6670366,42.6364044,-0.9559594,-0.163658,-0.345844,-151.597876,68.0341566,-146.1602812,189.64629186035648,0.7306657952893922,43.949134078039584,1.029684605958718,-130.67436860000004,107.532891,4.070288199999993
6514.758,-19.5939482,171.291571,91.3340944,0.4059316,-0.259797,0.4972986,-21.6790024,-35.642898200000005,-149.6080842,-1.3617898000000008,-4.0540536,41.84001700000001,-0.9845064,-0.1542649999999999,-0.3120828,-153.4222382,68.511563,-148.0949584,195.1067448900228,0.6925177561980054,42.05801760201432,1.044244327694338,-131.7432358,104.1544612,1.5131257999999943
