Timestamp (ms),Wrist Gyroscope X (deg/s),Wrist Gyroscope Y (deg/s),Wrist Gyroscope Z (deg/s),Wrist Accelerometer X (g),Wrist Accelerometer Y (g),Wrist Accelerometer Z (g),Wrist Roll (deg),Wrist Pitch (deg),Wrist Yaw (deg),Arm Gyroscope X (deg/s),Arm Gyroscope Y (deg/s),Arm Gyroscope Z (deg/s),Arm Accelerometer X (g),Arm Accelerometer Y (g),Arm Accelerometer Z (g),Arm Roll (deg),Arm Pitch (deg),Arm Yaw (deg),Wrist Gyroscope Magnitude (deg/s),Wrist Accelerometer Magnitude (g),Arm Gyroscope Magnitude (deg/s),Arm Accelerometer Magnitude (g),Difference Roll (deg),Difference Pitch (deg),Difference Yaw (deg)
0.0,2.580827,1.7901,0.686096,-0.955502,-0.214988,0.187073,-49.903961,73.472076,123.05011,1.83101,0.76149,0.49743,-0.996967,-0.054975,0.069212,-41.929462,85.06469,-91.216789,3.2149422600017257,0.9970958928192412,2.0444806785831946,1.0008774903343567,7.974499000000002,11.592613999999998,-214.266899
19.985,2.0283725,1.6739125,0.633383,-0.956782,-0.218435,0.1865615,-49.9175625,73.4853475,123.017765,1.6100965,0.561671,0.437755,-0.997826,-0.0567295,0.067414,-41.911190000000005,85.070469,-91.2124975,2.705078941750407,0.9989748935940532,1.760543805640249,1.001708345698612,8.006372500000001,11.5851215,-214.2302625
39.971,1.8978496666666669,1.4957306666666668,0.615793,-0.958476,-0.2189756666666666,0.186275,-49.92228333333333,73.49725333333333,122.99385066666667,1.393897,0.5071180000000001,0.3702723333333333,-0.9986216666666669,-0.0585323333333333,0.067712,-41.90753166666667,85.074852,-91.21993766666668,2.493640832863244,1.0006622611016722,1.5287966226300709,1.0026246466776865,8.014751666666667,11.577598666666669,-214.21378833333333
59.956,1.70098575,1.37567775,0.5625295,-0.958558,-0.21921475,0.18684775,-49.9266225,73.50732425,122.9754315,1.40607525,0.461303,0.368401,-0.99940475,-0.058974,0.0679594999999999,-41.89437575,85.079197,-91.2195835,2.25882297489608,1.000899908912787,1.5249811025952298,1.0034471987298648,8.032246749999999,11.57187275,-214.195015
79.942,1.6056452,1.2717038,0.5017064,-0.9590268,-0.2200282,0.1871232,-49.9309166,73.5155838,122.9599214,1.4729864,0.3943368,0.373207,-1.0001506,-0.0589566,0.068462,-41.8664658,85.0829392,-91.206343,2.10879974749108,1.0015787057898744,1.569864297086917,1.0042231568769564,8.0644508,11.567355400000002,-214.1662644
99.927,1.4789892,1.0365474,0.3728686,-0.9601384,-0.220965,0.18716,-49.9372834,73.53218079999999,122.9263032,1.6017024,0.2007743999999999,0.4094702,-1.0004268,-0.0602578,0.0677744,-41.7957108,85.0906372,-91.1676972,1.8441449398106864,1.0028559936399444,1.6653608565560678,1.0045288218435746,8.141572599999998,11.558456400000004,-214.0940004
119.912,1.5171478,0.7669498,0.2747984,-0.9599396,-0.2199781999999999,0.1876768,-49.9311996,73.5438584,122.9079164,1.8550856,0.1071163999999999,0.3935997999999999,-1.0001516,-0.0600046,0.0678462,-41.707563,85.0966568,-91.116707,1.722052148864093,1.0025452734822702,1.899404461676438,1.0042444333219678,8.223636599999997,11.552798400000004,-214.0246234
139.898,1.5429834,0.5231902,0.1615964,-0.9595412,-0.219741,0.1878787999999999,-49.9164374,73.550528,122.90110479999998,2.1514824,-0.039816,0.4292458,-0.9995696,-0.0576964,0.0681718,-41.57369,85.1015716,-91.0259522,1.637265755625689,1.0021496220963615,2.194245607989999,1.003551520417542,8.342747399999999,11.551043600000003,-213.927057
159.883,1.7000006,0.2814278,0.0732415999999999,-0.9592242,-0.2189724,0.1873237999999999,-49.8899322,73.553122,122.9057006,2.1794688,-0.2476182,0.440069,-0.9987358,-0.0548134,0.0691812,-41.389238,85.10397939999999,-90.885196,1.7246935897671096,1.001573853429611,2.2371990854427057,1.0026284184355838,8.5006942,11.550857400000003,-213.7908966
179.869,1.8905246,0.0854942,-0.000308,-0.9589094,-0.2170309999999999,0.1874992,-49.8502168,73.55274059999999,122.9220336,2.0854238,-0.4636243999999999,0.4452361999999999,-0.9971388,-0.0543636,0.0688142,-41.1749816,85.1033156,-90.7126604,1.892456767353696,1.000882431842022,2.182240885803453,1.0009878029187167,8.6752352,11.550575,-213.634694
199.854,1.8954042,-0.0759648,-0.005996,-0.9580618,-0.2163824,0.1864418,-49.8035478,73.55071740000001,122.9475798,1.8891334,-0.6388,0.4658524,-0.997202,-0.0535578,0.0699802,-40.9285706,85.0999128,-90.5039856,1.896935340024188,0.9997321143367558,2.047903538153426,1.0010881555272144,8.8749772,11.549195400000002,-213.4515654
219.84,1.9564966,-0.1412584,-0.0062534,-0.9585024,-0.2164962,0.1849602,-49.75517599999999,73.5484056,122.974365,1.7386735999999998,-0.7862128,0.5257238,-0.9969756,-0.0537272,0.0706792,-40.6537568,85.094586,-90.2638076,1.9615993440031727,0.9999038608807548,1.979268038469585,1.0009208301997916,9.1014192,11.546180400000004,-213.2381726
239.825,2.0650656,-0.1712906,0.0536794,-0.9579968,-0.2142442,0.1842758,-49.6990762,73.5477296,123.0073774,1.6245644,-0.8203151999999999,0.588349,-0.9969568,-0.054244,0.0702896,-40.3725046,85.0895126,-90.01482999999999,2.0728525948402794,0.9988072969845184,1.9126633428022295,1.0009025429433176,9.3265716,11.541783,-213.0222074
259.81,1.9831352,-0.2019744,0.1118984,-0.9574822,-0.2132358,0.18403,-49.64013680000001,73.54797980000001,123.0471998,1.5590048,-0.7395228,0.6536856,-0.9967522,-0.0546572,0.0697186,-40.1004784,85.08661040000001,-89.7737502,1.996532026203677,0.9980524588509764,1.8451815091719943,1.0006812883743954,9.5396584,11.5386306,-212.82095
279.796,1.8174794,-0.2451163999999999,0.1828478,-0.9564494,-0.2127408,0.1825212,-49.581453,73.54933020000001,123.0934644,1.3453424,-0.6364902000000001,0.6936859999999999,-0.9958094,-0.0531196,0.0698469999999999,-39.8355066,85.0862824,-89.5355132,1.843026515527696,0.9966785295141256,1.6420311247140842,0.999668273199425,9.7459464,11.536952200000002,-212.6289776
299.782,1.5299928,-0.311516,0.2607574,-0.9562078,-0.2114006,0.182504,-49.52055360000001,73.5515106,123.15036440000002,0.9036,-0.3633476,0.6188928,-0.994825,-0.0539192,0.0694051999999999,-39.6402452,85.0890702,-89.3582046,1.5830080884071946,0.9961582607583996,1.1539249266384708,0.9986997259139906,9.8803084,11.5375596,-212.508569
319.767,1.1421038,-0.4163204,0.3576386,-0.9557858,-0.2106436,0.1823701999999999,-49.4576126,73.554068,123.2158552,0.5321208,-0.0409063999999999,0.6060006,-0.9948524,-0.0533068,0.0691372,-39.5007814,85.0970826,-89.229393,1.2671342208466156,0.9955682355070594,0.8075039359371321,0.9986755554912918,9.9568312,11.5430146,-212.4452482
339.752,0.680948,-0.4711086,0.4518691999999999,-0.9554129999999998,-0.2106088,0.1813343999999999,-49.3990716,73.5576324,123.284886,0.1057958,0.2354067999999999,0.5812172,-0.9942936,-0.0520406,0.0691378,-39.4084298,85.1094956,-89.1393112,0.943302319305216,0.995013684242483,0.6359422508056215,0.9980521140893196,9.9906418,11.551863200000003,-212.4241972
359.738,0.1053296,-0.4775553999999999,0.5331317999999999,-0.9565134,-0.2093379999999999,0.1811189999999999,-49.3473236,73.56308440000001,123.3551848,-0.533175,0.6299296,0.4583515999999999,-0.993631,-0.0524056,0.0684818,-39.4125956,85.126593,-89.1330994,0.7234521413863946,0.995763212206878,0.9440196347554004,0.9973658646673246,9.934728,11.563508600000002,-212.4882842
379.723,-0.4817412,-0.5844693999999999,0.7177574,-0.9569102,-0.2074054,0.1816506,-49.2908072,73.57055360000001,123.4374144,-1.0435848,1.4883118,0.3359218,-0.9938284000000002,-0.0557956,0.0687126,-39.5906648,85.1541106,-89.29081579999999,1.043482030783741,0.9958368698203336,1.848508778590332,0.9977622256954212,9.7001424,11.583557000000004,-212.7282302
399.709,-1.0077345999999998,-0.6423835999999999,0.9457778,-0.9570718,-0.208285,0.1810598,-49.2343604,73.5804748,123.5262894,-0.8092776,2.3685176,0.3232816,-0.99475,-0.0534723999999999,0.0681953999999999,-39.88855600000001,85.1962188,-89.5735048,1.5240345667205055,0.9960681315835176,2.523750551910802,0.9985176376223508,9.3458044,11.615744000000005,-213.0997942
419.694,-1.4334764,-0.6085864,1.1471176,-0.9574362,-0.2085002,0.1810949999999999,-49.17993679999999,73.59373020000001,123.6225372,-0.9727524,2.9823356,0.2273677999999999,-0.9941034,-0.0499016,0.0672396,-40.2865906,85.24792479999999,-89.953412,1.9341951255888528,0.9964696731438843,3.145197764721633,0.9976236281194828,8.8933462,11.654194600000002,-213.57594920000005
439.679,-1.7623936,-0.5608896000000001,1.215935,-0.9575092,-0.2085536,0.1811314,-49.1319242,73.6084764,123.7194962,-1.6551830000000003,3.5677074000000006,0.017898,-0.994843,-0.0498345999999999,0.0666259999999999,-40.8293678,85.3056594,-90.464618,2.213396997588575,0.9965576030634457,3.932999770392539,0.9983161352408164,8.3025564,11.697183000000004,-214.1841142
459.665,-1.8485768,-0.5549468,1.3513644,-0.9576986,-0.2093448,0.1835856,-49.0776336,73.62398839999999,123.823996,-2.2307442,4.2407898,-0.1040546,-0.9938102,-0.0526794,0.0639148,-41.544152,85.3711974,-91.136371,2.3561383401480995,0.9973542631664838,4.792843120048771,0.997255701646995,7.533481599999999,11.747209000000009,-214.960367
479.65,-1.7011396,-0.6456451999999999,1.53694,-0.9585586,-0.211572,0.1813826,-49.0142724,73.6409118,123.9345504,-3.0533802000000003,5.1755164,-0.4789261999999999,-0.9932736,-0.0535354,0.0614097999999999,-42.529856,85.44454340000001,-92.0627336,2.381788871115826,0.998246937586447,6.028139925173224,0.996609074334646,6.484416399999999,11.803631600000006,-215.997284
499.636,-1.48706,-0.8337344,1.6026029999999998,-0.9611632,-0.2114367999999999,0.1843036,-48.9299484,73.65556939999999,124.0614272,-4.2971426,6.5240432,-1.0471936,-0.9933952,-0.056841,0.0587268,-43.936013,85.52652880000001,-93.3847214,2.33982838450865,1.001253231905615,7.881953351554547,0.9967516038122436,4.9939354,11.870959400000004,-217.4461486
519.621,-0.7021773999999998,-1.3778296,1.6894645999999998,-0.962779,-0.2097544,0.1889286,-48.7899392,73.6634062,124.22918239999998,-5.6548124,9.188249,-1.8961062,-0.991208,-0.0687302,0.0592604,-46.115519,85.6228208,-95.4528946,2.290362011202613,1.003311679917223,10.954270477164291,0.9953536731555273,2.6744202000000006,11.959414600000002,-219.682077
539.607,0.3935232000000001,-2.56488,2.0970134,-0.9653636,-0.2074554,0.1964696,-48.53676780000001,73.659892,124.4911056,-6.4732568,14.971828,-3.4824732,-0.982955,-0.0902906,0.0542604,-49.9999398,85.7441908,-99.208995,3.336305609970076,1.0067596172464806,16.678918035923328,0.9885833882285906,-1.4631719999999988,12.0842988,-223.7001006
559.592,2.3082346,-4.4131288,2.6611804,-0.9664938,-0.2072378,0.1950839999999999,-48.132126,73.6403196,124.872194,-4.6240172,21.6876936,-5.3823508,-0.9850324,-0.0928248,0.0440484,-55.90486539999999,85.87664020000001,-105.0215254,5.646727715710291,1.0075294230161618,22.819011566841308,0.9903764607902188,-7.772739399999999,12.236320599999996,-229.8937194
579.578,3.314954,-5.955687,2.8081152,-0.9695036,-0.2093392,0.1996208,-47.6254196,73.59956199999999,125.3400316,-2.2780374,26.0286442,-6.8556922,-0.994429,-0.0679778,0.0370193999999999,-63.130239200000005,85.9953978,-112.200694,7.371881621442116,1.0117354371881218,27.01259500357441,0.9974369420220008,-15.504819599999996,12.395835799999997,-237.5407256
599.563,5.3202512,-7.6943938,2.9531963999999995,-0.9661834,-0.2042062,0.206007,-46.9779656,73.53569180000001,125.91326,-4.4863602,28.8631374,-7.8810728,-0.9912868,-0.0535585999999999,0.0285954,-71.3452278,86.0761108,-120.324774,9.80969610933758,1.0087861114245178,30.25424659274004,0.9931443703658396,-24.3672622,12.540418999999996,-246.23803400000003
619.548,6.3145042,-9.1943808,3.0637462,-0.9641334,-0.1965973999999999,0.2094576,-46.2281838,73.45318,126.5729798,-7.948865,30.542535,-8.4592114,-0.9938548,-0.0466496,0.0162876,-80.1618338,86.0958038,-128.9816314,11.567028242605822,1.0060199982505715,32.673982869009706,0.9950823255273706,-33.93365,12.6426238,-255.5546112
639.534,5.6378478,-10.340555,3.1864544,-0.9648888,-0.197492,0.214187,-45.44058,73.35285200000001,127.2878342,-10.8005934,29.4378212,-8.5559906,-1.0001452,-0.0351496,0.0055758,-88.5396072,86.0208938,-137.1449906,12.201061313150968,1.0079134672175187,32.50297078641553,1.000778199707028,-43.0990272,12.6680418,-264.4328248
659.519,5.325978,-12.4664802,3.3182016000000005,-0.966618,-0.189952,0.2316212,-44.5411102,73.2178438,128.1186126,-15.5653158,29.058329000000004,-8.639931200000001,-0.9870832,-0.0548308,-0.0153385999999999,-96.351634,85.8189102,-144.6522554,13.956705631764205,1.0119686262515457,34.07805674281772,0.9887238911854208,-51.8105238,12.601066400000002,-272.77086799999995
679.505,7.179714199999999,-16.069592399999998,4.056905,-0.9632788,-0.185415,0.2317769999999999,-43.4293374,73.0385454,129.1259642,-18.4713242,31.539547400000004,-9.633693,-0.975093,-0.1054696,-0.0325907999999999,-103.8335676,85.4701798,-151.7783144,18.062075574940007,1.007970905573886,37.798689246012245,0.981321738991754,-60.40423019999999,12.431634400000002,-280.9042786
699.49,7.039909,-20.2949168,4.7942684,-0.9723048,-0.1946598,0.2515436,-42.1333336,72.7924258,130.3226408,-13.764057,36.9827866,-11.242277,-0.9739248,-0.1395074,-0.0636608,-111.1475646,84.9525528,-158.8392304,22.00974729837764,1.0230069621170914,41.03126322629024,0.98592318573327,-69.014231,12.160127,-289.1618712
719.476,6.825591,-26.8486976,6.400134,-0.9707874,-0.2076378,0.2722642,-40.549931400000006,72.4470874,131.819763,-7.753556999999999,42.9273984,-14.5717144,-0.9642392,-0.1589394,-0.0995803999999999,-117.9287796,84.2401368,-165.49536440000003,28.432428150502428,1.0294024609399572,45.991456164158784,0.9823111644245728,-77.3788482,11.793049399999996,-297.3151274
739.461,8.562662,-35.0631888,7.178522600000001,-0.977857,-0.2199844,0.2755178,-38.6743928,71.97071860000001,133.5848998,-3.132919,48.8989152,-18.394241,-0.956327,-0.1649846,-0.134565,-123.9913452,83.33763139999999,-99.5313384,36.800510540879735,1.0394746301902706,52.338009048524505,0.979739245101042,-85.3169524,11.366912799999998,-233.1162382
759.447,9.848514599999998,-43.2143482,7.3613776,-0.9876234,-0.2322719999999999,0.2857062,-36.6029916,71.347304,135.5327178,1.5545802,53.1071062,-21.2844874,-0.97012,-0.1547772,-0.148843,-128.940033,82.29646619999998,-32.55177900000001,44.92953383184649,1.054029551260305,57.23469972330657,0.9936010440256392,-92.3370414,10.949162199999996,-168.0844968
779.432,9.194754,-50.9332052,6.3019788,-0.9906718,-0.2487715999999999,0.3175882,-34.4801114,70.5548632,137.55252679999998,4.175928000000001,55.60525299999999,-22.9093436,-0.9726494,-0.1494468,-0.1733892,-132.91879440000002,81.1646318,35.343106199999994,52.138755545769136,1.069663586863197,60.28449684651977,0.9992222055315024,-98.438683,10.609768599999995,-102.2094206
799.418,9.082343599999998,-58.790661,4.9573722,-1.0009354,-0.255257,0.3329921999999999,-32.3554598,69.59803939999999,139.5812226,4.436571000000001,55.4362122,-25.3115584,-0.9837738,-0.1566538,-0.194113,-135.75496520000002,79.97326819999999,104.37770999999998,59.694273805908,1.0853163669101282,61.10263311804231,1.014904507522693,-103.3995054,10.375228799999997,-35.2035126
819.403,9.2290852,-66.1980188,2.0265,-1.0170114,-0.2571728,0.3584534,-30.350566200000003,68.462442,141.4834352,6.1324038000000005,53.0449828,-25.3031112,-0.997239,-0.1623876,-0.2052532,-137.76193840000002,78.8082902,174.21113599999998,66.8689794218815,1.1085751561176895,59.08996541730343,1.0310112666042988,-107.4113722,10.345848199999995,32.727700799999994
839.388,8.684923000000001,-73.6608736,-0.7388562000000002,-1.0216396,-0.241699,0.4138992,-28.463578,67.1401108,143.27780160000003,9.736965,49.822634,-23.9540672,-1.000144,-0.1735164,-0.2221467999999999,-139.1742004,77.7009262,172.570514,74.17478072441727,1.128485013923446,56.132884136941485,1.0391078685849706,-110.7106224,10.5608154,29.2927124
859.374,6.0842452,-81.5454118,-3.8177458,-1.0288132,-0.241883,0.4551721999999999,-26.7901454,65.6267608,144.9224428,12.7333086,46.500109,-23.8894002,-1.0021530000000003,-0.1892872,-0.2408788,-140.0606964,76.6370956,171.4004304,81.86114712291003,1.1507153070312743,53.806140233531664,1.0479326675804512,-113.270551,11.0103348,26.477987599999995
879.359,5.20623,-90.840854,-5.565572,-1.0524906,-0.2308282,0.5012333999999999,-25.213158,63.9170462,146.5082888,15.3592354,43.4750586,-24.435338,-1.009681,-0.1984976,-0.2602316,-140.5405304,75.61066120000001,170.5897768,91.15997574566045,1.1883825319648385,52.18306790061591,1.0614035540760731,-115.32737240000002,11.693614999999998,24.081488
899.344,6.2122164,-100.8746826,-7.2351496,-1.0468812,-0.2145424,0.5455745999999999,-23.6938984,61.9947318,148.0395478,17.3435368,40.8992972,-23.6143996,-1.0132726,-0.1896288,-0.2546068,-140.8161194,74.6494338,169.94610300000002,101.32443245331083,1.1998501291729564,50.3109396518825,1.0618404147076153,-117.122221,12.654702,21.9065552
919.33,7.98163,-109.5450256,-8.361909800000001,-1.0228955999999998,-0.2006334,0.5886666,-22.2338346,59.8859848,149.5015748,17.351013000000002,38.6159546,-22.565885,-1.0214354,-0.1737762,-0.2409485999999999,-140.9986634,73.75792220000001,169.39689040000002,110.15325953717796,1.1971205184318243,47.97362575028757,1.0637596871011612,-118.7648288,13.871937400000002,19.895315599999996
939.315,10.5060966,-116.33697200000002,-8.8834544,-0.9745136,-0.1972936,0.6121714,-20.8444848,57.6293778,150.86259780000003,14.0689024,34.5305618,-21.2263726,-1.0354014,-0.1583988,-0.2098178,-141.0921752,72.9755218,169.005887,117.14770540635529,1.1676280846930158,42.90515827634687,1.0682554695203952,-120.2476904,15.346144,18.14328919999999
959.301,14.249391,-120.2372452,-8.587352,-0.9048846,-0.1832869999999999,0.6378608,-19.488603,55.2806656,152.122226,8.5405922,27.2813052,-19.1968354,-1.0410834000000002,-0.1378258,-0.17224,-141.0898864,72.33886420000002,168.83041079999998,121.382794874429,1.122174970253213,34.43442780005123,1.0641979207371155,-121.6012834,17.058198600000004,16.708184799999998
979.286,17.141656,-120.3212662,-8.058615999999999,-0.8117951999999999,-0.1686624,0.6459178,-18.2140646,52.9113244,153.2444032,1.405055199999999,16.7303022,-16.6217848,-1.0459115999999995,-0.1197942,-0.1333038,-140.9342192,71.9103212,168.965799,121.80305727784116,1.0510319958372532,23.6254295570659,1.06115579839279,-122.7201546,18.998996800000008,15.7213958
999.272,18.4785624,-116.4293214,-6.689752400000001,-0.72338,-0.1536572,0.6452082000000001,-17.0433096,50.6054628,154.2339326,-6.207078800000001,3.0564154,-14.1772722,-1.0523614,-0.1129504,-0.1020822,-140.50981140000002,71.7182894,169.5439394,118.07623358325966,0.9814187591742274,15.775441336446324,1.0633170198143918,-123.4665018,21.1128266,15.310006800000002
1019.257,18.9363014,-109.3257478,-4.877447200000001,-0.6445714,-0.1427526,0.6468849999999999,-15.9834408,48.4307862,155.098877,-12.595006,-12.080002,-10.2722,-1.0369564,-0.109886,-0.0820994,-139.78302000000002,71.7942812,170.5737092,111.0607587491173,0.9242893474068172,20.2504004232025,1.0459893976409702,-123.7995792,23.363495,15.474832200000009
1039.243,19.2732014,-100.2443222,-3.5374712,-0.6125934000000001,-0.141334,0.6509114,-15.0363534,46.4361328,155.83384099999998,-17.7058328,-24.5122208,-6.6224554,-0.9906968,-0.1273468,-0.0832502,-138.78368540000002,72.0874818,171.99406140000002,102.14153967917854,0.9049484095403008,30.95484451930744,1.0023113053340864,-123.747332,25.651349000000003,16.160220400000007
1059.228,21.8971806,-92.4538344,-1.6009374,-0.6208501999999999,-0.1437815999999999,0.6337138,-14.1199098,44.6090554,156.4837494,-19.2631222,-30.9060966,-5.2155404,-0.934284,-0.164178,-0.1197502,-137.5849976,72.48284759999999,173.65371120000003,95.0250546648112,0.8987331637638838,36.789353699198045,0.9561281915831372,-123.4650878,27.873792200000004,17.16996180000001
1079.214,22.733262000000003,-87.7429654,0.8041772000000001,-0.6684024,-0.1377146,0.6442494,-13.2325104,42.887371,157.09595339999998,-16.3622868,-31.5711328,-6.2572806,-0.8853991999999999,-0.1904608,-0.1678716,-136.23144539999998,72.855455,175.41297319999998,90.64367534094832,0.9385011288108714,36.10560089664519,0.9210797651581756,-122.998935,29.968084,18.317019800000008
1099.199,24.9140512,-87.09356199999999,2.8617456,-0.7253688,-0.1359128,0.6793980000000001,-12.329127799999998,41.2055152,157.6934358,-13.3965732,-27.4150542,-7.2893962,-0.8470276,-0.2004252,-0.2257584,-134.9282714,73.1390122,105.0551424,90.63215807274582,1.0031021022913271,31.371781384748783,0.8992179219340326,-122.5991436,31.933497,-52.6382934
1119.184,27.8105718,-91.2224196,4.359731,-0.8026552,-0.1199811999999999,0.7091912,-11.3859044,39.4539406,158.2905886,-13.0829466,-19.3456146,-9.4546834,-0.8334826,-0.2037724,-0.2858926,-133.86731559999998,73.2663972,34.436807400000006,95.46708854843004,1.0777768862793078,25.19538319185521,0.9044064430549352,-122.4814112,33.8124566,-123.8537812
1139.17,28.9896016,-99.6775008,5.580459,-0.8567295999999999,-0.097158,0.7489128,-10.4207872,37.5375046,158.905655,-14.481791200000004,-10.972109799999998,-11.6951852,-0.8598611999999999,-0.2074288,-0.3307934,-133.1482146,73.2279802,-36.5063018,103.95740805402664,1.142057645867318,21.60756410810697,0.944358122651804,-122.72742739999998,35.6904756,-195.4119568
1159.155,27.5602556,-109.6857024,7.1791642,-0.8685994000000001,-0.0731906,0.8155614,-9.4797624,35.4250168,159.55000020000003,-19.1299334,-5.963849999999998,-12.7611546,-0.9162116,-0.216272,-0.3378672,-132.7175902,73.09527,-107.6529846,113.32281940690171,1.1937177969598511,23.756450185918705,1.0001857421471274,-123.23782780000002,37.670253200000005,-267.2029848
1179.141,26.768303000000003,-119.265573,8.4329948,-0.8327188,-0.058469,0.8724362000000001,-8.563887600000001,33.1302376,160.20575879999998,-25.846360200000003,-4.104652199999999,-11.0622864,-0.9662548,-0.2174836,-0.3199122,-132.5876922,72.9614946,-178.9735076,122.52319923106384,1.2074701432767936,28.412262945192065,1.040812793205791,-124.0238046,39.831257,-339.1792664
1199.126,23.8595758,-127.6749664,9.8606132,-0.7762392,-0.0552977999999999,0.9095818,-7.732054400000001,30.655119000000003,160.86209119999998,-32.525787,-4.374012799999998,-8.0497248,-0.9869022,-0.223688,-0.2866548,-132.7083314,72.8831482,-178.416574,130.259003893309,1.1970564703441189,33.791372823542815,1.0517524652083683,-124.976277,42.2280292,-339.27866520000003
1219.112,20.8114114,-135.2708846,11.7689676,-0.6935977999999999,-0.0718722,0.9423152,-6.983124599999999,28.0309002,161.5285156,-38.9119146,-6.839963999999999,-5.9877558,-0.9901904,-0.2399281999999999,-0.2450401999999999,-132.9091462,72.8742416,-177.8117064,137.36752040892495,1.1722633908165518,39.95967248213407,1.047896592714873,-125.9260216,44.8433414,-339.340222
1239.097,18.4891084,-141.6420196,14.2677174,-0.5971876,-0.0866541999999999,0.9692642,-6.29897,25.2822244,162.2148254,-43.153173200000005,-11.5943686,-4.125288,-0.995511,-0.2495786,-0.2054135999999999,-133.002054,72.9657134,-177.00948160000002,143.5544377774508,1.141759637302458,44.87364194652367,1.046673958672862,-126.703084,47.683489,-339.224307
1259.083,15.4467192,-147.3266846,15.7015202,-0.5079234,-0.1040792,0.992296,-5.7148988,22.413511000000003,162.8937744,-43.9716096,-17.3276808,-1.2061374,-0.9826668,-0.2398882,-0.1709318,-132.9153078,73.1897964,-176.006439,148.9640589735072,1.1195847496979403,47.277962521127954,1.0258645468933605,-127.200409,50.776285400000006,-338.9002134
1279.068,12.7993176,-152.998697,16.303772400000003,-0.4289842,-0.1206373999999999,1.0111356,-5.234624200000001,19.4167032,163.54944460000002,-44.1239824,-22.9972828,1.1554696,-0.9752024,-0.2320719999999999,-0.1408274,-132.59983219999998,73.5337036,-174.76588120000002,154.39636268123184,1.1049778403731725,49.7708343210681,1.0122793541016828,-127.365208,54.11700040000001,-338.31532580000004
1299.054,11.1441086,-159.03977960000003,16.1819178,-0.3601604,-0.127743,1.0264776000000002,-4.8355824,16.289492399999997,164.17565299999998,-43.552964200000005,-28.8906674,0.7933083999999999,-0.985773,-0.2276684,-0.1170836,-131.88505560000002,73.95461739999999,-173.1260772,160.24885995036323,1.0953036341941538,52.27007453257949,1.0184742889619354,-127.0494732,57.665125,-337.30173019999995
1319.039,9.0405136,-164.597583,14.9982982,-0.2997802,-0.1213187999999999,1.0418576,-4.5207274,13.045464999999998,164.7578766,-40.8771928,-33.922805800000006,0.4958322,-1.0055001999999995,-0.2163734,-0.101579,-130.76630559999998,74.438324,-171.1255188,165.52656634054182,1.0908958145594103,53.12200574266227,1.033521356174414,-126.2455782,61.392859,-335.88339540000004
1339.024,6.484746200000001,-170.10870359999998,13.32374,-0.24633,-0.1118682,1.0520336,-4.2946622,9.6907372,165.292749,-38.578636200000005,-37.9451348,-0.5679848,-1.0143874,-0.1991819999999999,-0.0805854,-129.2249726,74.95503240000001,-168.739035,170.75287705142384,1.0862631626821375,54.11531236882176,1.0368940510466438,-124.9303104,65.2642952,-334.031784
1359.01,4.2995622,-175.2119232,11.5698392,-0.1899244,-0.0983011999999999,1.0546314,-4.144702,6.2341922,165.7848906,-37.1744844,-41.0154816,-2.9076304,-1.0231249999999998,-0.1875726,-0.0677223999999999,-127.2411546,75.4570282,-165.92878420000002,175.64613700753063,1.0760956247019873,55.43163659706239,1.042379282870453,-123.0964526,69.222836,-331.7136748
1378.995,1.7809658,-179.7051056,10.1288268,-0.1328222,-0.0848018,1.0545208,-4.0747342,2.6897654,166.2458524,-35.6307592,-43.36251600000001,-5.8601608,-1.0336152,-0.1878747999999999,-0.0545678,-124.7862368,75.90990300000001,-162.6701294,179.9991387485849,1.0662303689769486,56.42871857149069,1.051967189099983,-120.7115026,73.2201376,-328.9159818
1398.981,-1.2226344,-183.5005342,8.8954682,-0.0798638,-0.0757606,1.0353054,-4.093939400000001,-0.9251794,166.68554060000002,-33.971069,-44.3420958,-6.9656482,-1.0178514,-0.1843628,-0.0461866,-122.0277208,76.3176438,-159.1381806,183.720086656464,1.0411412806780642,56.29187546871486,1.0354440190205163,-117.9337814,77.2428232,-325.8237212
1418.966,-5.5178692,-187.430658,8.331974800000001,-0.022569,-0.0633229999999999,1.0198148,-4.2214814,-4.613518000000001,167.1242796,-32.2159046,-46.2974448,-8.9287514,-1.0247281999999998,-0.190178,-0.025653,-118.8098344,76.6658448,-155.1772278,187.69688394560285,1.022028076125622,57.10552079937937,1.0425419089745216,-114.588353,81.2793628,-322.3015074
1438.952,-9.5153042,-189.6147552,7.1150564,0.04435,-0.0570161999999999,1.0015628,-4.4490382,-8.3469028,167.5545744,-31.07241800000001,-48.0203368,-12.9564912,-1.041219,-0.1772212,-0.023224,-115.1771728,76.90482039999999,-150.8167908,189.98663224329664,1.0041642355243887,58.64570377246603,1.0564486328574805,-110.7281346,85.25172319999999,-318.3713652
1458.937,-13.131665000000002,-189.825592,5.2314454,0.0982954,-0.0543,0.9710888,-4.7674948,-12.0815946,167.96764520000002,-29.4449094,-48.7407958,-13.0351518,-1.0418798,-0.1934352,-0.0214252,-111.3506056,77.074669,-146.29319460000002,190.35115976740428,0.977560194129548,58.41731804217436,1.0599008130207843,-106.5831108,89.15626359999999,-314.26083980000004
1478.922,-16.864407,-189.1271362,3.6084722,0.1498035999999999,-0.0594554,0.925943,-5.189606400000001,-15.7993448,168.3772492,-24.4575986,-49.521106,-13.343228,-1.027742,-0.2124801999999999,-0.0197957999999999,-107.2988294,77.16041419999999,-141.64215400000003,189.91182939009664,0.9398651511845304,56.82038192587182,1.0496634354180772,-102.109223,92.959759,-310.01940320000006
1498.908,-19.8606272,-187.019458,2.6495994,0.207736,-0.0667014,0.8939351999999999,-5.7092464000000005,-19.475747,168.8044708,-18.8433656,-50.6458474,-13.8940952,-1.0252996,-0.2342138,-0.0120638,-102.9964964,77.1586868,-136.8499878,188.08971944359857,0.920175778999317,55.7953418075919,1.0517798767522792,-97.28725,96.6344338,-305.6544586
1518.898,-21.4844074,-183.4256318,2.4714572,0.2511316,-0.0785316,0.8494636,-6.312327600000001,-23.0734912,169.27160039999998,-13.4061422,-50.0678872,-15.9578508,-0.995546,-0.237244,-0.0141844,-98.6763168,77.0319,-132.14847100000003,184.69610245819965,0.8892821264604839,54.232563829433744,1.0235222278267142,-92.3639892,100.1053912,-301.4200714
1538.879,-22.929561,-179.6902956,3.0099126,0.2870396,-0.0898204,0.7942357999999999,-7.003435999999999,-26.588614,169.8013064,-7.369595599999999,-49.5496216,-14.1002214,-0.9722574,-0.249002,-0.0108714,-94.4384446,76.8543516,-127.6519836,181.17236730342665,0.849276128374017,52.04125463072296,1.0036954892778585,-87.4350086,103.4429656,-297.45329
1558.864,-24.0570912,-175.11467299999998,3.4213324,0.331946,-0.1017283999999999,0.7551843999999999,-7.774967999999999,-30.0092692,170.3940096,-2.3539988000000003,-48.6180466,-15.208827,-0.9835994,-0.2284022,-0.0089394,-90.3315142,76.59829540000001,-123.3872574,176.79252770491556,0.831168028912277,50.99572711773117,1.0098095154619806,-82.5565462,106.6075646,-293.781267
1578.85,-23.3055076,-168.63871160000002,2.840749,0.3684938,-0.103142,0.725285,-8.5718402,-33.2947348,171.02102680000002,-2.4121724,-45.8049354,-15.1049176,-0.9747834,-0.2017806,-0.0158528,-86.6609972,76.3007506,-119.5621062,170.26518020277263,0.8200391966408923,48.29150254846378,0.9955749086431216,-78.089157,109.5954854,-290.583133
1598.835,-21.8721438,-161.6312256,1.3995706,0.3975836,-0.1041606,0.6813846,-9.373968,-36.4399874,171.6632388,-2.8296878000000003,-41.6516102,-13.8836164,-0.9538238,-0.1890138,-0.0310882,-83.52693339999999,75.9932922,-116.271559,163.11039991744963,0.7957431260768012,43.99566535058382,0.972868199817488,-74.1529654,112.4332796,-287.9347978
1618.82,-19.859121,-153.5424224,-0.6816684000000002,0.434851,-0.110359,0.6305669999999999,-10.1660594,-39.4365084,172.3037416,-1.5667596,-37.8036952,-6.7961524,-0.9482808,-0.1988262,-0.0454756,-80.7771104,75.79185340000001,-113.3948576,154.82288214330663,0.7738793462620642,38.44166741782568,0.9699671972033076,-70.611051,115.2283618,-285.6985992
1638.806,-17.029013400000004,-143.91463000000002,-2.086053,0.4760711999999999,-0.1122732,0.5939282,-10.928712,-42.2523012,172.94462900000002,1.1919086,-33.167391599999995,0.6402838000000003,-0.9329582,-0.2097928,-0.0479456,-78.3230774,75.710924,-110.8754378,144.9336387542005,0.7694152101842802,33.19497665314809,0.9574564232582286,-67.3943654,117.96322519999998,-283.82006680000006
1658.791,-13.5944136,-133.5189102,-2.3844144000000003,0.5101829999999999,-0.1111207999999999,0.545898,-11.657275,-44.8729586,173.60174560000002,3.8693502,-29.0601268,8.490395,-0.8922714,-0.2120585999999999,-0.0467642,-76.0501084,75.7674716,-108.5958464,134.23037247268016,0.7554066137423209,30.52129826626553,0.9183158451717796,-64.3928334,120.6404302,-282.197592
1678.777,-10.634262800000002,-122.4068162,-2.191907,0.5460307999999999,-0.1166092,0.4937932,-12.3652038,-47.2882158,174.278595,7.2640504,-25.757286400000005,15.8780892,-0.8830598000000001,-0.2132832,-0.052624,-73.8296388,75.959682,-106.4402846,122.88743082112464,0.7453717625718859,31.117807563331358,0.9099745156619936,-61.464435,123.2478978,-280.71887960000004
1698.762,-8.546859399999999,-108.7367784,-1.7589034,0.580296,-0.1251454,0.4485376,-13.0535722,-49.4462198,174.95635380000002,9.785633,-22.7170902,21.1298878,-0.8909726000000001,-0.2112187999999999,-0.0574308,-71.6047486,76.25000480000001,-104.3363722,109.08633976618982,0.7440368252787761,32.531476431392015,0.9174659951261628,-58.5511764,125.6962246,-279.292726
1718.748,-6.7585386,-91.99680800000002,-1.3421688,0.609991,-0.1362762,0.411401,-13.6876822,-51.27817700000001,175.5907594,11.455365,-18.6734814,22.4233796,-0.8915848000000001,-0.2044444,-0.060402,-69.5554214,76.57570960000001,-102.4501372,92.25449551801935,0.7482720130864444,31.348560534178716,0.9167166246372978,-55.8677392,127.8538866,-278.0408966
1738.733,-5.809565400000001,-72.26269540000001,-1.7226370000000002,0.6318694,-0.1577044,0.3688668,-14.2180356,-52.7220108,176.1059236,13.566115000000002,-14.3478424,22.1827324,-0.8868356000000001,-0.206916,-0.0609333999999999,-67.749733,76.9082458,-100.8590574,72.5163131636174,0.7484599739317795,29.698041592981724,0.912690797433019,-53.531697400000006,129.63025660000002,-276.964981
1758.719,-5.5777654000000005,-49.9207354,-2.7092688000000003,0.6496162,-0.1879076,0.3314848,-14.6006242,-53.729545400000006,176.43593779999998,17.0126922,-9.4413866,21.7760586,-0.8894490000000002,-0.2205748,-0.0629677999999999,-66.1736686,77.2526076,-99.5781384,50.30438775260965,0.7531219330700972,29.202195208121505,0.9185519635997084,-51.5730444,130.982153,-276.0140762
1778.704,-6.632818600000002,-24.8243636,-3.5939504,0.6667084000000001,-0.2164984,0.2949094,-14.8222754,-54.2465902,176.5386508,22.2778774,-5.0459604,20.2232646,-0.9004023999999999,-0.2394846,-0.0521313999999999,-64.8520996,77.58360280000001,-98.6674284,25.945323089203782,0.7604887915291587,30.508129554094463,0.9331639933199736,-50.0298242,131.830193,-275.2060792
1798.69,-8.572409200000001,2.633085,-4.5375608,0.6843038,-0.236713,0.2722992,-14.862287599999998,-54.2256536,176.3727664,27.1680024,-2.3438381999999995,17.9989908,-0.930085,-0.2566682,-0.0207348,-63.7051942,77.8825714,-98.0365202,10.050313135577731,0.7735965288081895,32.673499992083336,0.9650733671836976,-48.842906600000006,132.108225,-274.4092866
1818.675,-10.9682406,31.5664636,-5.5893138,0.6954716000000001,-0.256158,0.2578801999999999,-14.7246926,-53.6430166,175.9278506,28.2531278,-0.0702955999999998,12.1664618,-0.9648052,-0.265608,0.0161498,-62.8886208,78.08434600000001,-97.768756,33.88191781503054,0.7847291666062884,30.761452577623366,1.0008284066967124,-48.1639282,131.72736260000002,-273.6966066
1838.66,-11.9834566,60.0796684,-6.528325799999999,0.7032698000000001,-0.2606016,0.25892,-14.4174176,-52.5113524,175.237012,24.9392382,2.5726820000000004,3.9826694,-0.9860154,-0.2582036,0.0431458,-62.6122834,78.160518,-97.9891068,61.60997342061582,0.793436306148515,25.38594001054835,1.0201749987858748,-48.1948658,130.6718704,-273.2261188
1858.646,-13.120885800000002,87.3491602,-7.7345776,0.7069924,-0.2482084,0.2818226,-13.9775926,-50.853369,174.33252579999998,19.874196,4.4779744,-6.4927584,-1.0024264,-0.2423472,0.0814208,-62.956826,78.06198900000001,-98.7433306,88.6671140980258,0.8005433413370446,21.38204464063813,1.034514475218902,-48.979233400000005,128.91535800000003,-273.0758564
1878.631,-13.332078,111.6326926,-9.326073,0.6957582,-0.244246,0.3163418,-13.430739799999998,-48.726097,173.2578736,10.6213448,6.4979546,-17.954374,-1.0005598,-0.2226195999999999,0.1149262,-63.959619,77.773163,-99.987546,112.81213586545336,0.8023762931508384,21.849391869707134,1.0314491897939713,-50.528879200000006,126.49926,-273.2454196
1898.617,-11.8940188,131.8435576,-11.3171888,0.6691768,-0.238054,0.371945,-12.8065784,-46.208931,172.0721802,0.0974409999999998,9.788734000000002,-29.5440928,-0.9890932,-0.1988088,0.1305974,-65.7239072,77.3033388,-101.8015536,132.86184601372253,0.8017545631920283,31.12366025142687,1.0172934572336734,-52.91732880000001,123.5122698,-273.8737338
1918.602,-9.5315722,148.3847654,-13.4402972,0.6353856,-0.2137932,0.4453032,-12.126019199999998,-43.3695892,170.8197724,-10.3548512,13.3933728,-33.814397400000004,-0.9647576,-0.1838909999999999,0.1375276,-67.9822668,76.77907580000002,-103.9136736,149.29678851281824,0.804808879786897,37.81559003716653,0.9917091143074768,-55.8562476,120.148665,-274.733446
1938.588,-6.9360164000000015,160.69237040000002,-15.2149624,0.5834412,-0.196488,0.5074834,-11.4352102,-40.288604,169.55649720000002,-17.5255328,16.1952792,-32.262537599999995,-0.9392632,-0.1875314,0.138231,-70.4348722,76.2877564,-106.083037,161.5600238583335,0.7978411930183851,40.12857710760802,0.9677247512703188,-58.999662,116.5763604,-275.6395342
1958.573,-4.380899,168.5794126,-15.3782104,0.5241036,-0.1867642,0.5726776,-10.7813396,-37.03723960000001,168.3500488,-22.4596018,18.7523054,-26.7595136,-0.9198008,-0.2107332,0.1292128,-72.9418212,75.8904908,-108.2099794,169.33605636046894,0.798451678861257,39.6504002367948,0.9524378934853024,-62.1604816,112.9277304,-276.56002820000003
1978.559,-1.5437886000000005,173.5549436,-14.036066200000002,0.4598518,-0.1699876,0.6598346,-10.1804296,-33.6581758,167.24344179999997,-21.6922812,22.5230234,-17.901352999999997,-0.909819,-0.2646996,0.1152758,-75.443274,75.6632888,-110.3487886,174.12843790033682,0.8220347690178075,36.03193147705837,0.9545286800650884,-65.26284439999999,109.32146459999998,-277.5922304
1998.544,4.099149799999999,174.97047400000002,-11.711897400000002,0.4019879999999999,-0.155215,0.7248981999999999,-9.5782532,-30.2213352,166.26021740000002,-12.505978199999998,25.9239776,-6.976695999999999,-0.9028386,-0.2997556,0.0912166,-77.77422800000001,75.6280424,-112.500017,175.40991517464357,0.8433050745324848,29.616319697433592,0.9556628199824873,-68.1959748,105.8493776,-278.7602344
2018.53,8.684322,173.77613200000002,-9.290524,0.3397119999999999,-0.147987,0.7906586000000001,-8.9985838,-26.7830178,165.4103302,2.6835818,28.6295906,1.0360876000000014,-0.913558,-0.2999026,0.0818422,-79.873549,75.742317,-114.724898,174.24085438747048,0.8731812050582399,28.773747526448016,0.9650015204918592,-70.87496519999999,102.5253348,-280.13522820000003
2038.515,11.8735908,170.8174956,-6.9884086,0.2880756,-0.1426147999999999,0.8654282,-8.4537756,-23.381706200000004,164.6831298,16.8101444,31.1315744,5.403982800000001,-0.926203,-0.3084334,0.079912,-81.84842080000001,75.92867720000001,-117.1118272,171.3722171657425,0.9231968922443576,35.79048629837659,0.9794738828516868,-73.3946452,99.3103834,-281.794957
2058.501,16.2020222,166.2663786,-6.0750056,0.245003,-0.1382782,0.9149242,-7.895647999999999,-20.058177,164.0424286,30.1706182,34.297421400000005,7.013812400000002,-0.9410948,-0.3046486,0.0602145999999999,-83.8562866,76.1399076,-119.8047104,167.16434987510902,0.9572009310222592,46.2144228747016,0.9910075631003832,-75.96063860000001,96.1980846,-283.847139
2078.486,18.6137514,161.4390074,-6.6825356,0.196148,-0.1329746,0.9461804,-7.3414138,-16.8266168,163.4500274,42.9483034,35.3115244,7.554493800000001,-0.9709230000000002,-0.2590468,0.0496762,-85.7405318,76.3438002,-122.631517,162.64587647254857,0.9754043425643132,56.11177146521472,1.0061135330397262,-78.39911800000002,93.170417,-286.0815444
2098.472,17.163332399999998,156.6400816,-8.268030999999999,0.1622056,-0.122228,0.9967522,-6.8496088,-13.695917,162.8765654,48.569266000000006,35.45828100000001,8.0668146,-0.97804,-0.2424232,0.0606764,-87.5377472,76.54250640000001,-125.48488,157.79434552399053,1.0172341366962672,60.674020709398285,1.00946167585263,-80.6881384,90.2384234,-288.3614454
2118.457,14.704894,150.6337034,-8.9935236,0.124156,-0.1185775999999999,1.0192104,-6.4423064,-10.6817052,162.33566580000002,50.345209,34.905385,6.459690200000002,-0.974085,-0.2707486,0.0462822,-89.332872,76.67102359999998,-128.3694762,151.61672062900638,1.0335691554153112,61.60157115473502,1.0120713579900382,-82.8905656,87.3527288,-290.705142
2138.449,10.8239934,144.3992644,-9.0419522,0.0882996,-0.1211534,1.0354588000000002,-6.1457024,-7.788211599999999,161.8313598,53.79094339999999,33.325766800000004,3.991368200000001,-0.9979694,-0.2777272,0.0299277999999999,-90.9822692,76.7305894,-131.1729736,145.08639940384293,1.0462551754658902,63.40349631351536,1.0363257181837378,-84.83656679999999,84.518801,-293.0043334
2158.428,5.122127399999999,140.02059939999998,-8.605206800000001,0.0442134,-0.1226664,1.0722956,-5.9914758,-4.9820812000000005,161.36004319999998,56.612584000000005,30.7859306,3.0253734000000017,-1.0105558,-0.2718974,0.0373523999999999,-92.3414444,76.759491,-133.737671,140.3782534066722,1.0801942992850315,64.51287525970689,1.0471611255323412,-86.3499686,81.7415722,-295.09771420000004
2178.413,0.305851999999999,134.4770722,-7.714063800000001,0.0099558,-0.1142361999999999,1.0912082,-5.954289800000001,-2.2926002,160.92523799999998,56.5349968,28.783818000000004,0.8104460000000013,-1.0001172,-0.2734614,0.0323378,-93.5272186,76.729451,-136.122635,134.69849024113222,1.097216643644873,63.44581045705107,1.0373337381646468,-87.5729288,79.02205119999999,-297.047873
2198.399,-5.842849400000001,128.32146459999998,-6.5758172,-0.03412,-0.110938,1.0839314,-6.0619398,0.2736041999999999,160.5267852,55.59876859999999,27.023771,-1.6371583999999983,-1.0093066,-0.2605606,0.0071871999999999,-94.6157058,76.6487182,-138.38622759999998,128.62262063124024,1.090127833857094,61.84001581923695,1.0424218411563333,-88.553766,76.375114,-298.91301280000005
2218.384,-12.7806684,123.3743974,-6.676083,-0.0800702,-0.120044,1.0992214,-6.330935800000001,2.7375182,160.12891539999998,54.20710220000001,24.980304800000003,-2.3078357999999985,-1.0163556,-0.2389469999999999,0.010912,-95.5255432,76.5626892,-140.4393892,124.21415983206894,1.1086521028176513,59.73065932083716,1.0441232907106135,-89.19460740000001,73.825171,-300.56830460000003
2238.37,-16.907208000000004,118.2295852,-6.931621,-0.1186917999999999,-0.1164624,1.0952192,-6.6952816,5.0930132,159.724173,52.3233444,23.9421736,-2.9950135999999987,-1.0049708,-0.2348122,0.0016795999999999,-96.3721666,76.45853120000001,-142.38895280000003,119.63333928553097,1.1077708833732904,57.61883504859963,1.032039679071323,-89.676885,71.36551800000001,-302.1131258
2258.355,-21.7161144,113.0444212,-7.133862000000001,-0.1552218,-0.1180177999999999,1.0670556,-7.1718964,7.3403638,159.3090698,51.5495262,23.2967792,-4.461642599999999,-1.0031114,-0.2371687999999999,-0.0148664,-97.1710084,76.3186508,-144.27297059999998,115.33222782948371,1.0847256159063636,56.74504231409273,1.030874643374431,-89.999112,68.978287,-303.5820404
2278.34,-26.173641000000003,109.190103,-7.5161218,-0.1908608,-0.1322896,1.0450416,-7.759585599999999,9.5053892,158.8724486,51.020462,23.022121,-4.579366999999999,-0.9983998,-0.2346902,-0.0202526,-97.9320084,76.1724198,-146.10812059999998,112.53457319090842,1.0705327313890782,56.161162738611225,1.0258127599239737,-90.1724228,66.6670306,-304.9805692
2298.326,-29.4868314,106.8986678,-7.2889982,-0.23736,-0.1448316,1.0299268,-8.4329064,11.6258074,158.4202788,50.9806526,22.7537996,-5.253972599999999,-0.9861554,-0.2383542,-0.0196976,-98.6261688,76.0056198,-147.8754454,111.13022945259488,1.066801375756893,56.074651705029765,1.0147429196858484,-90.1932624,64.3798124,-306.2957242
2318.311,-30.242942400000004,104.3303816,-6.2985202000000005,-0.2698052,-0.1527997999999999,0.9872968,-9.1395024,13.694321000000002,157.9660734,51.2510718,23.2144864,-6.147580999999999,-0.9794004,-0.2440972,-0.0387932,-99.3467804,75.8106918,-149.6751342,108.80779129511428,1.0348418217859772,56.59838771216103,1.0101056870121266,-90.207278,62.11637079999999,-307.64120760000003
2338.297,-31.114141400000005,102.6566786,-5.991321999999999,-0.3045609999999999,-0.1594638,0.9672778,-9.8826912,15.7256932,157.494058,51.0185492,23.5077542,-5.247582799999998,-0.9767112,-0.231101,-0.0415506,-100.080162,75.6357222,-151.4841948,107.43546619040929,1.0265536754618727,56.41847211014575,1.0045391444671532,-90.1974708,59.910029,-308.9782528
2358.282,-31.1382632,101.5021254,-5.815521,-0.33974,-0.1633498,0.9569176,-10.6458666,17.728593,156.9986326,49.0594124,23.1885182,-3.3958785999999983,-0.971578,-0.2132069999999999,-0.0408756,-100.8274154,75.5037352,-153.2683074,106.33011417435438,1.0284929352940642,54.369709515602,0.9955359609820028,-90.1815488,57.775142200000005,-310.26694000000003
2378.268,-29.8450404,100.55762,-5.7220694000000005,-0.370469,-0.172007,0.9423426,-11.4084674,19.7050272,156.475183,45.758072,23.0200204,-0.5068225999999985,-0.9646698,-0.2113546,-0.043029,-101.6515136,75.4237822,-155.064444,105.04905261238888,1.0270556283788916,51.2247924497647,0.9884887884109764,-90.2430462,55.718755,-311.539627
2398.253,-27.24632620000001,99.303526,-5.8565484,-0.4007976,-0.1794427999999999,0.9144906,-12.14691,21.6516558,155.9207672,42.2412842,22.5261214,2.0496376000000014,-0.9548906,-0.2100134,-0.0528112,-102.552188,75.3881652,-156.8663238,103.13996183144062,1.014461183153875,47.91610637858675,0.979137737498336,-90.405278,53.7365094,-312.78709100000003
2418.239,-25.161387800000004,98.3368726,-6.2124484,-0.436996,-0.1893043999999999,0.8978950000000001,-12.875803200000002,23.5737168,155.32854,39.1878006,21.794416,4.765728400000002,-0.9580218,-0.206854,-0.0595882,-103.5073164,75.4032074,-158.66062000000002,101.6947907411844,1.0163744835937,45.0931530482066,0.9819089062486804,-90.6315132,51.8294906,-313.98916
2438.224,-22.684147600000006,97.5990766,-6.0504164000000005,-0.4691294,-0.1965182,0.8846308,-13.5825576,25.4753918,154.7105834,36.279478,20.6844058,7.738273000000001,-0.9667178,-0.214853,-0.062998,-104.49311500000002,75.470137,-160.42659599999996,100.38305556280224,1.0204280715387244,42.47265045030845,0.9923073437447896,-90.9105574,49.9947452,-315.13717940000004
2458.209,-19.107334200000004,96.5207854,-5.8678446,-0.4922015999999999,-0.1987224,0.8753451999999999,-14.2424694,27.3449924,154.07034,35.0038104,19.6527038,9.569022200000004,-0.962261,-0.2182054,-0.0640986,-105.4659696,75.56795819999999,-162.1526732,98.56867572770312,1.0237100304614386,41.26816806006508,0.9887711864896348,-91.2235002,48.2229658,-316.2230132
2478.195,-15.616927600000002,95.1134368,-5.432331199999999,-0.5203338000000001,-0.200536,0.8577806000000001,-14.8561528,29.182667400000003,153.4148346,34.073884199999995,18.25605,10.103535400000002,-0.9635644,-0.2176196,-0.0741628,-106.3961698,75.67403879999999,-163.813803,96.53996327862224,1.0231077697167588,39.9549042503741,0.9906133272651648,-91.540017,46.4913714,-317.2286376
2498.18,-12.642384400000005,93.894661,-5.0710048,-0.5523553999999999,-0.2104742,0.8410740000000001,-15.4410028,30.993912,152.7394012,31.3764232,16.971942,10.387301000000004,-0.9695248,-0.2138863999999999,-0.0764252,-107.3039182,75.78771980000002,-165.39538879999998,94.87756498405672,1.0280084388033008,37.1540411010897,0.9957743424667256,-91.8629154,44.7938078,-318.13479
2518.166,-8.695953800000003,91.9665422,-4.478236399999999,-0.5772292,-0.205234,0.8393713999999999,-15.9601978,32.7597762,152.0614838,27.253326800000004,16.8243262,9.853373400000002,-0.9624545999999998,-0.2143608,-0.0785828,-108.2801664,75.8823212,-166.96204240000003,92.4852371893504,1.039162591333329,33.50956193553465,0.9891636194753828,-92.3199686,43.122545,-319.0235262
2538.152,-5.435406200000003,89.7026308,-3.7465542,-0.6079228,-0.2063284,0.8281495999999999,-16.427652000000002,34.48120720000001,151.3872286,23.4067198,16.4952548,8.417627200000002,-0.9573892,-0.2161642,-0.0915042,-109.3030714,75.9402132,-168.49607559999998,89.94521822405926,1.0478422111112722,29.846681731656783,0.9857454337991732,-92.8754194,41.459006,-319.8833042
2558.137,-1.8723342000000032,86.4664216,-2.9599668,-0.6396384,-0.2121372,0.8017517999999999,-16.836809,36.145681,150.72351999999998,18.9871276,16.078425799999998,7.531567400000002,-0.960624,-0.2171886,-0.1056613999999999,-110.3901412,75.97465840000001,-170.0036318,86.53732780206782,1.0473516234682791,25.99521683320857,0.9905219274685038,-93.5533322,39.8289774,-320.7271518
2578.122,0.9392047999999972,83.30348059999999,-2.4865604,-0.6654498,-0.2138702,0.7885023999999999,-17.2013692,37.7477388,150.06646740000002,15.4985262,15.0650958,6.823834600000002,-0.9663754,-0.2130098,-0.1082392,-111.4597442,75.998514,-171.4212252,83.34587553294863,1.0537077078458903,22.665527668320923,0.9954749183368912,-94.258375,38.2507752,-321.4876926
2598.108,4.127462599999997,79.91786959999999,-2.043982,-0.6763396,-0.207837,0.7926179999999999,-17.502678000000003,39.2728158,149.4246706,14.2072198,14.509030200000002,7.089810400000002,-0.9694818,-0.2194826,-0.1081898,-112.511737,76.0221178,-172.794919,80.050482143041,1.0624851843772505,21.508660193000686,0.9998862960647276,-95.009059,36.74930199999999,-322.21958959999995
2618.093,6.733474199999998,76.6777572,-1.8598736,-0.68431,-0.2060903999999999,0.7737554,-17.7609832,40.7295626,148.78344740000003,14.6076676,12.9008628,7.099882800000001,-0.9710428,-0.217452,-0.1143732,-113.4439026,76.0518342,-174.052942,76.99530670003331,1.0533047270858134,20.741855015167985,1.0016440089243683,-95.6829194,35.3222716,-322.83638940000003
2638.079,8.533507999999998,73.5181182,-2.2022264,-0.6994994,-0.2095298,0.7538408,-18.002958200000002,42.1202158,148.1261598,14.952067,11.827610000000002,7.1488244000000005,-0.9715218,-0.205207,-0.1127212,-114.2947372,76.09237519999999,-175.23416759999998,74.04447490239966,1.049513267868987,20.36080440912452,0.99933507376339,-96.291779,33.972159399999995,-323.3603274
2658.064,10.156826999999996,70.96379379999999,-2.8812488000000003,-0.7114385999999999,-0.2103329999999999,0.7448372000000001,-18.236452,43.450406,147.43826,14.9203004,10.452171600000002,8.056602800000002,-0.978621,-0.2035362,-0.108932,-115.0693114,76.1592392,-176.33674019999998,71.74484483113994,1.051269378876223,19.91913913448708,1.0054810923013122,-96.8328594,32.7088332,-323.7750002
2678.05,11.341521399999996,68.38700940000001,-3.2193060000000004,-0.7169086,-0.2041072,0.7363014,-18.4578548,44.7205384,146.7416626,15.3321684,8.4105168,8.8743606,-0.9851764,-0.2043468,-0.101023,-115.7001724,76.25712419999999,-177.3008912,69.39580025811348,1.0477392049015637,19.61036605338802,1.011205122769955,-97.2423176,31.5365858,-324.0425538
2698.035,11.8183172,66.30293040000001,-3.5112926,-0.7138778,-0.2017932,0.7198116,-18.6867174,45.9398156,146.0249756,16.728779600000003,4.995905800000001,9.885026200000002,-0.9930706,-0.1921618,-0.0880496,-116.0761856,76.41015460000001,-178.0322296,67.43945712110882,1.0336685873110587,20.06302281917001,1.015316751572513,-97.3894682,30.470339000000003,-324.0572052
2718.02,11.766525799999997,65.49627000000001,-4.133151,-0.7140310000000001,-0.2034752,0.7062248,-18.952875,47.130512200000005,145.27029720000002,18.3944142,0.8972615999999999,12.3658678,-1.003155,-0.1820736,-0.0641242,-116.1637618,76.6530348,-178.50306700000002,66.6730489066142,1.024693073125353,22.182746416687745,1.021558937539876,-97.2108868,29.522522599999995,-323.7733642
2738.006,11.380257799999995,65.7904518,-4.1524374,-0.7010232000000001,-0.2007634,0.6967498,-19.25512,48.310997,144.4885894,19.7111288,-5.067012,14.5622534,-1.0122706,-0.1721578,-0.0349002,-115.7871566,76.9967284,-178.526767,66.89646143110637,1.008563212455144,25.02523592824142,1.0273987053161202,-96.5320366,28.6857314,-323.01535640000003
2757.992,10.204241799999997,67.4302514,-3.9893556,-0.6920437999999999,-0.1982188,0.6869536,-19.6198742,49.508976,143.6677612,20.3087,-11.134164,16.4880664,-1.0110336,-0.1608952,-0.0105156,-114.9182616,77.43336160000001,-178.059955,68.31456881722464,0.9950480201200542,28.430076279878406,1.0238099352689247,-95.2983874,27.9243856,-321.7277162
2777.977,9.090080799999996,69.55748299999999,-4.047626,-0.6996518,-0.1965806,0.679883,-20.058523200000003,50.736676,142.7906434,19.5600868,-16.287033400000002,18.3714884,-0.997625,-0.1476993999999999,-0.0066308,-113.6656508,77.9467268,-177.1848512,70.26561240380455,0.995187151860694,31.39069987476521,1.008521056247216,-93.6071276,27.210050800000005,-319.9754946
2797.963,7.514961599999998,70.5437044,-4.1180244,-0.7377048,-0.1954277999999999,0.6644124,-20.578205200000003,51.9859772,141.8695862,15.455577,-19.0819402,18.760635,-0.9773288,-0.1559494,-0.0230816,-112.2502532,78.47129500000001,-176.05839559999998,71.062275528462,1.011851883543061,30.90237414508034,0.9899618977154424,-91.672048,26.4853178,-317.92798180000005
2817.948,4.593459799999997,67.9781472,-2.2095702,-0.7898186,-0.1939162,0.661696,-21.119568800000003,53.2035394,141.01567400000002,7.932227,-19.2090708,15.5252388,-0.9694774,-0.196634,-0.051909,-110.83885639999998,78.92173299999999,-174.7820528,68.16898539767048,1.048455297065354,25.94111921209197,0.9905785700022792,-89.7192876,25.7181936,-315.7977268000001
2837.933,1.4117347999999972,61.5407244,0.8725555999999999,-0.857053,-0.1952428,0.6710756,-21.608600000000003,54.3281656,140.3170624,1.7539172000000005,-16.0971734,11.308349800000002,-0.9618292,-0.2213136,-0.1001142,-109.7010772,79.25444159999999,-173.65748,61.56309859077415,1.105894233946538,19.750290939965502,0.9920272035379072,-88.0924772,24.926276,-313.9745424
2857.919,0.7942761999999972,50.162502,3.6266884,-0.9236756,-0.1837327999999999,0.6806894,-21.9328034,55.2686868,139.8446594,-3.4643831999999994,-10.6695414,8.404909800000002,-0.9593722,-0.2096388,-0.1468182,-109.135138,79.48419319999999,-173.0063234,50.29970527083221,1.1620122267444348,14.017259838816296,0.9929244827526008,-87.2023346,24.2155064,-312.8509828
2877.904,-0.4455064000000028,34.5223228,5.7261434,-0.9762144,-0.1748718,0.6878004,-22.0682484,55.939451,139.6353636,-10.9857716,-3.5660136,5.4004546000000015,-0.9656942,-0.2232638,-0.178861,-109.3687486,79.5943052,-173.0136872,34.99682793764607,1.2069151136027587,12.75023688130588,1.007175888127332,-87.3005002,23.6548542,-312.6490508
2897.889,-2.228491600000003,15.4141478,8.6608098,-1.01181,-0.1834526,0.7144684,-21.961668,56.2704248,139.7571318,-16.9744022,3.646159,1.5032966000000012,-0.9878316,-0.2525792,-0.1932716,-110.2661928,79.58523699999999,-173.5758392,17.82054302212173,1.252149921992299,17.426551757826832,1.037767523869272,-88.3045248,23.3148122,-313.332971
2917.875,-1.319253400000003,-5.6017816,11.0044186,-1.0164794,-0.1844572,0.7476846,-21.5450476,56.2143396,140.2152586,-17.1888574,9.4519768,-0.5326357999999987,-0.9903712,-0.2317848,-0.2025516,-111.6856874,79.4849548,-174.6637024,12.418438523080752,1.2752596168362582,19.623465163948865,1.037104844248179,-90.1406398,23.2706152,-314.878961
2937.861,0.1894771999999971,-27.0228106,11.5115632,-1.0043744,-0.181022,0.7654080000000001,-20.8701864,55.75153279999999,140.945114,-16.793644200000003,14.8775844,-1.6385195999999986,-0.9868006,-0.2058095999999999,-0.1956402,-113.5751116,79.317743,-176.23701780000002,29.373189844488905,1.2756905213739578,22.495638456707585,1.0268437580608647,-92.7049252,23.5662102,-317.18213180000004
2957.846,0.0847065999999971,-47.967124,11.3877322,-0.9865664,-0.198714,0.7875338000000001,-20.0347514,54.8811822,141.878958,-16.869570400000004,18.475981,-3.9478861999999983,-0.9924772,-0.2179733999999999,-0.1776518,-115.6403886,79.0716188,-105.9901092,49.30043209443885,1.277892797361109,25.328444185165964,1.031544258706644,-95.6056372,24.1904366,-247.8690672
2977.832,2.136123199999997,-67.8574792,11.360002,-0.9507202,-0.2123088,0.8222108,-19.0333022,53.6172516,142.9801056,-12.5608946,19.0293622,-5.511802199999998,-1.0038778000000002,-0.2174646,-0.1475954,-117.4649246,78.7921542,-35.5907562,68.83494861728317,1.2747448861957125,23.45789126036317,1.0377118538819723,-98.4316224,25.174902600000003,-178.57086180000002
2997.817,4.913812599999997,-85.1197664,10.788822,-0.9046666,-0.2095212,0.8498728,-17.918509800000002,52.0029534,144.18634939999998,-5.639864,16.904932000000002,-5.554272399999999,-1.0081736,-0.1964946,-0.116559,-118.8616362,78.525284,35.10062859999999,85.94136877200742,1.2588107747333752,18.666406557142214,1.0337360088761152,-100.9431264,26.5223306,-109.08572080000002
3017.802,6.607406999999998,-99.927469,9.9143988,-0.8701429999999999,-0.2187609999999999,0.8685042,-16.7922242,50.0858384,145.416339,-0.7412486000000001,12.940889000000002,-5.903046999999999,-1.0131336,-0.189054,-0.0830326,-119.6770248,78.2999284,106.2812804,100.6352432877024,1.248721250314753,14.24296392895566,1.0339610819695877,-102.8848006,28.21409000000001,-39.135058600000015
3037.788,9.2158744,-113.0741944,9.518877,-0.8355252,-0.2211489999999999,0.8955902,-15.658300000000002,47.8982202,146.6423522,2.697169,6.7498914,-6.571558599999999,-1.0208994,-0.1898706,-0.0512908,-119.7621566,78.1310334,178.1335478,113.84777028781326,1.2446248617041522,9.79903755271858,1.0396716673206787,-104.1038566,30.2328132,31.4911956
3057.773,11.043111799999997,-124.8592164,10.082902,-0.8024238,-0.2141556,0.9238118,-14.5293726,45.4743348,147.87045899999998,4.1379706,-0.691892,-7.469918999999999,-1.0203951999999998,-0.1880331999999999,-0.0288898,-119.1069228,78.0243394,106.7106596,125.75149760933638,1.2422458764822042,8.567450326245805,1.037977585995632,-104.5775502,32.55000460000001,-41.15979940000001
3077.759,12.136440199999996,-135.89803179999998,11.3713314,-0.7807499999999999,-0.2106978,0.9434604,-13.425875200000002,42.8367182,149.0940552,2.6892612,-8.2654666,-9.470649599999998,-1.0199528,-0.1852642,-0.0177246,-117.7563872,77.95416580000001,36.027371,136.91192572471766,1.242610820729081,12.854698275864786,1.0367934700192898,-104.330512,35.117447600000006,-113.0666842
3097.744,13.473312799999997,-146.7714876,12.6713002,-0.7595552,-0.200251,0.9688178,-12.3503892,39.9904986,150.2984712,-0.2343085999999999,-16.128341799999998,-11.1687696,-1.022094,-0.1754602,-0.0065984,-115.74360959999998,77.9210558,-33.9191622,147.93228714138817,1.2472499727179314,19.619371144752456,1.0370660371946427,-103.3932204,37.9305572,-184.2176334
3117.73,15.4822164,-156.9056918,13.6723428,-0.7280018,-0.182008,0.9886776000000002,-11.3030654,36.9472016,151.4664674,-3.9399874,-24.3515206,-11.657699399999998,-1.0294692,-0.1661029999999999,0.0024901999999999,-113.1040008,77.933031,-103.1489228,158.2593697116658,1.241207851090622,27.28409814425141,1.042786287526682,-101.8009354,40.9858294,-254.6153902
3137.715,16.816574199999998,-166.3706484,14.4596892,-0.7013510000000001,-0.167119,1.007122,-10.3081424,33.7222718,152.5845278,-8.6570464,-32.5376222,-11.688225199999998,-1.0294336000000002,-0.1679588,0.0164573999999999,-109.83155200000002,77.9724932,-171.63670359999998,167.84240354755744,1.238594650499509,35.64064981348686,1.0431752208143945,-99.5234096,44.2502214,-324.2212314
3157.701,18.5306742,-175.2091126,15.8549624,-0.6596536000000001,-0.1495012,1.0155508000000002,-9.3512948,30.3281816,153.66473100000002,-13.7066088,-39.8329254,-12.4289358,-1.0348096,-0.1687386,0.0290449999999999,-105.9823394,77.9980928,-167.4329986,176.89827262325497,1.220179047588935,43.92051361082569,1.048879037547762,-96.6310446,47.6699112,-321.0977296
3177.686,18.894335,-182.6337432,17.4832732,-0.6168571999999999,-0.1286348,1.0223756,-8.457678000000001,26.7945988,154.70959480000002,-19.3132416,-46.8348152,-12.163901,-1.0380832,-0.1645541999999999,0.0419629999999999,-101.624829,78.00370799999999,-162.59568480000002,184.43900046389757,1.2009627739602255,52.10049619203182,1.0518819839834124,-93.167151,51.2091092,-317.3052796
3197.671,19.384722,-188.9551848,19.0124766,-0.568088,-0.1105038,1.0182965999999998,-7.6271044,23.14374,155.71639100000002,-25.2370688,-52.0290588,-11.5135282,-1.0309909999999998,-0.155168,0.0502537999999999,-96.964688,77.96932380000001,-157.3274476,190.89605437589583,1.1712655681484023,58.96180062414975,1.043812720136826,-89.33758359999999,54.8255838,-313.0438386
3217.657,19.206471,-194.316638,20.112059,-0.5154782,-0.0927954,1.014965,-6.873174000000001,19.3920552,156.67971500000002,-33.2162676,-54.9980644,-9.9629492,-1.0232945999999998,-0.1436411999999999,0.0639717999999999,-92.2524336,77.89472959999999,-151.8422822,196.2965594428908,1.142139532702288,65.0182118931545,1.0353052805437823,-85.3792596,58.5026744,-308.52199720000004
3237.642,18.6859758,-198.3554382,21.2803706,-0.4557512,-0.0808664,1.003289,-6.2007782,15.5605796,157.604837,-42.2101006,-55.6490226,-8.2166228,-1.0241542,-0.1387942,0.0687199999999999,-87.76514420000001,77.775087,-146.4008118,200.3669127575348,1.1049150865434865,70.32794038811964,1.0357982881484598,-81.56436599999999,62.2145074,-304.0056488000001
3257.628,17.810664799999998,-201.513974,21.96558,-0.4017527999999999,-0.0665756,0.9955746,-5.6184636,11.651365,158.4883484,-51.0250686,-54.7236922,-5.710013599999998,-1.0073368,-0.1316706,0.0730189999999999,-83.6528776,77.6319412,-141.1596254,203.48854563003556,1.075642322981185,75.03895234441399,1.0185265582691498,-78.034414,65.9805762,-299.64797380000005
3277.613,16.786662799999995,-204.1279358,22.4049878,-0.3396322,-0.0547075999999999,0.9841848,-5.1266892,7.672550599999999,159.3339386,-60.0534446,-52.5994918,-3.667127999999999,-1.0108156,-0.1277628,0.0750697999999999,-80.0384368,77.46334060000001,-136.2389344,206.0388062968915,1.0425750204784496,79.91602200880571,1.0216197850175182,-74.9117476,69.79079,-295.572873
3297.599,15.243121399999996,-205.8402496,22.9381376,-0.2752642,-0.0527714,0.9767854,-4.733444199999999,3.6403545999999993,160.1527924,-71.5390732,-49.9842154,-4.355267799999998,-1.0115006,-0.1286044,0.0779895999999999,-77.0747192,77.23121319999998,-131.7447312,207.67455131036635,1.0162012193029293,87.37979824352006,1.0226215982502422,-72.34127500000001,73.5908586,-291.8975236
3317.584,13.354700999999997,-206.718396,24.0170262,-0.2142082,-0.0455157999999999,0.964649,-4.4424078,-0.4273692,160.9657348,-82.9451446,-48.1269492,-5.053211799999998,-1.0044152,-0.1409028,0.0750017999999999,-74.6988464,76.941226,-127.6127778,208.53695315483944,0.9891938809949644,96.02934552265756,1.0170195489970288,-70.2564386,77.36859519999999,-288.57851259999995
3337.57,10.310422999999997,-207.3104522,25.6683286,-0.1437684,-0.0440925999999999,0.9522978,-4.2753326000000005,-4.506593,161.7963898,-94.1903258,-46.2699058,-6.875868399999999,-1.0030128,-0.1566112,0.0784787999999999,-72.9114806,76.58708179999999,-123.8476166,209.14777432936023,0.9640978218511648,105.166530908389,1.0181948079708123,-68.636148,81.0936748,-285.6440064
3357.555,6.975184399999998,-206.7029144,27.5322574,-0.0724484,-0.054363,0.935937,-4.2419122,-8.5653572,162.6619964,-105.1052444,-46.567498,-10.8538908,-1.0072286,-0.1921204,0.0766699999999999,-71.6143814,76.1165328,-120.3529754,208.64508912602665,0.9403096162437988,115.4705642831196,1.0282499645777383,-67.3724692,84.68189,-283.0149718
3377.56,4.0621753999999966,-205.3776582,29.708133999999998,-0.0037129999999999,-0.0655208,0.9061662,-4.3419668,-12.5763464,163.5833008,-109.2542358,-46.182798,-14.5714038,-0.9839372,-0.230555,0.0715205999999999,-70.7289794,75.5444442,-117.1858002,207.55494930851043,0.9085394562835892,119.50591901681464,1.0131155994224943,-66.3870126,88.12079059999999,-280.769101
3397.526,0.7641419999999972,-203.7707856,31.5071688,0.066015,-0.067958,0.8788307999999999,-4.5861464,-16.532904600000002,164.5662232,-103.8576294,-46.3380792,-15.640270999999998,-0.9791682,-0.2715652,0.0739506,-69.94133280000001,74.924153,-114.22047419999998,206.19364360432897,0.8839229859086366,114.79652802017426,1.0188163293659167,-65.35518640000001,91.4570576,-278.7866974
3417.511,-2.742241600000003,-201.1474732,32.911141,0.137256,-0.0848942,0.8426465999999999,-4.9926754,-20.4165382,165.621164,-92.8391372,-45.53668,-16.703172000000002,-0.9659134,-0.2980482,0.0738809999999999,-69.1940046,74.2697448,-111.514067,203.84054813912604,0.8579624276279235,104.74583799046344,1.013548137970664,-64.2013292,94.686283,-277.135231
3437.497,-5.288125400000003,-197.5954956,33.5849294,0.202985,-0.0948112,0.8008329999999999,-5.5481806,-24.225705800000004,166.7486144,-75.5492702,-46.3765252,-16.091235399999995,-0.9525154,-0.323857,0.0730893999999999,-68.20054760000001,73.600894,-108.9001388,200.49910631835425,0.8315801631589343,90.09662687402373,1.0087175045960688,-62.65236699999999,97.8265998,-275.6487532
3457.482,-7.733028200000002,-193.1189942,33.8208426,0.2761998,-0.103443,0.7472532000000001,-6.2591410000000005,-27.9430794,167.9558288,-53.9473612,-46.355822,-11.8384288,-0.939897,-0.3253218,0.0826899999999999,-66.8165434,72.9955306,-106.3201554,196.2105885015781,0.8033518087857151,72.10636872143556,0.9980372138674188,-60.5574024,100.93861,-274.27598420000004
3477.468,-10.266108400000004,-186.923468,33.607579599999994,0.3442076,-0.1185538,0.7002735999999999,-7.138724600000001,-31.5433992,169.2493834,-33.6936998,-46.6395354,-5.9559282,-0.9273632,-0.3214914,0.0953482,-64.9816932,72.4751892,-103.6843902,190.19791081239012,0.7892509044968906,57.84448763074946,0.9861290504956438,-57.84296859999999,104.0185884,-272.93377360000005
3497.453,-11.012228800000004,-178.9121368,33.418321,0.4058922,-0.1348346,0.6435086,-8.160885799999999,-34.9889792,170.6400724,-15.249575399999998,-46.3735892,3.302771600000001,-0.9188472,-0.3086734,0.0962889999999999,-62.6553642,72.1016266,-100.9120208,182.33926087363773,0.7726785655445347,48.92818845422757,0.9740795739242252,-54.494478400000006,107.0906058,-271.55209320000006
3517.438,-11.577059000000002,-168.9590514,32.222916600000005,0.4597644000000001,-0.1413698,0.5914802,-9.299895799999998,-38.2403734,172.1000974,0.0412356000000031,-46.7772314,13.340442200000002,-0.9343058,-0.279649,0.1032093999999999,-59.7645492,71.8780792,-97.8653716,172.393461880919,0.7623762528118515,48.642352697165,0.980705394786324,-50.4646534,110.1184526,-269.96546900000004
3537.424,-11.833434000000002,-156.60251,29.7465972,0.5018192,-0.1566422,0.5393444,-10.5223712,-41.2476548,173.58866859999998,7.661176800000002,-45.8077734,21.3107678,-0.9317236,-0.2401992,0.1042199999999999,-56.5758926,71.7755936,-94.664897,159.8412848531677,0.7531611183012835,51.09984890439621,0.967815235919336,-46.0535214,113.0232484,-268.2535656
3557.41,-11.582924600000002,-142.28339979999998,26.1694068,0.5291884,-0.1665712,0.5029087999999999,-11.7773894,-43.9686394,175.05614599999998,10.339589000000004,-43.526123,25.508731800000003,-0.9347786,-0.2220591999999999,0.0989924,-53.3875442,71.73390040000001,-91.5182386,145.13293166335407,0.7488014346149718,51.49879495817724,0.965878260745297,-41.6101548,115.7025398,-266.5743846
3577.395,-12.078226000000004,-126.5067458,21.8770252,0.5496632,-0.1720324,0.46393,-13.028184199999998,-46.3773956,176.4471678,8.662436800000004,-40.21106,25.8038508,-0.930807,-0.2001685999999999,0.0894619999999999,-50.451847,71.7099654,-88.5997404,128.95132611886677,0.7395646185317414,48.55724326757291,0.9562806016640514,-37.4236628,118.08736100000002,-265.0469082
3597.38,-13.710336000000003,-109.0805252,16.7777264,0.5650421999999999,-0.18062,0.4346952,-14.2505404,-48.4484642,177.7047546,3.2178312000000027,-35.4833596,22.7018894,-0.9225578,-0.184595,0.0820939999999999,-47.9774894,71.66415860000001,-86.0520566,111.2116288626958,0.7354292549823402,42.24688187860068,0.9444192041682762,-33.726949000000005,120.11262279999998,-263.7568112
3617.366,-14.041672200000004,-90.5823434,11.389476,0.5792696,-0.1910344,0.4074988,-15.358394399999998,-50.168975,106.7678802,-0.9025275999999972,-29.0273298,18.6282352,-0.9008916,-0.1926418,0.0725967999999999,-46.0697982,71.6062408,-84.010771,92.3690947100942,0.7335548264914901,34.50234163144943,0.9241140803104562,-30.7114038,121.7752158,-190.7786512
3637.351,-14.481465400000005,-71.4289656,6.5154804,0.5971856000000001,-0.1960608,0.3783882,-16.3060914,-51.532689600000005,35.5947724,-1.7161537999999972,-22.115750400000003,14.775191800000002,-0.8887713999999999,-0.2044412,0.0688022,-44.6824882,71.563977,-82.49620039999999,73.17281907689606,0.7336539429753242,26.652540073080125,0.914573424302412,-28.3763968,123.0966666,-118.0909728
3657.337,-15.971635000000004,-51.1557802,2.3201632000000005,0.6139830000000001,-0.2096744,0.3546106,-17.072047599999998,-52.5179198,-35.852063,-1.2975583999999971,-14.815045,12.440735200000002,-0.8801194000000001,-0.2112132,0.0711503999999999,-43.721112,71.57701259999999,-81.4369978,53.64130991799671,0.7393829562119485,19.38920082081659,0.9079006297666944,-26.649064400000004,124.0949324,-45.5849348
3677.322,-15.039235400000004,-30.139884,-1.6679865999999997,0.6322612000000001,-0.2222266,0.3360716,-17.579330199999998,-53.1170912,-107.6029144,1.432481800000003,-7.518258400000001,11.131850000000002,-0.8852930000000001,-0.2243278,0.0767305999999999,-43.0623702,71.6631164,-80.7551574,33.72496683835062,0.7497219531930222,13.509045040231449,0.916490175985646,-25.483040000000003,124.7802076,26.847757
3697.308,-14.1473372,-8.724085800000001,-4.7720088,0.6509718,-0.234214,0.322054,-17.8187122,-53.320675400000006,-107.6624726,2.943541000000003,-1.6039327999999995,8.810946000000001,-0.8898416000000001,-0.2340098,0.0966696,-42.7260458,71.7945876,-80.44439700000001,17.292451847078915,0.7631115653082713,9.427078203797446,0.9251614297790198,-24.907333600000005,125.115263,27.2180756
3717.293,-13.552128800000002,12.8651622,-7.116838999999999,0.664138,-0.2520022,0.3160454,-17.8107932,-53.1219382,-36.0137146,1.3673068000000033,3.6213578,3.817379000000001,-0.9044806,-0.2395882,0.1163327999999999,-42.85126340000001,71.9267302,-80.5871154,19.995549274676584,0.7774761004108101,5.436556136984892,0.9428790917776468,-25.040470200000005,125.0486684,-44.5734008
3737.279,-12.682712600000002,34.413284399999995,-8.9028488,0.6719774,-0.2643676,0.32879,-17.5812374,-52.5203346,35.3749632,-1.9801637999999968,7.7645736,-1.9986969999999984,-0.9203486,-0.246271,0.1329592,-43.4585282,72.0283872,-81.1681274,37.74103945104246,0.7934398012077034,8.258598038556931,0.9619610698087528,-25.877290800000004,124.5487218,-116.5430906
3757.264,-10.6405804,54.9036946,-10.6639876,0.6783574,-0.2676332,0.3442438,-17.1426886,-51.5372032,106.5387328,-4.946699799999997,11.882259,-7.508012399999998,-0.9256302,-0.250599,0.1470596,-44.5263284,72.1003186,-82.1730134,56.93292776163796,0.8064118586153356,14.900609653734133,0.970163724278124,-27.383639800000005,123.63752180000002,-188.7117462
3777.25,-8.770153400000003,74.22201620000001,-12.5073552,0.6758558,-0.2692493999999999,0.3783718,-16.53949,-50.191594,177.5169982,-7.510954999999997,14.7486968,-12.224935599999998,-0.9319668,-0.2447515999999999,0.1608248,-45.966755,72.13754859999999,-83.5169662,75.7776828198881,0.8200253171879757,20.5763833735305,0.9768981923925544,-29.427265,122.3291426,-261.03396439999995
3797.235,-7.120158200000003,91.9197328,-14.9057324,0.6622033999999999,-0.2679635999999999,0.4062236,-15.8031556,-48.5132004,176.3354644,-11.091366599999995,17.0424832,-16.07295,-0.938707,-0.2407544,0.1666108,-47.7223192,72.14132219999999,-85.1195128,93.39226300500933,0.8217879575008871,25.91918919218689,0.9833070078286842,-31.9191636,120.6545226,-261.45497720000003
3817.22,-6.789068400000003,107.6091676,-16.473277799999998,0.648293,-0.2542024,0.4574744,-15.0256462,-46.5326362,175.06596059999998,-15.723477999999997,19.1568942,-18.468407,-0.939733,-0.2544182,0.1756344,-49.7529512,72.1126814,-86.9152144,109.07425582043062,0.8331779525828321,30.90786975713672,0.9892796238898284,-34.727305,118.6453176,-261.981175
3837.206,-5.289466600000003,120.983429,-17.2657834,0.6260102000000001,-0.2435288,0.5017889999999999,-14.2319678,-44.288615400000005,173.7657746,-18.075040999999995,22.195379000000003,-17.973453799999998,-0.9302188,-0.2630679999999999,0.1736466,-51.94795380000001,72.105223,-88.83504620000001,122.323651948126,0.838443347790702,33.799215931823866,0.9821735743691136,-37.715986,116.3938384,-262.6008208
3857.191,-4.681037200000003,131.6698792,-17.302943,0.586711,-0.2239015999999999,0.5464499999999999,-13.4721534,-41.821753,172.48032240000003,-19.1634012,24.03486,-15.5845486,-0.9318312,-0.2592692,0.1739076,-54.1510086,72.1391846,-90.7429868,132.88438973134365,0.8324477920587932,34.4643090143633,0.9827378880962307,-40.6788552,113.9609376,-263.2233092
3877.177,-6.2602268000000025,140.3834824,-16.210938199999998,0.545807,-0.211293,0.5947359999999999,-12.82243,-39.1601014,171.25338140000002,-22.9012448,26.5144282,-12.2699942,-0.9193506,-0.2619392,0.1752104,-56.4363976,72.230046,-92.6604108,141.45496487455915,0.8344225085614602,37.12188941622605,0.9718623125140516,-43.6139676,111.3901474,-263.9137922
3897.162,-5.891963600000002,146.5285858,-14.4062084,0.5016762,-0.1957754,0.657442,-12.2623734,-36.34793259999999,170.114084,-22.3803094,29.7181918,-7.154465799999999,-0.9058008,-0.2953759999999999,0.167496,-58.756073,72.4076354,-94.6221068,147.352911515436,0.8498452801866937,37.88450281559314,0.9673556639998756,-46.4936996,108.755568,-264.73619080000003
3917.148,-3.0586704000000027,149.94740900000002,-12.9555732,0.4543608,-0.1855129999999999,0.6971082000000001,-11.7339318,-33.4439126,169.0578432,-13.549483599999997,33.264432,-1.4917301999999988,-0.8985602,-0.2905834,0.1477535999999999,-60.9654594,72.6977936,-96.650389,150.53713099222293,0.8525365987761934,35.94907788941025,0.9558662415278406,-49.23152760000001,106.1417062,-265.7082322
3937.133,-2.8800816000000027,151.8085144,-12.4387596,0.3973848,-0.1689504,0.7494214,-11.2704234,-30.479625,168.06107179999998,-3.262204399999997,35.7245036,4.6684138000000015,-0.9114932,-0.2703758,0.1413848,-62.9700866,73.1073578,-98.6782684,152.34448678814817,0.8649227432026285,36.17563022839855,0.9612037185440556,-51.6996632,103.5869828,-266.7393402
3957.119,-2.575207800000003,152.6821654,-12.6612464,0.3529606,-0.1685372,0.7980838,-10.8679596,-27.4816358,167.10979620000003,5.334673000000004,38.34475,8.635578,-0.9120138,-0.2624392,0.1322736,-64.927162,73.5939224,-100.832019,153.22787764257407,0.8887765325202056,39.66549881160595,0.9581961231105248,-54.0592024,101.0755582,-267.9418152
3977.104,0.1056269999999972,151.87357780000002,-13.8383298,0.3162502,-0.1597472,0.8447644000000001,-10.461447799999998,-24.496013,166.18125,15.987589400000005,40.6300744,12.314281,-0.9333672,-0.2802168,0.1201498,-66.8466818,74.1390092,-103.1613586,152.50276772075108,0.9160569023893876,45.3657081628788,0.981902112981798,-56.385234,98.6350222,-269.3426086
3997.089,0.1150135999999972,150.9144592,-14.7768958,0.2779276,-0.1562627999999999,0.8828752,-10.1056502,-21.527930399999995,165.27816460000005,27.360493600000005,42.0799492,13.1881718,-0.9524842,-0.2602346,0.1105955999999999,-68.7334518,74.6953674,-105.6879882,151.63622216753063,0.93868548102154,51.89649901618159,0.9935691143680744,-58.62780160000001,96.2232978,-270.9661528
4017.075,-1.3452136000000028,149.845694,-15.270190200000002,0.2356367999999999,-0.1599819999999999,0.9131268,-9.8308222,-18.5774684,164.4028624,34.90559280000001,42.322805800000005,13.945878000000002,-0.9649846,-0.2560728,0.1076413999999999,-70.6052428,75.2432082,-108.349472,150.6277541448303,0.9565142417739946,56.60483912789445,1.0041689241013985,-60.774420600000006,93.8206766,-272.7523344
4037.06,-2.616582600000003,148.1357024,-14.8555926,0.1995494,-0.1600648,0.9436382,-9.6318178,-15.6557156,163.5692382,40.2436566,42.179354,12.7163716,-0.968558,-0.2690916,0.1027387999999999,-72.54780880000001,75.7339964,-111.1878814,148.9017174566538,0.977698192561815,59.66871799414939,1.0104801579348306,-62.915991000000005,91.389712,-274.7571196
4057.046,-3.005603800000003,145.78656,-13.810623600000005,0.1615503999999999,-0.1633274,0.9753048,-9.4933878,-12.7780858,162.78556799999998,47.354789800000006,42.1833168,11.7523964,-0.9831922,-0.2775806,0.0842998,-74.556546,76.177432,-114.2333388,146.47009269832887,1.0019949222595692,64.49827249154879,1.025097238274126,-65.0631582,88.95551780000001,-277.0189068
4077.031,-5.156209400000003,143.36042479999998,-12.1851156,0.1049838,-0.1624121999999999,1.0021886,-9.4467252,-9.9372066,162.05736380000002,54.187735,41.596502,9.769153800000002,-0.992113,-0.25309,0.0769393999999999,-76.55742640000001,76.5645902,-117.4073532,143.9697014527656,1.0206768886093385,69.00736170173646,1.0267728201220367,-67.1107012,86.50179680000001,-279.464717
4097.017,-6.528747400000003,140.18581840000002,-10.6964284,0.0577256,-0.1653598,1.0104187999999998,-9.4718332,-7.154705,161.377005,57.1495972,41.2052126,8.474982400000002,-0.9952152,-0.2355048,0.0597603999999999,-78.641551,76.9052092,-120.722293,140.74481092959385,1.0254863527833218,70.9631688428142,1.024444781597447,-69.1697178,84.05991420000001,-282.099298
4117.002,-9.504796000000002,136.92185039999998,-9.3085704,0.0104862,-0.153229,1.0289676,-9.5839166,-4.4326224000000005,160.7354706,59.24516840000001,40.3464716,6.896068000000001,-1.0141668,-0.235894,0.0516119999999999,-80.7590194,77.1835586,-124.1103438,137.56665201586227,1.040366958664682,72.00960701999831,1.0425181418096472,-71.1751028,81.61618100000001,-284.8458144
4136.988,-10.862345400000002,134.01971120000002,-8.055523,-0.020749,-0.1682413999999999,1.0486532,-9.7600866,-1.774801,160.124759,60.571485200000005,40.0077112,5.989507600000001,-1.0184757999999998,-0.2319105999999999,0.0419777999999999,-82.9410094,77.4160324,-127.58820939999998,134.70027835354998,1.062266079447706,72.83814918081653,1.0453887397857504,-73.18092279999999,79.1908334,-287.7129684
4156.973,-12.008474200000004,131.487323,-6.433651,-0.071955,-0.1648326,1.0447702,-9.9842212,0.8384607999999998,159.54686600000002,60.9364892,39.308442,3.4056496000000016,-1.0235434,-0.2270622,0.0378307999999999,-85.14691,77.56669480000001,-131.09598839999998,132.19119270022568,1.060137764092856,72.59481922070651,1.0491089093993244,-75.1626888,76.72823400000001,-290.6428544
4176.959,-14.678097000000005,128.901381,-4.4496106,-0.1009172,-0.1719972,1.0204342,-10.2900396,3.3965062,159.0053742,58.65728680000001,38.2179542,0.7931046000000013,-1.0264989999999998,-0.2131252,0.0305429999999999,-87.3604416,77.64210519999999,-134.5635954,129.810675946704,1.0397371180223007,70.01370103684916,1.048835269584809,-77.07040200000002,74.245599,-293.56896960000006
4196.944,-16.666947200000003,126.8763322,-2.9156236,-0.1319718,-0.1705365999999999,1.0355504,-10.6538116,5.9073988,158.4859802,54.491582400000006,36.899449,-0.9663681999999988,-1.0204908,-0.210254,0.0377495999999999,-89.5280716,77.65305040000001,-137.9002868,127.99957680582082,1.0577636403634605,65.81668296456121,1.042608867073746,-78.87426,71.7456516,-296.386267
4216.93,-16.558256600000004,124.7793184,-1.2929028000000002,-0.170329,-0.184063,1.0309148,-11.0397608,8.375561000000001,157.988559,51.5438338,36.181783800000005,-3.889773599999999,-1.0027206000000002,-0.2095894,0.0181811999999999,-91.696556,77.57564260000001,-141.1768158,125.87980679858973,1.060979020089012,63.09531377536071,1.024552035911383,-80.6567952,69.2000816,-299.16537480000005
4236.915,-17.5759682,122.2574922,-0.1825532,-0.2232306,-0.1849374,0.9965708,-11.4664318,10.8018988,157.5024018,50.8633452,34.9903456,-6.097804199999999,-1.0095354,-0.2078414,0.0046945999999999,-93.747432,77.4310518,-144.3198028,123.51454320391304,1.0378762460465891,62.0369840192392,1.0307190745670132,-82.2810002,66.629153,-301.8222046
4256.901,-19.093610800000004,119.766835,0.3296496,-0.2452296,-0.1914224,0.9969958,-11.944067,13.165142,157.0138642,50.1382758,33.5939798,-6.321006199999999,-1.0029488,-0.1986904,0.0110341999999999,-95.5991014,77.2669098,-147.2474914,121.27971556759968,1.0444044796703813,60.68242989844847,1.0224998406079289,-83.6550344,64.10176779999999,-304.2613556
4276.886,-18.3617574,117.9126524,0.5383574,-0.2817282,-0.194939,1.0057518,-12.4261814,15.483846599999998,156.5136048,50.322483,33.5702486,-6.444464199999999,-0.9857706,-0.2102978,0.0003581999999999,-97.3851288,77.07186120000001,-150.1134888,119.33498045212818,1.0625011414579657,60.83457080621324,1.007952860413839,-84.95894739999999,61.5880146,-306.6270936
4296.872,-17.3497542,115.1940824,0.6427609999999999,-0.3258136,-0.2028188,0.9692332,-12.9144854,17.7508676,156.0018556,51.5427856,32.9684394,-6.864824799999999,-0.9830972,-0.1981296,-0.0196608,-99.0658616,76.8582548,-152.8968566,116.49508029303868,1.0424504609623615,61.5686816767562,1.003056324490624,-86.1513762,59.107387200000005,-308.8987122
4316.857,-17.532076400000005,113.1328688,-0.3871626,-0.3628046,-0.2110882,0.9448136,-13.4422244,19.9698516,155.449878,49.1157692,31.7961842,-4.145614199999999,-0.9801276,-0.1831996,-0.0174832,-100.6544756,76.6945446,-155.53873579999998,114.4839272592109,1.0338559593605678,58.656135492233375,0.997255166947838,-87.2122512,56.724693,-310.98861380000005
4336.843,-17.5022786,111.1248884,-0.7429224000000001,-0.3981398,-0.2121757999999999,0.9485852,-13.993747199999998,22.1384196,154.8727142,44.0292668,30.5913956,-2.1048767999999987,-0.9738028,-0.1937272,-0.0142194,-102.205118,76.5555036,-158.0401824,112.49721112897376,1.050403613906921,53.65482574796474,0.9929875692293636,-88.21137080000001,54.417084,-312.9128966
4356.828,-15.693453800000004,108.77474499999998,-0.5267636,-0.4285085999999999,-0.217945,0.9238274,-14.5345798,24.2563118,154.2822174,40.9040806,29.35566,-0.1858385999999985,-0.9693372,-0.2059803999999999,-0.0329428,-103.7401688,76.4369398,-160.4612396,109.90226167772,1.0414301264557888,50.3481193268641,0.9915279928271516,-89.205589,52.180628,-314.743457
4376.813,-14.068335200000003,106.3957366,-1.0804812,-0.4671816,-0.2220175999999999,0.9005096,-15.0755372,26.3234838,153.6616578,38.305232,27.2044042,2.903987400000001,-0.9678616,-0.1995342,-0.0394256,-105.19083879999998,76.37726280000001,-162.7426392,107.3272484580672,1.0384931399775736,47.07232253957904,0.9890016944674866,-90.1153016,50.053779,-316.404297
4396.799,-13.108489200000005,104.59706880000002,-0.9659116,-0.5028560000000001,-0.2334628,0.8815725999999999,-15.6300734,28.3524972,153.01949159999998,34.3777166,24.6451222,6.142883600000001,-0.9765356,-0.2080608,-0.0393466,-106.5562594,76.37784260000001,-164.856653,105.41969586314252,1.0414121589412138,42.74277091867111,0.999229317772232,-90.926186,48.0253454,-317.87614460000003
4416.785,-11.140088600000002,102.4567916,-0.154409,-0.5245029999999999,-0.2349709999999999,0.8794641999999999,-16.1627158,30.329569400000004,152.3762146,30.9056074,21.8846638,7.705671000000001,-0.9807244,-0.2206414,-0.0347274,-107.7800432,76.40802,-166.7551302,103.0607566492744,1.0506055620125183,38.64547119601735,1.0058374463401527,-91.6173274,46.0784506,-319.1313448
4436.77,-7.153207200000002,100.5896256,0.3273199999999999,-0.5412288000000001,-0.2393574,0.8525024,-16.6418388,32.2634832,151.7221222,29.6080702,19.8659756,8.703479400000003,-0.9669912,-0.217302,-0.0550318,-108.9353532,76.45626659999999,-168.55415680000002,100.84417826516663,1.037776912871914,36.70211657621598,0.9926331845614876,-92.2935144,44.1927834,-320.276279
4456.755,-5.355565000000003,98.8284776,0.0875249999999999,-0.5894148,-0.2433726,0.833024,-17.119197200000002,34.166288,151.04122320000002,26.1372122,17.832532599999997,9.353441600000002,-0.9643914,-0.2033834,-0.0642002,-110.0474764,76.52656540000001,-170.235657,98.97352030633525,1.0490800796249065,32.994544250262074,0.9876928902597002,-92.9282792,42.3602774,-321.2768802
4476.741,-3.2881576000000026,96.2310258,0.4055523999999999,-0.6245034,-0.2512628,0.8111765999999999,-17.5831632,36.0187278,150.3431366,20.907104800000003,15.8380246,9.4477926,-0.9708476,-0.2051236,-0.0740224,-111.137024,76.6012388,-171.7851472,96.28804068871612,1.0541086128397583,27.878501382983323,0.9950377226037616,-93.5538608,40.582511,-322.1282838
4496.726,-0.1346686000000028,93.2711152,0.1836585999999999,-0.6500731999999999,-0.2478992,0.8034361999999999,-18.0064466,37.8045722,149.62185979999998,17.3004908,15.003013399999997,8.7007484,-0.9699188,-0.2196434,-0.0835954,-112.2206818,76.65104819999999,-173.2542024,93.27139323911084,1.0628070879465,24.496947069411867,0.997984916047412,-94.2142352,38.846476,-322.87606220000004
4516.712,3.298366599999997,89.7731324,0.170282,-0.676327,-0.243702,0.7816998,-18.3776212,39.5211432,148.8921358,15.2207062,14.6438292,7.365440000000002,-0.9683156,-0.2167964,-0.1007258,-113.3102264,76.67048020000001,-174.6848542,89.83386621478253,1.06200915864838,22.368758062509663,0.9973873204738268,-94.93260519999998,37.149337,-323.57699
4536.697,4.579560799999998,86.3375808,-0.123855,-0.7076176000000001,-0.2443874,0.7645532,-18.7463404,41.1692382,148.1449038,12.159645800000002,13.6168724,6.328624400000001,-0.9796114,-0.2031782,-0.0973202,-114.344223,76.6822738,-175.9958008,86.45903987194427,1.0700418051360236,19.32168954143542,1.0051821214552314,-95.5978826,35.5130356,-324.14070460000005
4556.683,6.7851437999999975,83.097386,-0.1657718,-0.7180728000000001,-0.2460023999999999,0.7498334,-19.0907896,42.7450004,147.3806826,8.965728799999999,12.7304002,5.7911774000000005,-0.9860572,-0.2088286,-0.096793,-115.3418152,76.68412020000001,-177.2045928,83.37410399344242,1.0669563508696878,16.612799819584303,1.0125646007533542,-96.2510256,33.9391198,-324.5852754
4576.668,9.2735228,80.4550962,-0.3899347999999999,-0.7212068,-0.2364726,0.7316256,-19.4035788,44.2595794,146.6032138,8.7861212,11.4537782,5.021368200000001,-0.9922794,-0.2111544,-0.0943826,-116.2045808,76.67862099999999,-106.272174,80.98872007151135,1.0541985379862562,15.28394907724623,1.018878139664641,-96.801002,32.4190416,-252.8753878
4596.654,9.922911999999998,78.7279736,-0.7582542,-0.7270946,-0.2305565999999999,0.7112122,-19.7334692,45.7314948,145.80137659999997,9.6044726,8.7788816,5.168124600000001,-0.9938818,-0.1904674,-0.089062,-116.8602846,76.7081314,-35.143612600000004,79.3544766169739,1.042902534555152,14.000863114540277,1.0158793740784386,-97.1268154,30.9766366,-180.9449892
4616.639,9.786655799999997,78.17050300000001,-1.7028864,-0.7395723999999999,-0.2319935999999999,0.6914838,-20.1222826,47.1801298,144.9428256,9.2681528,5.8030922,6.458456800000002,-0.9926026,-0.18257,-0.082505,-117.3391344,76.7907044,36.1731902,78.7991496978996,1.0387195054224985,12.69985037877671,1.0126197714106515,-97.2168518,29.6105746,-108.7696354
4636.624,10.740024999999996,77.6594252,-2.6263686,-0.7450539999999999,-0.2277779999999999,0.6735276000000001,-20.5477326,48.603676400000005,144.023215,9.9509106,3.092039,7.965048000000001,-0.9851996,-0.1894492,-0.0823952,-117.6513658,76.91844940000001,107.64683519999998,78.44254120958911,1.0298678110135109,13.11576595510218,1.0066271505397817,-97.1036332,28.314773,-36.37637979999998
4656.61,10.890275199999996,77.179132,-3.538324,-0.7604375999999999,-0.22146,0.6474252,-21.0302976,50.0096266,143.049872,11.1944038,0.2361384,8.747854800000002,-0.980987,-0.1908485999999999,-0.0857974,-117.7617326,77.0824584,179.30271580000002,78.02394662495698,1.0229708034390814,14.208990160574118,1.0030552707292455,-96.731435,27.0728318,36.25284380000001
4676.595,10.107481599999996,76.46119999999999,-4.3265732,-0.7839197999999999,-0.2231018,0.6316858,-21.591012,51.3915518,142.0227478,11.0621836,-2.0939546,9.5056076,-0.9800478,-0.1868762,-0.0865204,-117.7373978,77.2813826,179.1002622,77.24762472328386,1.0311797204740405,14.734759167090177,1.0014500407046971,-96.1463858,25.88983080000001,37.07751440000001
4696.581,10.098331599999998,75.2039048,-4.8400152,-0.8029603999999999,-0.2237636,0.6151478000000001,-22.206523,52.7396888,140.9561278,10.7241206,-3.6175746,10.4009484,-0.9802078,-0.1927938,-0.090807,-117.6419418,77.504431,178.97806380000003,76.03308059921848,1.0359644629512923,15.371185258442893,1.0031065206389,-95.4354188,24.7647422,38.02193600000001
4716.566,9.972645999999996,73.4514068,-5.099889599999999,-0.8231569999999999,-0.2182859999999999,0.5947264,-22.868904000000004,54.049092,139.8622342,10.421672,-5.2407202,10.936756600000002,-0.9830556,-0.190163,-0.0931444,-117.451735,77.750836,178.9597168,74.30054981675836,1.0387183041142385,15.990279560342763,1.0056023858920184,-94.582831,23.701744,39.097482600000006
4736.552,8.662025599999996,71.4024078,-5.3462932,-0.8432632,-0.2220606,0.5782035999999999,-23.6083926,55.3108214,138.7405636,8.514117200000001,-6.345743799999999,10.8262568,-0.9874436,-0.1895201999999999,-0.092169,-117.2014938,78.00415939999999,179.0419526,72.12431890917877,1.0462901784875742,15.1646461340224,1.009682075680261,-93.5931012,22.693338,40.301389
4756.537,8.482187999999997,68.7273026,-4.950437,-0.8589309999999999,-0.2198986,0.5750930000000001,-24.3657022,56.5130934,137.6271114,6.7230098,-6.664518799999999,10.5200664,-0.98398,-0.1941406,-0.09355,-116.9434844,78.24925379999999,179.16875620000002,69.42547416064423,1.0568111542238563,14.152260196408855,1.0073027427086458,-92.5777822,21.7361604,41.5416448
4776.523,7.994130999999998,65.2223496,-4.6700624,-0.8703996,-0.2177032,0.565576,-25.137471400000003,57.6420256,136.5264646,4.9673218,-6.2804498,9.461787400000002,-0.9745934,-0.1942912,-0.103617,-116.7346938,78.4657974,179.2822662,65.87617551596081,1.0605971708176485,12.395311870133568,0.9991585702029484,-91.5972224,20.8237718,42.7558016
4796.508,7.465801799999997,60.3721024,-4.4693572,-0.8919779999999999,-0.2233051999999999,0.5562688,-25.908721000000003,58.6754614,135.4539762,1.8520776,-4.3911496,7.538043400000002,-0.9640602,-0.2006262,-0.1162152,-116.69260239999998,78.62107999999999,179.2901062,60.99593509812077,1.0746743426194187,8.918210837734524,0.991548745176716,-90.7838814,19.9456186,43.83613
4816.493,8.163929399999997,53.558288000000005,-3.9388396,-0.9078544,-0.2264952,0.5518132,-26.6013872,59.580361,134.467407,-0.3017637999999999,-1.4792502,5.549003800000001,-0.9660268,-0.203835,-0.1256106,-116.8780394,78.7089248,179.1102324,54.31992649234401,1.0862768960613312,5.750711757478802,0.9952560014265676,-90.2766522,19.1285638,44.6428254
4836.479,8.562140599999996,45.3195604,-3.0375110000000003,-0.9218862,-0.2155402,0.5640254,-27.1534158,60.3339164,133.63721900000002,-1.5479926,0.7494737999999999,4.424228400000001,-0.9744558,-0.2006056,-0.1278822,-117.2440398,78.7572678,178.77177419999998,46.221199460621285,1.1020237726163806,4.746766162547695,1.003075555470195,-90.090624,18.4233514,45.1345552
4856.464,7.539071399999997,36.3190056,-2.0411206,-0.9308112,-0.222679,0.5659734000000001,-27.5814234,60.9264122,132.97744440000002,-3.2449262,3.2379564000000003,3.7162546000000014,-0.9788764,-0.2099298,-0.1407576,-117.8446274,78.76407320000001,178.2289642,37.149346409470965,1.1118998680609689,5.901224952818573,1.0109808254179504,-90.263204,17.837661,45.2515198
4876.45,7.665436799999997,25.696130600000004,-0.4394855999999999,-0.9530478,-0.2261494,0.5698164,-27.797259399999994,61.341674,132.5606474,-4.1693152,6.4296634,2.361486000000001,-0.9806406,-0.224016,-0.1534394,-118.677057,78.7050156,177.4683136,26.818709826157896,1.13319653631405,8.018751573807895,1.017537618025358,-90.8797976,17.3633416,44.9076662
4896.435,8.142102399999995,12.7321426,1.6565366,-0.9647204,-0.2157153999999999,0.58192,-27.7107796,61.5426712,132.474353,-4.4435248000000005,9.6928802,0.7162276000000013,-0.9849637999999998,-0.2183544,-0.1636182,-119.71756,78.5832322,176.5011902,15.203466716047364,1.1471048210051775,10.686899512710356,1.022058338198481,-92.0067804,17.040560999999997,44.0268372
4916.421,7.010870599999997,-1.3925225999999995,3.251424,-0.9779328,-0.2107028,0.6030802,-27.3535092,61.50189379999999,132.71732179999998,-5.520102800000001,12.856822999999997,-0.1100445999999987,-0.9804,-0.2202706,-0.1787116,-120.9953416,78.4056338,175.31378180000002,7.85259089659146,1.1680984371514755,13.992195767279917,1.0206082172895337,-93.6418324,16.903739999999996,42.59646
4936.406,7.489116399999998,-17.0523736,4.2602744,-0.9885808,-0.2145994,0.6160324,-26.7134202,61.187697,133.26973579999998,-5.2344476,16.2132362,-1.2323511999999988,-0.9736122,-0.2269737999999999,-0.1967856,-122.4704866,78.1609118,173.9185058,19.105503076601288,1.1844158131580145,17.081778573505677,1.0189025440358073,-95.7570664,16.973214799999997,40.64877
4956.392,8.579284799999996,-34.3573624,4.7599478,-0.992096,-0.2068668,0.6421075999999999,-25.7796468,60.560235,134.12527459999998,-3.1762814,18.5897958,-2.5866551999999987,-0.9778552,-0.2158526,-0.1914542,-123.9717942,77.86912240000001,172.4526,35.73079318771373,1.1997293512021785,19.03575731462688,1.0195331518844497,-98.1921474,17.308887399999996,38.3273254
5016.348,8.179067799999995,-56.5964306,5.6353612,-0.9684954,-0.2037116,0.6849002000000001,-24.0496264,58.84291019999999,135.83545220000002,-1.1535766,18.974586,-3.202210199999999,-0.9819264,-0.1974488,-0.1790602,-125.3595932,77.5730362,171.05947559999998,57.46138183677868,1.2035655527455746,19.277442854498297,1.0174615662826976,-101.3099668,18.730126,35.22402340000001
5036.334,8.232160199999997,-76.88592919999999,6.2512212,-0.93985,-0.2013432,0.72764,-22.1907258,56.730951000000005,137.7086638,0.5403263999999999,17.561602399999998,-3.5258779999999987,-0.9830528,-0.1943486,-0.1622452,-126.496077,77.29308940000001,169.8859252,77.57765359301095,1.205536012023797,17.920202207148964,1.0151293961031962,-104.3053512,20.5621384,32.177261400000006
5056.319,8.694929799999997,-95.706829,7.116619,-0.910519,-0.196728,0.7620167999999999,-20.2600724,54.2538224,139.6877196,2.2569904,14.6387214,-4.929180399999998,-0.9872530000000002,-0.1931184,-0.140614,-127.2278138,77.03236999999999,169.0886016,96.3641281154628,1.2035017070312946,15.610348788808476,1.015743815843129,-106.9677414,22.7785476,29.400882
5076.304,7.801446599999997,-113.0464874,8.59523,-0.8838672000000001,-0.1933594,0.7969444,-18.332188,51.442289,141.7256498,2.9910044,10.641155799999998,-6.271595,-0.9894960000000002,-0.1793082,-0.1246377999999999,-127.5595566,76.8103928,168.6852416,113.64087671821224,1.2057070380053192,12.708784675362075,1.0133056526991648,-109.2273686,25.3681038,26.9595918
5096.29,7.612915199999998,-128.9425232,10.2411002,-0.8588851999999999,-0.1897462,0.8319206000000001,-16.4436158,48.3229798,143.77870460000003,2.4685408000000004,5.939601799999998,-7.079407999999999,-0.990098,-0.1671548,-0.1151568,-127.5285508,76.6422624,168.664804,129.5724156614029,1.2106937234073034,9.565070875549845,1.010690786221622,-111.084935,28.3192826,24.8860994
5116.275,9.067201199999996,-138.6674452,11.1297892,-0.8397310000000001,-0.1776085999999999,0.8548556000000002,-15.181073800000002,45.6818688,145.2076232,0.8405448000000002,0.8430025999999995,-8.049911599999998,-0.9986222,-0.1752008,-0.1040335999999999,-127.1082428,76.5219836,169.0762848,139.40856036676055,1.211392200736954,8.13745941386059,1.019198022261837,-111.927169,30.8401148,23.8686616
5136.261,9.610279999999998,-147.637158,11.7516528,-0.823992,-0.172696,0.87096,-14.006218800000005,42.8674448,146.5785644,0.0730618000000002,-4.5338136,-8.7133512,-1.0039078,-0.1789214,-0.0974836,-126.3041106,76.4553622,169.8977294,148.41559637560707,1.2113455518884773,9.822590947438748,1.0243762934331115,-112.2978918,33.5879174,23.31916499999999
5156.246,10.3582274,-156.38201279999998,12.5942654,-0.8019149999999999,-0.1682874,0.8964922,-12.9101448,39.882026800000006,147.8884734,-0.9616082,-10.2385372,-8.7837712,-1.004754,-0.170001,-0.0951496,-125.151808,76.4550388,171.0996216,157.2299027641215,1.2145314244121477,13.524310363935031,1.023466846994645,-112.2416632,36.573012,23.2111482
5176.232,11.918508999999997,-164.4431914,13.4325802,-0.7677956,-0.1582888,0.9141362,-11.8762168,36.7388002,149.139032,-4.20442,-16.1413142,-8.807212,-1.0069862,-0.168659,-0.0883474,-123.64803299999998,76.5160968,172.72936719999998,165.4208217408847,1.204246826749085,18.86229452777328,1.0248279506132727,-111.7718162,39.7772966,23.59033519999999
5216.203,12.926216799999995,-172.2321318,14.204325399999998,-0.7186692,-0.1478314,0.9289502,-10.783417600000002,32.74081,150.5165284,-9.2120116,-22.2647374,-8.953498,-1.0152818,-0.1736118,-0.0786135999999999,-121.76954779999998,76.6292544,174.8457918,173.2996167485729,1.1837601175637908,25.704957024774373,1.033014176386481,-110.9861302,43.8884444,24.32926340000001
5236.188,12.841582399999998,-178.98692,15.459798800000002,-0.6595746,-0.1450235999999999,0.942398,-9.8018218,28.610166600000003,151.82575079999998,-13.532495799999998,-28.8847544,-8.799428599999999,-1.0190394,-0.1675524,-0.0692376,-119.467671,76.7963656,105.4847078,180.11171296880966,1.1593897049422683,33.08908313948627,1.0350405551242328,-109.6658492,48.186199,-46.34104299999999
5256.174,12.580756599999996,-184.5870238,17.299950000000003,-0.5952858,-0.1438907999999999,0.9569028,-8.923163800000001,24.3709582,153.08789059999998,-18.5761424,-35.60103300000001,-8.303012799999998,-1.026586,-0.1630036,-0.0573214,-116.7142562,77.0106188,36.68839440000001,185.8223158341665,1.1361041830105725,41.00544645152801,1.0410258075124363,-107.7910924,52.6396606,-116.3994962
5276.159,12.510193999999997,-188.8064574,19.0625846,-0.5268162000000001,-0.1427369999999999,0.9610968,-8.1407674,20.0523284,154.30655819999998,-24.346674,-41.2292508,-8.1774498,-1.0277588,-0.1683452,-0.0385306,-113.5240386,77.2362336,-31.5459776,190.1782464991404,1.10526748740822,48.57450299923919,1.0421673879357576,-105.3832712,57.183905200000005,-185.8525358
5296.145,12.208181999999995,-192.0979704,20.3472048,-0.4529747999999999,-0.1381687999999999,0.9650694,-7.454330199999999,15.6687732,155.4810698,-30.7128468,-45.276937200000006,-8.954861399999999,-1.034785,-0.1798161999999999,-0.0201586,-109.9924438,77.4267914,-99.3045898,193.5579465759997,1.0750049923348448,55.438881152727326,1.0504857120215392,-102.5381136,61.7580182,-254.7856596
5316.13,10.767292799999998,-193.674188,21.0429412,-0.3896295999999999,-0.1380778,0.96927,-7.0196094,11.9559486,156.4151548,-36.361324,-47.4432466,-10.8812106,-1.0306588,-0.1826902,-0.007018,-106.2785874,77.5394226,-166.76362,195.11132992742105,1.0537367019084989,60.75696071318034,1.0467485483713268,-99.258978,65.583474,-323.1787748
5336.115,10.203975999999995,-194.638507,21.350774,-0.3243158,-0.1394608,0.9641764,-6.6655126,8.2225758,157.3183286,-42.1566578,-47.4092394,-11.8529022,-1.0256322,-0.1798643999999999,0.0081127999999999,-102.6243486,77.5772064,-162.16699839999998,196.07173453559463,1.026774650633351,64.53922115981551,1.0413157204172228,-95.958836,69.3546306,-319.485327
5356.101,9.790518599999997,-195.1871184,21.0353096,-0.2593004,-0.1320735999999999,0.9598048,-6.3819958,4.4758718,158.1870054,-52.0844238,-45.1795518,-14.0172158,-1.0213892,-0.1792755999999999,0.0271559999999999,-98.849962,77.4770202,-156.97351999999998,196.56131281033,1.002948347304167,70.35951564792539,1.0373587069900172,-92.4679662,73.0011484,-315.1605254
5376.086,9.233497399999996,-195.576898,20.128008200000004,-0.1897858,-0.1266448,0.9471446,-6.1689588,0.7153770000000002,159.0177672,-63.56692340000001,-41.8696694,-15.983765999999996,-1.0130154,-0.1764936,0.0293573999999999,-95.6593446,77.27511439999999,-152.13983480000002,196.82661715234929,0.9742383941099017,77.7772700841931,1.0286943415868874,-89.4903858,76.55973739999999,-311.157602
5396.072,8.378881999999997,-195.5718658,19.0005536,-0.1232627999999999,-0.1222192,0.9375088,-6.026378200000001,-3.0506688,159.8133178,-74.7372558,-37.785166200000006,-16.6810978,-1.004435,-0.1708046,0.0316841999999999,-93.1562516,77.01248619999998,-147.7776124,196.67125207607137,0.9534432341728164,85.39107220950807,1.0193467364620343,-87.1298734,80.063155,-307.5909302
5416.057,8.513451599999998,-195.409195,18.264362,-0.0535748,-0.1185548,0.9171236,-5.9325264,-6.819902999999999,160.58957819999998,-85.055825,-34.722045200000004,-16.5757032,-0.9946304,-0.1700448,0.0333667999999999,-91.25643,76.7178298,-143.817685,196.4454613065942,0.9263051319489924,93.35345588608897,1.009612901043484,-85.32390360000001,83.5377328,-304.4072632
5436.043,8.570274999999999,-194.8173522,17.4003532,0.0117944,-0.1116381999999999,0.8959239999999999,-5.8857966,-10.5835654,161.3498046,-94.3779038,-32.4226602,-17.325116799999996,-0.9841018,-0.189579,0.0342953999999999,-89.8573668,76.37434060000001,-140.1756042,195.78054710128688,0.902929681285647,101.28463502555736,1.0027824911043273,-83.9715702,86.95790600000001,-301.5254088
5456.038,8.482543399999997,-193.8358276,16.737877599999997,0.0857928,-0.1079034,0.8649732,-5.891068,-14.341017,162.1036498,-96.537384,-30.8535268,-17.8815874,-0.9702796,-0.2173497999999999,0.0222259999999999,-89.245773,76.02191739999999,-137.5618408,194.7419783982446,0.8758893680035396,102.9133509001899,0.9945739956444668,-83.35470500000001,90.3629344,-299.6654906
5476.014,7.991081599999997,-192.0769134,16.4141132,0.157323,-0.1056098,0.8391582,-5.956785399999999,-18.0750744,162.863455,-91.0790618,-30.296590200000004,-17.807762599999997,-0.970354,-0.2476462,0.0240511999999999,-88.6562758,75.6511364,-135.0788574,192.94253330603743,0.8602850927525596,97.62374344867602,1.001745469623836,-82.6994904,93.7262108,-297.9423124
5495.999,7.922875799999997,-189.5958098,16.3068232,0.2266905999999999,-0.1088789999999999,0.8033471999999999,-6.079542999999999,-21.7717938,163.6400602,-80.0811782,-30.858220800000005,-17.8142616,-0.9546718,-0.2700202,0.0226231999999999,-87.8927916,75.26188319999999,-132.638475,190.46064038938877,0.8417897531552637,87.65028698866274,0.9923814605793077,-81.81324860000001,97.03367699999998,-296.2785352
5515.985,8.303856199999997,-185.8889372,15.7327384,0.2950359999999999,-0.1128864,0.758011,-6.2498792,-25.4123702,164.42980640000002,-65.6764712,-32.2162072,-15.9647634,-0.9540496,-0.291718,0.0286149999999999,-86.8151122,74.8888594,-130.1666504,186.738239412014,0.8212004972733272,74.87427158948353,0.9980625476437636,-80.565233,100.3012296,-294.5964568
5535.97,8.841386399999998,-181.4141754,14.7950314,0.3601382,-0.1104128,0.7186306,-6.4549316,-28.980419800000004,165.225012,-49.197482,-33.9373742,-11.7685116,-0.9440142,-0.291658,0.0316992,-84.89768360000001,74.543956,-127.059227,182.2310788632473,0.8113694896651217,60.914985578349146,0.9885504731910658,-78.442752,103.5243758,-292.284239
5555.955,8.754699199999997,-175.6408996,13.609878,0.4166166,-0.1125576,0.6791938,-6.7077292,-32.4471206,166.0235166,-32.3312772,-36.7656424,-4.398147199999999,-0.939316,-0.2849705999999999,0.0383882,-82.45492240000002,74.3166794,-123.7525346,176.38480419116223,0.8047004552451552,49.1565625858927,0.982342325576782,-75.7471932,106.7638,-289.7760512
5575.941,8.002888799999997,-168.19127199999997,12.3781258,0.4646682,-0.116843,0.6351594,-7.0210804,-35.7770402,166.8259214,-19.2698168,-39.8916814,5.764498400000002,-0.9308102,-0.2741544,0.0373854,-79.46545400000001,74.248633,-120.1456346,168.83592095417305,0.7956106372771797,44.675513720921785,0.9710643292782204,-72.44437359999999,110.0256732,-286.971556
5595.926,7.760968799999998,-158.8338806,11.503206,0.5087874,-0.1221179999999999,0.5957614,-7.3869388,-38.9281846,167.639874,-9.1751248,-43.186462600000006,16.738166,-0.936262,-0.2705856,0.0379563999999999,-75.89481040000001,74.33706839999999,-116.1434602,159.43888487896564,0.7929117668774502,47.21673080636069,0.9753172754915806,-68.5078716,113.265253,-283.7833342
5615.912,7.007127399999997,-147.4690612,10.5767658,0.5408196000000001,-0.1232216,0.5615136,-7.8019674,-41.8562386,168.4553066,-1.2903624,-44.96094380000001,27.534878000000003,-0.9345402,-0.2633454,0.0313335999999999,-71.81515879999999,74.5671892,-111.7766312,148.0138230720267,0.7892825384079392,52.73823099976882,0.9714411869002468,-64.01319140000001,116.42342779999998,-280.2319378
5635.897,6.3929427999999975,-133.2769896,9.207394,0.5650578,-0.1354892,0.5210237999999999,-8.2372292,-44.5006898,169.2420864,4.124054800000001,-45.3236536,35.9770616,-0.949497,-0.2500512,0.0270427999999999,-67.7701866,74.9325058,-107.6629608,133.74752999122572,0.7804571998667961,58.01370842323727,0.982243080231304,-59.5329574,119.4331956,-276.9050472
5655.883,6.520230999999997,-117.2477446,6.964637999999999,0.5801904,-0.1413318,0.4921462000000001,-8.64452,-46.8278084,169.9603634,5.3892946,-43.42187500000001,39.720521000000005,-0.9523204,-0.2295306,0.0210959999999999,-63.6224564,75.3268358,-103.4736816,117.63525495594946,0.7738239206162085,59.095037975388905,0.9798180860795128,-54.9779364,122.15464419999998,-273.434045
5675.868,7.046890199999997,-99.8891722,4.3900194,0.5975338,-0.1453696,0.4644914,-8.9854796,-48.818087000000006,170.57866180000002,4.831687,-39.891366600000005,37.4644144,-0.948059,-0.2147974,0.0151953999999999,-59.7030662,75.65532999999999,-99.512651,100.23361539236468,0.7706693346828847,54.93859003302226,0.972206094770507,-50.7175866,124.473417,-270.0913128
5695.854,6.020320999999997,-81.35007159999999,1.0398118,0.6069098,-0.142017,0.441625,-9.2416306,-50.4494362,171.0437894,3.7645802,-34.7720916,32.7393732,-0.9394968,-0.196755,0.0078905999999999,-56.2288246,75.9017182,-95.9930816,81.57916169493032,0.76389853661991,47.90758787342461,0.9599109483715664,-46.987194,126.3511544,-267.036871
5715.839,5.143235199999997,-62.60926579999999,-2.2013282,0.6233025999999999,-0.1394558,0.425353,-9.384149,-51.7179246,171.3335508,2.1762476,-28.306475800000005,26.40750240000001,-0.9315348,-0.1866418,0.0033801999999999,-53.3825148,76.066684,-93.0916336,62.85872157610018,0.767384666206851,38.77304229536932,0.9500545620491068,-43.9983658,127.7846086,-264.4251844
5735.825,2.251862999999997,-43.6844516,-5.000237,0.6410184,-0.1323514,0.4132802,-9.4516608,-52.627739,171.44884940000003,0.8642426000000001,-21.902272000000004,20.100602200000004,-0.9165612,-0.190791,0.0001453999999999,-51.2205062,76.165358,-90.869066,44.02731616416881,0.7740943133317542,29.74038740225628,0.9362081286592208,-41.7688454,128.79309700000002,-262.31791540000006
5755.81,-1.800685600000003,-24.08054,-7.2125336,0.6578096,-0.1348031999999999,0.4008286,-9.463546,-53.160746800000005,171.3914916,0.5808728000000001,-15.625605000000004,14.747805800000004,-0.908661,-0.1937424,-0.0002004,-49.6932616,76.23314359999999,-89.2954392,25.201895092488105,0.7820159455921343,21.494062453159447,0.9290860943093056,-40.2297156,129.3938904,-260.6869308
5775.795,-4.557930400000003,-4.034839999999994,-9.2530638,0.671093,-0.1456274,0.3949904,-9.3791978,-53.2988816,171.150415,1.8367202,-9.878158800000003,11.728586000000002,-0.9212374,-0.1989974,0.0114219999999999,-48.63063040000001,76.3119674,-88.227333,11.075822905938615,0.7922061413369124,15.44381079690183,0.9425543880591294,-39.2514326,129.610849,-259.377748
5795.781,-7.312777800000004,16.162237200000003,-10.763685,0.6796134,-0.160292,0.3900994,-9.2160066,-53.0369468,170.74592280000002,2.3499902,-4.248377600000003,9.1580048,-0.9264338,-0.2122634,0.0255075999999999,-48.05568,76.4134628,-87.670903,20.749736028211583,0.7998408845538718,10.36533733600122,0.9507817701343249,-38.8396734,129.4504096,-258.4168258
5815.766,-10.559677600000004,36.2184146,-11.4038824,0.6888286,-0.1674585999999999,0.3976928,-9.0322306,-52.383724,170.2279418,1.9936296,0.1321241999999971,3.896135600000002,-0.9376288,-0.223407,0.0446463999999999,-48.053215,76.4847472,-87.6954574,39.41229352557987,0.8128264181630417,4.378571502192145,0.9649102317166088,-39.0209844,128.8684712,-257.92339919999995
5835.752,-13.402317200000004,55.8255966,-11.5502822,0.6914974,-0.1749508,0.414076,-8.843386800000001,-51.342349,169.62269580000003,-0.0911203999999999,4.184638999999997,-3.8537329999999983,-0.9546972,-0.227388,0.0613805999999999,-48.743878200000005,76.4857804,-88.3907256,58.562175172845016,0.8247638270459006,5.689531133837491,0.9833207128339156,-39.9004914,127.8281294,-258.0134214
5855.737,-14.217182400000002,73.96958839999999,-11.8115418,0.6900478,-0.1834806,0.4375204,-8.631739999999999,-49.9432974,168.949591,-2.8783642,7.421009599999996,-11.069143,-0.9605596,-0.2316086,0.0821884,-50.0433014,76.4074006,-89.655989,76.2439558466993,0.8374098144142806,13.633865581909731,0.9914999857996368,-41.4115614,126.350698,-258.60558000000003
5875.723,-14.796311800000002,89.990841,-12.1372676,0.6766432,-0.1732478,0.4659888,-8.4154184,-48.2316686,168.23111260000002,-6.401473,10.274853799999995,-18.2861444,-0.9590956,-0.2290856,0.0959779999999999,-51.9021668,76.24211740000001,-91.4270722,92.00323674504126,0.8396465816261744,21.930220112866053,0.990735261586424,-43.4867484,124.473786,-259.6581848
5895.708,-14.670430800000002,103.27556920000002,-12.4988506,0.663706,-0.1595368,0.5082214,-8.1992516,-46.2590948,167.4877258,-10.378755,12.315511599999995,-24.6145012,-0.9577596,-0.2099726,0.1126464,-54.167312,75.99324659999999,-93.540506,105.058488470769,0.8510268129784161,29.41537099280852,0.9869554982753171,-45.9680604,122.2523414,-261.0282318
5915.694,-13.419847200000005,113.5537538,-13.1848742,0.6359266,-0.1457276,0.5572916,-7.9474682,-44.0718878,166.7115692,-15.856938,14.283929999999998,-26.9584242,-0.9466162,-0.2047758,0.1195744,-56.6757426,75.7116046,-95.7963716,115.10164294488672,0.8580286134039354,34.38356837688446,0.975865459734814,-48.7282744,119.7834924,-262.5079408
5935.679,-11.664444400000004,120.9422196,-14.0777156,0.6011586,-0.13368,0.6073774000000001,-7.663300599999999,-41.7261802,165.9162414,-17.292784599999997,16.3808316,-23.857215,-0.9362654,-0.2152132,0.119366,-59.1460916,75.4795,-97.9864336,122.3162369493511,0.8649678091031596,33.71259038824784,0.9680691414601542,-51.482791,117.2056802,-263.902675
5955.665,-11.349617400000003,125.6594376,-14.064489599999998,0.5591946,-0.1167194,0.6543622,-7.394287199999999,-39.2681754,165.1325104,-15.5458584,18.5057712,-19.1674568,-0.9401768,-0.2150492,0.1184831999999999,-61.4678454,75.3313448,-100.0624818,126.95242392637954,0.8686264489378389,30.84685853177704,0.9717082084458892,-54.0735582,114.5995202,-265.1949922
5975.65,-11.285831200000002,128.5182358,-13.2403018,0.5197885999999999,-0.1100206,0.7147602000000001,-7.169790000000001,-36.7304034,164.3914672,-16.073777200000002,20.7189194,-13.666279,-0.9314048,-0.2182624,0.1155344,-63.7047434,75.2804278,-102.0418504,129.69044880319595,0.8905991604635387,29.57037565342681,0.9635878653761472,-56.53495339999999,112.01083119999998,-266.4333176
5995.636,-10.217243800000002,129.7231384,-12.391613799999998,0.4787646,-0.0988438,0.7577388,-6.970482800000001,-34.1531974,163.69664919999997,-14.9547804,23.8068558,-7.709032599999999,-0.9294458,-0.2442116,0.101825,-65.95723819999999,75.3322924,-104.0582704,130.71356777237222,0.9017503690251756,29.1520329226296,0.9663731843015926,-58.98675540000001,109.4854898,-267.7549196
6015.621,-11.736218800000003,130.1849944,-11.532285599999998,0.4371686,-0.0963278,0.8018986,-6.849838199999999,-31.5533448,163.04838879999997,-9.4668602,26.5284008,-1.0586381999999983,-0.9362904,-0.2498003999999999,0.0884166,-68.12157459999999,75.5082108,-106.0953888,131.22067371344147,0.9183881502723998,28.186844553626145,0.973066003993501,-61.2717364,107.0615556,-269.1437776
6035.606,-12.302360800000002,129.563919,-10.743476,0.3994304,-0.098587,0.8371839999999999,-6.787710799999999,-28.9579938,162.4425722,-4.0071274,28.961282,2.506440200000001,-0.939729,-0.2358904,0.0831245999999999,-70.28596680000001,75.7554536,-108.2446838,130.58935433049095,0.9328135348874178,29.34442310831022,0.9724425810187048,-63.498256000000005,104.7134474,-270.68725600000005
6055.592,-12.1069456,128.5820266,-10.777202,0.3686784,-0.0992475999999999,0.8735906,-6.7546712,-26.380922400000003,161.8558716,1.7594099999999997,31.5015456,6.649897600000001,-0.9420244,-0.2468842,0.0712993999999999,-72.51835200000001,76.07097180000001,-110.5793274,129.5996287775288,0.9533805038601744,32.243821684587346,0.9764452789815516,-65.7636808,102.4518942,-272.435199
6075.578,-13.343433600000004,127.4045592,-11.071766,0.3397346,-0.1007209999999999,0.8947797999999999,-6.774253399999999,-23.8330296,161.2791994,11.447947199999998,33.2549818,10.3097672,-0.9549944,-0.2486974,0.0584836,-74.71805900000001,76.4466492,-113.07593219999998,128.57897544910935,0.9623903619458164,36.65024705688237,0.9885772768312452,-67.94380559999999,100.2796788,-274.3551316
6095.563,-15.142007600000005,126.76806940000002,-10.8001716,0.3108692,-0.1191808,0.9139084,-6.8688026,-21.3021054,160.7220368,20.6290476,33.28324239999999,12.482427600000005,-0.9785224,-0.241034,0.0608592,-76.7700822,76.8470902,-115.6074584,128.12520251750288,0.972662472899947,41.0991828182686,1.0096075072434831,-69.9012796,98.1491956,-276.3294952
6115.55,-14.553352400000003,126.1017806,-10.394979,0.2806374,-0.128707,0.9334694,-6.9814392,-18.7895146,160.18066720000002,27.717481600000003,34.125888399999994,12.5975232,-0.97986,-0.2440052,0.0606268,-78.85823680000001,77.2265672,-118.318634,127.36371039263722,0.9832029103212216,45.73327711973122,1.011602573200207,-71.8767976,96.0160818,-278.4993012
6135.534,-15.751100200000002,125.6555006,-9.3734602,0.2468876,-0.1326214,0.9451848,-7.146362600000001,-16.288373200000002,159.6631318,33.558031799999995,33.9990246,12.009601000000002,-0.9896708,-0.2551538,0.0510744,-80.95285500000001,77.5639848,-121.151799,126.98528948137272,0.9858581180488196,49.25754448021559,1.0233085303868232,-73.8064924,93.852358,-280.8149308
6155.519,-17.637937200000003,125.31138740000002,-7.470163599999999,0.2161088,-0.1432462,0.9586436,-7.383624999999999,-13.796754000000002,159.1837434,36.743119,32.2381256,9.918638,-1.0036332,-0.2403022,0.0540494,-82.937198,77.83965760000001,-123.935643,126.76688836204346,0.99308611865882,49.877178306562016,1.0334147691548832,-75.553573,91.6364116,-283.1193864
6175.505,-18.2446572,124.8588712,-5.6087638,0.1753402,-0.1515082,0.9696252,-7.662652,-11.3117358,158.7373048,37.0405198,31.1880914,6.950152600000001,-1.0018118,-0.2415006,0.0549032,-84.92204,78.02993180000001,-126.7247056,126.30939579084324,0.9969312658745936,48.9183173605985,1.0319708250671815,-77.25938799999999,89.34166760000001,-285.4620104
6195.497,-18.832206800000005,123.9941892,-4.635858799999999,0.12912,-0.1528103999999999,0.9821308,-7.9734222,-8.840503799999999,158.30279260000003,40.2775232,30.504856199999995,4.284017200000001,-0.9906122,-0.2424011999999999,0.0383616,-86.88127,78.14339460000001,-129.55141,125.50180140195955,1.0022993071217798,50.70678386842447,1.0205598879560376,-78.9078478,86.9838984,-287.8542026
6215.476,-20.382150200000005,123.2519164,-4.3626844,0.0900618,-0.1568778,0.9749175999999998,-8.335021000000001,-6.3889478,157.8646914,45.7078888,28.689487199999995,3.461653800000001,-1.0071544,-0.222374,0.0260056,-88.63244019999999,78.2309694,-132.2749894,125.00199981689074,0.9915574107139936,54.07661991455441,1.0317395371636775,-80.29741920000001,84.6199172,-290.1396808
6235.461,-20.7570052,122.1613282,-4.5028072,0.0541422,-0.1540522,0.996393,-8.715494799999998,-3.9654552,157.4127444,49.657673,26.855292599999995,2.7943746000000016,-1.0032664,-0.2008208,0.0335594,-90.1207778,78.298964,-134.81187440000002,123.99402665105006,1.009684341066395,56.523444320137365,1.023718074671909,-81.405283,82.26441919999999,-292.22461880000003
6255.447,-21.3785832,121.176294,-4.8672518,0.009348,-0.1587894,1.002455,-9.124182,-1.5645842,156.940781,53.470054000000005,25.8633958,2.6755468000000016,-0.9999628000000002,-0.2094664,0.023647,-91.4738326,78.346666,-137.287384,123.14393280750116,1.014996298358452,59.45687906163057,1.0219397999499775,-82.3496506,79.9112502,-294.228165
6275.432,-20.920272600000004,120.17348940000002,-5.3527428,-0.0361746,-0.1678644,0.993175,-9.5448374,0.8139026000000001,156.44505940000002,59.7339166,25.2031986,1.9458998000000016,-1.0018516,-0.2030176,0.014873,-92.6546798,78.37189479999999,-139.7142516,122.09822773371113,1.0079105312960672,64.86238153258357,1.022322835733077,-83.10984239999999,77.55799219999999,-296.159311
6295.418,-20.305447800000003,118.908426,-5.1401646,-0.0738204,-0.167491,0.9863142,-9.9694204,3.1630224,155.9401582,63.45806280000001,24.1803634,1.8759536000000012,-1.0050538,-0.197664,0.0149318,-93.651802,78.39012439999999,-142.0299102,120.73916628944848,1.0031542192797676,67.9347842448488,1.0244155194264093,-83.6823816,75.227102,-297.97006840000006
6315.403,-20.0374642,117.9471008,-4.6835308,-0.1204734,-0.1733022,0.9926428,-10.408559,5.4939624,155.4287812,63.4914408,23.8592166,-0.1809121999999986,-0.994762,-0.1966834,0.0116832,-94.6041382,78.3581694,-144.3006468,119.72866832737344,1.0148335927748156,67.82667617427327,1.01408692607774,-84.1955792,72.86420700000001,-299.729428
6335.389,-19.2755402,117.4824706,-4.2861028,-0.1659728,-0.1891805999999999,0.9798894,-10.860008,7.8154954,154.907077,62.3363238,24.0412852,-1.0603397999999984,-1.0017052,-0.1935624,-0.002216,-95.6102144,78.30253139999999,-146.60165999999998,119.13038246179624,1.0116914084781783,66.82009412936837,1.0202375316840682,-84.7502064,70.487036,-301.508737
6355.374,-16.062877800000003,116.799759,-4.8217148,-0.2089468,-0.1908882,0.963251,-11.2724846,10.119666,154.3566802,61.20176260000001,24.4007126,-2.050836399999999,-0.9920884,-0.1821128,-0.0081124,-96.6586962,78.2234848,-148.9230346,117.99766387216464,1.003966911372322,65.91855922783904,1.00869731652868,-85.3862116,68.1038188,-303.2797148
6375.359,-14.732748000000004,115.760016,-5.5949506,-0.2499944,-0.1853328,0.9573646,-11.6805466,12.3976958,153.775299,60.31397940000001,24.7806706,-1.7890329999999983,-0.9872654,-0.1848536,-0.0199074,-97.7604508,78.1369416,-151.2804534,116.82781620901848,1.0066739413138497,65.23080856101983,1.0046193946191164,-86.0799042,65.73924579999999,-305.0557524
6395.345,-14.431047200000004,114.8243806,-6.8765046,-0.2932322,-0.1863368,0.9616566,-12.1113544,14.6482566,153.1516082,59.330639,25.6395698,-2.3741483999999984,-0.984641,-0.1713237999999999,-0.0311796,-98.949576,78.0339326,-153.7067992,115.931789509936,1.022492025628875,64.67726682770859,0.999920952267528,-86.8382216,63.385676,-306.8584074
6415.33,-13.894161600000004,113.7787188,-7.807887600000001,-0.329133,-0.1909948,0.950478,-12.5640716,16.8681186,152.49010299999998,57.8938454,26.234683599999997,-1.4797263999999986,-0.9896201999999998,-0.1690274,-0.0313216,-100.1955904,77.9385682,-156.1631896,114.8895455953701,1.023824190864838,63.577869962826426,1.004439866206713,-87.6315188,61.0704496,-308.6532926
6435.316,-12.429290600000003,112.2640918,-8.6505556,-0.3723618,-0.1981876,0.9374216,-13.0223594,19.0521984,151.79227580000003,54.697348,26.729779,-0.9237683999999986,-0.9803058,-0.178655,-0.0367882,-101.5278566,77.8354188,-158.6433074,113.2808266419643,1.0279547125430963,60.88624074188505,0.9971311058220378,-88.5054972,58.783220400000005,-310.4355832
6455.301,-12.130769200000003,110.082509,-8.381971400000001,-0.4171863999999999,-0.2004815999999999,0.9262604,-13.5004942,21.1937982,151.0841338,50.9621758,27.8526922,-1.7763359999999984,-0.976214,-0.1945126,-0.049016,-102.9857132,77.6884554,-161.1763182,111.0656193143007,1.0354688275808597,58.10396883727429,0.9966100007579496,-89.485219,56.49465719999999,-312.260452
6475.287,-12.526013800000005,108.13926720000002,-8.089501600000002,-0.4526274,-0.2129192,0.926753,-14.018399,23.288863,150.36155079999995,45.9808426,28.257805,-2.2096175999999987,-0.9809486,-0.1947084,-0.0527444,-104.5119676,77.5184418,-163.6793242,109.1624576876464,1.0531273768962617,54.015033458864295,1.0014756555223296,-90.4935686,54.2295788,-314.040875
6495.272,-11.081714600000002,105.7747332,-7.343514199999999,-0.4904976,-0.224249,0.9097026,-14.5362222,25.3365246,149.6352812,39.4173134,28.6674806,-1.4088429999999987,-0.9790048,-0.2028928,-0.0602838,-106.16586,77.342598,-166.1802978,106.60687493221364,1.0575605562110946,48.75996183575049,1.001623693438469,-91.6296378,52.006073400000005,-315.815579
6515.258,-9.528389400000004,102.467412,-6.82015,-0.5252538,-0.2274842,0.8951236,-15.0458148,27.317123400000003,148.907968,34.4719292,28.961292,-1.6660985999999989,-0.9666552,-0.2177668,-0.076538,-107.8926086,77.1335878,-168.6559174,103.1352276022033,1.062490882286074,45.05381472887727,0.9938323401425816,-92.8467938,49.8164644,-317.5638854
6615.185,-7.663858600000003,97.7092058,-6.5271016,-0.5642824000000001,-0.2292312,0.8720036,-16.059844,30.5327992,147.50162959999997,32.870540600000005,29.0321042,-1.5365357999999985,-0.9735146,-0.2236716,-0.0876644,-109.6062484,76.90904400000001,-171.0871368,98.22640521776346,1.063650247222347,43.88275807057469,1.0027186584915433,-93.5464044,46.3762448,-318.5887664
6635.17,-6.503994200000003,93.1249316,-6.5796294,-0.5960558,-0.2341468,0.8522326,-17.1018744,33.6369434,146.06348559999998,32.218296800000005,27.842864,0.4956834000000013,-0.9833866,-0.2104195999999999,-0.0872698,-111.2286316,76.72611400000001,-173.41355900000002,93.58336577137872,1.0660242235365198,42.58508455373104,1.0094263871703375,-94.1267572,43.0891706,-319.4770446
6655.156,-4.521652400000003,88.3041094,-6.8160278000000005,-0.6332396,-0.2367282,0.8158298,-18.1610478,36.6312234,144.5878386,30.0361684,26.354111,1.900715000000001,-0.9813476,-0.2056174,-0.0877744,-112.76327820000002,76.57078120000001,-175.6069978,88.68212510040549,1.059533337961312,40.00404099918787,1.0064919137796786,-94.6022304,39.9395578,-320.1948364
6675.141,-2.661810200000003,83.68054520000001,-7.3838976,-0.6643064,-0.2400786,0.7870862,-19.2426764,39.513952800000006,143.0674408,27.8365478,24.1778168,2.176527800000001,-0.9850444,-0.2051088,-0.089462,-114.1329102,76.4275942,-105.5874268,84.04784840956582,1.0575657962932423,36.934773478393225,1.0101413461752766,-94.8902338,36.9136414,-248.6548676
6695.127,-0.1874254000000028,79.535843,-7.976912200000001,-0.6988008000000001,-0.2462163999999999,0.7586884,-20.3379924,42.2963418,141.49505,25.676937,21.4273204,3.047735400000001,-0.993225,-0.2026311999999999,-0.0875632,-115.319713,76.317302,-35.3372864,79.93507727054326,1.0604495094082322,33.58159978760152,1.0174589022818956,-94.9817206,34.0209602,-176.8323364
6715.112,0.6274531999999973,76.412323,-8.4398292,-0.7214501999999999,-0.2465344,0.737904,-20.953945,43.6665284,140.553781,24.3626614,19.0685598,3.377032800000001,-0.9806118,-0.2075228,-0.0908736,-116.3344682,76.2212814,35.115631,76.87956503974051,1.061023993451326,31.12159369102909,1.0064408705910346,-95.3805232,32.554753,-105.43815
6735.098,1.5728147999999973,73.57563160000001,-8.8983084,-0.7379834000000001,-0.2513211999999999,0.7193978,-21.5854568,44.9722132,139.5745666,23.9616356,16.8675948,2.7898012000000016,-0.9724772,-0.2121098,-0.101724,-117.16828019999998,76.12283779999999,105.76297300000002,74.12845070629447,1.060808672141136,29.435670974171728,1.0005249841717496,-95.5828234,31.150624599999997,-33.811593599999995
