Timestamp (ms),Wrist Gyroscope X (deg/s),Wrist Gyroscope Y (deg/s),Wrist Gyroscope Z (deg/s),Wrist Accelerometer X (g),Wrist Accelerometer Y (g),Wrist Accelerometer Z (g),Wrist Roll (deg),Wrist Pitch (deg),Wrist Yaw (deg),Arm Gyroscope X (deg/s),Arm Gyroscope Y (deg/s),Arm Gyroscope Z (deg/s),Arm Accelerometer X (g),Arm Accelerometer Y (g),Arm Accelerometer Z (g),Arm Roll (deg),Arm Pitch (deg),Arm Yaw (deg),Wrist Gyroscope Magnitude (deg/s),Wrist Accelerometer Magnitude (g),Arm Gyroscope Magnitude (deg/s),Arm Accelerometer Magnitude (g),Difference Roll (deg),Difference Pitch (deg),Difference Yaw (deg)
0.0,4.162918567657471,-9.014354705810549,-1.660780429840088,-0.9627946019172668,0.0108745228499174,0.1993685960769653,7.510754585266113,78.73588562011719,-119.70187377929688,-22.82826232910156,13.008028030395508,-3.4453511238098145,-1.01264488697052,-0.1321360170841217,0.1123471707105636,-42.86756134033203,82.83428192138672,-168.0983428955078,10.067108492474686,0.9832799895400812,26.499222603166498,1.0273906174795744,-50.378315925598145,4.098396301269531,-48.39646911621094
22.356,5.128061890602112,-8.152066349983217,-1.4366567432880402,-0.9649499803781508,0.0208760988898574,0.208495944738388,7.528203368186951,78.70235633850098,-119.72273254394533,-19.946940898895264,11.966524839401243,-2.9849247336387634,-1.0143925845623016,-0.1258023027330636,0.115899447351694,-43.1999454498291,82.85629844665527,-168.36759567260742,9.737411726244783,0.9874385221921445,23.45182175485555,1.0287133793649017,-50.72814881801605,4.153942108154297,-48.644863128662095
45.701,5.365745200051202,-7.379506455527412,-1.288936263985104,-0.9672508537769318,0.0220878867225513,0.2153919703430599,7.532870637045966,78.67421680026585,-119.7494837443034,-17.580217467414005,10.85038963953654,-2.634800208939446,-1.015212900108761,-0.1201382614672183,0.1201878264546393,-43.43340894911025,82.8714205423991,-168.55311160617404,9.214645612917469,0.9911890787132076,20.82635766696514,1.0293374315760102,-50.96627958615622,4.19720374213324,-48.80362786187064
67.208,5.146785976986091,-6.897132833798727,-1.236976278324922,-0.9700405187904836,0.0216733836762916,0.2197736830761034,7.519812126954396,78.6473461786906,-119.7843370437622,-15.796805014212923,10.125185012817385,-2.371708488712708,-1.0139035967489085,-0.1132300805766134,0.120571260806173,-43.63445035616557,82.88758420944214,-168.71409765879312,8.694248531822845,0.9948612041024244,18.91252022751797,1.0273066648183244,-51.15426248311997,4.2402380307515415,-48.929760615030915
77.259,4.685195843776067,-6.626495539347332,-1.2686256269613905,-0.9712499910593032,0.0224642119339355,0.2197675348321595,7.491504265467325,78.62128392537434,-119.82489212036133,-14.51509875456492,9.596539134979247,-2.2978572823603947,-1.0127287004391352,-0.1093301312997936,0.118876934275031,-43.84532258351644,82.90248771667481,-168.8878833516439,8.214068066975692,0.9960567028621984,17.551689471787526,1.0255263155111134,-51.33682684898377,4.28120379130047,-49.06299123128257
99.781,4.393639356692632,-5.794480959574382,-1.2029494098822275,-0.9737007862329484,0.0265352168834456,0.2230546022454896,7.440409771601358,78.55689092000326,-119.91420547485352,-11.393629428545632,8.11257571220398,-2.017445273598036,-1.0107193634907403,-0.1014291930571197,0.1180020480602978,-44.40071259816487,82.9363564300537,-169.34134282430014,7.370696281239955,0.9992750844630356,14.131481227147637,1.0226270074107036,-51.84112236976623,4.379465510050451,-49.427137349446625
119.978,3.660245892604193,-5.248201634089152,-1.263050496975581,-0.9752479285001756,0.0264344748264798,0.2224493468801179,7.3541987673441565,78.48688618977864,-120.02966506958008,-9.177063686052955,6.780270404815674,-1.9553206898768745,-1.0073039410511653,-0.0944401660934089,0.1146822854131458,-44.9808668645223,82.96610572814942,-169.81526341756185,6.521987192895442,1.0006452995095847,11.576434842409462,1.0182004720174422,-52.335065631866456,4.479219538370771,-49.785598347981775
142.337,3.035720185041428,-4.998301906585693,-1.382803889513016,-0.9757980269193648,0.0283371119480579,0.2194121012091635,7.242863731384277,78.40815063476562,-120.16640975952149,-7.780218081474305,5.762651312351227,-2.038667652010917,-1.003182495236397,-0.0885915123298763,0.1081481214612721,-45.63057796478272,82.99419319152832,-170.3457392883301,6.009223376452107,1.0005630671828252,9.89424627439598,1.0128768883636454,-52.87344169616699,4.586042556762706,-50.17932952880861
165.698,2.8619747734069825,-4.835002174377442,-1.4683798789978029,-0.9743386673927308,0.0325831808522342,0.2150152432918547,7.128111572265626,78.32082153320312,-120.3123147583008,-6.926669788360596,4.601675071716309,-2.236743426322937,-1.000902395248413,-0.0877874255180357,0.1028154888749121,-46.3353678894043,83.0131463623047,-170.91336608886718,5.807261411276243,0.998313105843526,8.611456844102605,1.0099917136519896,-53.46347946166993,4.6923248291015796,-50.60105133056638
187.164,3.333402705192566,-4.716370038986206,-1.435265655517578,-0.973413805961609,0.0361288513243197,0.2131344747543334,7.03039602279663,78.22343597412109,-120.45834930419922,-6.436550569534302,3.243355667591095,-2.3274502110481263,-0.998248097896576,-0.0859012992680071,0.0996529698371886,-47.03354034423828,83.02107452392578,-171.4532629394531,5.951109765542908,0.9971288963135536,7.574005789909036,1.006880833349923,-54.06393636703491,4.797638549804688,-50.994913635253894
197.207,4.054422159194947,-4.758000640869141,-1.3540765774250032,-0.973739709854126,0.039169458337128,0.2131686341762542,6.965032062530517,78.12575714111327,-120.58493225097656,-6.357455520629882,2.1290731561183933,-2.362537508010864,-0.9965074753761292,-0.0812392500042914,0.0973259019851683,-47.59193252563477,83.01501281738283,-171.85419189453123,6.396126368436851,0.9975691131995774,7.108570649409732,1.0045393448835107,-54.556964588165286,4.889255676269556,-51.26925964355466
225.851,4.907165513038636,-5.010264272689819,-1.2287207770347597,-0.9762652254104612,0.0420920794457196,0.2150088417530059,6.934942531585693,78.02285095214843,-120.69200378417968,-6.646678228378296,1.4162143087387085,-2.323556959629059,-0.994737675189972,-0.0776125831902026,0.0943069106340407,-48.06211196899414,83.00186309814453,-172.16011840820312,7.119885968361058,1.000547018150458,7.18212443393422,1.002207837180065,-54.99705450057983,4.979012145996094,-51.46811462402344
247.118,5.434355068206787,-5.664384460449218,-1.2155615985393526,-0.9811559343338012,0.0458827337622641,0.2177478909492491,6.920732765197753,77.90688751220702,-120.79302734375,-7.016167755126953,1.2418781960010528,-2.1882858169078827,-0.9927941632270812,-0.074719621837139,0.0892592340707778,-48.512074584960935,82.99078216552735,-172.43752502441407,7.943239661685081,1.0060747172793776,7.453688096390016,0.9995951596982388,-55.43280735015869,5.083894653320328,-51.644497680664074
268.363,5.18904356956482,-6.838711233139039,-1.447580599784851,-0.9873643684387208,0.0480729698389767,0.2189693331718444,6.876839675903321,77.76931884765625,-120.9193557739258,-7.41870150566101,1.990948884487152,-1.9765417742729188,-0.990419993400574,-0.0688856260478495,0.0815102221071719,-49.05147354125977,82.99707092285156,-172.79628295898436,8.705724213985734,1.0124954199211251,7.931439142815352,0.996153055063105,-55.92831321716309,5.227752075195312,-51.87692718505856
278.53,4.475962269306183,-8.39414608001709,-1.8790492165088648,-0.9932147216796874,0.0481536933407186,0.2213945794105528,6.768898296356201,77.60256072998047,-121.09706665039064,-8.211812419891356,3.603289941549301,-1.813289343118668,-0.9905464720726012,-0.0665444582700728,0.0730701726675032,-49.81634155273438,83.02941589355468,-173.36556762695312,9.696739277044705,1.018729513333145,9.149075355696882,0.9954645791767746,-56.58523984909058,5.426855163574217,-52.26850097656248
299.829,3.490594868659973,-10.300128583908082,-2.4750298452377324,-0.9968186068534852,0.0481457985937594,0.2262720203399657,6.575094089508058,77.39860748291015,-121.34329467773436,-9.069875192642211,5.675222113132477,-1.6796052789688112,-0.9924628973007202,-0.0713288892805575,0.0646220917999743,-50.891611328125,83.08947052001953,-159.8292724609375,11.153594672435124,1.0233105003273857,10.830136468975557,0.9971190639603388,-57.46670541763306,5.690863037109381,-38.485977783203126
317.467,2.2652025580406194,-12.182821102142334,-3.0327454006671903,-0.9947455215454102,0.048345208801329,0.2311004173755645,6.297681751251221,77.15732757568358,-121.65082824707032,-9.455405151844024,7.486309109926223,-1.558329268693924,-0.99744775056839,-0.0794519594311713,0.0604124864935874,-52.23079345703125,83.17034576416016,-132.1506103515625,12.757343661633731,1.0223811983599145,12.160505778319871,1.002429198245807,-58.528475208282465,6.013018188476579,-10.499782104492184
339.703,1.6092559146881105,-13.399346179962157,-3.2393993973732,-0.9852495241165162,0.0447208278626202,0.2357870006561278,5.977855587005616,76.89066680908203,-121.98871856689456,-9.30995975971222,8.365247948169708,-1.5072601783275603,-1.0041995811462403,-0.0894068945944308,0.0643411682546137,-53.68414642333985,83.25549591064454,-104.59037170410156,13.878972984523276,1.0140572404430397,12.606528356648802,1.0102228355702878,-59.66200201034546,6.364829101562506,17.398346862793005
362.463,2.278657228946685,-13.701635036468506,-2.869014195203781,-0.9738942313194277,0.0402913020178674,0.2475621056556701,5.696343936920167,76.61174407958984,-122.30079711914064,-8.464610364437103,7.784750498533251,-1.470677078962326,-1.008640429973602,-0.0999249446392058,0.0753157672286032,-55.01945526123048,83.32404266357422,-76.92954162597655,14.183029432807826,1.005674081883501,11.59374227834718,1.0163724594516097,-60.71579919815065,6.712298583984378,45.371255493164085
378.575,3.199428358078003,-13.344365463256835,-2.1859615540504453,-0.9634851479530332,0.0394532627612351,0.2587569373846053,5.497705249786376,76.33348937988282,-122.54657653808594,-5.967660493850708,6.138531565666199,-1.3090492856502531,-1.0076008820533753,-0.1027023406326769,0.0839827542053534,-56.03584457397461,83.36996398925781,-48.99892639160156,13.895569774256188,0.9984064016788184,8.66072465702543,1.016297402973208,-61.533549823760985,7.0364746093749915,73.54765014648439
399.876,4.0017205119133,-12.767055625915528,-1.3374923396110534,-0.9582183241844178,0.0357090262696146,0.2679572606086731,5.387728824615479,76.0621401977539,-122.7169271850586,-3.3800290894508365,3.983678216934204,-1.0326058757305143,-1.0030043792724608,-0.0995828959345816,0.0898990655038504,-56.64775939941406,83.3933056640625,-49.51366027832031,13.446202518525713,0.995619698917625,5.325463705275167,1.0119369446664737,-62.03548822402954,7.33116546630859,73.20326690673829
422.132,4.987694230079651,-12.85364891052246,-0.8395312857627868,-0.9602282500267028,0.0307466094754635,0.279340084195137,5.335356712341309,75.78530853271484,-122.8472164916992,-1.6080206775665282,2.3517375802993774,-0.704465092420578,-0.99236163854599,-0.0931894730031489,0.0880371658271177,-56.96550247192384,83.40493988037109,-64.16681579589843,13.812972049038528,1.000507135797505,2.9347352883204,1.0006080361975702,-62.30085918426515,7.619631347656252,58.68040069580077
444.62,5.524129364490509,-14.515229988098143,-1.0978412127494814,-0.9710132431983948,0.0317310939729213,0.2899621093273162,5.277843561172486,75.47457916259766,-122.9933139038086,-0.6071850562095641,2.0573135375976563,-0.2330827856063842,-0.9787223839759824,-0.0837259551882743,0.0745163604058324,-57.226405334472666,83.42721588134765,-64.37998413085937,15.569623058103277,1.0138794827971072,2.157670102080674,0.9851193980609414,-62.504248895645155,7.952636718749986,58.61332977294923
467.03,5.090010004043579,-18.13063117980957,-2.29302497625351,-0.9863766407966612,0.0340401532687246,0.2963839024305343,5.122327795028687,75.09584228515624,-123.23106597900392,-0.1863287591934202,3.4324686956405643,0.4065356814861298,-0.9686149072647094,-0.0781256440281867,0.0494448766717686,-57.73516311645508,83.48300201416015,-50.44633850097656,18.97066030377617,1.0305052290812582,3.4614781543982605,0.9730176003851764,-62.857490911483765,8.387159729003912,72.78472747802735
477.622,4.406662502288818,-23.73976848602295,-4.164201776981354,-1.0044289350509643,0.0311696767807006,0.3148692941665649,4.805374760627747,74.60661987304688,-123.61960968017576,-0.5190683865547178,6.100058670043945,1.301972200870514,-0.9654625487327576,-0.0816194871068,0.0271414392255246,-58.71138092041016,83.58394866943358,-22.571087036132816,24.50175215404934,1.0530867517575078,6.259015847538528,0.9692865063562796,-63.51675568103791,8.9773287963867,101.04852264404295
499.745,3.4499368190765383,-31.00045845031739,-6.58600478887558,-1.017637195587158,0.0272603874467312,0.3431038337945938,4.299430141448974,73.9747393798828,-124.18107421875,-0.1811399078369138,9.288736424446103,2.2320900404453274,-0.9716394424438476,-0.085701671540737,0.0125723252212628,-60.20268905639648,83.7330258178711,33.58355163574218,31.879553749457767,1.0742666481515613,9.554876345494913,0.9754927195929948,-64.50211919784546,9.75828643798829,157.76462585449218
522.3520000000001,2.190290107727051,-38.87131462097168,-8.832361731529236,-1.0252512478828428,0.0250300667807459,0.376542409658432,3.636115345954895,73.18975372314453,-124.8767349243164,1.1303774929046633,11.474442739486694,3.026625434756279,-0.9906147122383118,-0.0920037147402762,0.0099528675992041,-61.99677947998048,83.9135186767578,89.40953857421876,39.92226302296948,1.0924975111183337,11.920614538711416,0.994927761801052,-65.63289482593538,10.72376495361327,214.28627349853514
544.5060000000001,0.9112172436714172,-46.88758415222168,-10.527002832889556,-1.0304604005813596,0.0134660741128027,0.4227033108472824,2.860817739963532,72.24258392333985,-125.65984863281248,3.170976791381836,11.731839213371275,3.5393221414089204,-1.014246835708618,-0.1019173502922057,0.018577422988601,-63.74797012329102,84.09672149658203,130.83789916992183,48.0634336386873,1.1138707561111216,12.65772279521659,1.0195238646939198,-66.60878786325455,11.854137573242184,256.4977478027343
567.0659999999999,-0.0177286100387573,-55.140022048950186,-11.677402009963988,-1.0322249603271485,0.000404849667102,0.4762164413928985,2.0401287746429446,71.12467895507812,-126.46923553466794,5.294798250198364,10.066249446868897,3.7716870480775833,-1.0349900889396668,-0.1031734596937894,0.0359383608028292,-65.0975439453125,84.26145660400391,158.22608154296876,56.36296712882172,1.136780819541987,11.982899883814778,1.0407405117346589,-67.13767271995545,13.136777648925786,284.6953170776367
577.21,-0.3859067749977112,-63.65454566955566,-12.406767005920411,-1.030903420448303,-0.0093231361918151,0.5198551464080811,1.2405402064323428,69.83368927001952,-127.25275085449218,6.182235698699951,6.428272018432618,3.3816147637367244,-1.050555431842804,-0.0976976139843463,0.0530288267135619,-65.75461853027343,84.38312133789063,171.88997070312502,64.85351167034621,1.154598699292282,9.53824081199285,1.0564201794812855,-66.99515873670578,14.549432067871109,299.14272155761716
599.604,0.2243872642517089,-72.66896072387695,-12.78344352722168,-1.032211937904358,-0.0133956285379826,0.5550676083564758,0.5183178615570069,68.35592834472656,-127.97686126708984,5.730605764389038,1.6143771076202396,2.7794498509168624,-1.0522729063034055,-0.0953221360594033,0.0599777790531515,-65.59511779785156,84.44839752197265,171.9804815673828,73.78512472542413,1.1720669679940543,6.570494452186908,1.058282529829956,-66.11343565940857,16.092469177246087,299.9573428344727
624.479,1.320786383152008,-83.04552734375,-13.304290046691897,-1.0377930259704589,-0.0190622666478156,0.5827778828144075,-0.1177424931526184,66.66133941650392,-128.64658630371093,4.855429992675782,-2.8064572715759275,2.4211599230766296,-1.0394892716407775,-0.0904728811979293,0.0550307642295955,-64.72211975097656,84.46869506835938,172.80301879882813,84.11485137666209,1.190381365554887,6.108471020154665,1.044869213394778,-64.60437725782394,17.80735565185546,301.44960510253907
644.5509999999999,3.022741403579712,-94.83913742065428,-14.115751419067385,-1.0417957782745362,-0.0199476810730993,0.6013211727142335,-0.6578341579437257,64.72833404541015,-129.26600097656248,3.0164709281921382,-5.940474405288697,2.2292695409059524,-1.022580075263977,-0.0810277055948971,0.0440512910112737,-63.38762664794923,84.46190826416014,159.724638671875,95.93150363885456,1.2030475910641532,7.025523162479038,1.0267307415484423,-62.72979249000551,19.733574218749993,288.9906396484375
667.16,5.175415656566619,-107.49017608642578,-15.050287666320802,-1.0434583044052124,-0.0218535109609364,0.6227696943283081,-1.1002725291252138,62.5415316772461,-129.84607177734375,0.0796773529052727,-7.894104347229003,2.183737419843674,-1.0092842173576355,-0.0779694516211747,0.0361667420342563,-61.808191833496096,84.43636566162108,132.54974853515623,108.66201747228912,1.2153702732695475,8.190967039631605,1.012937263616407,-60.70791930437088,21.894833984374984,262.39582031249995
688.364,6.856940693855284,-120.57701263427734,-16.03320240020752,-1.0418723583221436,-0.0230493236891924,0.6525236606597901,-1.459827709197998,60.09263793945313,-130.39015930175782,-2.461538562774659,-8.610597467422485,2.427648562788963,-0.999617910385132,-0.0809903546422719,0.033081992343068,-60.172659912109374,84.40328277587892,91.08077697753906,121.83142940428692,1.2295594373917542,9.278741206996807,1.0034389979092928,-58.71283220291138,24.310644836425794,221.4709362792969
697.142,8.04898144006729,-133.8300424194336,-17.023532218933106,-1.033120150566101,-0.0271364391222595,0.683585433959961,-1.7497189354896547,57.38371215820312,-130.90117797851562,-4.301152896881105,-8.309924449920654,2.639288215637208,-0.9948642277717592,-0.0834313289076088,0.0377352557703851,-58.624552001953134,84.36968109130859,35.16000366210938,135.1483148449103,1.239097525361175,9.722170688222834,0.9990693508817317,-56.87483306646348,26.985968933105475,166.061181640625
717.179,9.884390907287598,-146.61412353515624,-17.710996475219723,-1.013736135959625,-0.0313089223019777,0.7209404015541077,-1.9533272409439089,54.42661590576172,-131.37202087402343,-6.61498091697693,-7.532051415443421,2.700398950576782,-0.991697895526886,-0.0833608696609734,0.0503526242077349,-57.21793533325196,84.33720672607421,-35.2575146484375,148.0104111194053,1.244345717459204,10.381807431710934,0.996468332335601,-55.26460809230805,29.910590820312493,96.11450622558593
739.362,11.538031463623046,-158.48349639892575,-17.988899688720704,-0.986753816604614,-0.0306095669418572,0.7633450627326965,-2.069087586402893,51.238766479492185,-131.79625122070314,-8.833442668914795,-6.534775462150573,2.7881928300857544,-0.9893839550018312,-0.0827080298215149,0.0684507267549633,-55.94315490722656,84.30846588134766,-91.36466369628906,159.91793305597318,1.2479245670193873,11.336093638616054,0.9951918059375814,-53.87406732082366,33.06969940185547,40.431587524414084
758.553,12.448039665222169,-169.4115213012695,-17.933431129455567,-0.9535117411613464,-0.0265883087366818,0.8033222365379334,-2.111920461654663,47.84120956420899,-132.17085021972656,-10.341774950027466,-5.289669017791748,2.841746082305908,-0.9867429614067078,-0.0853381945192812,0.08446217559278,-54.84770980834961,84.28593933105469,-133.22320068359377,170.8122512971255,1.2470838762530478,11.95861313995492,0.9940211961700596,-52.73578934669495,36.444729766845704,-1.0523504638672136
779.4830000000001,13.757493934631349,-179.33514221191405,-17.4941544342041,-0.9106718111038208,-0.0241961438953875,0.8347192645072937,-2.0782642984390263,44.25629287719727,-132.49823852539063,-10.629833688735962,-3.663981060981751,3.057026729583741,-0.9841912508010864,-0.0864959567040203,0.0960794720053671,-53.9579719543457,84.27984375,-160.88340576171876,180.71083894137792,1.2355827983013186,11.651760978101482,0.9926455730120296,-51.87970765590668,40.02355087280273,-28.38516723632813
802.028,15.9480428314209,-187.9057202148437,-16.3934517288208,-0.8603321886062621,-0.0196940238028763,0.868863706588745,-1.9504227876663207,40.50918258666992,-132.7737536621094,-10.05312035560608,-1.817002687454224,3.5665077590942382,-0.9860881900787352,-0.0857267805933951,0.1075013236701488,-53.24482894897461,84.29974548339842,-174.33277404785156,189.2924853743464,1.2228996156482843,10.820661035546609,0.9956282107867866,-51.29440616130829,43.7905628967285,-41.559020385742144
818.507,17.67937866210938,-195.04130981445311,-14.926522102355955,-0.8055089306831359,-0.0109016180783509,0.8971249723434449,-1.741925367116928,36.62942527770996,-133.00163635253907,-7.859270505905151,0.1208346319198608,4.113330955505371,-0.9928157591819764,-0.0870794421434401,0.1181171086430548,-52.687778625488285,84.34736236572266,-173.58227966308593,196.4089458911886,1.2057349205730263,8.871427474920852,1.0036023177924074,-50.94585325837136,47.7179370880127,-40.58064331054686
839.216,20.39760082244873,-200.874462890625,-13.169984016418455,-0.7442226529121398,-0.0061469174176454,0.921367893218994,-1.443179485797882,32.64266174316406,-133.1909051513672,-3.559590072631836,2.0159624576568604,5.038039474487304,-1.0009120965003966,-0.0935937152057885,0.1269101825356482,-52.20676239013672,84.42683349609375,-172.99336181640626,202.3365029842657,1.1844086863731331,6.489732495438723,1.013257619205537,-50.76358290433883,51.78417175292969,-39.802456665039074
862.169,24.33646713256836,-205.56555541992188,-11.13232003211975,-0.6792257332801819,0.000730952695012,0.9363936161994934,-1.0364281809329985,28.569629554748538,-133.34918518066405,2.93630259513855,3.968788027763367,6.34383487701416,-1.0048517489433288,-0.0906375971436499,0.1333432918787001,-51.68235229492187,84.55005645751953,-172.48971496582033,207.3002406098292,1.1567977936964642,8.03849440420011,1.0177045960687656,-50.64592411398887,55.98042690277099,-39.140529785156275
884.4269999999999,28.589006690979005,-209.2015484619141,-8.893718090057373,-0.6138505494594574,0.0101458278298377,0.9489193105697632,-0.5205160427093505,24.42680000305176,-133.48488525390627,9.407665748596193,6.175734062194825,7.789531507492066,-1.0045521473884582,-0.0818623965233563,0.1392044538259505,-51.12200241088867,84.72532989501954,-172.07742431640625,211.3331904928917,1.130204978252275,13.68651406131141,1.0174499244445847,-50.601486368179316,60.29852989196778,-38.59253906249998
907.356,32.4308903503418,-211.85536132812496,-6.811724648475646,-0.544912097454071,0.0184718700125812,0.9475489950180054,0.08640594124794,20.23416010856629,-133.6138037109375,15.390513830184938,8.71303005695343,9.439353761672972,-1.0006242918968202,-0.0720283450186252,0.1397538992762565,-50.5996044921875,84.9625033569336,-171.81955444335938,214.431472422014,1.0932152129810435,20.047099744563987,1.0129008877392955,-50.68601043343544,64.72834324836731,-38.205750732421876
918.085,37.1106579208374,-213.5080670166016,-4.555306253433228,-0.4745996761322021,0.0264720260351895,0.9451097130775452,0.7966039562225342,16.01012082576752,-133.74292602539063,20.374608936309816,11.56470325946808,11.4178866481781,-0.997891058921814,-0.0636409809440373,0.1363711622357368,-50.20770034790039,85.27237762451173,-171.78709838867186,216.7571139029712,1.057912090157173,26.062140861751,1.0091748281745556,-51.004304304122925,69.26225679874422,-38.044172363281234
939.176,40.63499824523926,-214.24888671875,-2.2804803991317746,-0.4054953628778458,0.0377844383940099,0.936924307346344,1.5852580964565277,11.76945514678955,-133.87976989746093,23.719850778579712,14.687909088134765,13.148057746887208,-0.9935926723480224,-0.05000701084733,0.127216390967369,-50.13244857788086,85.66045776367187,-172.1302386474609,218.0802355406496,1.0216072194325043,30.84213703450008,1.0029512001131122,-51.717706674337386,73.89100261688232,-38.25046874999998
959.239,42.547275085449215,-213.95383056640625,-0.2471363067626952,-0.3337019231915473,0.0457408230006693,0.9223790359497072,2.420489342212677,7.532952980995178,-134.03419189453126,24.28907026290894,18.169926624298093,14.38224328994751,-0.9915260219573976,-0.0396604146808385,0.1151237192749976,-50.86142288208008,86.12512298583985,-158.87424804687498,218.1434695506365,0.9819532994954632,33.57013687520717,0.9989746100132004,-53.28191222429275,78.59217000484468,-24.84005615234372
982.454,43.85237808227539,-212.51846435546872,1.40995023727417,-0.2563078990578651,0.0509488109871744,0.8971224784851074,3.290577584505081,3.3256746387481693,-134.21615173339842,23.49696552276611,21.5383485031128,15.163498649597168,-0.993118987083435,-0.033126002550125,0.0981265933811663,-53.17192153930664,86.65406402587891,-132.75655700683595,217.00026892874823,0.9344079739940824,35.29786872200552,0.998504623363944,-56.46249912381172,83.32838938713074,1.4595947265624716
1001.621,45.10494781494141,-209.9357202148437,2.9772379970550538,-0.182562503516674,0.060697242617607,0.8800021934509278,4.199142684936524,-0.8317239999771122,-134.42834106445312,21.463564701080323,24.39705596923828,15.790864639282228,-0.9981499099731443,-0.0276589579135178,0.083647669404745,-57.97312515258788,87.24231842041016,-94.6459619140625,214.74712311368657,0.9007869245443676,36.12827640089879,1.0020305351280985,-62.17226783752441,88.07404242038727,39.782379150390625
1024.089,43.41784309387207,-206.32724304199212,3.890412464141845,-0.111370783150196,0.0708747131749986,0.8565019035339354,5.090864100456238,-4.92051278114319,-134.68266113281248,18.856562881469724,26.63554119110108,15.79563983917236,-0.9991754984855652,-0.0207768796570598,0.0645655553042888,-66.1916633605957,87.84122039794921,-45.46708374023437,210.8818997196643,0.866615362813504,36.25636849126665,1.0014749454848648,-71.28252746105194,92.7617331790924,89.21557739257811
1044.1560000000002,39.87119041442871,-201.6118237304688,3.996358060836792,-0.0394326958060264,0.0733252329379319,0.822804479598999,5.934544372558594,-8.913819766044616,-134.989541015625,15.664898014068603,28.594431762695315,15.568489532470702,-1.0002940440177917,-0.0180843282118439,0.0461073195561766,-78.5478842163086,88.37295532226562,14.049177856445317,205.55537008489864,0.827005888087934,36.13043625456603,1.0015193968870482,-84.4824285888672,97.28677508831024,149.03871887207032
1066.653,36.869065017700194,-195.5388928222656,3.737549862861633,0.0314627400040626,0.0747502443566917,0.7871500277519227,6.744467754364012,-12.783147525787353,-135.34893615722655,13.496523170471187,29.744707565307618,15.5105615234375,-1.0033003067970274,-0.0210457797162234,0.0244375313073396,-94.64346084594726,88.76793273925782,55.45783569335938,199.019486082178,0.7913170472255738,36.15911067226452,1.0038185211477573,-101.38792860031127,101.55108026504517,190.80677185058593
1076.681,33.56767364501953,-188.14688354492188,3.4871841049194336,0.0900255593657493,0.0845184129476546,0.7649687933921813,7.520488376617431,-16.500294346809387,-135.754833984375,12.525623683929442,30.097865753173828,15.625515365600586,-1.0034937143325804,-0.0243370442837476,0.0070854907110333,-112.98516586303712,88.97178619384765,80.19730773925781,191.14967683620745,0.7748710978802836,36.15147994215601,1.0038137927962951,-120.50565423965456,105.47208054065703,215.95214172363282
1099.848,27.889059867858883,-179.75974670410153,2.653142635822296,0.1422695544362067,0.0909317695349453,0.733943521976471,8.220719814300537,-20.04362907409668,-136.21198486328123,12.829723663330077,30.39282020568848,14.92015453338623,-0.996652798652649,-0.0258371746726333,-0.0167427226901054,-117.26909561157228,88.9043344116211,90.1094871520996,181.92967147027383,0.7531150684201318,36.20685488457735,0.9971282161388773,-125.48981542587282,108.94796348571776,226.32147201538083
1116.6640000000002,23.18801573753357,-170.52121643066403,1.712633972764015,0.1929213008284568,0.0907846973836421,0.7030261754989624,8.865502090454102,-23.394184722900388,-136.71304992675783,13.38909845352173,30.90860374450684,14.345327301025389,-0.9900814199447632,-0.0284341869689523,-0.0355709950998425,-105.45767974853516,88.5778076171875,87.2400129699707,172.09910645311948,0.7346470533726255,36.611448458188384,0.9911281535708774,-114.32318183898926,111.9719923400879,223.95306289672854
1139.743,20.314312686920164,-160.39709960937498,1.1606188714504242,0.2394386920332908,0.0977559033781289,0.6773432540893556,9.490204963684082,-26.53985996246337,-137.24343383789062,14.26643051147461,31.36259140014648,13.479470520019532,-0.9839149284362791,-0.0303357389755546,-0.0589133399724959,-75.78361846923829,88.05594543457032,73.38542510986328,161.68255285962826,0.725038611212013,36.9978283737215,0.9861438156200526,-85.27382343292237,114.59580539703369,210.62885894775388
1156.7240000000002,17.07560704231262,-149.8245700073242,0.876662957072258,0.2822000211477279,0.1096024435758589,0.658994779586792,10.086563262939451,-29.47530838012695,-137.79308227539062,14.662523984909058,32.11659080505371,11.981826314926147,-0.9753573417663576,-0.02696572098881,-0.0800954539701341,-27.75453491210937,87.39441131591796,63.47330169677734,150.7970380069959,0.7252059480562897,37.28309504840432,0.9790119386364312,-37.84109817504882,116.86971969604491,201.26638397216794
1179.815,13.340269813537596,-139.0616293334961,0.4656549119949341,0.3293150532245635,0.1154909914731978,0.6365356278419496,10.639466819763182,-32.1991315460205,-138.3571710205078,13.677546348571775,33.413165893554684,9.707844944000245,-0.9693745994567872,-0.0193531974218785,-0.104954967573285,38.21673522949219,86.63894622802734,57.14077667236328,139.70081025563775,0.7259229841408139,37.38659094654508,0.975231872705546,27.577268409729005,118.83807777404783,195.49794769287107
1201.644,10.924451684951782,-128.15237518310548,0.1924442368745803,0.3814502274990081,0.1202580505609511,0.6196766781806946,11.169417037963868,-34.70979057312012,-138.9260321044922,10.769193315505982,35.08847496032715,7.471805682182312,-0.9696696090698242,-0.0116955353319644,-0.1252034660056232,92.55123352050782,85.84838470458985,53.66944076538086,128.61730810615103,0.7375401414599924,37.45670140122507,0.9777892636965024,81.38181648254395,120.55817527770996,192.59547286987308
1216.802,8.701849746704102,-117.259533996582,-0.0911497688293456,0.4362607395648956,0.1299330547451972,0.6030692505836487,11.679700202941891,-37.010377731323246,-139.4968194580078,6.625554790496826,37.46282699584961,4.6444234371185305,-0.9731376743316652,-0.0028415262699127,-0.1479032105207442,134.35208068847658,85.02407928466796,52.18186248779297,117.58200887206402,0.7555782901861671,38.32664936915423,0.9843172086058072,122.67238048553469,122.03445701599121,191.67868194580075
1239.109,6.054394354820252,-106.7355892944336,-0.4020949631929397,0.4934049677848815,0.1414701804518698,0.5866089022159576,12.15651023864746,-39.10400123596192,-140.06553466796873,1.93594672203064,40.55560768127441,1.2807537317276003,-0.9787727808952332,0.0049485316872596,-0.1639905527234076,148.42440185546874,84.14807678222655,51.87925033569336,106.90792016213352,0.7794692286106588,40.62198338620752,0.9924281061970066,136.2678916168213,123.25207801818847,191.9447850036621
1261.571,3.0811481332778934,-96.67383728027345,-0.836598516702652,0.548572005033493,0.1525406453013419,0.5709227013587952,12.58786075592041,-40.99822616577149,-140.62982849121096,-3.017185535430908,44.65424209594727,-1.991845703125,-0.9852595043182372,0.011643636189401,-0.1757788026332854,134.31416015625,83.19934753417968,52.30305038452149,96.72654333423756,0.806320422724267,44.80035931802043,1.000884634994624,121.7262994003296,124.19757369995116,192.93287887573246
1284.807,-0.3275627946853639,-86.96156372070314,-1.3390352195501325,0.602962293624878,0.162954405248165,0.5462969982624054,12.958273696899417,-42.70146743774414,-141.18444641113285,-7.455537252426147,49.93545593261719,-4.6806914377212525,-0.988992793560028,0.0151193117350339,-0.1851096734404563,91.72651550292969,82.15349670410157,53.1418507385254,86.97248919890455,0.829793996142218,50.70545993535434,1.0062807413948862,78.76824180603028,124.85496414184571,194.32629714965825
1306.347,-3.486549067497253,-77.30527572631836,-1.4272943782806395,0.6592606568336487,0.1697948551177977,0.5144693636894225,13.255672950744628,-44.21631729125976,-141.70920349121093,-10.457291374206545,55.83315383911133,-7.483150463104247,-0.986862428188324,0.0144237354770301,-0.1942644906044005,34.95428405761719,80.99660064697267,54.25869552612305,77.39702092951927,0.8533074666544335,57.29479515069746,1.005904661796859,21.69861110687256,125.21291793823244,195.967899017334
1316.581,-5.800865063667297,-67.10518455505371,-0.7972933864593506,0.7124190783500671,0.1779371219873427,0.481123445034027,13.470285034179687,-45.53204208374024,-142.17142639160156,-12.13469937324524,60.42730194091797,-10.119099974632263,-0.9806902170181274,0.0101351315341889,-0.1998165202140807,-36.11052551269532,79.75593170166016,55.51914993286133,67.36016260668309,0.8778851473511259,62.458833907098445,1.0008909353155024,-49.58081054687501,125.2879737854004,197.69057632446288
1341.085,-7.764431595802307,-55.91833033561706,0.4014429044723511,0.7571434450149536,0.1819495224952697,0.4540760588645934,13.582459831237792,-46.6344596862793,-142.5391418457031,-13.0854506111145,62.29330558776856,-11.804147005081177,-0.9710821676254272,0.0078199874330311,-0.2046427500247954,-92.82065002441406,78.48564361572265,56.751128082275386,56.456241656123694,0.9014193764832052,64.73810952804075,0.992441627311784,-106.40310985565185,125.12010330200195,199.2902699279785
1359.057,-9.554272799491882,-43.405042247772215,2.1398873233795164,0.7970880627632141,0.1821034383773802,0.4235168325901031,13.565330276489258,-47.49870651245118,-142.77718200683594,-13.40716796875,60.07824430942536,-12.850092062950134,-0.9605369544029236,0.0050990165211259,-0.2126907277107238,-135.20373779296875,77.26527893066407,57.912108306884775,44.49562831351819,0.9208026659147068,62.8830061166892,0.9838163377364924,-148.769068069458,124.76398544311525,200.68929031372073
1381.6280000000002,-10.424025540351868,-29.490056161880496,4.615427193641662,0.8289276623725892,0.1792754679918288,0.3999034309387206,13.410420379638676,-48.09951629638672,-142.85105651855469,-13.085420875549318,52.41687893867493,-13.55118412017822,-0.9506116247177124,-0.0001935295667499,-0.2197630012035369,-163.22128845214843,76.20372131347656,59.02736404418945,31.61686083526606,0.9376478640442448,55.6991205336398,0.9756834913024448,-176.6317088317871,124.30323760986329,201.87842056274414
1406.479,-10.80065818309784,-14.260237007141114,7.443043861389159,0.843669126033783,0.1788264542818068,0.386943678855896,13.111963386535646,-48.41221099853516,-142.7411016845703,-12.365779819488528,38.715723528862,-12.887483530044554,-0.9451164650917054,-0.0037012583017349,-0.2268672841787338,-176.93617309570314,75.42117736816407,60.020482025146485,19.37543492700276,0.9452417180701164,42.63692051080282,0.9719709854368552,-190.0481364822388,123.83338836669923,202.7615837097168
1416.687,-11.810622029304506,1.8842154788970944,10.05121322154999,0.8423839688301087,0.172795329093933,0.3835299944877624,12.658922538757324,-48.41880615234375,-142.4503857421875,-11.246553087234496,21.266186008453367,-10.739365272521972,-0.9431179332733156,-0.0040528038609772,-0.2363116091489791,-176.40212585449217,74.99045959472656,60.82663330078126,15.62267416017724,0.9415753997266652,26.34520051445372,0.9722813573752432,-189.0610483932495,123.40926574707031,203.27701904296876
1438.8529999999998,-13.2951722240448,18.40879726409912,12.093516025543211,0.830791072845459,0.1614565417170523,0.3831616854667663,12.058838653564454,-48.10895065307617,-142.00071228027343,-9.833213005065918,2.699343495368957,-7.934016675949095,-0.9469887471199036,-0.0047000932320951,-0.2465682631731033,-176.00923645019532,74.93198486328126,61.45167846679688,25.72738912205796,0.9290290085851316,12.92002917656251,0.9785732913033728,-188.06807510375978,123.04093551635742,203.4523907470703
1464.897,-14.30398286819458,34.887310934066775,13.693860111236573,0.8086587142944335,0.1459229058027266,0.3870269060134887,11.345334930419922,-47.48122940063477,-141.42000000000002,-7.822542104721069,-14.831978054046631,-4.59443468093872,-0.9535754275321962,-0.0092841693293302,-0.2534207880496978,-175.75474060058596,75.22458190917969,61.887059478759774,40.11546079568294,0.9083018422422204,17.386447826202666,0.9867190013418594,-187.10007553100587,122.70581130981446,203.30705947875978
1486.326,-14.439968271255497,51.25435121536256,14.81542655944824,0.7761096668243408,0.1291988238692283,0.4008034205436706,10.56085786819458,-46.53453399658203,-140.73853027343748,-5.441476726531983,-28.850793652534485,-0.8650924015045163,-0.9652889680862426,-0.0155961912684141,-0.2588489353656768,-175.66327941894534,75.79692352294921,62.100830230712894,55.27221785238047,0.8829959982621028,29.37220366621569,0.999514284255622,-186.2241372871399,122.33145751953124,202.83936050415036
1506.4679999999998,-14.92007781982422,67.18105046272278,15.21804782867432,0.7374179077148437,0.1108247530460357,0.4168524026870727,9.7312371635437,-45.272951202392576,-139.99649169921872,-2.8472274494171144,-37.2460804271698,2.459894618988037,-0.9786884045600892,-0.0228477953467517,-0.2611046397686004,-175.7276824951172,76.53633575439453,62.09902236938477,70.48043163276127,0.8543027695918105,37.4356553685446,1.0131775006785684,-185.4589196586609,121.8092869567871,202.0955140686035
1516.488,-14.839274711608883,82.50704910278321,15.336792449951172,0.6959101414680481,0.0933623307943343,0.431133941411972,8.892177352905273,-43.70453063964844,-139.22247131347655,-0.335727138519287,-39.85219232082368,4.691581041812897,-0.9922313451766968,-0.0298911285772918,-0.2579047060012817,-175.90010864257812,77.32749511718751,61.93356658935547,85.22226486235012,0.8239441275031039,40.12880359740811,1.025637050469799,-184.79228599548338,121.03202575683595,201.15603790283203
1538.706,-13.682368648052217,97.57733215332031,15.62936004638672,0.6518442595005035,0.0782367765158414,0.45052250623703,8.077453861236572,-41.83124061584473,-138.4284747314453,2.14095374584198,-38.3350846862793,5.933823552131654,-1.0012153673171995,-0.0373524078354238,-0.248049729168415,-176.1273370361328,78.08866607666015,61.659786224365234,99.76382038314388,0.796236435030101,38.85064559043869,1.0321608800297282,-184.20479089736935,119.91990669250487,200.08826095581054
1556.41,-12.246888365745544,112.20270782470702,15.502334003448489,0.6049224424362183,0.0642415375635027,0.4815566492080688,7.310745677947997,-39.66092010498047,-137.6380908203125,4.195557069778443,-34.80975471496582,6.293759963512421,-1.0102760767936707,-0.0423885317519306,-0.2360173797607421,-176.37004638671874,78.78030670166015,61.32749252319336,113.92873332655849,0.7758575532325671,35.62208776756586,1.0383442312233555,-183.68079206466675,118.44122680664063,198.96558334350584
1578.656,-12.002375948429108,125.93733673095704,14.682735900878908,0.5577395391464234,0.0547758719325064,0.5070571327209473,6.591442909240723,-37.20833778381348,-136.88194824218752,5.859935212135315,-31.069643020629883,5.635776243209839,-1.014935564994812,-0.0406673539616166,-0.2187985348701476,-176.55621215820315,79.39998962402343,61.019230957031255,127.35718489676523,0.7557649935769846,32.115783222324296,1.039048042022553,-183.14765506744388,116.60832740783691,197.90117919921877
1597.6,-11.188560819625854,139.1741683959961,13.771672611236571,0.5100854742527008,0.0474535388872026,0.5318152940273284,5.9376993656158445,-34.483222045898444,-136.1693096923828,7.150724468231201,-28.614672012329105,4.216521451473236,-1.0197932934761047,-0.0364138805214314,-0.1956702923774718,-176.59841247558592,79.97550048828126,60.832165222167966,140.30071991419942,0.7384216521459103,29.79448552911201,1.039033779736037,-182.53611184120177,114.4587225341797,197.00147491455076
1619.108,-9.934704720973969,151.76522644042967,12.404951915740966,0.4606560230255127,0.0366686602681874,0.5734646606445313,5.364520816802978,-31.498071441650392,-135.5133752441406,9.014310383796692,-30.273095016479488,3.116790752410889,-1.0264031887054443,-0.0358519039675592,-0.1664917880669235,-176.46538024902344,80.59280822753905,60.78729766845703,152.59510197394832,0.7364850841691859,31.740076530571475,1.0404366296399432,-181.82990106582642,112.09087966918945,196.30067291259763
1641.403,-9.880802755355836,163.21408782958986,10.273929471969604,0.4040103933215141,0.0327151115611194,0.6126590204238892,4.858478136062622,-28.27585372924805,-134.93414306640625,12.25251127243042,-34.9987215423584,2.4574745583534243,-1.029260003566742,-0.0405333742778747,-0.1411203313618897,-176.10749633789064,81.31222473144531,60.908024444580086,163.83535136206203,0.7346058478824005,37.16280026162628,1.039679785941926,-180.96597447395325,109.58807846069337,195.84216751098634
1663.835,-10.520191957950592,173.5403289794922,8.121730227470398,0.3425788640975951,0.0304105927795171,0.6419717216491699,4.403230867385864,-24.83888484954834,-134.43225219726563,16.744281077384947,-40.771966476440426,1.9639297342300417,-1.0296065950393676,-0.0347518452443181,-0.1100087241455911,-175.46904052734376,82.15691528320312,61.22940673828125,174.0485068106886,0.7282944278770774,44.12007727957246,1.0360498784733223,-179.87227139472964,106.99580013275146,195.66165893554688
1687.584,-9.08066514492035,182.95961975097657,6.485649375915527,0.2784809997677802,0.0225124844536184,0.6803442287445068,4.026495990753174,-21.20569169998169,-133.99133544921875,22.15377507209778,-47.4688240814209,2.1811217761039736,-1.0307805132865906,-0.0330519852135329,-0.0776057948172091,-174.46324768066407,83.1506478881836,61.82564270019532,183.29960334578857,0.7354772251904845,52.4293458076694,1.034226067978918,-178.48974367141724,104.35633958816528,195.81697814941407
1697.705,-6.899648158550264,190.7550842285156,4.772173585891723,0.2005477076768874,0.0178892956674098,0.7409206867218018,3.739410820007324,-17.40938648223877,-133.60849182128908,28.37442999362945,-54.32356536865235,2.9887637424469,-1.0230707287788392,-0.033488968964666,-0.0459400119259953,-172.61065490722655,84.31524841308592,63.188559417724605,190.93946932070844,0.7677909051077881,61.360335238114445,1.0246490676432307,-176.35006572723387,101.7246348953247,196.79705123901368
1719.0259999999998,-6.957596397399902,196.4500543212891,2.9176203346252434,0.1129522702097892,0.0216188977286219,0.786604573726654,3.492792949676514,-13.493820114135744,-133.28365356445312,34.48451141357422,-57.77855865478515,3.971261506080628,-1.011272020339966,-0.0245174873899668,-0.0247798189520835,-167.09702087402343,85.53928863525391,68.4101058959961,196.5948740402037,0.7949668845255361,67.40411178561035,1.0118726430424392,-170.58981382369996,99.03310874938965,201.6937594604492
1741.063,-6.029427700042725,200.17170898437504,1.5942612361907953,0.0328989678621291,0.0145130981504917,0.8233174943923951,3.296660099029541,-9.498708095550535,-133.00321350097656,38.82308830261231,-59.039637908935546,4.538039140701294,-1.0081363940238952,-0.0093037995882332,0.0005757312849163,-155.27757007598876,86.73410369873048,65.43620422363281,200.26884117357,0.8241023411427071,70.80610728611755,1.0081794885380246,-158.5742301750183,96.23281179428102,198.43941772460937
1763.7769999999998,-2.2135134506225587,202.3235675048828,0.8594701862335199,-0.0521293303370476,0.013179724663496,0.8738931560516358,3.2028499412536617,-5.457040252685547,-132.74957641601563,41.11231956481934,-59.11232620239258,4.641979937553407,-1.0011281299591066,-0.0101005189958959,0.0199337882548569,-137.2619951248169,87.75614013671876,54.19526641845704,202.3375009697905,0.875545784306842,72.15287871456373,1.001377505735771,-140.46484506607058,93.2131803894043,186.94484283447267
1786.767,-0.5947213935852054,202.64987854003908,-0.3040478229522712,-0.1503171217441558,0.0248595257103443,0.9245578336715696,3.1660688304901123,-1.406064929962158,-132.52652648925783,41.72758071899413,-56.60706329345703,4.12391676902771,-0.9874412775039672,-0.0042216582596301,0.0309798308089374,-113.2681600189209,88.48864562988281,34.49182418823243,202.65097929915663,0.9370274387185556,70.4454206949429,0.9879361562540762,-116.43422884941101,89.89471055984497,167.01835067749028
1797.838,-2.512678413391113,201.43738220214848,-1.5583715820312507,-0.2344781938195228,0.0316590958088636,0.9391320252418516,3.109036426544189,2.624017219543457,-132.3352520751953,40.37037109375,-51.76298583984375,3.492190790176392,-0.9828138399124148,0.0092711107432842,0.0338060253858565,-84.31243577957153,88.81270446777344,5.291091613769535,201.45908027004205,0.968478849825417,65.73712012111531,0.9834387854717694,-87.42147220611572,86.18868724822998,137.62634368896485
1820.308,-1.8292174625396729,199.6005151367188,-2.103014650344849,-0.3049822634458541,0.0311812724173068,0.9458965063095092,3.0772680377960206,6.620934810638427,-132.16110778808593,36.27497224807739,-47.18823135375976,1.396415739059449,-0.982705855369568,0.0084571874141693,0.0430117750912903,-56.26093673706055,88.76258605957031,-39.76971160888672,199.6199748271408,0.994337293585358,59.53614672458265,0.9836830460026726,-59.338204774856564,82.14165124893188,92.3913961791992
1841.118,0.5835057258605959,197.201713256836,-2.5984822463989263,-0.3864970767498016,0.0397262025624513,0.9719020199775696,3.103898401260376,10.573651390075684,-131.99886474609374,31.033790450096127,-42.63587127685547,-0.7765782642364496,-0.977503638267517,0.0053353251516819,0.0477952079474924,-34.66591035842895,88.35046752929688,-76.75373260498047,197.219695518344,1.046686055100886,52.740086680224096,0.9786859610842747,-37.769808759689326,77.7768161392212,55.245132141113274
1863.673,-1.197898359298706,193.91445800781253,-3.743979964256288,-0.4614497447013855,0.0489763796329497,0.9773993182182312,3.1018596363067625,14.465142345428466,-131.86084167480467,25.95267189979553,-37.24337394714355,-2.576563539505004,-0.9717286562919616,0.0123855558782815,0.0489620643109082,-19.57327518463135,87.75735565185546,-105.71770629882812,193.95429711897503,1.0819630215032248,45.46700739413486,0.9730402186934416,-22.675134820938112,73.292213306427,26.143135375976556
1883.837,-3.758234481811523,190.15277221679688,-4.467146520614625,-0.5158258974552155,0.0436100226268171,0.9536969852447508,3.0520768260955813,18.28433240890503,-131.74252075195312,20.733554463386533,-32.409092292785644,-4.169277715682982,-0.974098949432373,0.0106033323705196,0.0550035257637499,-10.997818737030029,87.09073303222655,-126.67195190429686,190.24236254365104,1.0851341530999363,38.69899766917748,0.9757082462442632,-14.04989556312561,68.80640062332152,5.070568847656261
1906.276,-1.8141529560089111,186.58045349121093,-4.286117820739747,-0.5653576231002807,0.0385378519445657,0.9347905278205872,3.050867052078248,22.03369188308716,-131.62344360351562,15.991615142822264,-29.129269409179688,-6.292948665618896,-0.9816862535476684,-0.0108754394203424,0.0657625032216309,-8.627282485961913,86.43475769042968,-139.2871173095703,186.63849437323208,1.093136651536848,33.82081155290081,0.9839465851442432,-11.678149538040161,64.40106580734252,-7.663673706054681
1925.967,0.1845473098754883,182.93763305664064,-3.82407473564148,-0.6291131544113159,0.0442133950814603,0.94285302400589,3.107192335128784,25.70979724884033,-131.48932556152346,14.578979830741885,-26.3158606338501,-6.875486783981323,-0.984922194480896,-0.021603088453412,0.0757548956573008,-9.23710901260376,85.82181243896484,-140.132216796875,182.97769042607203,1.1343324072929577,30.860063064130344,0.9880674201833792,-12.344301347732543,60.11201519012451,-8.642891235351556
1936.232,-3.1972664737701413,179.00034301757813,-3.740820598602296,-0.6817044878005982,0.0491025522351263,0.9182708072662354,3.107584781646729,29.30455310821533,-131.3492883300781,15.694549827575685,-22.254903202056887,-7.035722761154174,-0.979959177970886,-0.0182578096538782,0.0811623799055813,-9.946197929382324,85.32738403320312,-141.11136413574218,179.0679732729051,1.1447066632115248,28.126517836287533,0.9834839449704657,-13.053782711029053,56.02283092498779,-9.762075805664068
1956.194,-5.451625576019287,175.11563537597658,-3.0912348937988288,-0.7241059994697571,0.0411648454889654,0.8771471977233887,3.075815229415894,32.818881072998046,-131.19245300292968,16.128555951118468,-18.59971017360688,-7.125480108261108,-0.9862266087532042,-0.0233255728334188,0.0881767040491103,-10.711465053558353,84.91099792480468,-142.1625390625,175.2277424031986,1.13816134596384,25.62912410488815,0.990435327165695,-13.787280282974248,52.09211685180663,-10.97008605957032
1978.718,-4.303942728042603,171.5314892578125,-2.0201279234886176,-0.7710642409324645,0.0429365079104899,0.857385482788086,3.089710912704468,36.2600636291504,-131.00378845214843,16.482795457839963,-15.752765760421756,-6.835761122703552,-0.9981393551826476,-0.030046666637063,0.0917154753208159,-11.41207633972168,84.55581665039062,-143.1609606933594,171.59736783190053,1.153903580656575,23.80251678571766,1.0027944470098311,-14.501787252426148,48.29575302124022,-12.157172241210986
1997.491,-5.615536680221558,167.7906982421875,-1.419533457756043,-0.825019121170044,0.0503647731617092,0.8536815166473388,3.1017211246490484,39.62119506835938,-130.78464721679688,18.051731314659115,-12.63414328098297,-5.682929601669311,-1.0002333617210388,-0.0159642899781465,0.0966366282105445,-11.76514347076416,84.26967041015625,-143.8471783447266,167.89064221702597,1.188261457986887,22.75482956997439,1.0050175492826878,-14.866864595413208,44.648475341796875,-13.062531127929702
2018.796,-10.379044342041016,163.77479003906248,-1.505636303424836,-0.8592622947692871,0.0463186829537152,0.8073030877113343,3.029182891845703,42.89947250366211,-130.5602947998047,18.17857810974121,-9.191232852935787,-4.923610738515853,-1.0007059836387633,-0.0038369875401258,0.0966305983066558,-11.990184326171876,84.05834289550782,-144.40960510253908,164.11024756081275,1.1799217715725911,20.95665541428968,1.005367923047533,-15.01936721801758,41.15887039184571,-13.84931030273438
2041.601,-11.499982042312624,159.80584899902345,-0.9063895463943488,-0.8870516109466552,0.0347949009761213,0.7626829361915588,2.953205499649048,46.095274200439455,-130.3146520996094,17.11525428771973,-7.253093600273132,-4.242292954921721,-1.0102974057197571,-0.0160250727087259,0.0998443475365638,-12.14102813720703,83.89014678955078,-144.876484375,160.22166053090953,1.170365971299051,19.06662911012353,1.0153455297062148,-15.094233636856078,37.79487258911133,-14.5618322753906
2056.178,-10.77711296081543,155.5647766113281,-0.2697905039787299,-0.9176210284233092,0.0350607830286025,0.7366935455799103,2.917260961532593,49.203382415771486,-130.04572570800784,18.4029679107666,-6.053269357681275,-3.330370732545852,-1.0103215336799622,-0.0220791159570217,0.1006351728737353,-12.13209156036377,83.75334228515625,-145.20857177734374,155.9378679885634,1.1772743904503868,19.657127640058363,1.0155611881113815,-15.049352521896363,34.549959869384764,-15.162846069335899
2079.5080000000003,-12.090626769065857,149.93396057128908,-0.1592770814895637,-0.949701018333435,0.0314874324947595,0.7117902255058288,2.8677756214141845,52.19332626342773,-129.77127868652343,20.79893989562988,-4.109805207252503,-3.000257048606872,-0.9935741186141968,-0.0160471024364233,0.0965403276681899,-12.054796791076658,83.65965545654296,-145.5194677734375,150.4207470977671,1.1872526301315631,21.412331540056524,0.9983822281785992,-14.922572412490842,31.466329193115236,-15.748189086914067
2100.825,-13.487246675491331,141.82883819580078,-0.798936617374421,-0.9735301852226256,0.0203190999478101,0.6576979577541351,2.765175132751465,55.02319137573242,-129.53854614257813,20.94720100402832,-1.2286126708984375,-3.7703759086132047,-0.97299453496933,-0.0180818386375903,0.0791318386793135,-12.265139541625976,83.6257260131836,-146.12022094726564,142.47092147724314,1.1750491440770674,21.31925077225999,0.976374500825102,-15.03031467437744,28.60253463745118,-16.58167480468751
2123.391,-11.022149777412414,131.28001586914064,-1.528798198699952,-0.995695676803589,0.0187848366051911,0.6127862119674682,2.6734105110168462,57.64193557739257,-129.36061645507812,18.974526138305663,2.541966996192932,-5.269077610969544,-0.9551781940460206,-0.0257908342778682,0.0562483690679072,-13.046305503845211,83.6646142578125,-147.2530657958984,131.7507782756894,1.1693030798168111,19.85591642945244,0.9571804576654108,-15.719716014862058,26.02267868041993,-17.892449340820292
2143.725,-8.446665267944336,118.54720596313476,-3.0781723284721383,-1.0170097279548649,0.0299158560484647,0.5927294671535492,2.5624390316009524,60.00590759277344,-129.27783264160158,14.743072128295898,7.537583227157593,-7.248792477846146,-0.943261058330536,-0.0162076154351234,0.0336497113108634,-14.630304450988769,83.7925653076172,-149.10711669921875,118.88759960861506,1.177510919877209,18.07535142323218,0.9440002192967116,-17.19274348258972,23.786657714843756,-19.829284057617173
2165.949,-7.771426730155944,103.7056101989746,-5.347611565589906,-1.0317041659355164,0.0367282524704932,0.5876819801330566,2.3544067001342777,62.07163024902344,-129.33129150390624,6.395377731323242,13.309083671569828,-10.15033153295517,-0.9410430932044984,-0.0022015010565519,0.0172780726850032,-17.34386276245117,84.00745056152343,-151.9270037841797,104.13378707038498,1.1879110068988108,17.918197306985316,0.9412042720209574,-19.698269462585447,21.935820312499985,-22.59571228027346
2175.874,-7.541242599487305,87.69880096435547,-7.806804656982422,-1.0300320339202882,0.0430665168911217,0.5816015827655793,2.0166573786735533,63.81911529541016,-129.54443603515625,-4.949875030517577,18.445182638168337,-13.181000412702565,-0.954837625026703,-0.001310513690114,0.0117313668131828,-21.345495529174805,84.2836831665039,-155.81142395019532,88.36795929228104,1.1836727237097786,23.204844262627432,0.9549105887883284,-23.36215290784836,20.46456787109375,-26.266987915039067
2198.457,-7.077510943412781,72.08491455078125,-9.375865626335145,-1.019077751636505,0.0566131767630576,0.6012822222709655,1.5812233400344848,65.25191818237305,-129.88028686523438,-15.89342216491699,21.712967224121098,-15.390786609649656,-0.97903089761734,-0.0071259266883134,0.0208199493587016,-26.412596092224124,84.57451629638672,-146.14472717285156,73.03583314504364,1.1845947942156552,30.99887298357479,0.9792781768281578,-27.993819432258608,19.322598114013672,-16.26444030761718
2220.933,-8.800364904403686,57.06663571834564,-10.234358434677125,-1.005841369628906,0.0659418594092129,0.6365988171100616,1.0310118412971496,66.38433502197265,-130.30387939453126,-24.43156600952149,22.501473093032835,-16.685880203247073,-1.001406021118164,-0.0083555863052606,0.0401289311051368,-32.10300426483154,84.82929656982421,-122.53074462890623,58.64119223916298,1.192192620185693,37.170368671714826,1.002244563999156,-33.13401610612869,18.444961547851562,7.773134765625031
2241.634,-10.864251961708067,42.11221430778504,-10.10974229812622,-0.9924731230735778,0.0674638472497462,0.6645141196250915,0.4041609525680542,67.21957611083985,-130.7617999267578,-30.377828979492183,20.918199148178104,-17.148364181518556,-1.0161114525794983,-0.0156013473868369,0.0581794729083775,-37.9806971359253,85.01066131591797,-84.58236633300781,44.65061538127795,1.196299831100159,40.67493015620436,1.0178952486240416,-38.38485808849335,17.79108520507812,46.17943359374998
2263.21,-11.976440353393556,27.164215321540823,-9.000189756155015,-0.9833743524551392,0.0701717706769703,0.6814811158180236,-0.2254690670967102,67.75834777832031,-131.19062072753906,-32.76082763671875,17.642688350677492,-16.12639242172241,-1.024847161769867,-0.0313621389120816,0.0676995748281478,-43.51464920043945,85.1104443359375,-31.840427246093743,31.021494696745748,1.1984847540469945,40.55362884158842,1.0275594976334967,-43.28918013334274,17.352096557617188,99.35019348144532
2286.995,-12.226630020141602,11.985795192718506,-7.020243804454805,-0.982739326953888,0.0741252800822257,0.6961600184440612,-0.7831237030029298,67.99479095458985,-131.52605224609377,-31.44625465393067,13.27535601615906,-13.806954786777496,-1.029329228401184,-0.0432885110378264,0.0695516795665025,-48.17717796325684,85.13787170410157,36.14888366699218,18.50496125705774,1.2066109203753643,36.82029344803956,1.0325841330174363,-47.39405426025391,17.143080749511725,167.67493591308596
2296.109,-11.939942741394043,-4.07768291950226,-4.776925612688065,-0.9907507944107056,0.0722364425659179,0.7064110326766968,-1.2299007248878475,67.91196136474609,-131.73687927246095,-28.25920379638672,8.746383705139161,-10.915112080574035,-1.0279139065742493,-0.0456193903088569,0.0633946385979651,-51.70423065185547,85.11876220703125,90.81100158691406,13.49106181769708,1.2189428974924874,31.53127810372955,1.030876815290679,-50.47432992696762,17.206800842285162,222.54788085937503
2325.763,-10.551112461090089,-21.10868936538696,-2.5642343378067025,-1.0023130202293395,0.0678049062751233,0.7143243408203126,-1.5322111082077026,67.48703552246094,-131.81195739746096,-25.29481903076172,4.696097650527954,-7.768949086666106,-1.0289373731613158,-0.0478845793008803,0.0526142363995312,-54.08073410034179,85.080244140625,132.16365539550782,23.737692361098585,1.2326752044738358,26.87448181553441,1.031393866907709,-52.54852299213409,17.593208618164056,263.9756127929688
2345.66,-8.80005714893341,-38.59921317577362,-0.4522813022136695,-1.013114833831787,0.0609867783542721,0.7226186990737915,-1.682475116252899,66.7079054260254,-131.750068359375,-22.41306552886963,1.1581044769287117,-4.433299322128295,-1.0321613574028017,-0.0538511380553244,0.0431472058594225,-55.33783996582031,85.0414599609375,160.17581970214843,39.59223183895601,1.2459128532586623,22.87664431817896,1.0344654146750982,-53.655364849567405,18.333554534912096,291.92588806152344
2355.94,-6.832456512451172,-56.19400563240051,1.4672261190414422,-1.0192424988746642,0.0529438782483338,0.7295265960693359,-1.689045877456665,65.5705661010742,-131.56799377441405,-19.27048731803894,-2.10309941291809,-1.3568096184730525,-1.0339448738098145,-0.0584345243126153,0.0394017397612332,-55.54283294677735,85.00838134765624,160.37575805664062,56.62686185454032,1.2545387120885334,19.43233493320082,1.0363440996143352,-53.85378706932069,19.437815246582034,291.94375183105467
2378.416,-4.483662142753601,-73.63489046573639,3.0737128531932827,-1.0233175659179683,0.0424161095265298,0.7380080723762512,-1.57030981361866,64.07642318725586,-131.29682006835938,-16.63568254470825,-4.788729839324951,1.2805658245086675,-1.0292886567115784,-0.0589986990392207,0.0372454065829514,-54.86932739257812,84.98455230712891,132.60070678710937,73.83527633059447,1.262392126859223,17.358505581796248,1.0316507188166812,-53.299017578959464,20.908129119873053,263.89752685546875
2401.884,-1.6540643215179442,-90.72592742919922,4.376604235172271,-1.0246502113342284,0.031050237584859,0.7495685601234436,-1.3462336975336076,62.230675506591794,-130.97232910156248,-14.683732309341432,-6.795313482284544,3.471365873813629,-1.0241840958595276,-0.062418501600623,0.0384576044231651,-53.52427398681641,84.96720672607421,91.05864746093752,90.84648865696114,1.2699311789096634,16.548071213431292,1.026804810512511,-52.178040289282805,22.736531219482416,222.0309765625
2425.909,1.4418593358993532,-107.3068359375,5.5187964212894425,-1.0250883626937866,0.020792158236727,0.7638273572921752,-1.0368946558237075,60.04790588378906,-130.62290100097655,-12.555741577148437,-8.252710876464842,5.421406016349794,-1.0178982210159302,-0.0674011120200156,0.0417630035430191,-51.63959060668945,84.95553527832031,35.61574645996094,107.45833197663968,1.278542411076894,15.973275385992965,1.0209818052805173,-50.602695950865744,24.90762939453125,166.2386474609375
2436.764,4.680394086837769,-123.4731884765625,6.407443904876708,-1.025324692726135,0.014417331572622,0.7783550548553466,-0.6660781913995744,57.54218933105468,-130.28126770019531,-10.688516302108766,-9.037438964843748,6.879497115612031,-1.0085384440422058,-0.0680653965473174,0.0446515148878096,-49.3901904296875,84.94977844238281,-33.89682556152344,123.72788569587284,1.2873753051781316,15.59638305336962,1.011818387409516,-48.72411223828792,27.40758911132813,96.38444213867187
2458.328,8.136578888893128,-139.34041198730466,7.126562204360961,-1.0265749168395994,0.0085988427419215,0.7994734525680542,-0.2501015144586563,54.72559036254883,-129.96869567871096,-10.118195800781251,-8.868603463172912,7.835292491912843,-0.9977634167671204,-0.0629139968566595,0.0465715599805115,-47.00588439941406,84.95532775878907,-88.88380249023437,139.75958721196767,1.301187073922046,15.569901158445925,1.0008291148034696,-46.7557828849554,30.22973739624024,41.084893188476585
2481.146,11.29650270462036,-154.89387298583983,7.614812936782836,-1.025040991306305,0.0049552925303578,0.8251659059524536,0.1894728428125381,51.61024398803711,-129.70193054199217,-10.905934076309205,-7.857814674377439,8.260326433181763,-0.9894452476501464,-0.0575506199523805,0.0516612371802329,-44.69652572631836,84.97384704589842,-129.52924743652343,155.4918269169514,1.3159150280806915,15.777124019173618,0.9924630246922832,-44.8859985691309,33.36360305786131,0.17268310546873522
2503.181,13.81011125087738,-169.7940417480469,7.979516048431395,-1.017121319770813,0.0061638873349875,0.850383460521698,0.6348968416452407,48.21519653320313,-129.4861444091797,-12.777947635650635,-6.23389070034027,8.389784946441651,-0.9836428427696228,-0.0529989257641135,0.0581710156053303,-42.60795715332031,85.00996765136718,-155.95820190429686,170.54151536287662,1.3257925186726078,16.508356383685125,0.9867856886480524,-43.24285399496555,36.79477111816405,-26.472057495117156
2525.798,15.49155905723572,-183.79325927734376,8.217088413238525,-0.9980057668685912,0.0088821338489651,0.8746124291419983,1.0683318239450454,44.559697189331054,-129.3243426513672,-15.708329343795777,-4.097539091110228,8.325069637298585,-0.9807895946502686,-0.0458115827292202,0.0644792020320891,-40.83549484252929,85.07084899902344,-168.24603576660155,184.6279261103361,1.3270423144023489,18.2441284210072,0.983973829723682,-41.90382666647434,40.511151809692386,-38.92169311523435
2535.597,16.76754089355469,-196.5168286132813,8.359702396392823,-0.96416020154953,0.0117298189550637,0.9014716339111328,1.483923311829567,40.66744567871094,-129.21449768066404,-19.339675674438475,-1.7877222871780387,8.144378299713136,-0.984254710674286,-0.0368447471968828,0.0743934034556149,-39.39660308837891,85.15835968017578,-166.39737609863283,197.40795065041087,1.319997571835326,21.06062449352769,0.9877495883867704,-40.880526400208474,44.49091400146484,-37.182878417968794
2558.102,17.094611244201662,-207.6537109375,8.413053607940673,-0.918410007953644,0.0182499743625521,0.9297706127166748,1.868601542115212,36.56467079162597,-129.1541247558594,-23.06691055297852,0.2981970596313486,8.048671875,-0.9910493659973144,-0.030596757903695,0.0880049267411231,-38.23340286254883,85.26895874023437,-164.75248840332034,208.5259429200964,1.3070131585202909,24.43260941645203,0.9954194465493462,-40.102004404664044,48.704287948608396,-35.59836364746093
2581.844,16.083995113372804,-217.00685974121097,8.126297578811645,-0.8561507451534272,0.0236152373068034,0.9456788873672484,2.203257172107697,32.28059864044189,-129.14276672363283,-26.279164199829104,2.0592172479629527,8.264868831634523,-0.999149594306946,-0.0275470082648097,0.0993718819320201,-37.24275222778321,85.40280639648438,-163.2183367919922,217.7537801873667,1.2758763011640204,27.62504124015042,1.004456828533107,-39.446009399890904,53.12220775604249,-34.075570068359355
2603.217,14.801280326843264,-224.3874932861328,7.705544662475584,-0.7772325992584228,0.0236549172550439,0.952785794734955,2.4893002462387086,27.84846778869629,-129.1758819580078,-28.216321563720705,3.35908040046692,8.835572929382327,-1.008078877925873,-0.0271247543022036,0.1087301532924174,-36.27061836242676,85.55775054931641,-161.66679748535154,225.0071120233614,1.2298174007181175,29.757546483447268,1.0142884316856002,-38.759918608665465,57.70928276062012,-32.49091552734373
2625.445,14.084515056610106,-229.80325317382807,7.303515329360961,-0.6895194172859191,0.0237269703391938,0.9555868530273438,2.7458022356033327,23.302450942993165,-129.24642150878907,-28.23354301452637,4.1630619382858285,9.3518243598938,-1.012495141029358,-0.0316553462110459,0.1193850488960742,-35.22715225219727,85.72336059570311,-160.0465673828125,230.35027690415447,1.1786204773439553,30.031993851781102,1.020000618358498,-37.97295448780061,62.42090965270995,-30.80014587402343
2635.485,12.819897842407226,-233.40291809082024,6.957363338470458,-0.5973077708482741,0.0228607873059808,0.9482632589340212,2.9686584949493406,18.67437183499336,-129.3474609375,-26.128208351135253,4.870394287109376,10.014774055480958,-1.0112244963645936,-0.0391696950793265,0.127821877002716,-34.03655479431153,85.89959564208984,-158.3240838623047,233.8582409465688,1.120938177133848,28.402459603607856,1.02002337193857,-37.005213289260865,67.22522380709648,-28.9766229248047
2660.764,11.574563674926756,-235.09306640625,6.750212125778198,-0.4962589782476425,0.0164862143527715,0.9230453824996948,3.1636847877502445,14.003319418430332,-129.47050598144534,-22.63955386638641,5.968801345825197,10.440505390167235,-1.0086555767059324,-0.0508318769186734,0.1305524486303328,-32.80695129394532,86.0922250366211,-156.63407653808594,235.4745968470939,1.0481209600561796,25.63552499125087,1.0183387913530682,-35.97063608169556,72.08890561819076,-27.163570556640593
2683.121,11.624737815856934,-234.8925329589844,7.2260308265686035,-0.3972296151518821,0.0107360531389712,0.9032369995117188,3.364693231582642,9.329022411108015,-129.59800415039064,-17.912854590415957,7.339503507614137,10.530141429901123,-1.0077839565277098,-0.0614308962225913,0.1331512808799743,-31.626967849731443,86.30372436523437,-155.0890203857422,235.2909944955002,0.9867845293059918,22.03684527897281,1.018396544399741,-34.991661081314085,76.97470195412636,-25.491016235351566
2704.48,12.012005767822265,-233.11722351074212,8.045561113357543,-0.3074413879122584,0.0142017616797237,0.879901783466339,3.582171583175659,4.68435122013092,-129.72231201171874,-12.29114339351654,9.11255750656128,10.070103569030762,-1.0041773796081543,-0.0668893296271562,0.1317133410274981,-30.691360321044925,86.54000274658202,-153.9003717041016,233.56510705486872,0.9321743643672398,18.31714759784879,1.014985121240354,-34.27353190422058,81.8556515264511,-24.178059692382845
2725.37,11.74093189239502,-229.83827270507808,8.822517242431639,-0.2242281956784426,0.0199329908937215,0.8495760440826416,3.805111856460572,0.099634176492691,-129.84349548339844,-6.883313727378845,11.350326395034791,9.56914571762085,-1.001674394607544,-0.0631671898066997,0.1246725860238074,-30.085738220214846,86.81605255126954,-153.14857055664064,230.30700790954825,0.8788942271640483,16.3639380012394,1.011377743667681,-33.89085007667542,86.71641837477685,-23.305075073242193
2735.792,11.7164546585083,-225.0978210449219,9.425606565475464,-0.148706214847043,0.0269378426205366,0.8190330243110656,4.040624475479126,-4.393479933738708,-129.96388244628906,-2.7826358366012576,13.885251693725587,8.771972866058348,-0.99851735830307,-0.0563762096315621,0.1108346889168023,-30.08219573974609,87.14372894287109,-153.07563537597656,225.59952661311968,0.8328591000951568,16.65805465113231,1.006230351416736,-34.12282021522522,91.5372088766098,-23.111752929687498
2765.525,11.868653087615966,-219.08309814453128,9.63517541885376,-0.0811121774837374,0.0350505150668322,0.7910198521614074,4.294244489669801,-8.766850734949113,-130.09054504394533,0.6544344091415406,16.54641700744629,8.22257345199585,-0.995144281387329,-0.0449432673305272,0.0931755892559885,-31.13861785888672,87.54516906738282,-154.10994140625002,219.615813237737,0.7959397781591634,18.48845354143075,1.0005067358541109,-35.432862348556526,96.31201980233193,-24.01939636230469
2775.455,11.586043567657471,-211.8404638671875,9.357075748443602,-0.0182074985932558,0.0454633676912634,0.7570936846733093,4.55644757270813,-12.993233048915863,-130.23257568359375,3.2777241468429565,19.45367420196533,7.9822585105896,-0.990628273487091,-0.0367168593406676,0.0672904239594935,-35.27165939331055,87.99728942871094,-143.78067626953126,212.36330521909605,0.7586760034290413,21.281573402098093,0.9935897066437964,-39.82810696601868,100.99052247762681,-13.548100585937505
2798.087,11.014148120880126,-203.60395568847656,8.642104663848876,0.0415504642203449,0.0494608768820761,0.7323796248435974,4.822921876907349,-17.051759222745897,-130.39743164062503,5.174990363121032,22.8481995010376,7.830718383789062,-0.986191279888153,-0.0286315169185399,0.0436901262775062,-44.229408035278325,88.47249145507813,-123.87090881347656,204.0847084027726,0.7352229147033698,24.70103026401576,0.9875737093618048,-49.05232991218568,105.52425067782403,6.526522827148469
2823.066,10.476528339385986,-194.42619079589844,7.6830109500885,0.0986404125671833,0.0540604843199252,0.7058608317375182,5.09812364578247,-20.921353549957274,-130.58984436035155,6.144154677391052,26.66334037780761,7.420684576034548,-0.9790757179260254,-0.0227730678021906,0.0142668499797582,-58.45985565185547,88.88057067871094,-94.83092803955078,194.85977001605087,0.7147670814590653,28.35050116628504,0.9794444430685336,-63.55797929763794,109.80192422866821,35.758916320800765
2835.46,9.261044559478758,-184.4297204589844,6.399260396957397,0.1590702666528522,0.0561300235614179,0.6748205494880676,5.371759128570557,-24.58514835357666,-130.81470275878905,6.3070718908309935,30.914063110351567,6.799980010986329,-0.972689642906189,-0.0152806711941956,-0.0121825766935944,-77.76263389587403,89.14153381347657,-56.45682830810547,184.7729397626716,0.6955837140771716,32.27534944778637,0.9728859416725116,-83.13439302444459,113.72668216705323,74.35787445068358
2857.881,8.097554874420165,-173.73703002929688,5.017640180587767,0.2207741050515323,0.0598651539534329,0.6461282825469971,5.649269294738771,-28.033963279724123,-131.07336608886715,4.920033626556396,34.60489082336426,5.47970181465149,-0.9705682826042176,-0.012690448462963,-0.0380028810352086,-100.9972103881836,89.148037109375,-7.612324218749995,173.99799628537937,0.6854245397024427,35.379829447877505,0.9713949030371054,-106.64647968292238,117.18200038909912,123.46104187011716
2880.2940000000003,7.467039318084716,-162.47344451904297,3.611206941604613,0.2827084998786449,0.0631705306842922,0.6233272910118103,5.943702964782714,-31.261371536254888,-131.36561096191406,2.641750679016113,37.62386238098145,3.1283274841308595,-0.9681256103515624,-0.0059789534658193,-0.0583136336132883,-123.95504951477052,88.88273864746094,26.985581054687504,162.68502594165034,0.6873510919251463,37.84600771496356,0.9698986674742454,-129.89875247955322,120.14411018371582,158.35119201660157
2903.0330000000004,6.09278112411499,-150.37376068115233,2.1165901184082028,0.3494769117236137,0.071043230742216,0.5914359951019288,6.242635192871093,-34.25174781799317,-131.6919708251953,-1.6092833328247071,39.53929962158203,0.2485476779937746,-0.9665159964561464,3.32077406346977e-05,-0.0826174034178256,-142.729093170166,88.32634216308594,51.38147186279298,150.51202555592755,0.6906357858990331,39.57281621718096,0.9700406217555402,-148.9717283630371,122.5780899810791,183.0734426879883
2925.523,3.9394622230529786,-137.62699920654296,0.5236001110076899,0.4208078503608702,0.0741356984898447,0.564362245798111,6.528541412353516,-36.99256362915039,-132.050185546875,-7.410935287475586,40.75744125366212,-3.084835090637206,-0.97235285282135,0.00050471088849,-0.0974790962412952,-156.2609213256836,87.57119110107422,66.70617431640626,137.6843652354213,0.7078701104003482,41.54042834296844,0.9772269436149,-162.78946273803712,124.56375473022462,198.75635986328126
2935.251,2.7456836581230166,-124.16757354736328,-0.6462889766693122,0.4928721207380294,0.0795651993155478,0.5390978872776031,6.815288181304932,-39.469305419921874,-132.42744018554689,-13.361183567047116,41.06279678344727,-6.700133886337278,-0.9830201435089112,-0.006656657680869,-0.114376917183399,-164.31552703857423,86.6836618041992,73.21475006103516,124.19960865007472,0.7347653233584862,43.69858464625442,0.989674185184265,-171.13081521987917,126.15296722412108,205.64219024658206
2957.864,1.8330495595932008,-110.08628967285156,-1.239680070877076,0.5607354366779327,0.0891611132398247,0.5175388312339783,7.093948879241943,-41.66596466064453,-132.803193359375,-18.06554859161377,41.64450958251954,-10.23071084976196,-0.9902278232574462,-0.0086856780853122,-0.1269212965667246,-167.45115722656251,85.73545043945313,70.34582916259765,110.1085285130132,0.7682580138830892,46.53274834754505,0.9983664650213168,-174.54510610580445,127.40141510009767,203.14902252197265
2980.384,-0.8329639792442322,-95.4933772277832,-1.5531634807586676,0.6265230298042297,0.1033180510252713,0.4911345279216766,7.316683540344239,-43.56948211669922,-133.16187988281249,-22.41663522720337,42.53662536621094,-13.102032480239863,-0.9971073055267334,-0.0116384527646004,-0.1381306785345076,-167.81469360351565,84.75469848632812,70.41933654785156,95.5096395143254,0.802757031149264,49.835060826371375,1.0066968345385516,-175.13137714385988,128.32418060302734,203.58121643066403
3003.662,-3.573008966445923,-80.63242111206054,-1.3940801620483405,0.6865332877635956,0.109804463200271,0.4657367193698882,7.463934001922607,-45.17434860229492,-133.48115112304689,-25.193897247314453,43.67169723510742,-15.20453149795532,-1.0052476143836977,-0.0161019399110227,-0.1433672687411307,-167.46512756347656,83.78008697509765,71.29668243408204,80.72358507254981,0.8368367027775596,52.66049160400464,1.015547247763148,-174.92906156539917,128.95443557739256,204.77783355712893
3025.19,-4.990215551853179,-65.71180229187011,-0.3651812171936041,0.7397690868377685,0.1132071643881498,0.4427673470973968,7.538757038116455,-46.48154266357422,-133.7302117919922,-25.50883632659912,43.91755256652833,-16.042812948226928,-1.008881194591522,-0.0213439749367534,-0.1487152290344237,-166.98599548339843,82.81387939453126,72.32476470947265,65.90202249568047,0.8695499339113644,53.26184376702331,1.020006396751157,-174.52475252151487,129.2954220581055,206.05497650146484
3035.257,-6.134589166641235,-51.025761394500734,1.2324287509918208,0.7789185047149658,0.1174479511007665,0.4272831380367279,7.525532150268555,-47.498044128417966,-133.88538635253906,-24.28574432373047,43.0399201965332,-15.394132715463636,-1.0061211013793945,-0.0226015041302888,-0.1501253300905227,-166.6522149658203,81.88108428955077,73.18767822265626,51.40797983541334,0.8961467169251248,51.76109958204966,1.0175107436114008,-174.17774711608885,129.37912841796873,207.0730645751953
3058.842,-7.9913161444664,-36.664381752014165,2.923046245574951,0.8094960474967957,0.1142661165632306,0.4103950774669647,7.4018716049194335,-48.23239028930664,-133.93899169921875,-22.626567420959475,40.12597030639648,-13.533937857151033,-0.9995837950706482,-0.0247368005663155,-0.1520346683263778,-166.52755004882812,81.02403015136719,73.81165740966796,37.638839279818505,0.9147484440634442,48.01273289666256,1.01138232782821,-173.92942165374754,129.25642044067382,207.7506491088867
3080.299,-8.149924683570863,-22.743927249908445,4.820326375961304,0.831175467967987,0.0971840967237948,0.3982644808292388,7.194561958312988,-48.69463821411133,-133.8834442138672,-20.38679100036621,34.65733238220214,-10.937127836942674,-0.9926311016082764,-0.0281570184696465,-0.1528187084197997,-166.57998413085937,80.29522033691407,74.21697326660157,24.63621410581979,0.9267750557163292,41.66980562067306,1.0047202989948278,-173.77454608917236,128.9898585510254,208.10041748046876
3103.042,-6.5147515320777885,-9.37234375,6.812970762252808,0.8413690543174743,0.0798716533742844,0.3950577640533447,6.938958683013917,-48.89609985351563,-133.7186572265625,-17.834490242004396,26.451753997802733,-7.970919365882874,-0.9838392186164856,-0.0336434346064924,-0.1546571028232574,-166.73130493164064,79.74676086425782,74.47579681396485,13.292832109832185,0.9329265799164752,32.88312465824727,0.9964889905230776,-173.67026361465454,128.64286071777346,208.19445404052735
3122.523,-4.688586063385008,3.46355173110962,8.387460603713988,0.8375879764556885,0.067235907614231,0.3995134353637695,6.6505716514587405,-48.84641510009766,-133.4608056640625,-15.724242858886717,16.610959625244142,-5.33257742524147,-0.9752493119239808,-0.0364170756936072,-0.1573410767316817,-166.8990380859375,79.40648254394532,74.68093200683595,10.214133602351929,0.9304220927149168,23.48642533790393,0.9885310507198832,-173.54960973739622,128.25289764404297,208.14173767089844
3145.174,-3.6912737274169913,15.80939727783203,9.31890079498291,0.8286152052879332,0.051886062119156,0.4038648414611816,6.331854228973389,-48.55333221435547,-133.13467224121092,-13.911199150085448,6.197936096191407,-3.373935723304748,-0.9711919212341308,-0.0402939685061572,-0.161157060265541,-166.97912841796875,79.27966918945313,74.94804656982421,18.719093355335744,0.923256265640836,15.598695968278964,0.9852963766511316,-173.31098264694214,127.8330014038086,208.08271881103514
3155.107,-2.183610706329345,27.93334768295288,9.948586988449096,0.814330222606659,0.0370569514110683,0.4119296407699584,6.005796928405762,-48.020050811767575,-132.75588623046875,-12.222690219879151,-3.723966064453124,-1.8063924825191493,-0.9740840792655944,-0.0471085591614245,-0.1645567494630813,-166.92546875,79.35300140380859,75.32322906494142,29.732380522929272,0.9133416436598958,12.904461757904883,0.9890085609431404,-172.93126567840577,127.37305221557617,208.07911529541016
3177.686,-0.8653751182556146,39.75438228607178,10.246098594665526,0.7921977996826172,0.0295195894129573,0.426686897277832,5.681117992401123,-47.25395401000976,-132.34054443359372,-10.193902620077134,-11.86230010986328,-0.396337015628814,-0.9800355505943298,-0.0542651739343999,-0.1695549017190932,-166.7538311767578,79.58802368164064,75.78179016113282,41.06266335071364,0.9002835488276306,15.645667053661708,0.9960739200620772,-172.43494916915893,126.84197769165038,208.12233459472654
3195.363,-0.5441311073303219,50.91529863357544,10.08972625732422,0.7646180367469788,0.0258796120434998,0.4470864331722259,5.351726188659668,-46.267933959960935,-131.90763366699218,-7.867611663341522,-17.260801925659177,0.7864385974407203,-0.9894606184959412,-0.0563359401375054,-0.1740339523553847,-166.51403564453125,79.92971649169922,76.26725158691406,51.90824876217528,0.8861132970252673,18.985601967531387,1.006227543986937,-171.8657618331909,126.19765045166017,208.17488525390624
3218.018,-1.0796064758300776,61.67383361816407,9.598156833648682,0.7364933109283447,0.0249232613667845,0.463968780040741,5.014572048187256,-45.07072189331055,-131.47399475097654,-5.523253127336502,-19.79138729095459,1.746311311125756,-0.9990582489967345,-0.0562751970067619,-0.1781117022037505,-166.25803283691403,80.32053955078125,76.72544189453126,62.425571025878135,0.870810309339437,20.621710385042192,1.016370041445776,-171.2726048851013,125.3912614440918,208.1994366455078
3235.391,-2.1946850204467774,72.26667587280274,8.999489421844483,0.7073924136161805,0.0262823526561259,0.4794285333156585,4.664955406188964,-43.66574768066406,-131.04801208496093,-3.511264243125916,-20.40230773925781,2.56861419081688,-1.0080148243904117,-0.0537830790877341,-0.1779729098081587,-166.02927185058593,80.72450225830077,77.11692596435547,72.85794324504086,0.8549540966976356,20.86099030568059,1.0250174937105083,-170.6942272567749,124.39024993896484,208.1649380493164
3257.641,-3.972528057098388,82.8032131958008,8.2876589012146,0.6748329901695251,0.0280604785308241,0.494452052116394,4.297308721542358,-42.05414215087891,-130.63920410156248,-1.5718404757976532,-20.04620899200439,3.1819361478090293,-1.0149770188331604,-0.0503441283106802,-0.1720549932122229,-165.8271807861328,81.12467681884765,77.44216796875,83.31169416580457,0.8370602050740642,20.357944274440072,1.03068705274883,-170.12448950767515,123.17881896972656,208.08137207031248
3279.56,-5.6230671691894525,93.6742678833008,7.455015964508055,0.6374617290496827,0.0285828164964913,0.5152470171451569,3.922346906661987,-40.222618408203125,-130.25709777832031,0.4466769838333132,-20.208583831787102,3.5484447693824777,-1.0207627320289612,-0.0480468437075613,-0.1578913451731203,-165.58144409179687,81.53429931640625,77.76882537841797,94.13853945591404,0.8201548159212776,20.52261779343979,1.0340187286360267,-169.50379099845887,121.75691772460937,208.0259231567383
3295.08,-7.69956404685974,105.8872688293457,6.481025352478026,0.5966919326782227,0.0347112933173775,0.5270559132099152,3.5396357250213617,-38.14134948730469,-129.90982727050783,2.8643533790111544,-21.193943290710447,3.8246949166059503,-1.0187803745269777,-0.0503595545887946,-0.1445802867412566,-165.22485412597658,81.96815429687499,78.15486907958986,106.36447093023725,0.7968902509483821,21.72593021471841,1.030219877295082,-168.76448985099793,120.10950378417968,208.06469635009768
3317.528,-10.300608501434326,119.39638458251952,5.557090244293212,0.557151437997818,0.0335010962188243,0.5315796434879304,3.1359214019775385,-35.78022941589356,-129.59631713867188,5.830039818286896,-23.47404457092285,4.388933923244477,-1.0187378072738649,-0.0497242540121077,-0.1239640697091817,-164.73189880371095,82.4559375,78.61469146728516,119.96866440391818,0.7707898323678475,24.582165766731976,1.0274562336105055,-167.86782020568847,118.23616691589356,208.21100860595703
3339.952,-10.09725112915039,133.83335327148438,4.962373428344726,0.5085741496086121,0.0253200746700167,0.5580213069915771,2.763534941673279,-33.1198258972168,-129.3103192138672,9.930539413690568,-27.694007911682128,5.101789882779122,-1.0229266476631165,-0.0533468361198901,-0.0948878775537013,-163.93052978515624,83.0354815673828,79.29856903076173,134.30542088202327,0.7554313674239416,29.85970440689595,1.0287023479753268,-166.6940647268295,116.1553074645996,208.60888824462893
3363.416,-8.268340473175048,147.77517456054687,3.9519222450256337,0.4445889114588499,0.0182005956768989,0.6061259484291077,2.4577719497680666,-30.16922607421875,-129.05986328125,15.461298542022709,-32.795621948242186,5.664343851804734,-1.0195966958999634,-0.0595755347609519,-0.0746040231734513,-162.56210205078125,83.71853485107422,80.4457925415039,148.05906037798286,0.7519170348078599,36.69726642202463,1.0240568474971694,-165.01987400054932,113.88776092529298,209.5056558227539
3384.565,-8.137653102874754,160.58324279785157,2.549074459075927,0.3808848004043102,0.0166098523885011,0.6313712525367736,2.187015099525452,-26.956272621154785,-128.85258850097657,20.93035353660584,-36.6672889328003,5.897048391699792,-1.0095515584945678,-0.0530278579890727,-0.0618543273210524,-160.44040893554688,84.47450103759766,82.25090118408204,160.8095054593925,0.7375491691441686,42.63032906960509,1.0128337774729177,-162.62742403507232,111.43077365875244,211.1034896850586
3404.9550000000004,-6.570722980499267,172.04226440429687,1.684863805770873,0.3254315636307001,0.0075025308877229,0.6544899249076843,1.9707311725616448,-23.51202758789063,-128.674580078125,25.27535488128662,-39.86759002685547,5.839990520477296,-1.0118742752075196,-0.0428034663200378,-0.036763774678111,-157.08480010986327,85.2903500366211,85.22522644042968,172.17593881808355,0.7309713074960671,47.56441724864995,1.0134462297943274,-159.0555312824249,108.80237762451173,213.89980651855467
3415.111,-1.7034724044799805,181.6087536621094,1.1377900123596183,0.2486134591698646,0.0006296852976083,0.7222841095924377,1.871959195137024,-19.87647575378418,-128.5163345336914,29.067924194335937,-43.65096534729004,5.22060073375702,-1.0153643417358398,-0.0454252737760543,-0.0109856876730918,-150.78894073486327,86.14225494384765,91.08522735595704,181.62030665938704,0.7638739317149922,52.70299483652974,1.0164393180608151,-152.6608999300003,106.01873069763182,219.60156188964845
3437.493,0.2150862169265749,188.48797424316405,-0.7179325962066659,0.1631165810674429,-0.0011079298704862,0.7762278819084167,1.8354218578338624,-16.103595706224443,-128.40076354980468,32.37894744873047,-45.360148925781246,4.661743783950806,-1.0016667556762695,-0.0352934542298316,-0.0061593208462,-140.43990982055666,86.93692108154298,86.53016021728516,188.4894642243568,0.7931821803216185,55.92558630505278,1.0023072655487353,-142.27533167839053,103.04051678776742,214.93092376708984
3460.7960000000003,0.0107738971710205,194.0399786376953,-2.4650545501709,0.0982598078250885,0.0014602072536945,0.7873664712905883,1.8119437789917,-12.219786159992218,-128.32283294677734,33.37593727111817,-45.23299362182617,3.9455463171005256,-0.9970623397827147,-0.0141130220890045,0.0123627798259258,-126.0002963256836,87.58532623291016,71.62357543945313,194.0556361452288,0.7934753191824179,56.35196745862709,0.9972388505922196,-127.81224010467531,99.80511239290237,199.94640838623047
3480.396,3.2648793172836306,199.1420050048828,-3.264909257888795,0.0321782598644495,0.00107276879251,0.8161508297920227,1.8632375717163083,-8.23117101073265,-128.25829162597657,33.1202653503418,-45.75728881835937,2.954632272720338,-1.0072632169723512,-0.0218986490368842,0.0388834732025861,-107.79844581604004,88.02805511474608,46.04676879882813,199.19552511736663,0.8167856317363776,56.56333891091303,1.008251289899213,-109.66168338775636,96.25922612547873,174.3050604248047
3503.341,6.664055576324463,202.3414172363281,-4.543706722259522,-0.0672542659938335,-0.0025474724173545,0.8934475827217103,1.9927915954589843,-4.172538771629333,-128.21179779052733,33.432262649536135,-46.706239929199214,1.912999043464661,-1.001442005634308,-0.0277561499178409,0.0543439206480979,-86.72717178344728,88.19916961669921,8.87687438964844,202.50210872163305,0.8959789110137325,57.47041499355811,1.003299434973694,-88.71996337890626,92.37170838832854,137.08867218017576
3524.782,4.4781961297988895,203.3279040527344,-7.282332410812378,-0.1536852700263261,0.0020164581388234,0.9129785275459292,2.084442195892334,-0.0884438097476959,-128.2126397705078,33.74904937744141,-44.255750198364254,1.1477934741973883,-0.9793903946876524,-0.0105801630020141,0.0546999007463454,-66.21871681213379,88.07542144775391,-43.3200927734375,203.50755065204945,0.9258255883731142,55.66764939675832,0.980973783644214,-68.30315900802613,88.16386525750161,84.8925469970703
3534.962,3.093418941497803,203.81234924316408,-8.538850212097168,-0.2207713887095451,0.0094436997175216,0.8967958760261536,2.146595115661621,4.009602208137513,-128.23388885498048,31.560296428203586,-40.80239597320556,-0.4161975336074822,-0.979066641330719,-0.0152792753279209,0.0725609758496283,-48.982563247680666,87.71726196289062,-84.36608215332032,204.0145948399519,0.923618986809286,51.58547322819984,0.981870683765134,-51.129158363342285,83.70765975475311,43.86780670166016
3564.926,5.619509253501892,203.70202697753908,-8.938132734298705,-0.3079535549879074,0.0104887269437312,0.9253355598449708,2.2572234344482425,8.108459287881852,-128.2574591064453,29.30757684230805,-38.083106994628906,-2.1916353607177728,-0.9827467799186708,-0.0365974900126456,0.0794985342025756,-35.89322273254395,87.1948162841797,-115.11635314941408,203.9754516989341,0.9752903689343988,48.10468131363613,0.9866360152843092,-38.15044616699219,79.08635699629784,13.141105957031229
3585.016,5.799392290115357,201.4127331542969,-10.454531173706055,-0.4136095806956291,0.014187773913145,0.975559952259064,2.364792718887329,12.161850097179414,-128.30577850341797,28.26814621210098,-33.990227165222166,-3.286969099044799,-0.9675946140289308,-0.021844161003828,0.0740851057320832,-27.06394149780273,86.60022888183593,-135.69767150878906,201.767240278695,1.059712884994578,44.33088989486001,0.9706725026285076,-29.42873421669006,74.43837878465652,-7.391893005371088
3595.203,2.315494751930237,197.85691650390623,-12.593062553405762,-0.4825043261051178,0.024238826483488,0.940552923679352,2.386618251800537,16.142851761579514,-128.3977362060547,25.47300131797791,-28.032075881958008,-4.423486471176147,-0.9631867146492004,-0.0105315855145454,0.0683299873769282,-22.403960189819337,86.02560424804688,-145.97273742675782,198.270789953674,1.057373040918496,38.13447661838608,0.9656648221536815,-24.790578441619875,69.88275248646735,-17.575001220703115
3617.32,4.79482536315918,194.8129132080078,-12.664635620117188,-0.5422577431797981,0.0249897979199885,0.9068761479854583,2.448169870376587,20.06111863136292,-128.49222412109376,20.362398984432225,-24.350236053466794,-5.77187720298767,-0.9850423574447632,-0.0329063858091831,0.072286403402686,-20.300691833496096,85.49519348144531,-144.28043212890626,195.28301128937028,1.0569258714893268,32.262607686098924,0.9882391412528928,-22.748861703872684,65.4340748500824,-15.7882080078125
3634.647,9.775489196777343,191.80041870117188,-12.6150679397583,-0.6155254107713699,0.032468495517969,0.9339346933364868,2.6109268474578857,23.917689208984378,-128.57703857421876,17.94034365653992,-22.562655715942384,-6.59359486579895,-0.9984185957908632,-0.0413833093643188,0.0735156705975531,-19.2936750793457,84.99718688964845,-143.6299969482422,192.4632451719181,1.118999439644177,29.57033744692796,1.0019764590739393,-21.904601926803586,61.07949768066407,-15.052958374023433
3657.217,9.41477195739746,187.55150390625,-13.30461494445801,-0.685020341873169,0.0483297367393969,0.9469866812229156,2.7675223302841188,27.686983566284177,-128.66186340332033,17.738566343784335,-19.95349250793457,-6.783245124816894,-0.9963935089111328,-0.0265079541504383,0.0741977823525666,-18.78817344665527,84.55227813720703,-143.4764862060547,188.2583791689661,1.169774511026345,27.5465245288837,0.9995038805024824,-21.55569577693939,56.86529457092285,-14.814622802734362
3679.728,6.803594055175782,182.71719055175785,-13.501090641021728,-0.723057701587677,0.0518453794717788,0.8951892709732057,2.8684512233734134,31.357964706420898,-128.74228271484375,16.031562666893006,-17.570386424064637,-7.653974561691283,-0.9966036939620972,-0.0307885557413101,0.0805715458095072,-18.72652679443359,84.14957275390626,-143.73409423828124,183.34159392699763,1.1518959215412503,24.98625236454017,1.0003292617821729,-21.594978017807,52.791608047485354,-14.991811523437491
3694.908,8.704978256225585,177.85149169921874,-12.125897560119627,-0.7703969120979309,0.0553681198507546,0.8683104288578034,3.0187071275711057,34.928833694458014,-128.78521118164062,14.173206908702852,-15.742173376083375,-8.294636936187743,-0.9947228622436524,-0.0429559504985809,0.0822714418545364,-18.92363594055176,83.78008117675782,-144.21581665039062,178.47679719705064,1.162127373281026,22.74855640656656,0.999043230545238,-21.942343068122863,48.851247482299804,-15.430605468750002
3717.323,8.451549530029297,171.8822381591797,-11.074873511791228,-0.8259793996810914,0.067337780445814,0.8725234723091125,3.183012657165527,38.37723480224609,-128.7915673828125,13.799491081237797,-12.801543698310851,-9.019736156463622,-0.9805978751182558,-0.0371883827447891,0.0819507019966839,-19.385850143432616,83.46315185546875,-144.95846435546872,172.44589095530716,1.2033592793107366,20.87249662817414,0.984718785265804,-22.568862800598144,45.08591705322266,-16.166896972656218
3739.556,4.348198623657226,164.0848583984375,-10.44176739692688,-0.8732234263420106,0.0690175826102494,0.8396748125553131,3.278148336410522,41.66579612731934,-128.77499084472657,12.645613155364993,-7.914586238861082,-9.578155517578123,-0.96770827293396,-0.029380105473101,0.0748504887148737,-20.19670021057129,83.23992553710939,-146.0307971191406,164.4742475078624,1.213398685454061,17.728318322007354,0.9710432986037716,-23.47484854698181,41.57412940979005,-17.255806274414027
3763.388,2.992714176177978,156.16902404785156,-9.399145748615265,-0.8937570571899414,0.0582833110913633,0.7694928812980651,3.3579644775390625,44.79315826416016,-128.7383624267578,9.187930717468262,-3.6230804586410494,-10.504103870391845,-0.9719349265098572,-0.0400921035557985,0.0742235174775122,-21.414329986572262,83.09373291015625,-147.4452380371094,156.48023629520262,1.1808123966138715,14.418078269962486,0.9755890572797468,-24.772294464111326,38.300574645996086,-18.706875610351602
3785.055,7.075495643615722,149.67793823242187,-7.310065422058105,-0.913624415397644,0.062358422577381,0.741149641275406,3.56506462097168,47.78516525268555,-128.64252471923828,6.409955525398256,-0.7447717094421373,-10.539728317260742,-0.994393618106842,-0.0535972706601023,0.0792222484573721,-22.80678260803223,82.99959991455079,-148.98199035644532,150.023281155247,1.1780920745169663,12.358320587298136,0.9989832329946636,-26.371847229003908,35.21443466186523,-20.33946563720704
3794.901,9.639554653167725,144.66811157226562,-5.50423248052597,-0.9252032399177552,0.0695908700302242,0.7358938860893249,3.88863618850708,50.671685791015626,-128.4711276245117,6.131636152267457,-0.0722296380996693,-10.367121791839596,-1.0184210228919983,-0.0574222396314143,0.0980604872107505,-24.141626663208008,82.91338165283203,-150.4570202636719,145.09334958914064,1.1842228404863346,12.044890753811291,1.024741212514009,-28.030262851715086,32.2416958618164,-21.9858926391602
3817.141,10.91399269104004,141.273994140625,-3.76750467300415,-0.9261411571502683,0.0696383405476807,0.7097776198387146,4.323693056106568,53.48150024414063,-128.20594329833983,7.719028315544129,-1.6919458675384509,-9.419711265563963,-1.0355499505996704,-0.0563203315809368,0.121666077710688,-25.13619720458984,82.79799591064453,-151.62301269531253,141.74502018895242,1.16891882141823,12.29540724341594,1.0441926615341968,-29.459890260696408,29.316495666503897,-23.417069396972693
3839.729,13.533600959777832,139.61679321289063,-1.7117045331001282,-0.9236338329315184,0.0678212639316915,0.670804500579834,4.931274814605713,56.24842758178711,-127.81316192626952,9.938356513977052,-5.834880175590515,-8.402217283248902,-1.0409606099128723,-0.0604805152118205,0.1431385827809571,-25.64691345214844,82.60700500488281,-152.34707275390628,140.2816354138994,1.1435374323454484,14.262328426219044,1.052494911147321,-30.578188266754154,26.358577423095696,-24.53391082763676
3863.347,15.698089637756349,138.4094827270508,0.5727728462219236,-0.9379390001296996,0.0731908993422984,0.6395921325683593,5.741314277648926,58.9810206604004,-127.25174255371094,12.990507817268371,-10.54743740081787,-7.078674221038817,-1.028379201889038,-0.0668511806055902,0.1533569010719656,-25.63630760192872,82.3348178100586,-152.60684997558593,139.2980365826388,1.1376135423570597,18.168911849703104,1.0418978847913518,-31.377621879577646,23.3537971496582,-25.35510742187499
3884.806,14.80799160003662,135.97964569091798,2.1192857193946835,-0.963137619495392,0.0721935491636394,0.5836587351560591,6.701444425582887,61.658180389404286,-126.52053924560546,16.631356468200686,-14.104051723480222,-5.965945501327514,-1.0027786064147948,-0.0677161086350678,0.1484623578190803,-25.20777458190918,82.00644256591796,-152.51843811035158,136.79997086774094,1.1284961239419762,22.60793663109873,1.0159682458330452,-31.90921900749207,20.34826217651368,-25.99789886474612
3894.851,13.993647193908693,131.18841217041015,3.153034353256225,-0.9980131816864016,0.0725808317959307,0.514564698934555,7.81577226638794,64.23183914184571,-125.62280151367187,18.64822162151337,-14.824031639099122,-5.042463569641113,-0.975700318813324,-0.0665598491206764,0.1235100859403609,-24.607722091674805,81.678740234375,-152.29752258300783,131.97031209788747,1.1252000343732722,24.350246868014462,0.9857363070194708,-32.42349435806275,17.446901092529288,-26.67472106933596
3917.135,13.3097492980957,123.3083331298828,3.285166673660278,-1.0339015483856202,0.0778375495597719,0.4451804965734481,9.049161109924317,66.64458694458008,-124.60135681152344,17.680080671310428,-12.2041300201416,-4.691641740798949,-0.956852960586548,-0.0620614624023436,0.087216101810336,-24.16073921203613,81.4150616455078,-152.21116638183594,124.06807311198978,1.1283602130547827,21.989487131731224,0.9628218224125116,-33.20990032196045,14.770474700927721,-27.609809570312493
3942.36,12.97632831573486,112.63110336303713,2.510399374961853,-1.060899338722229,0.0854145277291535,0.3876325905323028,10.344334182739257,68.84372436523437,-123.523056640625,13.137856163978578,-6.865234565734862,-5.156132736206054,-0.9517919850349428,-0.0563712653517722,0.0567997612059116,-24.18457817077637,81.25450012207031,-152.5085516357422,113.40393576218904,1.1327232997035246,15.694598275245095,0.9551502055735344,-34.52891235351562,12.410775756835946,-28.985494995117207
3964.866,13.389143924713132,100.22376861572263,1.1133167552948,-1.0775614309310917,0.0956472511589526,0.3659798675775528,11.662111206054686,70.79585601806642,-122.4435159301758,5.995410633087159,0.1031589317321795,-6.195151662826538,-0.9592738485336304,-0.043788251876831,0.0372824681550264,-24.86014465332031,81.21546813964844,-153.32119995117188,101.12028700894898,1.1420281509475183,8.621803439533583,0.960996207024087,-36.522255859374994,10.41961212158202,-30.87768402099607
3984.796,12.636066818237303,86.62710540771484,-0.7842431259155273,-1.0792433881759642,0.1100870297104119,0.3836284959316253,12.904318904876709,72.47811492919922,-121.43783447265623,-3.134071502685545,7.219552574157717,-7.771893138885497,-0.9701867389678956,-0.0342001575231551,0.0349872356653213,-26.30131774902344,81.29020416259766,-154.72391052246093,87.54736211465678,1.150676439283762,11.06104274095478,0.9714196137114324,-39.20563665390015,8.812089233398439,-33.28607604980469
3994.945,9.303573589324952,72.58384452819823,-2.6856017208099368,-1.0664025807380677,0.1147347384691237,0.419254977107048,13.942367858886715,73.8858871459961,-120.58132110595702,-12.346318855285642,12.725514545440676,-9.41980641365051,-0.9813994789123536,-0.0317511576414108,0.0524472900480031,-28.431545028686525,81.44217681884766,-156.63813232421876,73.22693100648459,1.151587278605239,20.07742669251354,0.9833126621041692,-42.37391288757324,7.5562896728515625,-36.05681121826174
4017.035,4.282568473815917,58.623781886100765,-4.015510940551758,-1.048976306915283,0.1181513448804616,0.4681550598144531,14.69878894805908,75.02515655517577,-119.91657104492188,-19.33446082115173,15.800852127075196,-10.94473991394043,-0.990797941684723,-0.0425352180004119,0.0783903115987777,-31.09571479797363,81.61668853759765,-158.95132019042967,58.91699689797273,1.15476412864124,27.263081905209265,0.994803923881274,-45.79450374603271,6.591531982421884,-39.03474914550779
4034.721,-2.991518440246584,44.795691328048704,-4.6553473377227785,-1.0342418503761293,0.1248134796321391,0.5201326769590378,15.111020774841307,75.89933898925781,-119.46099487304689,-22.57719148635864,16.4666686630249,-11.47725336074829,-0.9949115991592408,-0.0550511530041694,0.1032703835517167,-33.96178932189942,81.7781088256836,-161.40335571289063,45.13618728881512,1.1643764904050138,30.209404114883817,1.0017706782031528,-49.072810096740724,5.878769836425789,-41.942360839843744
4057.073,-12.699406242370609,30.80373312473297,-4.900393586158752,-1.0237102317810058,0.1291950541734695,0.5473857855796813,15.102525367736812,76.50325042724609,-119.24341217041017,-21.82766975402832,15.212122478485108,-11.025831279754636,-0.99687477350235,-0.0649439671635627,0.1199762547016143,-36.715040359497074,81.90839569091797,-163.75614196777343,33.677273503474105,1.168034759299008,28.799735981445565,1.0061666534965914,-51.817565727233884,5.4051452636718835,-44.512729797363264
4074.882,-22.94282680511475,16.857995777130128,-4.654583644866944,-1.0236704182624816,0.1290113505721091,0.548104214668274,14.661116638183596,76.83351837158202,-119.26485931396483,-18.47768686294556,12.991870574951172,-9.737756986618042,-1.0002428913116457,-0.0711283965408801,0.1226083086431025,-39.148861618042,82.00605102539062,-165.85272705078123,28.84840502243221,1.1683164314256858,24.59751052386768,1.0102365503991029,-53.80997825622559,5.172532653808602,-46.58786773681639
4097.05,-32.72355953216553,3.131641058921815,-4.434337968826294,-1.0282256412506103,0.1292534035444258,0.521739205121994,13.796572017669678,76.89091918945311,-119.52532531738282,-14.3517423248291,10.618060169219971,-7.978975627422332,-1.0061376667022706,-0.0764238929748534,0.112929841428995,-41.18747367858887,82.07888610839844,-167.63051513671874,33.17079856438312,1.160244030286033,19.5545330186754,1.0153357892144348,-54.98404569625855,5.187966918945321,-48.10518981933592
4119.494000000001,-40.70111824035645,-9.770081386566162,-4.34406982421875,-1.0325318789482116,0.1225972841680049,0.4796449875831604,12.57252405166626,76.68501068115233,-119.9941455078125,-11.117626533508298,8.228620915412904,-5.809744873046874,-1.0121594333648682,-0.0771945630013942,0.1009931302815674,-42.76375076293946,82.13896209716796,-169.00432800292967,42.0821394293742,1.1450814334549944,15.002165090347225,1.0201104506231358,-55.336274814605716,5.453951416015627,-49.010182495117164
4134.893,-46.52702003479004,-21.60451280117035,-4.501341676712036,-1.038682804107666,0.1096092161536215,0.4450118350982665,11.06785412788391,76.23247863769532,-120.63131317138672,-8.806366500854491,6.189765024185183,-3.573655331134796,-1.0176935768127442,-0.0763656598329543,0.0872175005078314,-43.90038940429688,82.19912902832031,-169.97863647460937,51.49544293997472,1.1353024624267765,11.341794145008386,1.0242747788960114,-54.96824353218079,5.9666503906249915,-49.34732330322265
4157.022000000001,-50.42376556396484,-32.60984539985657,-5.004321784973145,-1.0412735843658447,0.0897976375371217,0.4241285645961761,9.352610816955568,75.5501626586914,-121.40106719970704,-8.144348850250243,4.224808363914492,-1.6384083604812616,-1.02131826877594,-0.0824066500365733,0.078186460956931,-44.66820236206054,82.25550109863282,-170.59195739746093,60.25779109110945,1.1279181408735983,9.320075421479658,1.0276161660769565,-54.02081317901611,6.705338439941414,-49.19089019775389
4179.452,-51.908593902587896,-42.92695305347443,-5.795684442520142,-1.0378597497940063,0.0647936430573462,0.412144546508789,7.520932832956315,74.65471862792967,-122.25314697265624,-8.274140892028807,1.9555260276794453,0.1375400567054756,-1.021255578994751,-0.092395231425762,0.07777795702219,-45.05399337768555,82.2982192993164,-170.81613708496096,67.60780559636774,1.118576865324889,8.503199798503712,1.028372134500284,-52.57492621064186,7.643500671386732,-48.56299011230472
4201.997,-50.99994216918945,-52.57792644500732,-6.675548515319823,-1.0347114038467409,0.0429107782989739,0.4172197425365447,5.688762362003327,73.56063415527345,-123.11463470458985,-8.108744955062866,-0.493887686729429,1.751353459358216,-1.0179505348205566,-0.0989110614359377,0.0813022381812333,-45.02986267089844,82.32285552978516,-170.63036560058595,73.55267091341862,1.1164861565227655,8.310409660959344,1.0259711220834236,-50.71862503290177,8.76222137451171,-47.5157308959961
4225.603,-49.16218032836913,-62.079899597167966,-7.650080308914186,-1.0351672887802124,0.025194997191429,0.4372351765632629,3.9184344661235806,72.27318878173828,-123.9411215209961,-7.349849619865417,-2.7120852470397927,3.1149918150901805,-1.0141403484344482,-0.1020449736714362,0.0845132945477961,-44.62519485473633,82.33098358154297,-170.07666137695315,79.55726011726634,1.1240020921992802,8.430828537571234,1.0227591700540606,-48.54362932085991,10.057794799804682,-46.13553985595705
4234.87,-46.29586532592773,-71.8411149597168,-8.750453929901123,-1.0360539484024047,0.0066041546314954,0.4579042339324951,2.254857020378113,70.79042694091797,-124.7078094482422,-6.756320648193357,-4.625289673805234,4.062139234542848,-1.0116053295135496,-0.1037356702983378,0.0887747221440076,-43.91380554199219,82.32097656250001,-169.22642517089844,85.91288255501037,1.132752261667093,9.140139409693136,1.020777832480804,-46.1686625623703,11.53054962158204,-44.518615722656236
4256.976,-41.959789047241216,-81.70434494018555,-9.93677694320679,-1.0387602281570434,-0.0087824684381485,0.4784221518039703,0.7552090561389924,69.11198379516603,-125.38664611816408,-6.177391467094419,-6.0961867237091045,4.882785303592682,-1.01137357711792,-0.1005479729175566,0.091603851020336,-42.94911697387696,82.2993197631836,-168.13331665039064,92.38486572492734,1.1436728984676874,9.95817504510936,1.020479138871483,-43.704326030015956,13.187335968017578,-42.74667053222656
4276.909,-36.87544767379761,-91.5385659790039,-11.16833824157715,-1.041331133842468,-0.016393610946834,0.5037435364723206,-0.5500219011306762,67.23884536743165,-125.96343261718752,-5.766683092117309,-7.032039923667905,5.414364323616029,-1.0130231618881225,-0.0952921101450919,0.0915102121233939,-41.82676467895509,82.27096954345704,-166.89,99.31686403483404,1.156891019641503,10.583929346032928,1.0216019928037443,-41.27674277782441,15.032124176025391,-40.926567382812465
4299.46,-31.356709403991697,-101.54154235839844,-12.334896965026855,-1.0421506500244138,-0.0246056270971893,0.5353462815284729,-1.6552232944965362,65.16734405517579,-126.44626220703124,-5.810340151786803,-7.575276927947996,5.831273441314698,-1.012670011520386,-0.0900102308392523,0.0898919071257113,-40.61543594360352,82.23962432861329,-165.55634704589843,106.9863436720156,1.171869896949963,11.186984542849306,1.0206287027392142,-38.960212649106985,17.0722802734375,-39.110084838867195
4321.819,-25.11604413032532,-111.70020294189452,-13.527562255859374,-1.0386260175704956,-0.0347884527966379,0.5663687646389007,-2.558309667110443,62.89637557983399,-126.84753540039064,-6.490750894546508,-7.927968387603758,6.097077751159669,-1.0094010686874388,-0.0859814549982547,0.0894402864575385,-39.36638183593751,82.20421173095704,-164.17083618164062,115.2854975727781,1.1835234760582174,11.92295630427232,1.0169969974943718,-36.80807216882707,19.30783615112305,-37.32330078124998
4341.799,-18.29008352279663,-121.80063751220705,-14.557140312194823,-1.031205675601959,-0.0407691236212849,0.5984859466552734,-3.250301574468613,60.42877029418945,-127.17267883300784,-7.169950928688047,-8.146641120910644,6.452804508209229,-1.0044699478149413,-0.0826361951231955,0.0895453678071498,-38.08405517578125,82.16700988769531,-162.73781005859377,124.02351707527028,1.192993166442457,12.625951207488177,1.0118334792363357,-34.83375360131264,21.738239593505867,-35.56513122558593
4364.994000000001,-11.368323736190796,-131.93454681396483,-15.283960151672364,-1.0203726840019225,-0.0431761256232857,0.6333979630470277,-3.7327092456817614,57.76521713256837,-127.42953247070314,-7.433329772949217,-8.10235132217407,6.722743511199953,-0.996397829055786,-0.0805363331735133,0.0895313701033591,-36.79591667175293,82.13026489257814,-161.29352844238284,133.30252385268264,1.2017560366701925,12.887892332679158,1.0036486441682186,-33.063207426071166,24.365047760009773,-33.8639959716797
4374.907999999999,-4.091504783630372,-142.1888491821289,-15.765653228759763,-1.0053879976272582,-0.0498075675591826,0.6648019719123841,-4.014063024520874,54.906324920654285,-127.63644775390624,-7.767557883262633,-7.774459228515623,7.168194541931153,-0.9867254543304442,-0.0758861972391604,0.0911280114948748,-35.49216300964356,82.10031707763672,-159.82732238769532,143.11870969535104,1.2063363881677882,13.120982613991178,0.993826016782642,-31.47809998512269,27.193992156982432,-32.19087463378908
4402.006,4.401475973129272,-152.22263916015626,-15.907505760192873,-0.984649941921234,-0.0568932503089308,0.6931137490272523,-4.082878179550171,51.85924118041992,-127.80368011474609,-8.498547954559324,-7.030679554939267,7.587656517028809,-0.9802808308601378,-0.0709411774575709,0.0970969718694686,-34.200444259643554,82.08168365478517,-158.35988220214844,153.1148379587548,1.2054787510142253,13.387617553567749,0.9876289687717392,-30.117566080093383,30.222442474365245,-30.556202087402355
4424.829,13.74514953613281,-161.75304168701172,-15.54043315887451,-0.9593915987014768,-0.0572948025725781,0.727898304462433,-3.925838327407837,48.63336761474609,-127.93735809326172,-9.390039415359494,-5.778957090377806,8.171682872772218,-0.9774987697601318,-0.0643330324441193,0.1045302818715571,-32.92774452209473,82.08459533691406,-156.89619384765626,163.07814290559065,1.205632977195005,13.72390564845123,0.9851746869333248,-29.00190619468689,33.45122772216797,-28.958835754394542
4434.967000000001,22.54359314918518,-170.47845031738282,-14.779196472167971,-0.9261260199546812,-0.053616369049996,0.7597075057029724,-3.5649979209899905,45.24564437866211,-128.04932037353515,-10.87181079864502,-4.202361235618589,8.816353988647462,-0.9778852701187132,-0.0556511353701352,0.1147161257266997,-31.68119644165039,82.11434356689452,-155.43289672851563,172.59646654278671,1.1990578026469934,14.614520438567398,0.986162481483086,-28.116198520660397,36.86869918823241,-27.383576354980477
4457.377,30.83624231338501,-177.8987335205078,-13.575629425048827,-0.8824273800849912,-0.0511734772287308,0.7885894751548768,-3.0234009653329847,41.72150497436523,-128.15049682617186,-13.440664777755734,-2.335997962951658,9.36921226501465,-0.980092706680298,-0.048005430176854,0.1277320356667041,-30.504071655273435,82.17397216796874,-153.99131896972656,181.06112487913217,1.1845548388404756,16.549637295657533,0.9895462131451656,-27.48067068994045,40.45246719360351,-25.840822143554703
4475.079,38.57144001960754,-183.8411553955078,-11.769203324913978,-0.8293817615509032,-0.0415791568346321,0.8221073269844055,-2.313513590097428,38.08662246704101,-128.2415594482422,-16.2091979598999,-0.1503013467788674,9.651618709564213,-0.9820981335639954,-0.044175592586398,0.1411283162236213,-29.45759422302246,82.26526611328124,-152.62850952148438,188.21222210378525,1.1685304402358554,18.86569459926871,0.9931693856389036,-27.144080632925032,44.17864364624023,-24.38695007324216
4497.563,43.95382972717285,-188.42111755371093,-9.55723647236824,-0.7685356366634367,-0.026460862699896,0.8579455637931824,-1.4857941550016402,34.36511085510254,-128.32830230712892,-18.02348086357117,2.13281448364258,10.079733467102054,-0.9845467710494996,-0.042028417661786,0.1532342863082885,-28.505307159423825,82.39186279296874,-151.3260186767578,193.71576460593863,1.1521361866154969,20.76043802112491,0.9972860566435088,-27.019513004422187,48.026751937866194,-22.997716369628876
4518.455,46.68333778381348,-191.66198974609367,-7.040629765391349,-0.6986576616764067,-0.013898429851979,0.8827949833869934,-0.5990937018394471,30.583281135559083,-128.41575561523436,-18.68986102104187,4.030927739143374,10.47671012878418,-0.9888948035240172,-0.043327645137906,0.1655896997451781,-27.59939025878906,82.54551361083983,-150.05692138671876,197.3910403426728,1.125896388334529,21.80185172288411,1.0035986079761663,-27.000296556949614,51.96223247528075,-21.641165771484395
4534.1810000000005,48.40472351074219,-193.63463806152345,-4.223285048007965,-0.6236873853206634,-0.0046276146359741,0.9053090381622312,0.3245961159467696,26.763155021667483,-128.50423400878907,-17.48878024101257,5.695523347854616,10.733164787292482,-0.993219847679138,-0.0515727307647466,0.1732091611623763,-26.73123664855957,82.72144653320314,-148.84750610351563,199.63773804560427,1.099359733664813,21.295474798077738,1.009528021351006,-27.055832764506338,55.95829151153565,-20.343272094726558
4557.597000000001,49.02621505737305,-194.5661450195313,-1.2036948853731155,-0.5481748497486112,0.0113462939299642,0.924310154914856,1.2671088910102843,22.924238471984864,-128.59140075683595,-13.821790952682496,6.740777115821841,11.349542846679688,-0.9975133633613588,-0.0559662178903817,0.1771774619817733,-25.738486099243165,82.91403503417969,-147.5848712158203,200.6514476199714,1.0746970116091243,19.11261635918696,1.0146708730735037,-27.00559499025345,59.989796562194826,-18.993470458984348
4579.168000000001,47.44110107421875,-194.59051330566405,1.6006597685813904,-0.4766093373298643,0.0246855603717266,0.9382406759262084,2.1813172799348832,19.086502437591555,-128.68294677734374,-8.92332537651062,7.011131725311282,12.194186019897462,-1.0024262738227845,-0.0548636351153253,0.1797812122106551,-24.478977813720704,83.11232879638672,-146.15143737792968,200.2965003473371,1.0526449559482756,16.657727231906744,1.0198969247782992,-26.660295093655588,64.02582635879517,-17.468490600585938
4601.866,45.03979072570801,-193.91435119628903,3.980700286030769,-0.4081213033199309,0.0328842357359825,0.9356552362442015,3.0506681001186373,15.263170166611667,-128.78488403320313,-4.358563623428344,6.632391786575321,12.783240928649905,-1.0049632811546323,-0.0523784621059893,0.177578985095024,-22.94115375518799,83.30344909667969,-144.52937438964847,199.11605742194803,1.0213202692077992,15.046492824243616,1.021875234903485,-25.99182185530663,68.04027893006801,-15.74449035644534
4623.197,43.445162811279296,-192.5164111328125,6.101535938978195,-0.3429135662317274,0.0420751212164758,0.9320652556419372,3.892683467268944,11.467785378694536,-128.89851013183596,-0.2855375576019271,6.366017589569093,13.286972045898438,-1.0037202453613283,-0.0507964810356496,0.1694159549474715,-21.155694580078126,83.4903192138672,-142.74071838378904,197.4519674958224,0.9940350449083836,14.736055706870507,1.0191841733585614,-25.04837804734707,72.02253383517265,-13.842208251953082
4635.418,41.3128060913086,-190.6545611572265,7.859155573248865,-0.2844921672344206,0.0553897985443472,0.9298027515411376,4.699513201713563,7.708158628344536,-129.0276806640625,3.208469495773316,6.248703050613406,13.810902061462404,-0.9990830206871032,-0.0443676757812499,0.1607135346531867,-19.10741439819336,83.67687072753907,-140.7602557373047,195.2374860612512,0.9739286317662048,15.494566211138652,1.012898915539067,-23.80692759990692,75.96871209919453,-11.732575073242202
4657.464,37.91308540344238,-188.61584533691405,8.96295238494873,-0.230599166229367,0.0608913606032728,0.9245908665657042,5.44432827949524,3.986716043949128,-129.18230529785154,5.450313272476199,6.735169963836671,14.005231132507324,-0.9941414308547974,-0.037101249359548,0.1513685530424117,-16.874028759002687,83.8710760498047,-138.64008117675783,192.5971798143012,0.9548570593541824,16.468604321096862,1.006283322974309,-22.31835703849793,79.88436000585557,-9.45777587890629
4677.639,35.23810493469238,-186.420947265625,9.64559320449829,-0.175702114254236,0.0630521112307905,0.9083419227600098,6.14461706161499,0.3044532233476637,-129.3658563232422,6.730160398483278,8.109006719589235,13.898642196655274,-0.9888293886184693,-0.0347223266959189,0.1361398854851721,-14.574456005096437,84.09019134521485,-136.47934173583982,189.96718423735183,0.9273251049806752,17.44199827652504,0.9987608663672548,-20.719073066711427,83.78573812186718,-7.113485412597612
4699.129,33.17369453430176,-183.812060546875,10.334189624786378,-0.121238779351115,0.0706642055884003,0.8997046995162965,6.81556240081787,-3.325928800106049,-129.5745953369141,7.437297945022584,10.471806755065922,13.652347297668456,-0.9847944355010986,-0.032736961878836,0.1211509762704371,-12.256926202774046,84.35359466552734,-134.31477325439454,187.06726888139528,0.9105826804314352,18.74456519033281,0.9927584539646408,-19.072488603591918,87.6795234656334,-4.740177917480452
4721.463,29.65748058319092,-181.16232666015625,10.54330717086792,-0.0709767755866049,0.0794015158340334,0.8903705406188965,7.432925872802734,-6.904196031689645,-129.81524658203125,7.896696033477785,13.474724874496465,13.042758407592776,-0.982673316001892,-0.0269942351430653,0.1070966550707816,-9.950126600265502,84.67437622070312,-132.1705908203125,183.8763608557739,0.8967173484389602,20.34796219692157,0.9888605706774154,-17.383052473068236,91.57857225239277,-2.3553442382812477
4743.9710000000005,25.76642263412476,-178.52296386718746,10.22109519958496,-0.0171056313067673,0.0825752832740544,0.8747613072395325,7.99172513961792,-10.425843847990036,-130.0947821044922,7.423578667640688,17.015541629791265,12.392381820678713,-0.9808552241325378,-0.0183950202353298,0.0933065162599085,-7.576430120468139,85.0641372680664,-129.95227478027343,180.66219291917287,0.8788166046870127,22.320602688531903,0.9854549474502168,-15.568155260086058,95.48998111605644,0.14250732421876933
4754.1050000000005,22.738952159881592,-175.60889160156248,9.618592672348024,0.0386812779307366,0.0907216912880539,0.8559741830825806,8.515498065948487,-13.88089086472988,-130.4160314941406,6.147285912036898,21.433174076080327,11.486397514343262,-0.9776893186569214,-0.0118204764649271,0.0767275859229265,-5.01686354637146,85.54658813476563,-127.53209045410156,177.33600897690027,0.8616370863863806,25.08201353395297,0.98076666436072,-13.532361612319946,99.4274789994955,2.8839410400390477
4781.497,18.722510395050048,-172.486728515625,8.756027336120606,0.0954813349992037,0.101276675313711,0.8362622380256652,8.99062494277954,-17.26653066635132,-130.78240051269532,4.263411560058596,26.292047042846683,10.569038066864014,-0.9775554180145264,-0.0068310643173754,0.0636414605751632,-1.7849923229217537,86.15337463378907,-124.43374114990236,173.72067212691348,0.847766584056911,28.65576698489372,0.9796486585676538,-10.775617265701294,103.41990530014039,6.348659362792958
4801.639,14.411272678375244,-169.35797607421875,7.585478200912476,0.1547988341748714,0.1070128205418586,0.8128046011924743,9.413915519714354,-20.588072032928466,-131.197255859375,2.8535962939262407,31.060051040649416,9.578946151733398,-0.9794639277458193,-0.0032209205254912,0.0500353221036492,4.084410429000855,86.84743865966797,-118.7641484069824,170.13920277144433,0.8343055450743934,32.62860695515922,0.9807463961403654,-5.329505090713499,107.43551069259644,12.43310745239259
4823.823,11.288944187164306,-165.97250732421872,6.506683120727539,0.2190931846946477,0.1118529345095157,0.7852190566062928,9.812094974517825,-23.8394966506958,-131.6577606201172,1.5686383008956928,35.108226814270026,8.648634605407716,-0.9803573060035706,-0.0011015336494892,0.0378883814811705,14.901648168563844,87.58601959228515,-108.13404369354248,166.48318345581427,0.8228498462026407,36.191809801378014,0.981089797247032,5.089553194046019,111.42551624298096,23.523716926574707
4843.956,8.276441478729247,-162.051796875,5.606389999389648,0.2815000730752945,0.1214742469787597,0.7549036383628845,10.193546142578125,-27.01462406158448,-132.16091735839845,0.8406990456581134,38.41058952331544,7.275161604881286,-0.9855593776702882,0.0006661009974777,0.023100750055164,31.29049151420594,88.30627075195312,-91.89852973937988,162.35983482004517,0.8147869580657103,39.10253366204214,0.9858302973927592,21.096945371627815,115.3208948135376,40.26238761901857
4854.102,4.6550843620300295,-157.75983520507813,4.819365735054016,0.346819089949131,0.1265077936649322,0.7179285430908203,10.54826038360596,-30.11409889221192,-132.70366943359377,0.5970350027084368,39.242531890869145,5.918476059436799,-0.9958310198783876,-0.0021983552072197,0.0114551003277301,53.06372979164125,88.9013638305664,-70.2371513748169,157.90206363578417,0.8072850153419301,39.6908190752782,0.9958993283666604,42.51546940803529,119.01546272277832,62.46651805877687
4876.553999999999,2.826134281158448,-153.04889099121092,4.372553377151489,0.4119055044651032,0.1305085748434066,0.680922280550003,10.910311393737794,-33.126166381835944,-133.27793090820313,1.5645437884330768,37.33937616348267,4.453679943084717,-1.0049838876724244,-0.0001062494888901,-0.00085090091452,79.25331822395324,89.2557467651367,-44.09737182617188,153.13741963233787,0.8064451530424901,37.63657894362102,1.0049842535097255,68.34300683021544,122.38191314697265,89.18055908203125
4903.955,2.0936551475524903,-147.68089111328123,4.044398360252381,0.4751341527700424,0.1368610242009162,0.6420294213294981,11.302495193481445,-36.03652130126953,-133.88112976074217,2.625969038009645,33.42730575561524,3.010242149829865,-1.0124242043495175,0.0044273275230079,-0.009900014065206,105.95368574142456,89.38210357666016,-17.25896022796631,147.75109525816083,0.8103611422856603,33.66514579306891,1.012482286788387,94.65119054794312,125.41862487792969,116.62216953277586
4914.129,0.9566198921203618,-141.51879913330075,3.721885471343994,0.5316851949691773,0.1434020352363585,0.6035758435726166,11.714502830505372,-38.829598922729495,-134.51057678222656,3.530447113513948,28.42246496200562,1.839829916954041,-1.0215519905090331,0.008933982476592,-0.0213778279908,128.52452644348145,89.29758544921876,5.481244049072265,141.5709647534103,0.8170416691967048,28.699922394687327,1.0218147077065705,116.81002361297608,128.12718437194826,139.99182083129884
