Timestamp (ms),Wrist Gyroscope X (deg/s),Wrist Gyroscope Y (deg/s),Wrist Gyroscope Z (deg/s),Wrist Accelerometer X (g),Wrist Accelerometer Y (g),Wrist Accelerometer Z (g),Wrist Roll (deg),Wrist Pitch (deg),Wrist Yaw (deg),Arm Gyroscope X (deg/s),Arm Gyroscope Y (deg/s),Arm Gyroscope Z (deg/s),Arm Accelerometer X (g),Arm Accelerometer Y (g),Arm Accelerometer Z (g),Arm Roll (deg),Arm Pitch (deg),Arm Yaw (deg),Wrist Gyroscope Magnitude (deg/s),Wrist Accelerometer Magnitude (g),Arm Gyroscope Magnitude (deg/s),Arm Accelerometer Magnitude (g),Difference Roll (deg),Difference Pitch (deg),Difference Yaw (deg)
0.0,2.15635085105896,-5.702484607696533,0.1434783786535263,-0.9870003461837769,0.1844116747379303,0.09419940412044525,63.03537368774414,76.77303314208984,-73.76932525634766,-4.0237884521484375,12.32066822052002,-1.9061405658721924,-1.017421007156372,0.22472137212753296,0.11975528299808502,66.7899169921875,76.74774169921875,-87.61196899414062,6.098259238423669,1.0084894034560752,13.100500401306762,1.048802425960161,3.7545433044433594,-0.02529144287109375,-13.842643737792969
6.801,-4.586562633514404,-4.766872406005859,-0.8653706908226013,-1.0004539489746094,0.21194173395633698,0.14716458320617676,62.4708137512207,76.73419189453125,-74.25035095214844,-4.370911598205566,6.669074535369873,-2.503817081451416,-1.0096282958984375,0.22114373743534088,0.1215873658657074,67.08049774169922,76.83966827392578,-87.21438598632812,6.671468785719188,1.033191568471964,8.357662552114359,1.0406907975108721,4.609683990478516,0.10547637939453125,-12.964035034179688
34.942,-6.506008625030518,-4.928826332092285,-3.768399953842163,-0.9822670221328735,0.18298909068107605,0.16078007221221924,61.6856689453125,76.75224304199219,-74.91606140136719,-1.502211332321167,1.5458080768585205,-1.3150217533111572,-0.998632550239563,0.20527327060699463,0.11452749371528625,67.06657409667969,76.87638854980469,-87.18939208984375,8.990123216787154,1.0120196350361175,2.5249641005599908,1.0259242822159784,5.3809051513671875,0.1241455078125,-12.273330688476562
56.832,-1.3229484558105469,-4.392649173736572,-3.22218918800354,-0.9737665057182312,0.17947538197040558,0.1432420313358307,61.104366302490234,76.76892852783203,-75.48084259033203,4.217142581939697,-3.190140724182129,-0.39404982328414917,-0.9976043105125427,0.18612127006053925,0.10674494504928589,66.8254165649414,76.869873046875,-87.5255126953125,5.606073719061052,1.0004753369940371,5.302505507750516,1.0204165672977528,5.721050262451172,0.10094451904296875,-12.044670104980469
66.913,0.20012526214122772,-3.7383716106414795,-1.6358532905578613,-0.9836984276771545,0.19423066079616547,0.1339566707611084,60.70981979370117,76.75989532470703,-75.88736724853516,12.118791580200195,-6.7015814781188965,-0.5667250156402588,-0.9851875901222229,0.18290448188781738,0.09735216945409775,66.48263549804688,76.84049224853516,-88.12881469726562,4.085521803641029,1.0115989995295671,13.859923553741192,1.006740325070424,5.772815704345703,0.080596923828125,-12.241447448730469
96.71000000000001,-2.060852527618408,-4.067266941070557,-2.854275703430176,-0.9737414121627808,0.20403464138507843,0.12170994281768799,60.2375373840332,76.76524353027344,-76.32939147949219,18.42041015625,-7.682214260101318,-0.7377411723136902,-0.9629348516464233,0.19356174767017365,0.07817467302083969,66.2437973022461,76.80221557617188,-88.7527084350586,5.379280927940876,1.0023052343605658,19.9717848050671,0.9853024704010269,6.006259918212891,0.0369720458984375,-12.423316955566406
106.687,-3.155214309692383,-5.731517791748047,-2.9713213443756104,-0.9838064908981323,0.20240451395511627,0.12954507768154144,59.60325241088867,76.75495910644531,-76.91468811035156,20.133119583129883,-8.315912246704102,0.06919221580028534,-0.970516562461853,0.20294612646102905,0.0849655270576477,66.01656341552734,76.7383041381836,-89.39215087890625,7.185709712252094,1.0127313197261258,21.783059661264726,0.995142537050091,6.413311004638672,-0.01665496826171875,-12.477462768554688
129.273,-1.0151686668395996,-7.772583961486816,-2.52640700340271,-0.9715653657913208,0.20055906474590302,0.1205122172832489,58.90813064575195,76.71652221679688,-77.6076889038086,21.07939910888672,-10.543181419372559,0.9112496376037598,-0.976926326751709,0.2184722125530243,0.10384653508663177,65.64772033691406,76.62928009033203,-90.18993377685547,8.235676123266215,0.9993429806485356,23.586651248864683,1.0064289634186308,6.739589691162109,-0.08724212646484375,-12.582244873046875
151.714,-1.0167568922042847,-6.55375337600708,-2.340068817138672,-0.964387059211731,0.209095761179924,0.12348378449678421,58.32328796386719,76.68022155761719,-78.18771362304688,22.564437866210938,-12.860474586486816,0.8869079351425171,-0.9784349799156189,0.2164965718984604,0.11305869370698929,65.1248779296875,76.50009155273438,-91.18888854980469,7.032879919372568,0.9944906647888208,25.98715583693579,1.008458250890434,6.8015899658203125,-0.1801300048828125,-13.001174926757812
166.66,-2.476759433746338,-6.3311028480529785,-3.1563146114349365,-0.9687982797622681,0.21084684133529663,0.13982224464416504,57.66620635986328,76.65408325195312,-78.81094360351562,25.123777389526367,-14.859539031982422,0.7599728107452393,-0.9722989797592163,0.20687848329544067,0.11189466714859009,64.51262664794922,76.35939025878906,-92.32643127441406,7.4953000267923695,1.0012875498420692,29.19910356902344,1.0003421561784391,6.8464202880859375,-0.2946929931640625,-13.515487670898438
189.072,-2.299835681915283,-7.259766578674316,-3.2082290649414062,-0.9732369184494019,0.19558656215667725,0.14200308918952942,56.9295768737793,76.6243667602539,-79.5186767578125,27.1649112701416,-15.767005920410156,1.5131173133850098,-0.9771334528923035,0.21543359756469727,0.11055160313844681,63.937965393066406,76.19258880615234,-93.4688720703125,8.263545768844155,1.0028006183028233,31.445514847319334,1.0066891658686825,7.008388519287109,-0.4317779541015625,-13.9501953125
211.855,-2.8034491539001465,-7.3438720703125,-1.8939263820648193,-0.9826710820198059,0.20038197934627533,0.13351216912269592,56.272010803222656,76.5717544555664,-80.1363754272461,27.82346534729004,-16.16876983642578,2.0045886039733887,-0.9762223958969116,0.2266513556241989,0.10441701114177704,63.4163703918457,76.00825500488281,-94.57193756103516,8.085712169271213,1.0117415146115902,32.242715726600046,1.0076129790116717,7.144359588623047,-0.5634994506835938,-14.435562133789062
226.68,-1.4024314880371094,-7.4520182609558105,-0.6457404494285583,-0.9821760058403015,0.2018691599369049,0.1199040338397026,55.733524322509766,76.49978637695312,-80.66243743896484,26.57221031188965,-14.996573448181152,2.6897361278533936,-0.9605453014373779,0.23062676191329956,0.10175371170043945,63.01264572143555,75.81846618652344,-95.52185821533203,7.610280610351043,1.009850405512159,30.63028332359115,0.9930708923681396,7.279121398925781,-0.6813201904296875,-14.859420776367188
249.166,1.898697853088379,-8.590967178344727,-0.7565694451332092,-0.9733530282974243,0.19916003942489624,0.1071014329791069,55.211952209472656,76.42036437988281,-81.2406997680664,24.024919509887695,-14.159050941467285,3.303760051727295,-0.9698455929756165,0.23493802547454834,0.10397995263338089,62.65968704223633,75.62449645996094,-96.38411712646484,8.830751266003812,0.9992755155339647,28.081850215023888,1.0032986497438061,7.447734832763672,-0.795867919921875,-15.143417358398438
271.797,4.530428886413574,-9.168102264404297,-0.4172194302082062,-0.9829677939414978,0.19478075206279755,0.12392320483922958,54.6920051574707,76.32622528076172,-81.8694839477539,20.903518676757812,-13.622976303100586,3.10085391998291,-0.9795249700546265,0.23863033950328827,0.10685038566589355,62.29094696044922,75.43858337402344,-97.19229125976562,10.234889206941567,1.0097139129466275,25.14274987859276,1.013819811805294,7.598941802978516,-0.8876419067382812,-15.322807312011719
295.51800000000003,3.8188254833221436,-9.337202072143555,0.4214569926261902,-0.9879187941551208,0.2118808776140213,0.13655780255794525,54.19867706298828,76.20521545410156,-82.4566650390625,19.670406341552734,-13.995137214660645,3.560568332672119,-0.9743235111236572,0.2475665658712387,0.11976411938667297,61.89218521118164,75.23319244384766,-98.01587677001953,10.096751784843777,1.0195710291994622,24.40218019256896,1.0123926872306392,7.693508148193359,-0.9720230102539062,-15.559211730957031
316.687,0.8230602741241455,-9.698188781738281,0.033950455486774445,-0.9682475924491882,0.21404296159744263,0.13075017929077148,53.63340759277344,76.084228515625,-83.05774688720703,18.537368774414062,-15.491061210632324,3.5133161544799805,-0.9759726524353027,0.24824857711791992,0.13447248935699463,61.36509323120117,75.01093292236328,-98.95140838623047,9.733110833361723,1.000206678180876,24.412095545272408,1.0159885947866438,7.731685638427734,-1.0732955932617188,-15.893661499023438
326.62,-2.5708446502685547,-7.660698890686035,0.24921946227550507,-0.9671022295951843,0.21623024344444275,0.11586254835128784,53.18702697753906,75.98786163330078,-83.4691162109375,17.79275131225586,-16.86296844482422,3.38875675201416,-0.9734956622123718,0.24665050208568573,0.14619603753089905,60.734291076660156,74.77474212646484,-99.97196960449219,8.084408453928438,0.9977306103244874,24.747229670313434,1.0148416408066636,7.547264099121094,-1.2131195068359375,-16.502853393554688
349.649,-2.6736960411071777,-6.663645267486572,-0.08591589331626892,-0.9686065912246704,0.20306511223316193,0.13538052141666412,52.74052429199219,75.90856170654297,-83.87571716308594,17.09815788269043,-16.79741668701172,3.27716064453125,-0.9630006551742554,0.2458546906709671,0.1388176679611206,60.13328170776367,74.54105377197266,-100.94183349609375,7.1805431766582055,0.9988804002227646,24.191733964901587,1.0035363151023116,7.392757415771484,-1.3675079345703125,-17.066116333007812
372.332,-0.4000048041343689,-5.26084041595459,1.076684832572937,-0.9639855623245239,0.20398610830307007,0.1269407868385315,52.50846481323242,75.82986450195312,-84.1095962524414,18.03150749206543,-15.499734878540039,5.00935173034668,-0.9410569071769714,0.23766210675239563,0.13031107187271118,59.72919464111328,74.29371643066406,-101.7219467163086,5.384765171682462,0.9934749418651413,24.299601817720585,0.9793121846398568,7.220729827880859,-1.5361480712890625,-17.612350463867188
395.783,4.22663688659668,-5.404760360717773,1.3102647066116333,-0.9618146419525146,0.19858843088150024,0.13525889813899994,52.35237121582031,75.74545288085938,-84.359130859375,18.72610092163086,-12.331527709960938,5.131523132324219,-0.9359545707702637,0.2281412035226822,0.12457738071680069,59.554962158203125,74.08299255371094,-102.2950210571289,6.985176270454301,0.9913726543938948,23.001433891090727,0.97137989019579,7.2025909423828125,-1.6624603271484375,-17.935890197753906
416.68,7.030142784118652,-6.109987258911133,2.40633225440979,-0.9593722224235535,0.20263850688934326,0.11835258454084396,52.3016242980957,75.63961791992188,-84.56039428710938,19.667652130126953,-10.591897964477539,5.110787868499756,-0.9491117596626282,0.24440684914588928,0.13660287857055664,59.50807571411133,73.8829574584961,-102.76270294189453,9.620046090729755,0.9876561951912963,22.915605936531442,0.9895494867226571,7.206451416015625,-1.7566604614257812,-18.202308654785156
426.716,4.3760247230529785,-5.258518218994141,2.2709929943084717,-0.9608546495437622,0.1917569935321808,0.10709498822689056,52.2509651184082,75.5562744140625,-84.70730590820312,16.68356704711914,-10.024595260620117,4.9377288818359375,-0.9457789659500122,0.25917959213256836,0.14982275664806366,59.42817306518555,73.68235778808594,-103.19537353515625,7.208260221195012,0.9856377319389131,20.080216285326305,0.9920276063805401,7.177207946777344,-1.8739166259765625,-18.488067626953125
449.16,1.7957658767700195,-4.513959884643555,1.6354098320007324,-0.9577932953834534,0.1995229721069336,0.1327408254146576,52.13039016723633,75.48009490966797,-84.79696655273438,15.84111499786377,-7.889378547668457,3.1700193881988525,-0.9444653987884521,0.2480706423521042,0.15344028174877167,59.38285827636719,73.5396499633789,-103.56564331054688,5.1259315487965225,0.9873183578824228,17.978660716680547,0.9884826013485305,7.252468109130859,-1.9404449462890625,-18.7686767578125
475.601,3.914332628250122,-3.7294528484344482,2.012753486633301,-0.9617611169815063,0.18429270386695862,0.15271522104740143,52.06208801269531,75.4086685180664,-84.93443298339844,16.505634307861328,-7.679586410522461,3.59991717338562,-0.9413985013961792,0.26530855894088745,0.15395128726959229,59.39839553833008,73.38422393798828,-103.88341522216797,5.769054954776721,0.991095447258066,18.557246967068334,0.9901114930805656,7.336307525634766,-2.024444580078125,-18.94898223876953
496.51099999999997,7.526158332824707,-3.0237090587615967,2.3193817138671875,-0.9514260292053223,0.19671517610549927,0.13997773826122284,52.1640510559082,75.33926391601562,-84.96331024169922,17.48741340637207,-6.306420803070068,3.9360928535461426,-0.9375468492507935,0.2686903476715088,0.14793238043785095,59.539337158203125,73.23808288574219,-104.10698699951172,8.435959178268066,0.9815814366461663,19.00193142663381,0.9864444164036489,7.375286102294922,-2.1011810302734375,-19.1436767578125
508.97700000000003,7.882343292236328,-1.994225263595581,2.3597865104675293,-0.9536681771278381,0.2112225443124771,0.12367679178714752,52.384376525878906,75.281982421875,-84.8123779296875,16.005592346191406,-3.5771431922912598,2.958540439605713,-0.9313856959342957,0.2610988914966583,0.13935308158397675,59.779151916503906,73.14298248291016,-104.19901275634766,8.466218905367993,0.9845780335346364,16.66517030526238,0.9772774565489304,7.394775390625,-2.1389999389648438,-19.386634826660156
536.5680000000001,7.413248062133789,-2.1948299407958984,1.4392811059951782,-0.9542603492736816,0.20125490427017212,0.13430964946746826,52.50505065917969,75.23817443847656,-84.75120544433594,15.00182056427002,-0.4638354182243347,1.5313222408294678,-0.9318958520889282,0.2581897974014282,0.1345803290605545,60.13041305541992,73.1076431274414,-104.15971374511719,7.864162727323183,0.9844569226882399,15.086905293764296,0.9763215226516249,7.625362396240234,-2.1305313110351562,-19.40850830078125
546.7379999999999,7.0777740478515625,-2.607485771179199,1.2305128574371338,-0.9531165361404419,0.18634077906608582,0.13181143999099731,52.567626953125,75.20056915283203,-84.7652816772461,13.389366149902344,1.9433367252349854,0.046422079205513,-0.9422818422317505,0.26171937584877014,0.142450213432312,60.52361297607422,73.12016296386719,-104.05448913574219,7.642514600029311,0.980065443284177,13.529739041579314,0.9882733251490918,7.955986022949219,-2.0804061889648438,-19.289207458496094
567.318,5.896878719329834,-2.5505247116088867,1.283975601196289,-0.9631741046905518,0.18605244159698486,0.14920473098754883,52.580326080322266,75.1587142944336,-84.81111907958984,12.666352272033691,2.734069585800171,-1.1811927556991577,-0.9467226266860962,0.26019880175590515,0.14596375823020935,60.89719009399414,73.16187286376953,-103.95099639892578,6.551866015073876,0.9922610134030825,13.011795906229345,0.9926190442618544,8.316864013671875,-1.9968414306640625,-19.139877319335938
595.264,3.747502565383911,-2.9923152923583984,0.9817397594451904,-0.9722996354103088,0.20444846153259277,0.16222389042377472,52.51265335083008,75.10547637939453,-84.89241790771484,13.2741117477417,3.807138204574585,-1.1392000913619995,-0.9484145641326904,0.2561885416507721,0.14010313153266907,61.3502311706543,73.2164077758789,-103.7816390991211,4.895052526961935,1.006718602721877,13.856194313317951,0.992346533121072,8.837577819824219,-1.889068603515625,-18.88922119140625
606.921,3.3695032596588135,-3.5127100944519043,-0.13556069135665894,-0.9687235355377197,0.1902741640806198,0.17187733948230743,52.321502685546875,75.06652069091797,-85.0844497680664,13.514006614685059,6.497855186462402,-2.7216145992279053,-0.9371641874313354,0.24594055116176605,0.11071857064962387,61.95563888549805,73.33419799804688,-103.46063995361328,4.869400489337139,1.002083512312619,15.240002717608627,0.975203604790448,9.634136199951172,-1.7323226928710938,-18.376190185546875
629.078,5.6990766525268555,-7.001087188720703,-0.46861976385116577,-0.9684794545173645,0.1946452558040619,0.1572193056344986,51.99225616455078,74.99301147460938,-85.46815490722656,14.263232231140137,10.330215454101562,-4.003900051116943,-0.9470090270042419,0.2522266209125519,0.10716049373149872,62.77642059326172,73.50723266601562,-102.92980194091797,9.039596285151113,1.0002785309569902,18.060574759041526,0.985863954580582,10.784164428710938,-1.48577880859375,-17.461647033691406
651.2829999999999,5.598637580871582,-8.585052490234375,0.10424616187810898,-0.9722660779953003,0.18963442742824554,0.1228569820523262,51.65492248535156,74.90557861328125,-85.883056640625,11.38011360168457,11.462583541870117,-5.482815742492676,-0.9542953968048096,0.2679286599159241,0.11655668914318085,63.565711975097656,73.70399475097656,-102.37017822265625,10.249816402467577,0.998176527737157,17.057522548943716,0.9980235132256213,11.910789489746094,-1.2015838623046875,-16.48712158203125
666.7539999999999,5.241715431213379,-9.965201377868652,-0.22315169870853424,-0.9668908715248108,0.22021351754665375,0.163331538438797,51.19799041748047,74.77822875976562,-86.41748046875,8.131763458251953,12.05805492401123,-7.081137657165527,-0.952279269695282,0.26710793375968933,0.10850241035223007,64.3017578125,73.93254852294922,-101.79934692382812,11.26190995541752,1.005012010971542,16.176055638231496,0.9949649384882835,13.103767395019531,-0.8456802368164062,-15.381866455078125
689.3580000000001,3.663344383239746,-12.188170433044434,-1.343032717704773,-0.9705305695533752,0.2140730619430542,0.20077906548976898,50.47719955444336,74.63008117675781,-87.18950653076172,4.440113067626953,11.872943878173828,-7.265974521636963,-0.9652708768844604,0.26674097776412964,0.12442375719547272,64.92704772949219,74.15718841552734,-101.25017547607422,12.797473479401244,1.0139374218492079,14.610810591361949,1.0091480993067852,14.449848175048828,-0.47289276123046875,-14.0606689453125
711.924,-0.4806908369064331,-13.367915153503418,-1.6144909858703613,-0.9733167290687561,0.21914833784103394,0.19993826746940613,49.62757873535156,74.46815490722656,-88.01568603515625,3.4499192237854004,11.379213333129883,-7.224093437194824,-0.9659523367881775,0.258198082447052,0.1150306910276413,65.52274322509766,74.37964630126953,-100.71343994140625,13.473633525349008,1.0175199063714961,13.91315797081476,1.0064602459134548,15.895164489746094,-0.08850860595703125,-12.69775390625
735.139,-1.8083993196487427,-15.154285430908203,-1.2220394611358643,-0.9921743273735046,0.21440383791923523,0.22458644211292267,48.65753173828125,74.27129364013672,-88.93380737304688,0.7537980675697327,12.138594627380371,-7.807992458343506,-0.9561724662780762,0.24688684940338135,0.09948284924030304,66.1280746459961,74.62278747558594,-100.12297058105469,15.310651699562493,1.0396239568202077,14.452627348827912,0.9925299688017463,17.470542907714844,0.35149383544921875,-11.189163208007812
750.503,0.07084199786186218,-18.4157657623291,-1.6131677627563477,-0.9655126929283142,0.21345458924770355,0.19784069061279297,47.61030960083008,74.03984069824219,-89.97435760498047,0.26003146171569824,12.190388679504395,-7.19201135635376,-0.9611720442771912,0.26038897037506104,0.10012909024953842,66.76782989501953,74.84471130371094,-99.49818420410156,18.486420892980615,1.008423800164761,14.156207820895833,1.0008396221708946,19.157520294189453,0.80487060546875,-9.523826599121094
770.559,-0.20850250124931335,-19.863943099975586,-1.698503851890564,-0.9719776511192322,0.2098834067583084,0.1886003613471985,46.53055191040039,73.79269409179688,-91.04122924804688,-1.630597472190857,11.814842224121094,-7.200439929962158,-0.9663774967193604,0.2582739591598511,0.09208160638809204,67.37039947509766,75.06344604492188,-98.8759765625,19.937518002674807,1.012107551107108,13.931822568572402,1.004524726614877,20.839847564697266,1.270751953125,-7.834747314453125
791.2439999999999,-1.5351452827453613,-21.95488166809082,-1.2219593524932861,-0.9779266715049744,0.23342911899089813,0.233326718211174,45.360103607177734,73.48145294189453,-92.17842102050781,-3.1669020652770996,13.313956260681152,-7.121667861938477,-0.9507602453231812,0.23375461995601654,0.08172063529491425,68.06340789794922,75.30057525634766,-98.10617065429688,22.042383826577186,1.032119705201321,15.42753554972908,0.9824787675419666,22.703304290771484,1.819122314453125,-5.9277496337890625
813.838,-3.2248120307922363,-25.890480041503906,-0.9655397534370422,-0.982357382774353,0.24051280319690704,0.25405460596084595,44.02560043334961,73.09716796875,-93.46217346191406,-6.566298484802246,17.53298568725586,-8.004012107849121,-0.945254385471344,0.22424989938735962,0.05933329463005066,69.02471160888672,75.58867645263672,-96.99609375,26.108401644469193,1.0427924907683368,20.36138680747533,0.9733007297231958,24.99911117553711,2.4915084838867188,-3.5339202880859375
836.0640000000001,-3.534165382385254,-32.06134796142578,-1.3948442935943604,-0.9843311309814453,0.2066000998020172,0.23693402111530304,42.44568634033203,72.64238739013672,-94.99040985107422,-7.643096923828125,19.011703491210938,-7.388143539428711,-0.9766368269920349,0.2638014554977417,0.07797268033027649,70.1102523803711,75.8479232788086,-95.73185729980469,32.28569263090145,1.0333097826979485,21.781792056301413,1.0146380825879169,27.664566040039062,3.205535888671875,-0.7414474487304688
846.175,-2.8536314964294434,-34.86103439331055,-0.5818829536437988,-0.9826374053955078,0.2013533115386963,0.23803743720054626,40.89101028442383,72.12831115722656,-96.52068328857422,-8.820962905883789,15.727768898010254,-6.17349910736084,-0.9967603087425232,0.2570769190788269,0.09063827246427536,70.95301818847656,76.05850219726562,-94.69120025634766,34.9824744616606,1.030912822725093,19.060015538419204,1.033360997833216,30.062007904052734,3.9301910400390625,1.8294830322265625
869.332,-0.6156681776046753,-35.18912887573242,-1.1495387554168701,-0.9796565771102905,0.22954189777374268,0.28116345405578613,39.43330764770508,71.5823745727539,-97.99394989013672,-7.112090110778809,12.779150009155273,-3.633749008178711,-0.996414303779602,0.2515261769294739,0.08147238940000534,71.70333099365234,76.2008285522461,-93.78609466552734,35.21328268832694,1.0447341191928223,15.069592979067838,1.0308950638604746,32.270023345947266,4.6184539794921875,4.207855224609375
892.871,-0.6093974113464355,-37.5118408203125,-0.8710063099861145,-0.99073326587677,0.24772895872592926,0.3185174763202667,37.98982238769531,70.97235870361328,-99.4616928100586,-6.137521266937256,11.731340408325195,-0.39641332626342773,-0.9759942293167114,0.23506736755371094,0.07220245897769928,72.48914337158203,76.27791595458984,-92.87114715576172,37.52689993758417,1.0697548428624735,13.245778897571478,1.006496198716408,34.49932098388672,5.3055572509765625,6.590545654296875
911.298,-2.3655171394348145,-41.56310272216797,-1.735056757926941,-0.9798188805580139,0.21430647373199463,0.30191516876220703,36.416343688964844,70.3166275024414,-101.04878997802734,-7.488391399383545,13.285435676574707,0.41747361421585083,-0.9569173455238342,0.21925432980060577,0.040776949375867844,73.452880859375,76.35551452636719,-91.75074768066406,41.66650454722203,1.0474373835748434,15.256247608285989,0.9825609532752133,37.036537170410156,6.038887023925781,9.298042297363281
933.958,-2.8434059619903564,-47.90079116821289,-0.9203453660011292,-0.9907221794128418,0.21333102881908417,0.33189675211906433,34.7650260925293,69.53070068359375,-102.70148468017578,-12.02458381652832,16.673078536987305,-1.1502439975738525,-0.9511469602584839,0.2104179859161377,0.03330972418189049,74.57474517822266,76.48157501220703,-90.36910247802734,47.993934904299564,1.0663939322336393,20.588958815715188,0.9747131919344436,39.80971908569336,6.950874328613281,12.332382202148438
956.834,-4.827972412109375,-55.2490119934082,-0.12299376726150513,-1.0004011392593384,0.2071678191423416,0.345095694065094,33.02439498901367,68.60369873046875,-104.42306518554688,-15.725275039672852,20.0655517578125,-1.4994324445724487,-0.9391965866088867,0.23132729530334473,0.013307454995810986,75.96363067626953,76.61296081542969,-88.6417465209961,55.459695016531036,1.0783376014875143,25.53740276681728,0.9673570355399347,42.93923568725586,8.009262084960938,15.781318664550781
966.2570000000001,-3.1845481395721436,-64.59783935546875,-1.428996205329895,-1.0076450109481812,0.21080724895000458,0.35443761944770813,31.18486213684082,67.51944732666016,-106.28706359863281,-24.983400344848633,25.43564224243164,-1.939375638961792,-0.9363707900047302,0.24637505412101746,-0.017638377845287323,77.701904296875,76.76032257080078,-86.36450958251953,64.69207236132607,1.0887672801744126,35.70578898365017,0.9684017947320368,46.51704216003418,9.240875244140625,19.92255401611328
991.654,0.44917258620262146,-76.76492309570312,-2.090122938156128,-1.0303679704666138,0.23386235535144806,0.3869208097457886,29.311113357543945,66.20661926269531,-108.2818374633789,-36.93214416503906,28.768756866455078,-1.0628654956817627,-0.9534609913825989,0.2831253409385681,-0.005003192462027073,79.49867248535156,76.8667221069336,-83.75494384765625,76.79468593462713,1.1251921919513805,46.82685476657968,0.9946219647206072,50.18755912780762,10.660102844238281,24.526893615722656
1016.1320000000001,-2.930026054382324,-86.54865264892578,-2.3300514221191406,-1.0052586793899536,0.24682553112506866,0.42589953541755676,27.383403778076172,64.68812561035156,-110.28723907470703,-45.983055114746094,27.789216995239258,1.1604900360107422,-0.9683811068534851,0.29767459630966187,0.028697073459625244,80.99351501464844,76.89920806884766,-81.27459716796875,86.62957617149864,1.1193115158761195,53.740382172235726,1.0135066134091322,53.610111236572266,12.211082458496094,29.01264190673828
1026.21,-6.375592231750488,-92.70225524902344,-5.124131202697754,-0.9842778444290161,0.23576778173446655,0.46901899576187134,25.394052505493164,63.05136489868164,-112.28186798095703,-52.45343017578125,26.592578887939453,3.997696876525879,-0.9915943741798401,0.2788941562175751,0.0322781465947628,82.26608276367188,76.87142181396484,-78.8936996459961,93.06241467500782,1.1155125011954352,58.944967295210425,1.030574224413271,56.87203025817871,13.820056915283203,33.38816833496094
1049.798,-1.2441327571868896,-99.78409576416016,-5.853851318359375,-0.9765848517417908,0.2314896136522293,0.5284730792045593,23.5941219329834,61.2545051574707,-114.22286224365234,-53.25249481201172,23.13568878173828,6.576749324798584,-1.0112706422805786,0.25415173172950745,0.061071235686540604,83.15885925292969,76.78766632080078,-76.89042663574219,99.96339934719131,1.1342791584633574,58.43237057308238,1.044505198889868,59.56473731994629,15.533161163330078,37.332435607910156
1065.932,-3.1039786338806152,-104.83013916015625,-3.570721387863159,-0.9505272507667542,0.24789272248744965,0.593957245349884,21.99140739440918,59.30299758911133,-115.91854858398438,-46.73974609375,18.3268985748291,7.502803802490234,-1.02458918094635,0.2087683379650116,0.0783708319067955,83.70836639404297,76.6942367553711,-75.36595916748047,104.93685153904254,1.147927726651842,50.76190639819345,1.048574840410902,61.71695899963379,17.391239166259766,40.552589416503906
1089.5300000000002,-7.639885902404785,-108.88743591308594,-1.1882747411727905,-0.9299915432929993,0.24771538376808167,0.6212176084518433,20.532394409179688,57.24174499511719,-117.4128189086914,-35.33168411254883,13.779083251953125,10.4832763671875,-1.0167715549468994,0.21479851007461548,0.05724631994962692,84.16171264648438,76.52668762207031,-74.16105651855469,109.16159376442188,1.1454948707883812,39.34577640464123,1.040788132151393,63.62931823730469,19.284942626953125,43.25176239013672
1105.966,-4.771596908569336,-112.9961166381836,0.7568274736404419,-0.9147225022315979,0.24340735375881195,0.6174591779708862,19.326805114746094,55.0893669128418,-118.72953796386719,-27.213943481445312,10.66890811920166,13.555953979492188,-0.9801268577575684,0.23691456019878387,0.04096674546599388,84.5610122680664,76.2757339477539,-73.18425750732422,113.09935145787847,1.1301416868752279,32.22092811452484,1.009185533173154,65.23420715332031,21.18636703491211,45.54528045654297
1128.316,-2.4098961353302,-118.03689575195312,1.6017043590545654,-0.9005935192108154,0.22912608087062836,0.6344523429870605,18.285953521728516,52.83515548706055,-119.9592056274414,-21.74521827697754,10.909881591796875,16.002967834472656,-0.9827339053153992,0.23577195405960083,0.03721780702471733,85.08361053466797,75.97838592529297,-72.17533111572266,118.07235838668737,1.1252098574494562,29.120010538658683,1.0113058430253765,66.79765701293945,23.143230438232422,47.78387451171875
1151.3439999999998,1.2569063901901245,-122.85022735595703,4.444589614868164,-0.8914874792098999,0.23524734377861023,0.6928555369377136,17.474010467529297,50.45821762084961,-121.02852630615234,-16.71751594543457,9.099172592163086,17.422704696655273,-0.9919451475143433,0.2379789799451828,0.051960673183202744,85.50455474853516,75.6501235961914,-71.37017822265625,122.93702677358286,1.1533169700512347,25.803505967110066,1.0214152349219456,68.03054428100586,25.191905975341797,49.658348083496094
1166.601,2.0690791606903076,-127.6057357788086,6.360057353973389,-0.861728310585022,0.2131621241569519,0.7243915796279907,16.77820587158203,47.97639083862305,-121.99591827392578,-10.614394187927246,6.949138641357422,18.6118221282959,-0.9961076974868774,0.2425672709941864,0.052348360419273376,85.859130859375,75.29505920410156,-70.7566146850586,127.7808875449304,1.1457560530386717,22.52456025694698,1.0265523741089695,69.08092498779297,27.318668365478516,51.23930358886719
1188.539,2.755007743835449,-131.7377471923828,7.683914661407471,-0.8400049805641174,0.20191572606563568,0.7460861206054688,16.183691024780273,45.41239929199219,-122.87821197509766,-6.361746311187744,4.370696067810059,20.34620475769043,-0.9991216659545898,0.2476128786802292,0.049011796712875366,86.09848022460938,74.90230560302734,-70.34498596191406,131.99040361903798,1.1415002528099827,21.761039687637762,1.0305136570105264,69.9147891998291,29.489906311035156,52.533226013183594
1211.0430000000001,4.968466281890869,-135.96286010742188,9.671708106994629,-0.8081825971603394,0.1980803906917572,0.7587645053863525,15.72683048248291,42.76175308227539,-123.66644287109375,-4.6158623695373535,1.9019795656204224,20.662574768066406,-0.9732807278633118,0.2692531943321228,0.04878043755888939,86.18130493164062,74.48818969726562,-70.12892150878906,136.39694616629643,1.1261076885287777,21.257133102290233,1.0110154246976781,70.45447444915771,31.726436614990234,53.53752136230469
1233.305,9.82396411895752,-140.30128479003906,11.224881172180176,-0.7770678400993347,0.200500950217247,0.7819216847419739,15.438572883605957,40.02305603027344,-124.38817596435547,-5.371596336364746,1.1563987731933594,19.953067779541016,-0.9907716512680054,0.28290748596191406,0.05551314726471901,86.17597198486328,74.08647155761719,-70.00716400146484,141.09202224816175,1.1204626634673691,20.695801968960954,1.0318656986686083,70.73739910125732,34.06341552734375,54.381011962890625
1255.639,13.928426742553711,-143.54434204101562,13.871397018432617,-0.7320250868797302,0.20002874732017517,0.809492290019989,15.30872917175293,37.207462310791016,-125.02693176269531,-7.984177112579346,0.883417546749115,18.551118850708008,-1.0003279447555542,0.26690346002578735,0.06343435496091843,86.07454681396484,73.72611999511719,-69.92723846435547,144.88407386166966,1.1095719873796206,20.21562567273232,1.0372643691084331,70.76581764221191,36.51865768432617,55.099693298339844
1266.356,14.515693664550781,-145.97738647460938,15.964391708374023,-0.700655996799469,0.1997418999671936,0.8334230184555054,15.249595642089844,34.34144973754883,-125.60408782958984,-6.770676136016846,-1.7728197574615479,16.950345993041992,-0.984529972076416,0.2725692391395569,0.04589926823973656,85.84859466552734,73.3926773071289,-70.0025405883789,147.56342543848373,1.1069821950442778,18.338461618006804,1.0225947383332503,70.5989990234375,39.05122756958008,55.60154724121094
1289.1699999999998,14.966753959655762,-148.21261596679688,18.322978973388672,-0.653485894203186,0.2039763629436493,0.8293869495391846,15.259864807128906,31.43016242980957,-126.11775207519531,-3.937206506729126,-5.497596263885498,17.72764778137207,-0.9856657385826111,0.25824853777885437,0.06001448631286621,85.41919708251953,73.0487289428711,-70.34332275390625,150.0890229639374,1.0754221880862282,18.97352512364806,1.0207012266319258,70.15933227539062,41.61856651306152,55.77442932128906
1311.018,18.75986671447754,-150.68849182128906,20.000011444091797,-0.6129101514816284,0.20762833952903748,0.8901354670524597,15.377882957458496,28.456506729125977,-126.6001968383789,1.0095727443695068,-7.39396858215332,17.729265213012695,-0.9820449948310852,0.2710506319999695,0.057075079530477524,84.99385070800781,72.6968994140625,-70.783935546875,153.1631634051852,1.1005042166523118,19.235822142902713,1.020361887608401,69.61596775054932,44.24039268493652,55.816261291503906
1333.513,19.966651916503906,-152.41030883789062,22.836944580078125,-0.5658097267150879,0.22279584407806396,0.8787276744842529,15.575557708740234,25.446826934814453,-127.02338409423828,6.268366813659668,-10.77305793762207,16.503101348876953,-0.9692002534866333,0.3010171055793762,0.0582931786775589,84.47914123535156,72.34752655029297,-71.44318389892578,155.3997923633413,1.068616376857646,20.680994994662516,1.0165424358531587,68.90358352661133,46.900699615478516,55.5802001953125
1355.892,20.376075744628906,-154.16188049316406,21.724882125854492,-0.5165511965751648,0.22097840905189514,0.8818327188491821,15.783937454223633,22.41733741760254,-127.48213958740234,6.086837291717529,-10.125207901000977,15.167712211608887,-0.9565876126289368,0.29263177514076233,0.058204591274261475,84.0174331665039,72.03009796142578,-72.03913116455078,157.0128668718641,1.0456029552288393,19.225735798364784,1.0020384178775614,68.23349571228027,49.61276054382324,55.44300842285156
1367.34,26.203899383544922,-156.16595458984375,23.644258499145508,-0.48129019141197205,0.22382713854312897,0.8887977600097656,16.136905670166016,19.352214813232422,-127.91934204101562,12.700623512268066,-14.634746551513672,16.85157012939453,-0.9634064435958862,0.29169437289237976,0.062488898634910583,83.44341278076172,71.67239379882812,-72.89188385009766,160.10465538464052,1.0352295854042013,25.679896028865066,1.0085348011802846,67.3065071105957,52.3201789855957,55.02745819091797
1388.5149999999999,30.772111892700195,-156.98614501953125,25.58449935913086,-0.4097163677215576,0.23107796907424927,0.8878486752510071,16.60883140563965,16.257801055908203,-128.33714294433594,15.790047645568848,-16.708837509155273,15.56240463256836,-0.9693559408187866,0.30642127990722656,0.07365541905164719,82.8167495727539,71.32846069335938,-73.8612060546875,162.00660235276686,1.0047585779257595,27.761471385797865,1.0192988087584187,66.20791816711426,55.07065963745117,54.47593688964844
1414.076,32.244117736816406,-156.80398559570312,27.422380447387695,-0.3554891049861908,0.2583838999271393,0.9256979823112488,17.140445709228516,13.153124809265137,-128.73797607421875,19.464824676513672,-18.495830535888672,16.136964797973633,-0.959991455078125,0.32190078496932983,0.07985258102416992,82.1931381225586,70.95825958251953,-74.90068817138672,162.41662469317734,1.0247202047195898,31.326933775758643,1.0156673391830162,65.05269241333008,57.805134773254395,53.83728790283203
1435.811,29.81728744506836,-157.0248260498047,28.083629608154297,-0.3126381039619446,0.27054041624069214,0.9013290405273438,17.6478214263916,10.055781364440918,-129.14990234375,16.746726989746094,-20.283538818359375,14.054808616638184,-0.9469571113586426,0.322251558303833,0.0675736740231514,81.45711517333984,70.62224578857422,-76.01481628417969,162.279255847817,0.9916293360760101,29.823018913505535,1.0025667254616724,63.80929374694824,60.5664644241333,53.13508605957031
1446.981,31.230976104736328,-159.37525939941406,26.428264617919922,-0.26472193002700806,0.24613803625106812,0.8926241993904114,18.17711639404297,6.9343085289001465,-129.63467407226562,18.359222412109375,-23.922239303588867,14.699458122253418,-0.9454144239425659,0.3259863257408142,0.07762530446052551,80.58174896240234,70.25709533691406,-77.3036117553711,164.5427006822239,0.963036652710648,33.54711090337517,1.003045963782936,62.404632568359375,63.322786808013916,52.33106231689453
1475.677,37.13346862792969,-158.22323608398438,30.82404327392578,-0.20544838905334473,0.2768181562423706,0.9065858721733093,18.86511993408203,3.806023359298706,-130.05752563476562,16.11236572265625,-26.104080200195312,14.095505714416504,-0.9436846971511841,0.3351341485977173,0.07719016820192337,79.5911865234375,69.88773345947266,-78.69149017333984,165.41949272374927,0.9699150869093026,33.759659560250384,1.0043973453074635,60.72606658935547,66.08171010017395,51.36603546142578
1495.625,36.80525207519531,-158.06288146972656,32.26531219482422,-0.13373661041259766,0.28308144211769104,0.8903281688690186,19.569089889526367,0.6672357320785522,-130.48898315429688,16.96117401123047,-23.095394134521484,14.596675872802734,-0.924619734287262,0.354572057723999,0.07717324793338776,78.83812713623047,69.50223541259766,-79.84935760498047,165.4676749394303,0.9437715995503055,32.158072090904184,0.9932767526468471,59.2690372467041,68.8349996805191,50.639625549316406
1505.922,35.45283508300781,-156.477294921875,30.694887161254883,-0.06763166934251785,0.293560266494751,0.853959858417511,20.276613235473633,-2.4327778816223145,-130.9774169921875,13.949872970581055,-22.688034057617188,15.273520469665527,-0.9350869059562683,0.3765457570552826,0.08975962549448013,78.0840835571289,69.09335327148438,-80.94567108154297,163.35306375863468,0.9055380238018612,30.702219347015244,1.0120429927706194,57.80747032165527,71.52613115310669,50.03174591064453
1535.738,34.36349105834961,-155.28622436523438,29.744855880737305,-0.02392720803618431,0.3201584815979004,0.9004457592964172,20.9909610748291,-5.495265483856201,-131.51515197753906,12.921036720275879,-23.532039642333984,17.1517391204834,-0.9603952169418335,0.36345985531806946,0.11749763041734695,77.28636932373047,68.65205383300781,-82.08048248291016,161.80054835102698,0.9559688959680547,31.85737331470089,1.033570380915724,56.29540824890137,74.14731931686401,49.434669494628906
1545.877,35.57879638671875,-155.65625,28.84345245361328,0.03225916251540184,0.30442965030670166,0.8553164601325989,21.758520126342773,-8.555075645446777,-132.11375427246094,14.355085372924805,-20.873065948486328,16.81707191467285,-0.928586483001709,0.3292182385921478,0.0702611654996872,76.74614715576172,68.24577331542969,-82.97352600097656,162.2549341802398,0.9084516016419452,30.406697715093916,0.9877216897550514,54.987627029418945,76.80084896087646,49.140228271484375
1568.4279999999999,36.23921585083008,-152.66757202148438,29.57379913330078,0.09334037452936172,0.31976649165153503,0.8047642707824707,22.585481643676758,-11.567187309265137,-132.7259979248047,14.216482162475586,-20.94475746154785,14.155086517333984,-0.9163662791252136,0.3286270499229431,0.09121715277433395,76.16718292236328,67.88690948486328,-83.90576171875,159.6724080973134,0.8709813811032097,29.002718915857894,0.9777747513712458,53.58170127868652,79.45409679412842,48.82023620605469
1590.788,36.11259460449219,-150.22906494140625,31.136728286743164,0.1314752846956253,0.31975069642066956,0.8040544390678406,23.434019088745117,-14.532485008239746,-133.33950805664062,17.00152015686035,-21.048431396484375,12.204174041748047,-0.9088256359100342,0.3609229326248169,0.10168242454528809,75.64154815673828,67.5452880859375,-84.83856201171875,157.61467980692703,0.8752312833371524,29.682149786326374,0.9831422660241926,52.207529067993164,82.07777309417725,48.500946044921875
1605.96,35.73243713378906,-147.47181701660156,32.4202995300293,0.19025924801826477,0.3381219506263733,0.7871798872947693,24.31466293334961,-17.45793342590332,-133.96217346191406,14.532590866088867,-19.777809143066406,9.27485466003418,-0.9224153757095337,0.3506840169429779,0.1010475605726242,75.11534118652344,67.27576446533203,-85.72996520996094,155.16384791347184,0.877597407649581,26.23701318262901,0.9919879105020893,50.80067825317383,84.73369789123535,48.232208251953125
1628.154,35.180171966552734,-145.7539825439453,30.919776916503906,0.2547122538089752,0.34004437923431396,0.7588556408882141,25.238290786743164,-20.345746994018555,-134.6570587158203,15.696084976196289,-19.80396842956543,8.254600524902344,-0.9065814018249512,0.3725127577781677,0.1053924709558487,74.61954498291016,67.00911712646484,-86.63691711425781,153.09441704903318,0.8696955765077571,26.583880058503823,0.9857804855933033,49.38125419616699,87.3548641204834,48.0201416015625
1651.654,31.749326705932617,-140.65478515625,31.120019912719727,0.3079175353050232,0.354086309671402,0.7151574492454529,26.142948150634766,-23.144412994384766,-135.36834716796875,15.046024322509766,-23.8920841217041,4.909712791442871,-0.903232216835022,0.3808014392852783,0.09926468133926392,73.91748809814453,66.78033447265625,-87.75130462646484,147.51353827021765,0.8553598660542209,28.658677765846043,0.9852368500273593,47.774539947509766,89.92474746704102,47.617042541503906
1673.133,28.521427154541016,-136.3114471435547,28.97983741760254,0.344952255487442,0.3713688552379608,0.7132617235183716,27.042823791503906,-25.8294677734375,-136.14303588867188,17.009382247924805,-20.81310272216797,10.208803176879883,-0.9300028085708618,0.39176398515701294,0.08133075386285782,73.51316833496094,66.46791076660156,-88.5928726196289,142.24666395403645,0.8750138121441426,28.752808413854254,1.0124223108662196,46.47034454345703,92.29737854003906,47.55016326904297
1694.694,26.43008041381836,-132.84783935546875,26.720386505126953,0.38278427720069885,0.35644906759262085,0.6996362805366516,27.95253562927246,-28.42208480834961,-136.98587036132812,4.368496894836426,-8.817818641662598,6.501166820526123,-0.8980969786643982,0.4030410349369049,0.10543959587812424,73.32244873046875,66.27871704101562,-88.91908264160156,138.06185797344864,0.8735391609440704,11.794187583117273,0.9900190742142668,45.36991310119629,94.70080184936523,48.06678771972656
1715.94,24.91973876953125,-127.4388427734375,25.626279830932617,0.43842166662216187,0.3786833882331848,0.6321278810501099,28.91039276123047,-30.91922378540039,-137.87525939941406,13.614923477172852,-20.025468826293945,10.620870590209961,-0.9275177121162415,0.36904585361480713,0.11269836872816086,72.87113189697266,65.96908569335938,-89.73481750488281,132.3569350119134,0.857438233512141,26.442171527620985,1.0045819382577097,43.96073913574219,96.88830947875977,48.14044189453125
1725.518,20.739131927490234,-122.26060485839844,23.77845573425293,0.4664744734764099,0.3781927824020386,0.6219947338104248,29.837440490722656,-33.28957748413086,-138.8115692138672,5.772242546081543,-6.271778106689453,8.374165534973145,-0.946435809135437,0.3861672580242157,0.07108881324529648,72.89474487304688,65.78865051269531,-89.87583923339844,126.26631399764986,0.8645840988324911,11.949085029301411,1.0246558014047522,43.05730438232422,99.07822799682617,48.93572998046875
1748.0880000000002,17.740814208984375,-118.19058227539062,21.72071075439453,0.4751952290534973,0.39182326197624207,0.637041449546814,30.76605987548828,-35.53042984008789,-139.80955505371094,-0.9874648451805115,9.848559379577637,5.521279811859131,-0.8479613065719604,0.3955323100090027,0.06366870552301407,73.44422912597656,65.73001098632812,-89.29500579833984,121.47238164730966,0.8860912948345755,11.333743399000051,0.9378368140392338,42.67816925048828,101.26044082641602,50.514549255371094
1770.716,9.765650749206543,-115.15119934082031,19.010515213012695,0.511516273021698,0.36841386556625366,0.577093243598938,31.620208740234375,-37.69989013671875,-140.89810180664062,-4.071628093719482,17.835073471069336,1.3024718761444092,-0.9330151081085205,0.3453778624534607,0.05028734728693962,74.2101058959961,65.84371185302734,-88.43171691894531,117.1177455932661,0.8546427825208736,18.340240839208032,0.9961585602346813,42.58989715576172,103.5436019897461,52.46638488769531
1793.221,4.7290143966674805,-108.64141082763672,18.680408477783203,0.5553351640701294,0.38488680124282837,0.577483594417572,32.401100158691406,-39.74069595336914,-141.97789001464844,-6.317753791809082,31.522003173828125,-1.4707541465759277,-0.8647436499595642,0.3817810118198395,0.06742692738771439,75.48202514648438,66.03743743896484,-86.96846008300781,110.33710792240325,0.888831984148395,32.182507901411576,0.9476733148445817,43.08092498779297,105.77813339233398,55.009429931640625
1815.491,1.8739980459213257,-103.59584045410156,16.73285484313965,0.5744127035140991,0.358721524477005,0.5158109068870544,33.182212829589844,-41.682369232177734,-143.09910583496094,-12.298738479614258,43.714332580566406,-6.8162760734558105,-0.9297478795051575,0.3651416301727295,0.02362077124416828,77.18370056152344,66.40281677246094,-84.90473175048828,104.95522121013973,0.8512884221843549,45.92018576469263,0.9991583810205991,44.001487731933594,108.08518600463867,58.194374084472656
1825.5269999999998,0.9451691508293152,-95.97618865966797,15.52310848236084,0.6215885877609253,0.35690438747406006,0.5183424949645996,33.94828414916992,-43.47495651245117,-144.1946563720703,-13.14003849029541,50.92132568359375,-4.737715721130371,-0.9317904710769653,0.38365763425827026,0.06617645174264908,79.19483184814453,66.71268463134766,-82.47315216064453,97.228025956074,0.8845518957749068,52.80234815948354,1.0098544375699563,45.24654769897461,110.18764114379883,61.72150421142578
1850.309,-3.741074323654175,-89.8995361328125,14.994702339172363,0.6472994089126587,0.38601964712142944,0.48958221077919006,34.659793853759766,-45.148773193359375,-145.29078674316406,-16.893020629882812,67.18389129638672,-9.223997116088867,-0.8983742594718933,0.34596818685531616,0.03305525332689285,81.93763732910156,67.13749694824219,-79.1845474243164,91.21821820354937,0.8987204425481093,69.88656178782848,0.9632564280450625,47.2778434753418,112.28627014160156,66.10623931884766
1873.147,-7.400669097900391,-80.2797622680664,12.541186332702637,0.6932681798934937,0.36293184757232666,0.4564773142337799,35.28218078613281,-46.649593353271484,-146.34048461914062,-15.756625175476074,72.75017547607422,-14.287642478942871,-0.9066992402076721,0.345779687166214,0.006895110942423344,85.06792449951172,67.60645294189453,-75.50928497314453,81.58977563117479,0.9059314729300363,75.79575183561496,0.970419830179105,49.785743713378906,114.25604629516602,70.8311996459961
1893.8429999999998,-11.608216285705566,-72.38824462890625,12.48975944519043,0.7015920281410217,0.3405706584453583,0.4498932361602783,35.75654220581055,-48.01259231567383,-147.29132080078125,-15.330404281616211,75.8862075805664,-14.604507446289062,-0.9392181038856506,0.3392162024974823,-0.009127119556069374,88.48054504394531,68.00877380371094,-71.56040954589844,74.36936692475483,0.9003464173792802,78.78470304664049,0.9986398665258466,52.724002838134766,116.02136611938477,75.73091125488281
1915.969,-9.235837936401367,-63.94608688354492,14.95972728729248,0.7199851870536804,0.3391631543636322,0.4629148542881012,36.152076721191406,-49.25239562988281,-148.06227111816406,-13.204017639160156,77.80970764160156,-11.496545791625977,-0.9226886630058289,0.34380802512168884,-0.034366853535175323,92.14681243896484,68.24560546875,-67.3821792602539,66.31889753769667,0.9207065097929884,79.75504529636801,0.9852610860068858,55.99473571777344,117.49800109863281,80.68009185791016
1926.5410000000002,-11.884872436523438,-56.362396240234375,14.095280647277832,0.7409294247627258,0.35724616050720215,0.43435221910476685,36.46486282348633,-50.358734130859375,-148.76617431640625,-13.88045883178711,83.07001495361328,-16.075910568237305,-0.8978866338729858,0.36434510350227356,-0.05334475263953209,96.14584350585938,68.44120025634766,-62.836055755615234,59.30132240767608,0.9301951848497158,85.74222660027225,0.9704604187539112,59.68098068237305,118.79993438720703,85.93011856079102
1955.318,-13.676000595092773,-51.07759475708008,11.685235023498535,0.7485568523406982,0.3440839350223541,0.40892085433006287,36.74135971069336,-51.355587005615234,-149.45799255371094,-17.830753326416016,84.7217025756836,-21.47380828857422,-0.883685290813446,0.3776778280735016,-0.08298809081315994,100.25283813476562,68.60562133789062,-58.09856414794922,54.15254745623579,0.9197539783185013,89.20104872659584,0.9645865737377726,63.511478424072266,119.96120834350586,91.35942840576172
1965.482,-13.209744453430176,-45.44337844848633,8.311751365661621,0.7813344597816467,0.3323024809360504,0.41306453943252563,37.01865768432617,-52.223697662353516,-150.13783264160156,-17.556108474731445,81.23102569580078,-19.41405487060547,-0.9054394364356995,0.35196685791015625,-0.09772194176912308,104.19844055175781,68.63539123535156,-53.49015426635742,48.04875861145487,0.9442090820444042,85.34402150641405,0.9763456457747292,67.17978286743164,120.85908889770508,96.64767837524414
1989.314,-14.90455436706543,-39.06761169433594,7.299818992614746,0.7962942123413086,0.33346614241600037,0.4058447778224945,37.20586013793945,-52.97559356689453,-150.73829650878906,-18.326814651489258,84.6352310180664,-21.623767852783203,-0.9237755537033081,0.36593157052993774,-0.1027522087097168,108.27900695800781,68.56715393066406,-48.73223876953125,42.44657090631895,0.9539361217774821,89.25571018653413,0.998912010301751,71.07314682006836,121.5427474975586,102.00605773925781
2005.1760000000002,-14.083640098571777,-33.38560485839844,4.757105827331543,0.8128772974014282,0.349006712436676,0.38638800382614136,37.40862274169922,-53.60646057128906,-151.32261657714844,-16.972043991088867,81.60770416259766,-20.091625213623047,-0.9258731603622437,0.3642684519290924,-0.13151736557483673,112.1662826538086,68.36737823486328,-44.18486785888672,36.545554942286046,0.9653345924897009,85.74112816875113,1.0036082062227927,74.75765991210938,121.97383880615234,107.13774871826172
2028.842,-16.143030166625977,-27.439128875732422,2.309366464614868,0.8342186212539673,0.3417515158653259,0.3922366201877594,37.52509307861328,-54.11302947998047,-151.85205078125,-15.992166519165039,70.60374450683594,-19.965425491333008,-0.9565176367759705,0.3529244065284729,-0.1406756192445755,115.46681213378906,68.16300201416016,-40.284568786621094,31.919216623963955,0.9831400576008664,75.09498214536866,1.0292090438957515,77.94171905517578,122.27603149414062,111.5674819946289
2045.347,-21.364356994628906,-22.63874053955078,-0.5606348514556885,0.8524357676506042,0.3345954120159149,0.39238908886909485,37.52030563354492,-54.51126480102539,-152.3606414794922,-10.251392364501953,66.4373550415039,-14.622933387756348,-0.9225317239761353,0.33859801292419434,-0.14604870975017548,118.48309326171875,67.82255554199219,-36.80289840698242,31.132983063749542,0.9962780860661813,68.79566389813077,0.9935006903461537,80.96278762817383,122.33382034301758,115.55774307250977
2067.745,-21.942420959472656,-18.612791061401367,-1.6955740451812744,0.8692076206207275,0.31377729773521423,0.35651397705078125,37.4712028503418,-54.853633880615234,-152.82461547851562,-7.12120246887207,49.42683792114258,-14.343547821044922,-0.9363851547241211,0.32414934039115906,-0.1571609526872635,120.74301147460938,67.59552764892578,-34.15451431274414,28.823268378183275,0.990494975328863,51.95633932043491,1.0032893490480739,83.27180862426758,122.44916152954102,118.67010116577148
2090.469,-14.50423812866211,-13.231999397277832,-0.7225748896598816,0.8783861994743347,0.2707672715187073,0.35654518008232117,37.42552185058594,-55.1351318359375,-153.123291015625,-0.45311182737350464,36.03110122680664,-7.405599594116211,-0.9266700744628906,0.32858556509017944,-0.1710316687822342,122.36023712158203,67.35218811035156,-32.353302001953125,19.64639524731353,0.9859014637338692,36.78706934906431,0.9979667991557273,84.9347152709961,122.48731994628906,120.76998901367188
2105.404,-7.609274864196777,-8.722177505493164,-0.5390936732292175,0.888837456703186,0.2937847077846527,0.375029981136322,37.443790435791016,-55.333152770996094,-153.3284149169922,3.2154738903045654,19.712587356567383,-5.331180095672607,-0.9195665121078491,0.31775522232055664,-0.19090919196605682,123.33577728271484,67.23577880859375,-31.290136337280273,11.58740982207601,1.0084587079884888,20.672369333050007,0.991472274488457,85.89198684692383,122.56893157958984,122.03827857971191
2127.6440000000002,-9.837615966796875,-4.2227301597595215,-2.345656394958496,0.8607808351516724,0.34707802534103394,0.39850860834121704,37.40867233276367,-55.40321731567383,-153.5115203857422,9.025298118591309,12.387462615966797,-2.055293560028076,-0.9186082482337952,0.3290419578552246,-0.19367615878582,124.02852630615234,67.13550567626953,-30.654809951782227,10.959573068123099,1.0100573809250124,15.463811555024707,0.9947965511773709,86.61985397338867,122.53872299194336,122.85671043395996
2150.1299999999997,-19.47178077697754,-2.796358585357666,-5.305493354797363,0.8426202535629272,0.3014523386955261,0.359742671251297,37.213661193847656,-55.43862533569336,-153.73841857910156,10.511696815490723,-0.057238221168518066,0.21801383793354034,-0.9195782542228699,0.33258944749832153,-0.19385522603988647,124.1927490234375,67.1348648071289,-30.61939239501953,20.37444791159688,0.9645191515664543,10.514113190768438,0.9969050882053895,86.97908782958984,122.57349014282227,123.11902618408203
2173.7160000000003,-14.3619966506958,0.8382676243782043,-5.902946949005127,0.8640992045402527,0.2729732394218445,0.38078102469444275,37.03630065917969,-55.41532516479492,-153.87637329101562,10.964702606201172,-4.796994209289551,-2.1813716888427734,-0.9197484254837036,0.3238629698753357,-0.20751532912254333,124.26705932617188,67.2266845703125,-30.683574676513672,15.550383374291677,0.9829425280731844,12.165288288046323,0.9969388152023483,87.23075866699219,122.64200973510742,123.19279861450195
2195.4210000000003,-8.574318885803223,3.7893733978271484,-6.8291192054748535,0.8453947305679321,0.30052995681762695,0.41260817646980286,36.9486198425293,-55.30796432495117,-153.98129272460938,10.205458641052246,-5.392366886138916,-6.039098739624023,-0.9273928999900818,0.31574535369873047,-0.22148485481739044,124.42908477783203,67.3890609741211,-30.639711380004883,11.598067262530744,0.9875505114709664,13.02688451994121,1.0043944744211961,87.48046493530273,122.69702529907227,123.34158134460449
2206.359,-9.046957969665527,9.01934814453125,-7.717814922332764,0.834101140499115,0.33786121010780334,0.4032401740550995,36.81845474243164,-55.0970458984375,-154.0315704345703,8.455952644348145,-6.420292854309082,-9.832273483276367,-0.9189016222953796,0.3138168752193451,-0.22304436564445496,124.6215591430664,67.62232208251953,-30.52631378173828,14.925171912997726,0.9861427624078679,14.470552764441662,0.9962981540057433,87.80310440063477,122.71936798095703,123.50525665283203
2227.62,-14.958231925964355,14.481019020080566,-9.645318031311035,0.8291520476341248,0.34822791814804077,0.3931707441806793,36.53860092163086,-54.77760696411133,-154.0368194580078,5.124737739562988,-8.396995544433594,-15.136022567749023,-0.931298017501831,0.3108309507369995,-0.2193496823310852,124.8136978149414,67.96784973144531,-30.34270668029785,22.945168862660573,0.9814983622773752,18.051915417593406,1.0060050499265178,88.27509689331055,122.74545669555664,123.69411277770996
2252.0730000000003,-16.59564208984375,21.490262985229492,-9.60620403289795,0.8381295800209045,0.32847774028778076,0.38573458790779114,36.10330581665039,-54.36076354980469,-153.89479064941406,4.376391410827637,-11.35513973236084,-19.673128128051758,-0.9322338104248047,0.3259684145450592,-0.22122374176979065,124.99147033691406,68.41099548339844,-30.16964340209961,28.801491202196164,0.9793620326921899,23.13274671250578,1.012054953301844,88.88816452026367,122.77175903320312,123.72514724731445
2272.702,-13.292866706848145,28.897897720336914,-8.890067100524902,0.824536919593811,0.2927236258983612,0.41666144132614136,35.56315994262695,-53.82992935180664,-153.55908203125,-1.147493839263916,-12.210638999938965,-25.289865493774414,-0.9208208322525024,0.29845958948135376,-0.23313526809215546,125.2321548461914,68.95668029785156,-29.829723358154297,33.02759590089658,0.9691001029926227,28.106827348371798,0.9956611797654715,89.66899490356445,122.7866096496582,123.7293586730957
2296.609,-6.977536201477051,37.13774490356445,-8.780156135559082,0.7957449555397034,0.30760669708251953,0.41480135917663574,35.04943084716797,-53.157283782958984,-153.08872985839844,-4.719958305358887,-12.615853309631348,-24.230743408203125,-0.9227486252784729,0.28271859884262085,-0.22218917310237885,125.36241912841797,69.49502563476562,-29.537202835083008,38.79419092763691,0.9486264185292784,27.723035318100393,0.9903347213082884,90.31298828125,122.65230941772461,123.55152702331543
2307.1440000000002,-3.9841091632843018,44.62561798095703,-10.4105863571167,0.7805589437484741,0.3362610936164856,0.40049803256988525,34.5728874206543,-52.34062194824219,-152.5684814453125,-4.87039852142334,-15.551454544067383,-23.42200469970703,-0.9369615316390991,0.2768523693084717,-0.2004379779100418,125.31769561767578,70.06089782714844,-29.40584373474121,45.996730474092026,0.9395437519552974,28.53346849485311,0.9973562699215699,90.74480819702148,122.40151977539062,123.16263771057129
2330.382,-3.9818320274353027,51.974449157714844,-11.43668270111084,0.7738803029060364,0.31409406661987305,0.40631237626075745,34.01871109008789,-51.39866256713867,-151.95082092285156,-5.217319011688232,-19.504852294921875,-22.78564453125,-0.9400386810302734,0.23964616656303406,-0.21355557441711426,125.12028503417969,70.66934204101562,-29.44040870666504,53.366619367807836,0.9287817574728797,30.444133711126117,0.9933322658336018,91.1015739440918,122.0680046081543,122.51041221618652
2354.039,0.3221467435359955,61.518096923828125,-10.747983932495117,0.7702236175537109,0.2986568212509155,0.45137956738471985,33.404991149902344,-50.2958869934082,-151.15252685546875,-7.719309329986572,-19.97715950012207,-25.439300537109375,-0.9182372093200684,0.24259808659553528,-0.19698624312877655,124.90425109863281,71.32025146484375,-29.439777374267578,62.45077410462624,0.9413733753243945,33.25406215851995,0.9699572073971673,91.49925994873047,121.61613845825195,121.71274948120117
2374.975,3.952239513397217,72.07978057861328,-10.299622535705566,0.7365411520004272,0.3180443346500397,0.4305992126464844,32.7913703918457,-49.018829345703125,-150.22767639160156,-7.058215618133545,-23.189441680908203,-21.697208404541016,-0.9208108186721802,0.2537657916545868,-0.16748736798763275,124.34519958496094,71.94409942626953,-29.78480339050293,72.91911402238996,0.9105277312223253,32.53209900597243,0.9697121527717566,91.55382919311523,120.96292877197266,120.44287300109863
2385.164,5.0268120765686035,77.39894104003906,-11.070433616638184,0.6982097029685974,0.3200840353965759,0.44359099864959717,32.19886779785156,-47.630271911621094,-149.28228759765625,-7.23195219039917,-26.153953552246094,-18.80231475830078,-0.9320136308670044,0.23162449896335602,-0.14963307976722717,123.49180603027344,72.56320190429688,-30.439579010009766,78.34806579765049,0.8869743813201147,33.01298924919524,0.9719513234738393,91.29293823242188,120.19347381591797,118.84270858764648
2415.0429999999997,7.7002482414245605,85.19972229003906,-11.078221321105957,0.6936947107315063,0.3073265254497528,0.4648897647857666,31.607831954956055,-46.10979461669922,-148.25267028808594,-8.579894065856934,-29.898193359375,-18.57258415222168,-0.9221864938735962,0.24136829376220703,-0.1615176647901535,122.35794067382812,73.19896697998047,-31.382999420166016,86.26130933923243,0.8898227005108665,36.22785434478915,0.9668373900278266,90.75010871887207,119.30876159667969,116.86967086791992
2425.776,10.314421653747559,90.49373626708984,-11.776261329650879,0.6635086536407471,0.3135952651500702,0.5313752293586731,31.05948829650879,-44.45884323120117,-147.1968994140625,-10.720115661621094,-32.140777587890625,-19.260244369506836,-0.9404340386390686,0.2586747407913208,-0.13657373189926147,120.93936920166016,73.8592300415039,-32.57252502441406,91.83781317373109,0.9060603501735864,38.97316354783001,0.9848762291777264,89.87988090515137,118.31807327270508,114.62437438964844
2455.027,10.281120300292969,94.75697326660156,-13.56707763671875,0.6548806428909302,0.33870700001716614,0.5131932497024536,30.587600708007812,-42.72437286376953,-146.1962890625,-13.807526588439941,-37.153289794921875,-17.832061767578125,-0.9405863881111145,0.25045496225357056,-0.11683394759893417,118.97115325927734,74.53704071044922,-34.25168991088867,96.2738334797015,0.8983086328395333,43.462594951965805,0.9803471899938817,88.38355255126953,117.26141357421875,111.94459915161133
2466.697,13.266256332397461,100.6064224243164,-15.99636173248291,0.6264986395835876,0.3185620605945587,0.5303826332092285,30.196346282958984,-40.862060546875,-145.2069549560547,-16.56312370300293,-42.77717590332031,-17.928802490234375,-0.9258299469947815,0.2556489408016205,-0.11807993799448013,116.42671203613281,75.23764038085938,-36.458953857421875,102.73037223126038,0.8805044403410425,49.25104875836067,0.9677088112868099,86.23036575317383,116.09970092773438,108.74800109863281
2488.7709999999997,15.858475685119629,105.14462280273438,-18.31357192993164,0.5995181798934937,0.3180886507034302,0.5321512222290039,29.906599044799805,-38.89952087402344,-144.25408935546875,-18.74651527404785,-46.80735778808594,-16.869094848632812,-0.9644217491149902,0.258269339799881,-0.09669605642557144,113.26080322265625,75.92539978027344,-39.26137924194336,107.89935065707114,0.8624310761150475,53.16885309120528,1.003076512223739,83.35420417785645,114.82492065429688,104.99271011352539
2508.159,15.547191619873047,108.484130859375,-21.19863510131836,0.5634536743164062,0.36778372526168823,0.6344903111457825,29.669227600097656,-36.80258560180664,-143.35797119140625,-18.541973114013672,-41.85768127441406,-13.850150108337402,-0.9650065898895264,0.2095061093568802,-0.0921492800116539,110.16819763183594,76.5001220703125,-42.00715255737305,111.62393984149591,0.9248366702320446,47.82987462512021,0.9917772018930138,80.49897003173828,113.30270767211914,101.3508186340332
2527.3940000000002,11.354927062988281,113.56085205078125,-25.36432456970215,0.5401466488838196,0.3565080463886261,0.5780854821205139,29.42948341369629,-34.60456466674805,-142.5355224609375,-16.874298095703125,-39.53877639770508,-10.78675651550293,-0.93991619348526,0.20947428047657013,-0.0778348445892334,106.97425842285156,76.95802307128906,-44.88374328613281,116.91172074681994,0.8677783208163028,44.3216751869231,0.9661160323632082,77.54477500915527,111.56258773803711,97.65177917480469
2549.8630000000003,11.197715759277344,118.93414306640625,-28.581331253051758,0.5154844522476196,0.3463521897792816,0.6291966438293457,29.20855140686035,-32.27255630493164,-141.73513793945312,-14.17027473449707,-34.38514709472656,-6.031623840332031,-0.9794021844863892,0.20232366025447845,-0.05061904340982437,103.93285369873047,77.26765441894531,-47.64811325073242,122.83163974059221,0.8840658779073223,37.676458338442195,1.001361967537816,74.72430229187012,109.54021072387695,94.0870246887207
2564.82,12.230451583862305,120.91493225097656,-31.441951751708984,0.46600380539894104,0.35879719257354736,0.6644245982170105,29.06777000427246,-29.859716415405273,-140.99917602539062,-9.982492446899414,-13.766342163085938,-0.5068516731262207,-0.9707961678504944,0.19617860019207,-0.09806282073259354,102.69376373291016,77.3444595336914,-48.650230407714844,125.53326697397884,0.88733027603074,17.012325843990652,0.9952625580702602,73.6259937286377,107.20417594909668,92.34894561767578
2587.604,15.474477767944336,124.57388305664062,-31.822040557861328,0.41436758637428284,0.38382548093795776,0.6927773356437683,29.021154403686523,-27.36229705810547,-140.2562255859375,-10.42931079864502,10.025668144226074,3.5191006660461426,-0.9859800934791565,0.179557666182518,-0.0653626024723053,103.34088134765625,77.24869537353516,-47.70144271850586,129.5019461910374,0.8938472650495619,14.88853971921523,1.0043256294768304,74.31972694396973,104.61099243164062,92.55478286743164
2609.83,14.202828407287598,127.83543395996094,-33.30632781982422,0.36447590589523315,0.4196893572807312,0.7138737440109253,28.99834442138672,-24.78012466430664,-139.53172302246094,-5.823259353637695,8.648515701293945,4.605839729309082,-0.9747289419174194,0.19144567847251892,-0.03867044299840927,103.84768676757812,77.1333236694336,-46.98036575317383,132.86432923602928,0.9047638172368744,11.398286403988047,0.9941043009558647,74.8493423461914,101.91344833374023,92.55135726928711
2632.318,11.0392427444458,127.63833618164062,-36.640079498291016,0.3007533848285675,0.4032995104789734,0.7551043033599854,28.952255249023438,-22.151113510131836,-138.88046264648438,-4.9085822105407715,15.17935562133789,2.2799501419067383,-0.9658491015434265,0.20525336265563965,-0.05210993438959122,104.97665405273438,77.01933288574219,-45.642189025878906,133.25128580703975,0.9073508707171603,16.115371204110073,0.9887916236982286,76.02439880371094,99.17044639587402,93.23827362060547
2654.9170000000004,17.718965530395508,126.68522644042969,-37.56257629394531,0.25578567385673523,0.38100695610046387,0.7586182355880737,29.06572151184082,-19.530176162719727,-138.2617950439453,-8.69814682006836,19.42888641357422,-5.610241889953613,-0.9767215847969055,0.21895401179790497,-0.04891795665025711,106.5195541381836,77.02336120605469,-43.8223876953125,133.31937396931008,0.8866195570333688,22.013954652420463,1.002157113417558,77.45383262634277,96.55353736877441,94.43940734863281
2664.893,20.695789337158203,130.7333526611328,-36.396339416503906,0.2343597114086151,0.45967531204223633,0.7730409502983093,29.285079956054688,-16.85654640197754,-137.59396362304688,-14.333796501159668,16.184980392456055,-5.427825450897217,-0.9842242002487183,0.2105538249015808,-0.032473593950271606,107.63213348388672,77.04173278808594,-42.335514068603516,137.27424637283391,0.9294181931029594,22.290639326099456,1.0070177375994733,78.34705352783203,93.89827919006348,95.25844955444336
2687.2110000000002,4.901622295379639,128.02175903320312,-43.17448043823242,0.1740010678768158,0.5203955173492432,0.8665189743041992,29.261371612548828,-14.143566131591797,-137.0806884765625,-10.2960844039917,18.931020736694336,1.814422369003296,-0.989680290222168,0.20089326798915863,-0.05420675873756409,108.8969955444336,76.9002456665039,-40.77376937866211,135.19479445671496,1.0256427247968272,21.626026651246214,1.0113177318085702,79.63562393188477,91.0438117980957,96.30691909790039
2709.817,-5.468477249145508,124.54676055908203,-47.51084899902344,0.12602558732032776,0.42664414644241333,0.7720032334327698,29.06273651123047,-11.458585739135742,-136.68743896484375,-7.038239479064941,20.7208251953125,-5.52650260925293,-0.9808140397071838,0.1838938593864441,-0.05972845479846001,110.57258605957031,76.8848876953125,-38.851009368896484,133.41319493136254,0.891008792764505,22.57059243417073,0.9996902621909339,81.50984954833984,88.34347343444824,97.83642959594727
2733.293,11.015806198120117,124.54580688476562,-43.965518951416016,0.10303495079278946,0.3891143202781677,0.8660557270050049,29.155818939208984,-8.815186500549316,-136.22988891601562,-4.4305419921875,20.533615112304688,-5.868567943572998,-0.9993449449539185,0.17059063911437988,-0.0614684633910656,112.28699493408203,76.8733139038086,-36.948429107666016,132.5366849420914,0.9550281030464918,21.810528229117626,1.0156622751436926,83.13117599487305,85.68850040435791,99.28145980834961
2754.786,13.345627784729004,128.5264434814453,-39.7188606262207,0.08135786652565002,0.5292847752571106,0.8458904027938843,29.376420974731445,-6.156507968902588,-135.66537475585938,2.557758092880249,15.207502365112305,-4.5185465812683105,-0.9960856437683105,0.18956108391284943,-0.060535021126270294,113.63964080810547,76.85736083984375,-35.53837966918945,135.18409797162843,1.0011453687169387,16.069459164940252,1.0157679375912108,84.26321983337402,83.01386880874634,100.12699508666992
2765.5660000000003,-5.391294956207275,125.15839385986328,-45.58108901977539,0.010656873695552349,0.49351224303245544,0.8383394479751587,29.2429141998291,-3.485623598098755,-135.23374938964844,6.645931243896484,15.01958179473877,-4.615148067474365,-0.9607759714126587,0.20285847783088684,-0.06463658809661865,115.03834533691406,76.82557678222656,-34.163551330566406,133.30913431237252,0.9728725163201919,17.060358468454293,0.9840832880364214,85.79543113708496,80.31120038032532,101.07019805908203
2790.147,-3.791576385498047,123.2588119506836,-46.43584060668945,-0.03985092043876648,0.4704153835773468,0.8515570759773254,29.150379180908203,-0.8349910974502563,-134.84298706054688,8.271099090576172,17.480655670166016,-4.957749366760254,-1.0106074810028076,0.17408910393714905,-0.09075391292572021,116.73896789550781,76.7847671508789,-32.512638092041016,131.77024727847677,0.9736673880813158,19.964059747672792,1.029500252297108,87.58858871459961,77.61975824832916,102.33034896850586
2810.3959999999997,-0.865270733833313,124.85694885253906,-42.74034118652344,-0.0859299823641777,0.48872801661491394,0.8651198148727417,29.140371322631836,1.8070363998413086,-134.3738555908203,10.58227825164795,11.868978500366211,-8.78050422668457,-0.9964421391487122,0.1963430941104889,-0.0841674953699112,118.15169525146484,76.84344482421875,-31.201698303222656,131.9725090121,0.9973321062609497,18.16465023368967,1.0190837622850173,89.01132392883301,75.03640842437744,103.17215728759766
2832.2039999999997,-7.556221961975098,122.24321746826172,-43.975467681884766,-0.12910297513008118,0.5011026859283447,0.8662195205688477,29.02180290222168,4.413815021514893,-133.95355224609375,9.54734992980957,12.736875534057617,-7.496373653411865,-1.0003142356872559,0.18399712443351746,-0.1032719761133194,119.60723114013672,76.86502075195312,-29.83034324645996,130.13201936945362,1.0090132495892032,17.59475794104249,1.0223251014079289,90.58542823791504,72.45120573043823,104.12320899963379
2853.485,-8.108004570007324,123.08805847167969,-42.76165008544922,-0.18265479803085327,0.4813125729560852,0.8175016045570374,28.920242309570312,7.033422470092773,-133.5066680908203,11.749810218811035,9.2067232131958,-8.219223022460938,-0.9910063743591309,0.21104373037815094,-0.12635450065135956,120.88349914550781,76.90689086914062,-28.664249420166016,130.55638090290836,0.9660918391036275,17.040464183684275,1.0210771518289938,91.9632568359375,69.87346839904785,104.8424186706543
2875.0209999999997,-3.4917211532592773,123.5013427734375,-41.34757995605469,-0.24393324553966522,0.5022449493408203,0.8951461315155029,28.923564910888672,9.645864486694336,-133.0311279296875,11.688935279846191,5.775732040405273,-6.0977678298950195,-0.9936689138412476,0.20181551575660706,-0.1038103774189949,121.77326202392578,76.95448303222656,-27.894073486328125,130.28582483016544,1.0550071157035141,14.393507601912038,1.0192565953646924,92.84969711303711,67.30861854553223,105.13705444335938
2887.7619999999997,-12.346033096313477,120.78287506103516,-41.01446533203125,-0.2858147621154785,0.5264604687690735,0.8893337249755859,28.780099868774414,12.202938079833984,-132.57244873046875,12.148798942565918,1.0549821853637695,-13.16234302520752,-0.9837656021118164,0.18888667225837708,-0.12287335097789764,122.71129608154297,77.16804504394531,-27.094316482543945,128.15269723145624,1.0722710374707654,17.943064873971636,1.0092426840140114,93.93119621276855,64.96510696411133,105.4781322479248
2916.8379999999997,-18.729084014892578,116.31161499023438,-42.398555755615234,-0.33260661363601685,0.46571213006973267,0.8380317091941833,28.49814224243164,14.708425521850586,-132.1911163330078,9.974148750305176,0.7350213527679443,-9.210236549377441,-0.9884738326072693,0.19306840002536774,-0.11602213978767395,123.3868408203125,77.31517028808594,-26.522953033447266,125.2070601037954,1.0147965772229577,13.596041959987001,1.013813129604549,94.88869857788086,62.60674476623535,105.66816329956055
2924.592,-10.435822486877441,115.8484115600586,-39.01521301269531,-0.36113864183425903,0.47173115611076355,0.8532752394676208,28.414039611816406,17.161724090576172,-131.7568359375,8.350496292114258,-2.687588691711426,-6.863678455352783,-0.9895245432853699,0.22094181180000305,-0.12134678661823273,123.63849639892578,77.4444351196289,-26.354000091552734,122.68637943305819,1.0397259430061445,11.138402185183612,1.0211264116592806,95.22445678710938,60.282711029052734,105.40283584594727
2946.993,-12.273576736450195,115.68499755859375,-36.380889892578125,-0.4103255867958069,0.4996095895767212,0.8634627461433411,28.337661743164062,19.583332061767578,-131.26783752441406,4.637381553649902,-12.028735160827637,-4.061882972717285,-1.001756191253662,0.19629979133605957,-0.12393973022699356,123.01209259033203,77.63931274414062,-27.019187927246094,121.8902313371062,1.0786773118749382,13.516459245213372,1.0283044935826957,94.67443084716797,58.05598068237305,104.24864959716797
2966.327,-20.270666122436523,110.95703887939453,-37.6092529296875,-0.4568720757961273,0.4626110792160034,0.8546807169914246,28.08074951171875,21.93880271911621,-130.8547821044922,-0.9144088625907898,-7.856154441833496,-12.120646476745605,-0.9939918518066406,0.1634926050901413,-0.12578414380550385,123.04003143310547,77.93578338623047,-26.902740478515625,118.89836116557693,1.0738809208905022,14.472918751798836,1.0151705690227821,94.95928192138672,55.99698066711426,103.95204162597656
2989.9249999999997,-13.903236389160156,108.37699127197266,-34.707298278808594,-0.4649585485458374,0.43652480840682983,0.7952221035957336,27.98349952697754,24.21968650817871,-130.41201782226562,-0.051153719425201416,-9.815858840942383,-10.838732719421387,-0.9817330837249756,0.17907781898975372,-0.11754190921783447,122.82210540771484,78.22288513183594,-27.044790267944336,114.64496837224168,1.0193716467842802,14.622989723424327,1.0048307386604227,94.8386058807373,54.00319862365723,103.36722755432129
3010.162,-9.137271881103516,108.90007019042969,-30.802091598510742,-0.4830353260040283,0.4599834382534027,0.8261153101921082,28.03901481628418,26.44985008239746,-129.87814331054688,1.2908912897109985,-11.27660846710205,-9.71081256866455,-1.0095432996749878,0.16611558198928833,-0.09375941753387451,122.40727996826172,78.52006530761719,-27.408756256103516,113.54067056237058,1.061778882521706,14.93747567649577,1.027405902686272,94.36826515197754,52.07021522521973,102.46938705444336
3038.5499999999997,-18.523893356323242,107.90812683105469,-31.04541015625,-0.5246983766555786,0.4701654613018036,0.8690460324287415,27.91566276550293,28.651569366455078,-129.3528289794922,2.2447776794433594,-17.976791381835938,-9.742351531982422,-1.016261100769043,0.12846791744232178,-0.10792521387338638,121.51403045654297,78.89881134033203,-28.29425811767578,113.80296987791317,1.1187515157291517,20.569819362087216,1.0300186806742344,93.59836769104004,50.24724197387695,101.0585708618164
3048.326,-20.80087661743164,102.17974853515625,-31.636489868164062,-0.5691515207290649,0.41966554522514343,0.7657144069671631,27.73360824584961,30.78856086730957,-128.89599609375,8.257895469665527,-18.9660587310791,-9.533129692077637,-0.987923264503479,0.14455893635749817,-0.10745760053396225,120.56427764892578,79.26713562011719,-29.38510513305664,108.96900921794153,1.0422913107353426,22.7768475234093,1.0042095391602983,92.83066940307617,48.47857475280762,99.51089096069336
3067.248,-3.4913203716278076,99.83677673339844,-27.098526000976562,-0.5962297320365906,0.36000391840934753,0.7623506784439087,27.92032241821289,32.84309005737305,-128.37796020507812,18.490285873413086,-20.79058837890625,-7.220196723937988,-0.988527774810791,0.1456272304058075,-0.09556324779987335,119.43180847167969,79.60902404785156,-30.865541458129883,103.50797755669556,1.032604121412653,28.74492090011757,1.0037563380313472,91.5114860534668,46.765933990478516,97.51241874694824
3089.5130000000004,1.5798207521438599,102.65612030029297,-20.693613052368164,-0.6156628131866455,0.43694934248924255,0.7666987180709839,28.372676849365234,34.859710693359375,-127.64330291748047,20.242408752441406,-24.860300064086914,-1.735785961151123,-1.0181292295455933,0.12852433323860168,-0.0840127021074295,117.56212615966797,79.89582061767578,-33.13597106933594,104.73299618495724,1.0760075983627466,32.10611443760029,1.0296425430239964,89.18944931030273,45.036109924316406,94.50733184814453
3112.091,-17.286163330078125,103.81703186035156,-21.642078399658203,-0.6444332599639893,0.45932215452194214,0.7363565564155579,28.501955032348633,36.899932861328125,-126.87258911132812,25.931543350219727,-30.426219940185547,-5.759341716766357,-1.0627585649490356,0.15240627527236938,-0.04731970280408859,115.1966552734375,80.2880630493164,-36.01885223388672,107.44843928333412,1.0809681060783765,40.39021932824028,1.07467325005715,86.69470024108887,43.38813018798828,90.8537368774414
3138.154,-24.7696533203125,103.56111907958984,-23.42312240600586,-0.6314128041267395,0.3787357807159424,0.6975017189979553,28.45524024963379,38.95053482055664,-126.14459991455078,30.733810424804688,-40.63990783691406,-4.713789463043213,-1.0335568189620972,0.1321481317281723,-0.060655105859041214,111.62386322021484,80.71671295166016,-40.21870040893555,109.02790364797532,1.0142147547806675,51.17019663165854,1.0437345776628593,83.16862297058105,41.766178131103516,85.92589950561523
3146.076,-8.478869438171387,103.06517791748047,-19.178232192993164,-0.6543121337890625,0.3633590042591095,0.7618492245674133,28.798477172851562,40.92379379272461,-125.31884002685547,31.541540145874023,-37.89410400390625,-7.481499671936035,-0.9555771946907043,0.11368362605571747,-0.048425644636154175,108.17583465576172,81.13713073730469,-44.29889678955078,105.176645298088,1.0679739581908057,49.86787252704716,0.9635334892491073,79.37735748291016,40.21333694458008,81.01994323730469
3170.1929999999998,-9.373163223266602,103.55394744873047,-15.059627532958984,-0.7017967700958252,0.3920770585536957,0.6572890281677246,29.29505157470703,42.887481689453125,-124.31072235107422,32.18751525878906,-28.63601303100586,-10.659967422485352,-0.935149610042572,0.11609242856502533,-0.045612577348947525,105.7074203491211,81.52339172363281,-47.386898040771484,105.06221300951111,1.0383987639200667,44.38121546662693,0.9434313712959272,76.41236877441406,38.63591003417969,76.92382431030273
3190.219,-23.390832901000977,101.12770080566406,-17.040109634399414,-0.7560510039329529,0.4088706374168396,0.5531885623931885,29.563085556030273,44.85773468017578,-123.29988098144531,32.98460388183594,-24.225433349609375,-6.474020957946777,-0.9802180528640747,0.18190060555934906,-0.03719242289662361,103.39247131347656,81.74966430664062,-50.351566314697266,105.18701569297805,1.0221574752709688,41.43390714839631,0.9976464994096943,73.82938575744629,36.891929626464844,72.94831466674805
3212.2760000000003,-20.38738441467285,101.84369659423828,-19.471752166748047,-0.7799858450889587,0.32904762029647827,0.5643975734710693,29.851118087768555,46.86316680908203,-122.33567810058594,29.5190372467041,-25.037521362304688,1.0179089307785034,-1.0147351026535034,0.20102384686470032,-0.050497639924287796,100.63192749023438,81.80172729492188,-53.69023513793945,105.6737105986828,1.0174452692415172,38.72062983128666,1.035687176324696,70.78080940246582,34.938560485839844,68.64544296264648
3234.1639999999998,-5.57209587097168,103.78003692626953,-15.192495346069336,-0.8269904255867004,0.35214006900787354,0.6504890322685242,30.585844039916992,48.814598083496094,-121.18616485595703,20.720355987548828,-24.686691284179688,2.09312105178833,-0.9958794116973877,0.14223085343837738,-0.03898201137781143,97.7125244140625,81.83796691894531,-57.00617980957031,105.03407176556333,1.1095277253474034,32.29778683669492,1.0067397953411814,67.12668037414551,33.02336883544922,64.17998504638672
3249.1330000000003,-12.777098655700684,100.54057312011719,-15.884613037109375,-0.8514411449432373,0.3672209084033966,0.5819063186645508,31.243366241455078,50.71725082397461,-119.9996109008789,18.825653076171875,-22.129722595214844,-1.5302016735076904,-0.9729639887809753,0.1169959232211113,-0.0014224585611373186,95.01671600341797,81.9317855834961,-60.05548095703125,102.58646121549297,1.0947228793501105,29.09418074198254,0.9799739756255287,63.77334976196289,31.214534759521484,59.944129943847656
3269.375,-22.990215301513672,97.16006469726562,-17.798044204711914,-0.8240192532539368,0.33109498023986816,0.43838828802108765,31.732694625854492,52.60920333862305,-118.81624603271484,21.18694496154785,-23.249956130981445,-0.9750317931175232,-0.9898485541343689,0.1556822806596756,0.0038931183516979218,92.14993286132812,81.97238159179688,-63.317222595214844,101.41695395297413,0.9903615030620255,31.470586011286944,1.0020240960195514,60.41723823547363,29.363178253173828,55.4990234375
3294.3340000000003,-15.182671546936035,97.94813537597656,-17.990283966064453,-0.8283516764640808,0.2808944880962372,0.4434673488140106,32.426692962646484,54.502811431884766,-117.57989501953125,19.466798782348633,-23.20145606994629,2.3226959705352783,-0.9876952767372131,0.19907982647418976,-0.0399373322725296,89.44784545898438,81.89791870117188,-66.42448425292969,100.73728731761842,0.9806791028709787,30.37529810832543,1.0083500024827887,57.02115249633789,27.39510726928711,51.15541076660156
3313.788,-2.974381446838379,97.0179443359375,-15.087343215942383,-0.9281070828437805,0.3145619034767151,0.5446140766143799,33.50157165527344,56.30169677734375,-116.1933822631836,8.106135368347168,-21.410627365112305,2.365050792694092,-0.9623755216598511,0.18059882521629333,0.013542155735194683,86.63031005859375,81.80953979492188,-69.4161376953125,98.22910156098347,1.1211317678088601,23.015600362138887,0.9792680788944016,53.12873840332031,25.507843017578125,46.777244567871094
3335.393,-12.502730369567871,93.71576690673828,-17.164791107177734,-0.9260610938072205,0.30099397897720337,0.43556058406829834,34.44121170043945,58.07985305786133,-114.77082824707031,2.342442512512207,-21.1379337310791,3.2255947589874268,-1.0084631443023682,0.10740630328655243,0.019441338256001472,83.79487609863281,81.7298355102539,-72.31520080566406,96.09158801562842,1.066723744573951,21.510549525596115,1.0143529923232277,49.35366439819336,23.649982452392578,42.45562744140625
3350.737,-22.536460876464844,93.30687713623047,-18.54905891418457,-0.9091669321060181,0.30311471223831177,0.41594451665878296,35.268680572509766,59.84054183959961,-113.27367401123047,3.331479072570801,-21.260223388671875,-2.034294843673706,-0.9907469749450684,0.1535326987504959,0.03578609228134155,80.9033203125,81.70591735839844,-75.29869079589844,97.76570449985991,1.0447357944231126,21.615601006176192,1.0032110956070925,45.634639739990234,21.865375518798828,37.97498321533203
3366.689,-24.006481170654297,93.89474487304688,-19.684337615966797,-0.8917165994644165,0.27336931228637695,0.3617854118347168,36.18698501586914,61.62040710449219,-111.60774993896484,3.5591840744018555,-16.310367584228516,1.068016529083252,-0.956180214881897,0.18265190720558167,-0.011803948320448399,79.00900268554688,81.60545349121094,-77.27893829345703,98.89391993621705,1.0003889038152738,16.72831555520529,0.9735407827787077,42.822017669677734,19.98504638671875,34.32881164550781
3396.331,-18.199642181396484,90.91407775878906,-19.28509521484375,-0.9619587063789368,0.26367416977882385,0.3844985365867615,37.29431915283203,63.3273811340332,-109.88326263427734,-4.084185600280762,-12.050271987915039,-0.7714020609855652,-0.9526844024658203,0.15069273114204407,-0.0008953732904046774,77.45569610595703,81.56782531738281,-78.7500991821289,94.70222493536042,1.0689844457353674,12.746948189271162,0.9645292487084228,40.161376953125,18.24044418334961,31.133163452148438
3404.156,-13.41677188873291,84.53246307373047,-19.35507583618164,-0.9723144769668579,0.2515839636325836,0.3212435245513916,38.53909683227539,64.93253326416016,-108.14779663085938,-9.197206497192383,-7.6643829345703125,-3.0516889095306396,-0.9689047336578369,0.13204380869865417,0.012258085422217846,76.25343322753906,81.60047149658203,-79.76380157470703,87.75172956614725,1.0544606843987196,12.354925265669667,0.9779377336918895,37.71433639526367,16.667938232421875,28.383995056152344
3429.2630000000004,-12.845256805419922,80.8648452758789,-17.864933013916016,-0.9844018220901489,0.25978147983551025,0.33602097630500793,39.91736602783203,66.42378234863281,-106.28688049316406,-9.611176490783691,-5.672214508056641,-4.517179489135742,-0.9877178072929382,0.15230804681777954,0.013007932342588902,75.27021789550781,81.65851593017578,-80.56629180908203,83.80500972782431,1.0721210104819807,12.039669492949962,0.9994765701470175,35.35285186767578,15.234733581542969,25.72058868408203
3444.6780000000003,-13.532427787780762,77.22914123535156,-18.1313419342041,-0.9770511984825134,0.2568559944629669,0.31544944643974304,41.36452102661133,67.83834075927734,-104.36168670654297,-11.831517219543457,-5.636631965637207,-4.752676010131836,-1.0017274618148804,0.1283683180809021,0.034861765801906586,74.12860107421875,81.72953033447266,-81.49349975585938,80.47491794414212,1.0583536269162666,13.940744201429103,1.010520497345714,32.76408004760742,13.891189575195312,22.868186950683594
3466.697,-17.425827026367188,73.20948791503906,-18.230712890625,-0.9896776676177979,0.24761800467967987,0.3123292624950409,42.78031921386719,69.1676025390625,-102.41386413574219,-11.258867263793945,-6.176973342895508,-4.943428993225098,-1.0075229406356812,0.13208726048469543,0.0407954677939415,72.89678955078125,81.79507446289062,-82.52396392822266,77.43156630751777,1.0669236759176575,13.760617062967459,1.0169630231635998,30.116470336914062,12.627471923828125,19.88990020751953
3489.111,-17.05076789855957,68.75670623779297,-16.73723793029785,-1.012062668800354,0.23356564342975616,0.32174813747406006,44.26961898803711,70.38771057128906,-100.38773345947266,-11.485074043273926,-7.29415225982666,-4.956269264221191,-1.0119671821594238,0.1323733925819397,0.052646975964307785,71.4654541015625,81.84798431396484,-83.74101257324219,72.78975526910438,1.0873571719256179,14.480199860101466,1.0219452024984135,27.19583511352539,11.460273742675781,16.64672088623047
3505.185,-15.877677917480469,65.81493377685547,-15.025796890258789,-0.9863631725311279,0.2490956038236618,0.2883572578430176,45.989437103271484,71.51246643066406,-98.18720245361328,-9.925461769104004,-10.07813549041748,-5.799437522888184,-1.0018012523651123,0.1271265745162964,0.06711282581090927,69.60100555419922,81.89181518554688,-85.42784881591797,69.35041987104641,1.0574076016942051,15.287808275715685,1.0120627681013072,23.611568450927734,10.379348754882812,12.759353637695312
3528.752,-18.191917419433594,62.052513122558594,-14.65186595916748,-0.9779890775680542,0.24956151843070984,0.2861742079257965,47.729095458984375,72.54669189453125,-95.90757751464844,-7.925920486450195,-11.499150276184082,-6.410833358764648,-0.9927212595939636,0.12261217087507248,0.08136483281850815,67.50333404541016,81.9263687133789,-87.3868637084961,66.30337412459647,1.0491135613487284,15.367155136382433,1.0035683732143552,19.77423858642578,9.379676818847656,8.520713806152344
3548.835,-21.921560287475586,59.01110076904297,-12.133600234985352,-0.9746788740158081,0.25999656319618225,0.2665373384952545,49.60921859741211,73.4731674194336,-93.42655944824219,-5.386340141296387,-10.30966567993164,-5.647134304046631,-0.979681670665741,0.11365307122468948,0.062450259923934937,65.71212768554688,81.95476531982422,-89.08793640136719,64.10997640051045,1.0433787774047754,12.93027425840772,0.9882273176763475,16.102909088134766,8.481597900390625,4.338623046875
3571.602,-25.301706314086914,55.83955383300781,-11.352280616760254,-0.9961161613464355,0.2511759400367737,0.2641218900680542,51.49935531616211,74.32298278808594,-90.8854751586914,-6.646894454956055,-5.177483558654785,-4.9372406005859375,-0.9644616842269897,0.11173993349075317,0.055895790457725525,64.61409759521484,82.00885772705078,-90.0652084350586,62.346663021170215,1.0607059595203736,9.76544349446252,0.9725206899955258,13.114742279052734,7.685874938964844,0.8202667236328125
3592.867,-22.706090927124023,49.977745056152344,-9.802400588989258,-1.0193842649459839,0.2142665684223175,0.2512504458427429,53.35829162597656,75.06858825683594,-88.42481231689453,-6.540800094604492,-0.9337036609649658,-4.427798271179199,-0.9747706651687622,0.11789888143539429,0.04596071317791939,64.13448333740234,82.08837127685547,-90.42182922363281,55.76225088171747,1.0715321873369539,7.953569383260262,0.9829498375161834,10.776191711425781,7.019783020019531,-1.9970169067382812
3604.387,-16.662092208862305,42.25410842895508,-8.173151969909668,-0.9994169473648071,0.22446081042289734,0.2169559895992279,55.183921813964844,75.6726303100586,-86.15406036376953,-4.828142166137695,-1.4373762607574463,-3.545193910598755,-0.9928361177444458,0.1285216361284256,0.05957476422190666,63.645118713378906,82.13874053955078,-90.8233871459961,46.1501398592221,1.0470371490633337,6.159984346990854,1.0028910809171085,8.461196899414062,6.4661102294921875,-4.6693267822265625
3627.686,-15.230122566223145,35.48963165283203,-6.567513942718506,-0.9970695972442627,0.23993422091007233,0.20544129610061646,56.84388732910156,76.14727020263672,-84.0801010131836,-4.539770603179932,-1.099857211112976,-3.736260414123535,-0.9885092377662659,0.12307991087436676,0.053107813000679016,63.2059326171875,82.19865417480469,-91.1710433959961,39.17400704068552,1.0459074233678909,5.981542016610805,0.9975568241517879,6.3620452880859375,6.051383972167969,-7.0909423828125
3649.157,-15.078167915344238,29.277055740356445,-4.719579696655273,-1.0096213817596436,0.25005683302879333,0.23195156455039978,58.21845245361328,76.49659729003906,-82.30836486816406,-6.756113529205322,1.9410161972045898,-2.951986074447632,-0.9847740530967712,0.1248563900589943,0.061685897409915924,63.136146545410156,82.26811981201172,-91.09908294677734,33.26817658093595,1.0656759744631668,7.624095728744131,0.9945723722939788,4.917694091796875,5.771522521972656,-8.790718078613281
3674.473,-15.479763984680176,23.206342697143555,-3.777278184890747,-1.0187928676605225,0.23210293054580688,0.2342962771654129,59.223350524902344,76.76351165771484,-80.90553283691406,-10.823304176330566,2.868651866912842,-5.124595642089844,-0.9895789623260498,0.1255997270345688,0.07352244108915329,62.919288635253906,82.38129425048828,-91.09334564208984,28.15004910981011,1.0708433233006005,12.313998429504668,1.0002236567154206,3.6959381103515625,5.6177825927734375,-10.187812805175781
3695.1800000000003,-13.638055801391602,16.692781448364258,-3.894808053970337,-1.0039751529693604,0.2051592767238617,0.2107125222682953,59.824462890625,76.97518157958984,-79.92516326904297,-8.90874195098877,4.676876544952393,-1.5909820795059204,-1.0102579593658447,0.10801427811384201,0.06573834270238876,63.21430587768555,82.45903778076172,-90.602294921875,21.90468096782049,1.0461626086065088,10.186760100411808,1.0181403431942728,3.389842987060547,5.483856201171875,-10.677131652832031
3714.171,-12.928156852722168,11.061563491821289,-1.4764267206192017,-1.0171213150024414,0.20928695797920227,0.22042953968048096,60.12464141845703,77.08248138427734,-79.27511596679688,-8.841446876525879,5.900735378265381,-1.13780677318573,-0.9915909767150879,0.10627424716949463,0.04712550714612007,63.778663635253906,82.54269409179688,-89.8450927734375,17.0785029306886,1.0615677002321768,10.690391252327917,0.9983825389789246,3.654022216796875,5.460212707519531,-10.569976806640625
3723.794,-12.974562644958496,3.491935968399048,-0.2297716736793518,-1.0249223709106445,0.21535444259643555,0.2125784456729889,59.93558120727539,77.09172058105469,-79.12993621826172,-9.654342651367188,8.932710647583008,-0.3353722095489502,-0.9820303320884705,0.10989033430814743,0.03745698556303978,64.84947967529297,82.63619232177734,-88.56890869140625,13.43821742856458,1.0686594396269853,13.15720814087807,0.9888692959555462,4.913898468017578,5.544471740722656,-9.438972473144531
3750.029,-9.290970802307129,-5.361083507537842,-0.2177620828151703,-1.0055137872695923,0.20666109025478363,0.18147999048233032,59.21366500854492,77.02030944824219,-79.61034393310547,-12.8101806640625,10.982213020324707,-0.6389283537864685,-0.989176332950592,0.11294855177402496,0.04156285524368286,66.13227844238281,82.74595642089844,-87.01969146728516,10.728968969515655,1.0424498882728135,16.885436355362053,0.9964711054282696,6.918613433837891,5.72564697265625,-7.4093475341796875
3771.658,-4.328662872314453,-12.859748840332031,1.5623269081115723,-1.004409670829773,0.19812169671058655,0.18600070476531982,58.11981201171875,76.84169006347656,-80.56484985351562,-17.44833755493164,13.031962394714355,-1.7265177965164185,-0.9818438291549683,0.12036967277526855,0.030416127294301987,67.64323425292969,82.88452911376953,-85.15396118164062,13.658379401172898,1.0405225878072277,21.846221435062287,0.9896622170080551,9.523422241210938,6.042839050292969,-4.589111328125
3794.036,-0.7483614683151245,-19.7007999420166,3.0548434257507324,-1.014169692993164,0.21994765102863312,0.22979314625263214,56.67134094238281,76.54048919677734,-81.9302749633789,-25.51650047302246,15.990323066711426,-3.7902591228485107,-0.9833085536956787,0.11729968339204788,0.021808549761772156,69.4009780883789,83.0793228149414,-82.886474609375,19.95027898547969,1.0628838249985488,30.350424912773384,0.9905203381746757,12.729637145996094,6.5388336181640625,-0.9561996459960938
3803.988,-1.5878382921218872,-29.399181365966797,3.312324285507202,-1.0286623239517212,0.22011269629001617,0.24593842029571533,54.62909698486328,76.11618041992188,-83.98558807373047,-29.818675994873047,16.016523361206055,-3.9354631900787354,-0.9994103908538818,0.11670894920825958,0.05188827961683273,71.02188873291016,83.26238250732422,-80.67637634277344,29.627767172085356,1.080315455023841,34.075949424597724,1.0075388338588243,16.392791748046875,7.146202087402344,3.3092117309570312
3826.3250000000003,1.2549787759780884,-37.84413528442383,2.980623245239258,-1.0012810230255127,0.1990050971508026,0.20144283771514893,52.293270111083984,75.60075378417969,-86.4097671508789,-30.796018600463867,14.514442443847656,-3.065361499786377,-1.0131820440292358,0.10107747465372086,0.04071063548326492,72.53624725341797,83.42137908935547,-78.53533172607422,37.98207027116859,1.0405507833016847,34.182747727768394,1.0190249585103817,20.242977142333984,7.820625305175781,7.8744354248046875
3853.857,7.251165866851807,-43.87520217895508,6.37868070602417,-1.0288423299789429,0.2115626186132431,0.28127604722976685,49.976383209228516,74.91227722167969,-88.93814086914062,-30.919105529785156,12.71027946472168,-2.3948614597320557,-1.0147448778152466,0.08988627046346664,0.0478360615670681,73.79924011230469,83.55389404296875,-76.64799499511719,44.92549766248768,1.0873782673459105,33.515334583510075,1.019840672583889,23.822856903076172,8.641616821289062,12.290145874023438
3864.0,4.21107292175293,-51.797760009765625,7.646888256072998,-1.0171281099319458,0.22977660596370697,0.27895915508270264,47.50920104980469,74.07323455810547,-91.53543090820312,-26.601818084716797,13.892698287963867,-1.454937219619751,-0.9937627911567688,0.0947827696800232,0.017378371208906174,75.59550476074219,83.66812896728516,-74.30461883544922,52.528239806626516,1.0794281314040266,30.046308150017275,0.9984238910912452,28.0863037109375,9.594894409179688,17.230812072753906
3886.622,1.2124452590942383,-59.08099365234375,8.345014572143555,-1.0399365425109863,0.21737712621688843,0.30540627241134644,44.909000396728516,73.10100555419922,-94.25447082519531,-25.2169246673584,15.223414421081543,0.7536160945892334,-1.0050253868103027,0.10981609672307968,0.023358982056379318,77.77081298828125,83.72589111328125,-71.59701538085938,59.67975454594188,1.1054382925700608,29.4654640814165,1.0112770368575574,32.861812591552734,10.624885559082031,22.657455444335938
3903.8149999999996,9.181414604187012,-67.29996490478516,10.712226867675781,-1.0269920825958252,0.2158167064189911,0.3185446560382843,42.52555847167969,71.94857788085938,-96.92863464355469,-24.24204444885254,13.005343437194824,3.271982192993164,-1.0202805995941162,0.12292823940515518,0.04006008058786392,79.6004867553711,83.70502471923828,-69.25890350341797,68.76289300766692,1.0967042839227903,27.704179187458216,1.0284399175489478,37.074928283691406,11.756446838378906,27.66973114013672
3929.014,16.37828826904297,-72.4437026977539,13.842185974121094,-1.0028343200683594,0.2525590658187866,0.3431060314178467,40.569400787353516,70.63519287109375,-99.3265151977539,-18.06790542602539,8.043170928955078,5.435819149017334,-1.0388455390930176,0.09975619614124298,0.0618281252682209,80.59435272216797,83.62907409667969,-67.86556243896484,75.55093976732906,1.0895799667897401,20.51072731272612,1.0454540017792344,40.02495193481445,12.993881225585938,31.460952758789062
3947.327,15.343361854553223,-75.15643310546875,15.977383613586426,-0.9956434965133667,0.2688979208469391,0.36767107248306274,38.88022232055664,69.22750854492188,-101.4405288696289,-8.853772163391113,3.3617563247680664,6.868640422821045,-1.0263712406158447,0.0860011950135231,0.04791967570781708,81.0257339477539,83.51598358154297,-67.22589111328125,78.3529512990561,1.094894552697206,11.699098613413287,1.0310821618217456,42.145511627197266,14.288475036621094,34.214637756347656
3968.367,13.619446754455566,-80.63055419921875,16.3591251373291,-0.9981489777565002,0.24859169125556946,0.4039773941040039,37.214534759521484,67.71578216552734,-103.5077896118164,-0.7115463614463806,1.5735275745391846,9.097358703613281,-1.0039663314819336,0.09657230973243713,0.03784984350204468,81.4061279296875,83.3470687866211,-66.79491424560547,83.39302474205739,1.105123045504306,9.259817635057997,1.0093102676627632,44.191593170166016,15.63128662109375,36.71287536621094
3983.511,14.4802827835083,-86.12440490722656,18.548843383789062,-0.990759551525116,0.2794453203678131,0.41336649656295776,35.7765998840332,66.07192993164062,-105.37625885009766,6.346297740936279,2.1494243144989014,10.340153694152832,-0.9930621385574341,0.09413754940032959,0.026050815358757973,82.0777587890625,83.15816497802734,-66.2081069946289,89.28130431949688,1.109308810248279,12.321294506628533,0.9978541648077739,46.3011589050293,17.08623504638672,39.16815185546875
4006.2490000000003,14.706482887268066,-92.26697540283203,21.53246307373047,-0.999936044216156,0.28399258852005005,0.4063420593738556,34.53409957885742,64.29740905761719,-107.06423950195312,8.753316879272461,4.2555012702941895,10.890588760375977,-0.9696581959724426,0.1021685004234314,0.0077644591219723225,83.19044494628906,82.96000671386719,-65.22454071044922,95.88077155990081,1.116081427169702,14.605984081809044,0.9750567708194028,48.65634536743164,18.66259765625,41.839698791503906
4030.087,17.222332000732422,-99.52264404296875,23.306100845336914,-0.9823082089424133,0.2680644392967224,0.4075312614440918,33.427913665771484,62.38673400878906,-108.68170928955078,6.985694885253906,7.512279510498047,11.453100204467773,-0.9659541845321655,0.15267819166183472,0.010057268664240837,84.72280883789062,82.72726440429688,-63.78495407104492,103.65587167864602,1.096754161161621,15.375557901009351,0.9779975794843838,51.29489517211914,20.340530395507812,44.89675521850586
4051.6180000000004,17.771305084228516,-105.04792785644531,25.588958740234375,-0.966241717338562,0.2812662124633789,0.452596515417099,32.46773910522461,60.34104919433594,-110.1737289428711,2.0435950756073,7.529998779296875,13.74498462677002,-1.0070278644561768,0.17766597867012024,0.027118394151329994,86.01647186279297,82.43547821044922,-62.48138427734375,109.57043963012599,1.1034388720570654,15.805118311464897,1.0229397475263762,53.54873275756836,22.09442901611328,47.692344665527344
4073.996,19.52692413330078,-108.36036682128906,27.820043563842773,-0.9634295701980591,0.29715362191200256,0.5184369683265686,31.693042755126953,58.197086334228516,-111.5189208984375,-3.3981707096099854,5.42751407623291,15.654659271240234,-1.0269502401351929,0.15778082609176636,0.022670619189739227,86.82918548583984,82.11566162109375,-61.557395935058594,113.5659486274214,1.1336991231694067,16.913717217630943,1.0392475844428875,55.13614273071289,23.918575286865234,49.961524963378906
4083.7149999999997,20.130359649658203,-112.53968048095703,27.894580841064453,-0.9396965503692627,0.30106043815612793,0.5256984233856201,31.0078067779541,55.98424530029297,-112.80599975585938,-7.202296257019043,3.8501975536346436,15.0701322555542,-1.0065674781799316,0.14493270218372345,0.02552444115281105,87.2623519897461,81.81354522705078,-60.943336486816406,117.67972936185386,1.118045538673975,17.140769491938798,1.0172684372317595,56.25454521179199,25.829299926757812,51.86266326904297
4106.081999999999,17.983583450317383,-116.82575225830078,29.511106491088867,-0.9203171133995056,0.3209761083126068,0.5296546220779419,30.39990997314453,53.684871673583984,-113.98870849609375,-7.195960998535156,6.326385498046875,14.179078102111816,-0.9781067371368408,0.1567249894142151,0.006965091917663813,88.05072021484375,81.52515411376953,-59.97140121459961,121.83009099052987,1.1092985486387477,17.112897591820143,0.9906079063104556,57.65081024169922,27.840282440185547,54.01730728149414
4128.468,16.54323959350586,-120.8508071899414,30.80391502380371,-0.9012595415115356,0.3345789909362793,0.5460165739059448,29.858009338378906,51.30516815185547,-115.0923843383789,-12.50659465789795,8.632831573486328,12.888522148132324,-0.9676308035850525,0.16442063450813293,-0.007052158005535603,89.0175552368164,81.2596664428711,-58.713401794433594,125.80730326774457,1.1055975584820674,19.92623130639714,0.9815259803139429,59.1595458984375,29.954498291015625,56.37898254394531
4151.259999999999,18.28343963623047,-125.01071166992188,31.166015625,-0.891379714012146,0.31100720167160034,0.5963008999824524,29.375917434692383,48.8515739440918,-116.18517303466797,-15.701650619506836,11.959318161010742,13.152201652526855,-0.9706196784973145,0.18504226207733154,0.005039693787693977,90.21854400634766,80.97704315185547,-57.152767181396484,130.1279475250792,1.1166279762588154,23.71808447919163,0.9881136561926465,60.84262657165527,32.12546920776367,59.032405853271484
4173.676,19.025848388671875,-128.13763427734375,32.02482604980469,-0.8550166487693787,0.3322591185569763,0.6196053624153137,28.991661071777344,46.33073806762695,-117.2130355834961,-17.833024978637695,13.815204620361328,13.429644584655762,-0.9949344992637634,0.1472705900669098,0.0032601465936750174,91.51787567138672,80.71009063720703,-55.452335357666016,133.44221861398768,1.1069599797060823,26.25322860642749,1.005780250889678,62.526214599609375,34.37935256958008,61.76070022583008
4184.168,17.111284255981445,-129.98541259765625,33.853309631347656,-0.8261139392852783,0.3568929433822632,0.6265286207199097,28.680078506469727,43.76447296142578,-118.14027404785156,-15.361817359924316,13.283352851867676,13.0809326171875,-0.9986507296562195,0.1367783397436142,0.008062206208705902,92.69706726074219,80.45401763916016,-53.92579650878906,135.40697954709657,1.0965285797911006,24.15664905822604,1.0080062466249258,64.01698875427246,36.689544677734375,64.2144775390625
4209.514,17.31647491455078,-132.6866912841797,35.62385559082031,-0.7993358373641968,0.35971078276634216,0.6769919395446777,28.433452606201172,41.1297492980957,-119.01254272460938,-11.991602897644043,13.984989166259766,11.07385540008545,-0.9853174686431885,0.13871555030345917,0.01560092344880104,93.93175506591797,80.23283386230469,-52.41374588012695,138.47265952008394,1.1075412923866816,21.49438846436878,0.9951562222695829,65.4983024597168,39.103084564208984,66.59879684448242
4232.211,16.3956298828125,-134.26373291015625,38.17965316772461,-0.7414510846138,0.3595685660839081,0.6903961300849915,28.251628875732422,38.44145584106445,-119.80006408691406,-11.120376586914062,15.066043853759766,10.106087684631348,-0.9807058572769165,0.15506872534751892,0.009144174866378307,95.2591781616211,80.0159912109375,-50.831214904785156,140.5462648747084,1.0750284094045843,21.27866210849865,0.9929319735068173,67.00754928588867,41.57453536987305,68.9688491821289
4254.795,13.619473457336426,-135.0858917236328,40.314537048339844,-0.6999725699424744,0.4043880105018616,0.720434308052063,28.107755661010742,35.71072006225586,-120.50040435791016,-8.62339973449707,15.483539581298828,11.257888793945312,-0.9846596121788025,0.18961341679096222,8.700916077941656e-05,96.6091079711914,79.75142669677734,-49.277130126953125,141.62962295171906,1.0828281737782688,20.996263501952225,1.0027501220413024,68.50135231018066,44.040706634521484,71.22327423095703
4266.259,10.228215217590332,-137.93212890625,39.05722427368164,-0.6748930215835571,0.3815962076187134,0.7570309638977051,27.88755226135254,32.94976806640625,-121.23836517333984,-10.264874458312988,14.100680351257324,12.038975715637207,-1.0024945735931396,0.19025269150733948,-0.0034773650113493204,97.69598388671875,79.47309875488281,-47.94822311401367,143.719711031968,1.0836014657386988,21.19277637061655,1.020393820432533,69.80843162536621,46.52333068847656,73.29014205932617
4294.383,13.322184562683105,-139.3372039794922,40.04698181152344,-0.6303455829620361,0.40347713232040405,0.7399259209632874,27.79730987548828,30.163244247436523,-121.92840576171875,-9.10240364074707,13.142939567565918,12.30201530456543,-1.0041731595993042,0.18829883635044098,-0.0020973277278244495,98.62915802001953,79.19230651855469,-46.79825210571289,145.5887968442534,1.052435137563648,20.17251082710175,1.0216773389941551,70.83184814453125,49.029062271118164,75.13015365600586
4314.130999999999,18.106197357177734,-139.82244873046875,41.11367416381836,-0.5828012228012085,0.39804497361183167,0.769700288772583,27.8382625579834,27.357498168945312,-122.58789825439453,-7.448973178863525,10.474691390991211,12.209348678588867,-1.0096464157104492,0.17922967672348022,-0.008366898633539677,99.29212188720703,78.9264907836914,-45.94493103027344,146.86213179363241,1.044287125676088,17.727790508444453,1.025465341573329,71.45385932922363,51.568992614746094,76.6429672241211
4328.46,17.491483688354492,-138.53628540039062,42.12226867675781,-0.5212548971176147,0.42834267020225525,0.7831487655639648,27.927370071411133,24.557466506958008,-123.19633483886719,-4.448834419250488,9.318665504455566,12.208723068237305,-1.0002732276916504,0.18999838829040527,-0.0059870025143027306,99.8489990234375,78.65895080566406,-45.2377815246582,145.85108807491093,1.033685687184192,15.990077342863218,1.0181757028080811,71.92162895202637,54.101484298706055,77.95855331420898
4343.985,9.020851135253906,-139.18345642089844,40.849021911621094,-0.4901382625102997,0.4433339238166809,0.8311116099357605,27.861391067504883,21.758161544799805,-123.8262710571289,-2.286397695541382,7.524252891540527,12.13589859008789,-0.9998554587364197,0.18332083523273468,-0.021318964660167694,100.29126739501953,78.40294647216797,-44.69368362426758,145.33427980902732,1.0618507393006429,14.461052195014378,1.0167457721818296,72.42987632751465,56.644784927368164,79.13258743286133
4369.141,2.7701752185821533,-141.62078857421875,39.360416412353516,-0.46009182929992676,0.4326125681400299,0.8169609904289246,27.68692398071289,18.94597053527832,-124.48970031738281,-0.5374050736427307,4.037073612213135,10.428350448608398,-1.0018818378448486,0.18608039617538452,-0.024957366287708282,100.4578857421875,78.1934585571289,-44.47719192504883,147.0148428128231,1.0326003028199606,11.195412482021176,1.0193213433339745,72.77096176147461,59.247488021850586,80.01250839233398
4385.872,4.511188983917236,-141.87313842773438,39.98539733886719,-0.41893261671066284,0.4305060803890228,0.8220673203468323,27.585445404052734,16.128435134887695,-125.12531280517578,-0.6055686473846436,3.157214879989624,9.959518432617188,-0.9918506741523743,0.18880051374435425,-0.02941116690635681,100.55329895019531,77.9955062866211,-44.332035064697266,147.46921791930268,1.0181525925803971,10.465501736408278,1.0100883181907634,72.96785354614258,61.8670711517334,80.79327774047852
4406.174,5.642098903656006,-141.93719482421875,40.58382034301758,-0.36810964345932007,0.42203888297080994,0.8396134376525879,27.53417205810547,13.302773475646973,-125.74029541015625,-0.652485191822052,3.041975736618042,9.542628288269043,-0.9830493330955505,0.19698259234428406,-0.03381438925862312,100.64785766601562,77.80220031738281,-44.1815185546875,147.733026193337,1.0092434062374611,10.036986995896353,1.0031607776957863,73.11368560791016,64.49942684173584,81.55877685546875
4427.4800000000005,2.809885263442993,-143.43223571777344,40.42531204223633,-0.323436975479126,0.44509175419807434,0.8486728668212891,27.46454620361328,10.452238082885742,-126.3599853515625,-0.2727038860321045,-0.4199255108833313,8.916696548461914,-0.9972935914993286,0.2126818597316742,-0.03654167801141739,100.44823455810547,77.62859344482422,-44.33476257324219,149.04666233064333,1.0114167200718354,8.930743652210618,1.0203741349801274,72.98368835449219,67.17635536193848,82.02522277832031
4443.551,-0.5752612948417664,-145.48631286621094,39.19626235961914,-0.28017911314964294,0.44055312871932983,0.8711738586425781,27.34586524963379,7.577808380126953,-127.01107788085938,0.4748358428478241,-3.971534252166748,8.714475631713867,-0.9988460540771484,0.232262521982193,-0.030232587829232216,99.93781280517578,77.46339416503906,-44.819793701171875,150.67496520632236,1.0156432871101495,9.588568137606444,1.0259402166938727,72.59194755554199,69.88558578491211,82.1912841796875
4467.964,3.509932041168213,-147.60569763183594,38.53702926635742,-0.22603583335876465,0.43814677000045776,0.8465261459350586,27.344589233398438,4.67293643951416,-127.6846694946289,-2.5767250061035156,-8.420293807983398,7.638495445251465,-0.9856438040733337,0.22518667578697205,-0.03261500597000122,99.02227783203125,77.33594512939453,-45.68338394165039,152.59378827786762,0.979628146684082,11.657078203262175,1.0115663527789773,71.67768859863281,72.66300868988037,82.00128555297852
4488.415,8.175443649291992,-148.45034790039062,38.6357421875,-0.15667752921581268,0.42803508043289185,0.8420703411102295,27.465681076049805,1.7430922985076904,-128.3652801513672,-4.717291355133057,-7.136645317077637,9.289775848388672,-0.9922357201576233,0.2169245481491089,-0.009058726951479912,98.12603759765625,77.17762756347656,-46.47925567626953,153.61335959150404,0.957519888889971,12.628716459889528,1.0157115951294413,70.66035652160645,75.43453526496887,81.88602447509766
4510.896,9.20699691772461,-148.24049377441406,39.28718948364258,-0.08864431083202362,0.44527095556259155,0.8356361389160156,27.65167236328125,-1.1986011266708374,-129.03932189941406,-2.7497360706329346,-11.02700138092041,8.765435218811035,-1.0066074132919312,0.2135779708623886,-0.01494569517672062,96.98702239990234,77.0413818359375,-47.56412887573242,153.63429319083914,0.9510056752580262,14.35230512803199,1.0291245832921705,69.3353500366211,78.23998296260834,81.47519302368164
4532.185,9.096379280090332,-147.8759307861328,38.66581726074219,-0.017942486330866814,0.4475005567073822,0.8482524156570435,27.86668586730957,-4.138886451721191,-129.73211669921875,-0.19045411050319672,-14.743389129638672,11.8875732421875,-0.990287184715271,0.22430379688739777,-0.020287280902266502,95.60285186767578,76.83881378173828,-48.950584411621094,153.11786455640473,0.9592240831719979,18.939857269381086,1.0155749481332275,67.73616600036621,80.97770023345947,80.78153228759766
4543.464,10.473928451538086,-146.9267120361328,38.73725128173828,0.05378170311450958,0.4481702744960785,0.828247606754303,28.148868560791016,-7.074019908905029,-130.4305877685547,0.7962895035743713,-14.789846420288086,14.918636322021484,-0.9811919927597046,0.21650156378746033,-0.0025079052429646254,94.22950744628906,76.5743637084961,-50.343223571777344,152.30803171146678,0.9432619809077529,21.022353431953086,1.0047969662408838,66.08063888549805,83.64838361740112,80.08736419677734
4566.741,14.394597053527832,-147.3560028076172,37.8855094909668,0.1201290562748909,0.43952688574790955,0.7868787050247192,28.55588150024414,-10.019086837768555,-131.1713409423828,5.749436378479004,-12.402897834777832,17.51600456237793,-0.9794466495513916,0.23245130479335785,0.014213718473911285,93.16233825683594,76.24227142333984,-51.5343132019043,152.8277063138816,0.9092815679854788,22.219322878957378,1.006752888354653,64.6064567565918,86.2613582611084,79.63702774047852
4588.676,21.00798225402832,-145.99246215820312,38.3440055847168,0.1868669092655182,0.42439669370651245,0.7691473960876465,29.1265926361084,-12.952322959899902,-131.92184448242188,13.37394905090332,-11.823862075805664,19.42446517944336,-0.985753059387207,0.23777520656585693,0.018467843532562256,92.339111328125,75.8682861328125,-52.62629699707031,152.3988093446951,0.8981199877053587,26.38135847736505,1.0141928831309248,63.2125186920166,88.8206090927124,79.29554748535156
4611.589,23.73866844177246,-143.36134338378906,39.97006607055664,0.2255929559469223,0.48090860247612,0.7877552509307861,29.80417823791504,-15.835845947265625,-132.66323852539062,22.77924346923828,-14.440869331359863,20.201366424560547,-0.9927282333374023,0.21755024790763855,0.007853424176573753,91.58126831054688,75.4924545288086,-53.84751892089844,150.71033586943446,0.9501176774891785,33.69759406093567,1.0163164526372541,61.777090072631836,91.32830047607422,78.81571960449219
4633.218,17.04155921936035,-141.52642822265625,39.345001220703125,0.24523869156837463,0.4607594609260559,0.7653155326843262,30.38444709777832,-18.660858154296875,-133.43917846679688,26.064651489257812,-11.500490188598633,17.25077247619629,-0.9542566537857056,0.23235364258289337,0.02097509242594242,91.13655853271484,75.16183471679688,-54.808570861816406,147.87891583030614,0.9263634066838629,33.304901784272154,0.9823614055011056,60.75211143493652,93.82269287109375,78.63060760498047
4643.241,10.547557830810547,-140.1256866455078,38.03022766113281,0.292835533618927,0.43989431858062744,0.7142269611358643,30.888050079345703,-21.452407836914062,-134.2651824951172,30.37480926513672,-17.925243377685547,17.526411056518555,-0.9802865982055664,0.25039511919021606,0.020749574527144432,90.34275817871094,74.82144927978516,-56.22298049926758,145.57732395543934,0.8884704909465297,39.38424142426449,1.011973356951052,59.454708099365234,96.27385711669922,78.04220199584961
4665.871,14.819860458374023,-137.81646728515625,40.00251388549805,0.3269377648830414,0.44244879484176636,0.7089583277702332,31.505199432373047,-24.210649490356445,-135.0736083984375,30.88152313232422,-16.21821403503418,17.454051971435547,-0.9719796180725098,0.26265978813171387,-0.01934032514691353,89.8226089477539,74.47344970703125,-57.39054489135742,144.2678343780265,0.89736901477509,39.004395491790774,1.0070295876619353,58.31740951538086,98.6840991973877,77.68306350708008
4688.746,15.406322479248047,-133.89794921875,41.54922103881836,0.36549410223960876,0.455500066280365,0.6879886388778687,32.168540954589844,-26.90807342529297,-135.86341857910156,23.44149398803711,-4.922375202178955,17.500364303588867,-0.9635881781578064,0.2858530282974243,-0.04472440481185913,90.03945922851562,74.1137924194336,-57.63425827026367,141.0402543469563,0.9024381509989351,29.664729373121435,1.0060886657040042,57.87091827392578,101.02186584472656,78.22916030883789
4712.593,12.912544250488281,-131.21868896484375,40.733924865722656,0.40728670358657837,0.4552346169948578,0.6843180060386658,32.82670593261719,-29.541181564331055,-136.68875122070312,16.078834533691406,5.488659858703613,19.482009887695312,-0.9646328091621399,0.2874640226364136,-0.0199209526181221,90.76935577392578,73.71703338623047,-57.21457290649414,138.00119842827294,0.9172852058207478,25.84962313594977,1.0067516402646501,57.942649841308594,103.25821495056152,79.47417831420898
4733.875,9.234637260437012,-127.99549865722656,39.53907012939453,0.4549841582775116,0.437588632106781,0.604174017906189,33.47956085205078,-32.12339782714844,-137.56129455566406,12.798608779907227,9.959948539733887,17.938968658447266,-0.9922248125076294,0.2850228548049927,-0.005546620115637779,91.67230224609375,73.35743713378906,-56.54944610595703,134.28128785702467,0.8737966806674693,24.182877375201215,1.0323656674413846,58.19274139404297,105.4808349609375,81.01184844970703
4745.567999999999,9.906238555908203,-123.8052749633789,38.478424072265625,0.51307612657547,0.4135003685951233,0.5849185585975647,34.17839813232422,-34.632118225097656,-138.4529571533203,12.920304298400879,17.269357681274414,18.444002151489258,-0.9572245478630066,0.27941402792930603,-0.06779903173446655,93.13055419921875,72.97770690917969,-55.31471633911133,130.02487758182866,0.8811125845667188,28.37862211685423,0.9994737328911388,58.95215606689453,107.60982513427734,83.13824081420898
4770.362,12.000204086303711,-115.15916442871094,40.2301025390625,0.5482210516929626,0.4162696301937103,0.5553949475288391,34.90511703491211,-37.01125717163086,-139.2584991455078,12.56714153289795,25.723512649536133,19.16136932373047,-0.9220755696296692,0.3021240532398224,-0.06035353243350983,95.0227279663086,72.54705047607422,-53.61956024169922,122.57283222776287,0.8844717487186962,34.449821823909815,0.9721856039518075,60.117610931396484,109.55830764770508,85.6389389038086
4793.059,6.935571193695068,-110.30400848388672,38.22252655029297,0.5779343247413635,0.4117949604988098,0.5406902432441711,35.57341003417969,-39.277252197265625,-140.0950164794922,9.957450866699219,29.885961532592773,19.444690704345703,-0.9577713012695312,0.30129608511924744,-0.04631899297237396,96.98432922363281,72.09725189208984,-51.78672409057617,116.94459359578799,0.8921485931984162,37.01915073415397,1.0051122552002292,61.410919189453125,111.37450408935547,88.30829238891602
4813.276,7.40156364440918,-104.20950317382812,37.96154022216797,0.5986734628677368,0.40837201476097107,0.5054242610931396,36.26673889160156,-41.43513488769531,-140.91026306152344,2.8607563972473145,39.96525955200195,16.457366943359375,-0.9481761455535889,0.28246715664863586,-0.08738669008016586,99.39884948730469,71.6667709350586,-49.33271789550781,111.15521684634334,0.8835334183173427,43.315711063442706,0.9932079999603267,63.132110595703125,113.1019058227539,91.57754516601562
4823.869000000001,12.153400421142578,-95.65526580810547,37.91477966308594,0.6193308234214783,0.3728245496749878,0.49453991651535034,37.00057601928711,-43.44920349121094,-141.63406372070312,-0.435423344373703,48.381446838378906,15.212199211120605,-0.9253023862838745,0.30047377943992615,-0.09341499209403992,102.11322784423828,71.18534851074219,-46.48820114135742,103.61064392964795,0.875864454528949,50.71848771900172,0.9773409635032574,65.11265182495117,114.63455200195312,95.1458625793457
4846.942999999999,13.764355659484863,-87.02667236328125,39.078922271728516,0.6497356295585632,0.4006105661392212,0.45828691124916077,37.73812484741211,-45.333099365234375,-142.2679443359375,-3.701016902923584,55.45151901245117,13.05856990814209,-0.9152289032936096,0.3046291470527649,-0.1207476481795311,105.05911254882812,70.66545867919922,-43.322147369384766,96.38600186368606,0.890321350436204,57.08848163114687,0.9721228611646813,67.32098770141602,115.9985580444336,98.94579696655273
4868.643,12.332670211791992,-80.57295989990234,38.890743255615234,0.6667500734329224,0.38199636340141296,0.45595109462738037,38.40096664428711,-47.10285186767578,-142.83175659179688,-2.91047739982605,60.034481048583984,13.223931312561035,-0.9249505400657654,0.31454727053642273,-0.1242876946926117,108.06266784667969,70.06462860107422,-40.09414291381836,90.31382248890961,0.8935145677416895,61.54252312691624,0.9848456315696732,69.66170120239258,117.16748046875,102.73761367797852
4882.925,12.073887825012207,-74.40492248535156,38.48305892944336,0.6875501275062561,0.3728475868701935,0.4410230219364166,39.02239990234375,-48.76678466796875,-143.33447265625,-6.710145950317383,65.23375701904297,7.494316101074219,-0.9078429341316223,0.31175824999809265,-0.16365894675254822,111.20710754394531,69.4762191772461,-36.6352424621582,84.63342768569144,0.897909687411114,66.00480200195224,0.973733151508533,72.18470764160156,118.24300384521484,106.6992301940918
