Timestamp (ms),Wrist Gyroscope X (deg/s),Wrist Gyroscope Y (deg/s),Wrist Gyroscope Z (deg/s),Wrist Accelerometer X (g),Wrist Accelerometer Y (g),Wrist Accelerometer Z (g),Wrist Roll (deg),Wrist Pitch (deg),Wrist Yaw (deg),Arm Gyroscope X (deg/s),Arm Gyroscope Y (deg/s),Arm Gyroscope Z (deg/s),Arm Accelerometer X (g),Arm Accelerometer Y (g),Arm Accelerometer Z (g),Arm Roll (deg),Arm Pitch (deg),Arm Yaw (deg),Wrist Gyroscope Magnitude (deg/s),Wrist Accelerometer Magnitude (g),Arm Gyroscope Magnitude (deg/s),Arm Accelerometer Magnitude (g),Difference Roll (deg),Difference Pitch (deg),Difference Yaw (deg)
0.0,5.164891719818115,0.0038103349506855,-4.016002178192139,-0.9276065826416016,-0.3211417198181152,0.1680357307195663,-60.37400436401367,68.87509155273438,-151.78314208984375,1.4815915822982788,0.6495391726493835,-2.6178348064422607,-0.9824230074882508,-0.1869871169328689,-0.0630309879779815,-112.33433532714844,78.85610961914062,136.9005584716797,6.542506743698639,0.9959025972283764,3.07734850599729,1.002043937652739,-51.960330963134766,9.98101806640625,288.68370056152344
23.769,3.939863204956055,0.7848285436630249,-3.357992887496948,-0.917841374874115,-0.303661048412323,0.169992908835411,-60.4202995300293,68.82866668701172,-151.91659545898438,1.7926206588745115,1.2777791023254397,-2.6728482246398926,-0.9733761548995972,-0.1882371604442596,-0.0578593164682388,-112.26314544677734,78.79502868652344,136.9418182373047,5.235894780187519,0.9816009427501592,3.4627049965199057,0.9930972097440484,-51.84284591674805,9.96636199951172,288.85841369628906
45.109,1.7008053064346311,0.876479983329773,-3.1003427505493164,-0.9045717120170592,-0.312183678150177,0.1842434257268905,-60.494537353515625,68.77733612060547,-152.03399658203125,0.7311065196990967,1.6933271884918213,-2.783735752105713,-0.9656842350959778,-0.1948378831148147,-0.0573319867253303,-112.23928833007812,78.7251968383789,136.9559326171875,3.643223987412476,0.9745020631114268,3.3393200577338646,0.9868104171072776,-51.7447509765625,9.947860717773438,288.98992919921875
55.288,1.6639903783798218,0.8385212421417236,-2.865142583847046,-0.8951139450073242,-0.3096897602081299,0.1737423092126846,-60.57360458374024,68.73213958740234,-152.15411376953125,-0.2188044488430023,3.791532039642334,-2.5484440326690674,-0.9300124645233154,-0.1963663250207901,-0.0711362436413765,-112.4697723388672,78.63607025146484,136.7288818359375,3.4177512897572355,0.9629761742301312,4.573637237704191,0.9531753684030588,-51.89616775512695,9.9039306640625,288.88299560546875
77.325,2.6253819465637207,0.7887346744537354,-2.62922739982605,-0.8930528163909912,-0.2967461943626404,0.1626269370317459,-60.62961196899414,68.69981384277344,-152.2694854736328,-0.2658223509788513,5.382060050964356,-1.814747095108032,-0.943065583705902,-0.1877252459526062,-0.0720610916614532,-112.87891387939452,78.55508422851562,136.31808471679688,3.798364052065626,0.9550126477596612,5.685994981854047,0.9642646234670028,-52.24930191040039,9.855270385742188,288.5875701904297
100.036,3.227405071258545,1.392765760421753,-2.3697502613067627,-0.900602400302887,-0.3020976185798645,0.1814959496259689,-60.67087173461914,68.67208099365234,-152.38522338867188,2.855077028274536,6.467510223388672,-0.6356021165847778,-0.9434786438941956,-0.1869607269763946,-0.0748142600059509,-113.36700439453124,78.4872817993164,135.76382446289062,4.239299029126399,0.967103114623037,7.098178877544929,0.9647297229878482,-52.69613265991211,9.815200805664062,288.1490478515625
120.426,2.6977016925811768,2.1460776329040527,-1.345255970954895,-0.9240682125091552,-0.3053988814353943,0.2044229358434677,-60.70143127441406,68.66714477539062,-152.48223876953125,5.769647121429443,9.676535606384276,-0.3311399817466736,-0.971870183944702,-0.1776002496480941,-0.0610596649348735,-114.05713653564452,78.41026306152344,134.95420837402344,3.700399607609455,0.9944643155240503,11.270928219758698,0.9898493753080484,-53.35570526123047,9.743118286132812,287.4364471435547
143.574,3.715353012084961,1.959932327270508,-0.5942309498786926,-0.920124888420105,-0.2933328747749328,0.1955335736274719,-60.687103271484375,68.68065643310547,-152.5525665283203,4.877129554748535,9.03754711151123,-0.8203639984130859,-0.9876388311386108,-0.1841932982206344,-0.0532458163797855,-114.6460189819336,78.32858276367188,134.26377868652344,4.242439528582878,0.9853463168497496,10.302264196596733,1.0060779039637968,-53.95891571044922,9.647926330566406,286.8163452148437
165.45000000000002,4.371997833251953,2.579655170440674,-0.077592596411705,-0.9302617907524108,-0.2890484631061554,0.19406558573246,-60.67352294921875,68.71348571777344,-152.63784790039062,2.69754409790039,7.3394670486450195,0.7366683483123779,-0.9844796061515808,-0.1654957979917526,-0.0655994713306427,-115.23356628417967,78.2952880859375,133.61422729492188,5.076909144682322,0.9932761272292794,7.8541199999534355,1.0004460228918692,-54.56004333496094,9.581802368164062,286.2520751953125
174.941,4.850048542022705,2.125265598297119,0.8369240760803223,-0.918726921081543,-0.2893115878105163,0.2031531482934951,-60.59466171264648,68.7525863647461,-152.66514587402344,0.977760136127472,4.9995856285095215,0.2601639330387115,-0.9825978875160216,-0.1546548753976822,-0.0763542130589485,-115.66533660888672,78.2752914428711,133.1558837890625,5.360985602704477,0.9843940024314312,5.100936836763727,0.9976205214845334,-55.07067489624024,9.522705078125,285.82102966308594
203.682,3.5287489891052246,1.7102267742156982,1.551639437675476,-0.9267743825912476,-0.2875055074691772,0.2004713863134384,-60.50908660888672,68.80287170410156,-152.65635681152344,0.9880384206771852,4.342450141906738,0.5796587467193604,-0.971329927444458,-0.1969451606273651,-0.0872349217534065,-116.02392578125,78.24092102050781,132.77359008789062,4.217170851638008,0.990837499180834,4.4910018279141655,0.9949267087665892,-55.51483917236328,9.43804931640625,285.42994689941406
223.791,4.974240779876709,1.5105373859405518,2.51944351196289,-0.9411592483520508,-0.3134753406047821,0.1937494277954101,-60.3919677734375,68.86016082763672,-152.640380859375,3.3812594413757324,4.844365119934082,2.6722936630249023,-0.9871116280555724,-0.2151213139295578,-0.0861922204494476,-116.43597412109376,78.23274230957031,132.2967071533203,5.776884120396087,1.010735554285556,6.483975805520061,1.013950513987398,-56.04400634765625,9.372581481933594,284.9370880126953
245.726,7.158215522766113,1.6332688331604004,3.496490478515625,-0.9440909028053284,-0.3105807304382324,0.1978655159473419,-60.204864501953125,68.93579864501953,-152.59707641601562,5.303342342376709,4.311914443969727,4.555549621582031,-1.0002338886260986,-0.1981338858604431,-0.0831935852766037,-116.85480499267578,78.27310180664062,131.7748260498047,8.132223694543413,1.0133700140029966,8.214078069220953,1.0230572033436944,-56.649940490722656,9.337303161621094,284.3719024658203
255.767,6.92808723449707,1.511826992034912,4.634756565093994,-0.9465864896774292,-0.2962402701377868,0.2088390290737152,-59.96255493164063,69.03323364257812,-152.49302673339844,3.556342601776123,1.1542516946792605,4.474747657775879,-1.0093764066696167,-0.175602376461029,-0.0737846121191978,-117.04031372070312,78.3541030883789,131.52622985839844,8.471421486405246,1.0136064424398648,5.831229396675149,1.0271908751276992,-57.0777587890625,9.32086944580078,284.0192565917969
277.398,5.284688949584961,0.5923542380332947,4.739323616027832,-0.9430105090141296,-0.3154089748859405,0.1967656761407852,-59.74135208129883,69.11589050292969,-152.37179565429688,-1.784925937652588,-1.1482157707214355,4.412120819091797,-0.9906325340270996,-0.1730436235666275,-0.0953069999814033,-117.1892547607422,78.44772338867188,131.42640686035156,7.1232021713987965,1.013641145996367,4.89603617034246,1.0101387713455396,-57.44790267944336,9.331832885742188,283.79820251464844
296.255,6.499250411987305,-1.353537678718567,4.538867473602295,-0.9328024983406068,-0.3074842989444732,0.1860098391771316,-59.42268371582031,69.17877960205078,-152.17092895507812,-4.301801681518555,-1.4426730871200562,4.2159953117370605,-0.9579638838768004,-0.1851999312639236,-0.1237770617008209,-117.41285705566406,78.52217102050781,131.30226135253906,8.041992172860708,0.9996333104086488,6.193659646122416,0.9835215190100188,-57.99017333984375,9.343391418457031,283.4731903076172
317.329,6.355625152587891,-4.2645463943481445,3.5774824619293213,-0.9250492453575134,-0.2994354367256164,0.1659169495105743,-59.024898529052734,69.20209503173828,-151.8791046142578,-1.573790431022644,1.2922685146331787,5.394086837768555,-0.92378968000412,-0.1966128349304199,-0.1551524698734283,-117.9418716430664,78.57218933105469,130.8079071044922,8.448592059933269,0.98636003631456,5.765669696408098,0.9571396286066708,-58.91697311401367,9.370094299316406,282.68701171875
335.72400000000005,5.950928688049316,-6.9558868408203125,2.314314603805542,-0.9271805286407472,-0.3101061284542084,0.1561988741159439,-58.57503128051758,69.17325592041016,-151.51937866210938,3.9122426509857178,5.461784839630127,6.705207824707031,-0.9284389019012452,-0.1775247454643249,-0.1565277576446533,-118.81275939941406,78.61408233642578,129.85336303710938,9.44213779172562,0.9900644584422176,9.49192015174578,0.9581308724433352,-60.23772811889648,9.440826416015623,281.37274169921875
357.377,6.486813545227051,-8.151422500610352,0.8287666440010071,-0.9338757395744324,-0.3160929381847381,0.1805613487958908,-58.07942962646485,69.09776306152344,-151.1254119873047,7.731135845184326,7.046696662902832,7.153133392333984,-0.9542587995529176,-0.1653883010149002,-0.1214885786175727,-119.68810272216795,78.66448211669922,128.81475830078125,10.450420704651394,1.0023178354269393,12.672557462650678,0.9760751105172636,-61.608673095703125,9.56671905517578,279.94017028808594
379.398,6.30841588973999,-7.8326520919799805,0.3443439602851867,-0.9251257181167604,-0.3288303017616272,0.1908963024616241,-57.619911193847656,69.00665283203125,-150.76573181152344,7.774749755859375,8.071367263793945,7.234975814819336,-0.9895873665809632,-0.1824492514133453,-0.08408173173666,-120.53388214111328,78.70880126953125,127.80154418945312,10.0630573184747,1.000214157053985,13.33936199052641,1.0097725600598242,-62.913970947265625,9.7021484375,278.56727600097656
395.483,6.084564685821533,-6.012884140014648,0.5231278538703918,-0.9374812841415404,-0.3184617161750793,0.215945765376091,-57.20479583740234,68.93817901611328,-150.45376586914062,8.04501724243164,5.969864845275879,6.751595973968506,-1.0178611278533936,-0.1828303337097168,-0.0581988170742988,-121.10779571533205,78.77346801757812,127.0605010986328,8.570318888389231,1.0133714010019794,12.080796202965718,1.0357872893737576,-63.90299987792969,9.835289001464844,277.51426696777344
417.184,2.7150046825408936,-4.074061870574951,0.9884788393974304,-0.9311957955360411,-0.3233861923217773,0.2212978154420852,-56.93073272705078,68.89347839355469,-150.22048950195312,6.883923530578613,4.1053643226623535,4.937517166137695,-1.0337735414505005,-0.1774187088012695,-0.045263584703207,-121.43111419677734,78.83245086669922,126.60201263427734,4.994629212206662,1.0102855844402698,9.413899041446497,1.0498637651314593,-64.50038146972656,9.938972473144531,276.82250213623047
439.831,0.837863028049469,-2.145601511001587,1.2465834617614746,-0.9413267374038696,-0.3201173543930053,0.2187505364418029,-56.77384567260742,68.87858581542969,-150.07208251953125,3.237769603729248,1.7556428909301758,3.1778032779693604,-1.0160534381866455,-0.1647289991378784,-0.0516255497932434,-121.5652313232422,78.88726806640625,126.4135971069336,2.6190820195102216,1.0180485962509684,4.864552152128655,1.0306141032410363,-64.79138565063477,10.008682250976562,276.48567962646484
462.434,-1.2442840337753296,-1.6502090692520142,1.0627375841140747,-0.935663640499115,-0.3233914673328399,0.2038189023733139,-56.70891952514648,68.86770629882812,-149.97427368164062,-0.638731837272644,0.4600955247879028,1.6980148553848269,-0.9993363618850708,-0.1697247922420501,-0.0836744755506515,-121.65746307373048,78.91661071777344,126.3634796142578,2.323971579352558,1.0107376683692,1.871609120778988,1.0170944337405317,-64.94854354858398,10.048904418945312,276.33775329589844
484.602,-0.4252203702926636,-1.7091727256774902,0.2844999730587005,-0.9307219386100768,-0.3216627538204193,0.2002969533205032,-56.65089797973633,68.84403228759766,-149.90086364746094,-0.376932680606842,1.8598302602767944,1.1641746759414673,-0.9751555919647216,-0.1713007390499115,-0.1050281152129173,-121.88570404052734,78.91187286376953,126.17228698730467,1.7841031372042515,1.0049025443867237,2.226286037070288,0.995642142902906,-65.23480606079102,10.067840576171877,276.0731506347656
495.471,0.427168995141983,-2.5522704124450684,-0.257143884897232,-0.9278480410575868,-0.3007845878601074,0.202846884727478,-56.53448486328125,68.81014251708984,-149.7860565185547,0.976725459098816,3.2954227924346924,1.005976915359497,-0.970312476158142,-0.1696067303419113,-0.1043514087796211,-122.19947814941406,78.88969421386719,125.86151123046876,2.6005154462516025,0.9962530874392402,3.581311709078961,0.990536198672068,-65.66499328613281,10.079551696777344,275.64756774902344
517.654,0.1652670353651046,-2.5842299461364746,-0.8234412670135498,-0.925182282924652,-0.3125894665718078,0.2235823422670364,-56.42265701293945,68.75492095947266,-149.67274475097656,3.5102059841156006,3.896262407302856,1.8084601163864136,-0.9853922724723816,-0.1558400690555572,-0.0866597145795822,-122.53085327148438,78.88804626464844,125.47622680664062,2.7172804654116542,1.0018300729280054,5.547335828128921,1.0013960075327542,-66.10819625854492,10.13312530517578,275.1489715576172
538.625,1.147799015045166,-2.573342084884644,-0.8984329104423523,-0.925791084766388,-0.3066230714321136,0.2330632954835891,-56.27804565429688,68.69902801513672,-149.54759216308594,3.332606554031372,3.2064783573150635,0.6949416399002075,-0.9883888959884644,-0.1521514654159546,-0.0853252187371254,-122.7458038330078,78.87713623046875,125.21320343017578,2.957484363330263,1.0027090007918844,4.676613495123362,1.0036648200938678,-66.46775817871094,10.178108215332031,274.7607955932617
559.948,2.154338359832764,-2.4630770683288574,-0.7086871862411499,-0.9267144799232484,-0.288754940032959,0.2228401005268097,-56.11225891113281,68.65897369384766,-149.42141723632812,1.6023261547088623,2.403346061706543,0.4438558220863342,-0.9840202927589417,-0.163081482052803,-0.0848507061600685,-122.8925552368164,78.8650894165039,125.02452850341795,3.348157693585653,0.9959100627544905,2.922418414461621,1.0010450283008223,-66.7802963256836,10.20611572265625,274.4459457397461
581.9929999999999,0.9426389336586,-3.1377875804901123,-1.0168089866638184,-0.932546615600586,-0.2919587790966034,0.2140582501888275,-55.96749114990234,68.60901641845703,-149.28948974609375,1.2765101194381714,2.333552837371826,1.021530032157898,-0.9798383116722108,-0.1536329984664917,-0.1048270314931869,-123.13401794433594,78.86151885986328,124.7486343383789,3.430478038828891,1.0003519647771923,2.8492929888719187,0.9973339068587446,-67.1665267944336,10.25250244140625,274.03812408447266
604.435,0.6762474775314331,-3.496764659881592,-1.1049762964248655,-0.9347726106643676,-0.3026356697082519,0.2145558446645736,-55.826297760009766,68.54959106445312,-149.15419006347656,2.1304821968078613,1.6795334815979004,0.4962487816810608,-0.988844633102417,-0.1502772867679596,-0.1047614365816116,-123.27696990966795,78.8586654663086,124.55563354492188,3.729027534508865,1.0056949799555372,2.75790680771551,1.0056698911314963,-67.4506721496582,10.309074401855469,273.70982360839844
614.53,2.888096570968628,-3.7783257961273193,-0.8013510704040527,-0.9384178519248962,-0.2949350774288177,0.2291724383831024,-55.5976448059082,68.49224090576172,-148.97579956054688,0.8408790826797485,2.514934539794922,0.886162519454956,-0.9797425866127014,-0.1639036983251571,-0.1051600351929664,-123.51508331298828,78.84555053710938,124.2909698486328,4.8227597040449375,1.0100172133304146,2.795935868725995,0.9989087002068792,-67.91743850708008,10.353309631347656,273.2667694091797
642.208,1.807577848434448,-4.703700065612793,-0.8900489211082458,-0.9397971630096436,-0.2807908654212951,0.2077793478965759,-55.37275695800781,68.43611145019531,-148.77572631835938,-1.2115927934646606,3.874626636505127,1.5888464450836182,-0.9847538471221924,-0.1538422852754593,-0.1128183156251907,-123.97806549072266,78.83171844482422,123.84070587158205,5.117061565719398,1.0026138215271825,4.35948640272514,1.0030630889935284,-68.60530853271484,10.395606994628906,272.6164321899414
662.907,0.3066252171993255,-5.181221961975098,-1.0603058338165283,-0.9358064532279968,-0.3027337491512298,0.2085238248109817,-55.18455123901367,68.36146545410156,-148.5797576904297,-2.872476577758789,3.049048662185669,1.5423754453659058,-0.9864807724952698,-0.133311316370964,-0.1133591532707214,-124.4328155517578,78.83544921875,123.4413070678711,5.29748322359788,1.0054171404407843,4.4639378858376535,1.001881489601279,-69.24826431274414,10.473983764648438,272.0210647583008
684.975,1.099921703338623,-5.544088840484619,-1.0421408414840698,-0.935688018798828,-0.2976719737052917,0.2077194601297378,-54.96488952636719,68.285888671875,-148.36715698242188,-4.271595478057861,3.38606858253479,0.7879326939582825,-0.9797871708869934,-0.1470947712659835,-0.1180701702833175,-124.88420867919922,78.81370544433594,123.07191467285156,5.747417364186331,1.003627444109551,5.50752451687706,0.9977776992292732,-69.91931915283203,10.527816772460938,271.43907165527344
704.511,4.405520439147949,-4.664433002471924,-0.945959210395813,-0.9267072081565856,-0.3031964600086212,0.2158507853746414,-54.710750579833984,68.2156982421875,-148.18890380859375,-5.633883476257324,1.705410718917847,0.4837860465049743,-0.9998623728752136,-0.1653042733669281,-0.1029821932315826,-125.13550567626952,78.80459594726562,122.93092346191406,6.485397782868238,0.9986520437860138,5.906193163369965,1.0186538173529849,-70.42475509643555,10.588897705078123,271.1198272705078
714.475,5.56810474395752,-4.263327598571777,0.0753162503242492,-0.9196401238441468,-0.2797366082668304,0.2274451255798339,-54.38851165771485,68.17215728759766,-147.9672088623047,-6.082859992980957,-0.3674453198909759,1.5729457139968872,-0.9936968684196472,-0.1660359501838684,-0.1004144698381424,-125.27921295166016,78.837158203125,122.90857696533205,7.013232150013924,0.9877863192708908,6.293676189358589,1.0124645518798912,-70.89070129394531,10.665000915527344,270.8757858276367
734.774,1.5156742334365845,-3.362524509429932,0.6843581199645996,-0.9138067364692688,-0.2896709442138672,0.2206431627273559,-54.18716049194336,68.1456069946289,-147.7853546142578,-6.110185146331787,-1.598316669464111,1.6506402492523191,-0.9882879853248596,-0.1651127487421035,-0.101624920964241,-125.33008575439452,78.88423156738281,122.9806671142578,3.751291177019196,0.9836846104299384,6.527908695041025,1.007126102479541,-71.14292526245117,10.738624572753906,270.7660217285156
758.327,0.5569401979446411,-2.656877040863037,1.2346577644348145,-0.9182405471801758,-0.3071039021015167,0.2017846405506134,-54.05912780761719,68.13555908203125,-147.6555633544922,-5.511107444763184,-3.7746074199676514,1.3635125160217283,-0.9794611930847168,-0.1711018234491348,-0.1105604767799377,-125.1831512451172,78.94466400146484,123.24250793457033,2.9822068656669205,0.9890376890360988,6.817560621215402,1.0004217519488283,-71.1240234375,10.809104919433594,270.8980712890625
774.693,3.0342235565185547,-2.031038761138916,1.6629555225372314,-0.9285478591918944,-0.2972688972949981,0.2015082091093063,-53.88687515258789,68.14630126953125,-147.53256225585938,-4.792948722839356,-3.625702857971192,1.823663353919983,-0.9803195595741272,-0.1643238663673401,-0.1169948503375053,-125.08768463134766,79.0114517211914,123.43833923339844,4.012113172645792,0.9955779640225444,6.280432047438978,1.000857915464037,-71.20080947875977,10.865150451660156,270.9709014892578
797.137,3.369276285171509,-1.82420551776886,1.7055771350860596,-0.924372673034668,-0.2825857996940613,0.2079075574874878,-53.6953353881836,68.1633071899414,-147.3990020751953,-3.896464347839356,-4.898036956787109,2.1487069129943848,-0.981139838695526,-0.1505555361509323,-0.1147423163056373,-124.90359497070312,79.10459899902344,123.71094512939452,4.193893396428413,0.9887088172472228,6.617412019965612,0.9992337823013996,-71.20825958251953,10.941291809082031,271.10994720458984
819.519,0.565421462059021,-1.6813374757766724,1.8003292083740234,-0.9245178699493408,-0.2870635390281677,0.2216562181711197,-53.55117034912109,68.17689514160156,-147.25779724121094,-4.657586574554443,-2.5317158699035645,2.0188896656036377,-0.9714402556419371,-0.1499511897563934,-0.1162444502115249,-124.93143463134766,79.16612243652344,123.78449249267578,2.5274062585450467,0.9931113967470948,5.672619626528164,0.9897950807091384,-71.38026428222656,10.989227294921877,271.0422897338867
835.277,0.5455554127693176,-1.66554594039917,2.3913395404815674,-0.9240307211875916,-0.2843604683876037,0.1996373683214187,-53.41674041748047,68.20802307128906,-147.12271118164062,-5.143762588500977,-0.4011805653572082,1.8354047536849976,-0.9631502628326416,-0.1644653081893921,-0.1248304098844528,-125.13455200195312,79.18907928466797,123.68982696533205,2.9648235674071146,0.9871923462580025,5.476125457176094,0.9850329424056532,-71.71781158447266,10.981056213378906,270.81253814697266
856.917,-1.359839916229248,-1.7026245594024658,2.283371925354004,-0.926314651966095,-0.2926324009895324,0.1976351141929626,-53.333038330078125,68.23411560058594,-146.99954223632812,-3.5727455615997314,0.1643240004777908,2.185964107513428,-0.9766706228256226,-0.1630264371633529,-0.1228828802704811,-125.37135314941406,79.21382904052734,123.5307159423828,3.156244974260657,0.9913385874251196,4.191652693675918,0.9977791975023008,-72.03831481933594,10.979713439941406,270.53025817871094
879.421,-0.414517343044281,-0.8763628005981445,2.7141642570495605,-0.925989270210266,-0.2970385253429413,0.1998034715652465,-53.252586364746094,68.2739486694336,-146.89999389648438,-1.7341221570968628,-0.0643175393342971,2.18025016784668,-0.9771782755851746,-0.1476125568151474,-0.1155614778399467,-125.5592803955078,79.2503890991211,123.38390350341795,2.882104092534152,0.9927786466942038,2.786540363245394,0.99499814289559,-72.30669403076172,10.9764404296875,270.28389739990234
902.113,0.7196882963180542,-0.1183679848909378,2.802912712097168,-0.9245374202728271,-0.2870132327079773,0.213992640376091,-53.15070343017578,68.3232421875,-146.8056640625,-1.0379505157470703,-0.7949604988098145,2.292785406112671,-0.9862774610519408,-0.1622810810804367,-0.0999227464199066,-125.6129379272461,79.29633331298828,123.36444091796876,2.8962530786069483,0.9914327447534446,2.6393499931405087,1.004521246518855,-72.46223449707031,10.97309112548828,270.17010498046875
924.354,-0.409179151058197,1.1348049640655518,3.087855577468872,-0.9243447780609132,-0.2925138175487518,0.2104288637638092,-53.12311553955078,68.39032745361328,-146.7654266357422,-1.4331996440887451,-0.7505255937576294,2.718813419342041,-0.9897716641426086,-0.1568247824907302,-0.1011813357472419,-125.71685028076172,79.35054779052734,123.30323791503906,3.315126234615229,0.9920977315216232,3.163747192159277,1.0072137917276995,-72.59373474121094,10.960220336914062,270.06866455078125
935.589,0.3442444205284118,2.3944478034973145,3.420395612716675,-0.9244744777679444,-0.2975409626960754,0.2026577889919281,-53.13571166992188,68.47750091552734,-146.782470703125,-0.7684282064437866,-2.254111289978028,2.036063432693481,-0.99624365568161,-0.1564474552869796,-0.0946429148316383,-125.6208038330078,79.41368865966797,123.43017578125,4.189390248261617,0.9920956929477708,3.133217821667748,1.0128842525577435,-72.48509216308594,10.936187744140623,270.212646484375
956.767,-0.5553509593009949,3.503768920898437,3.7798757553100586,-0.9279335141181946,-0.296515941619873,0.2139106392860412,-53.185035705566406,68.5803451538086,-146.82188415527344,-0.5311943292617798,-2.9412717819213867,1.7935218811035156,-0.987481951713562,-0.1597143113613128,-0.1037266179919242,-125.46240234375,79.47480010986328,123.61404418945312,5.183847226204793,0.9973665684482432,3.485680399658577,1.0056781182335064,-72.2773666381836,10.894454956054688,270.43592834472656
979.509,-0.923022985458374,3.4487764835357666,3.3810338973999023,-0.9308297634124756,-0.2965180873870849,0.2129623293876648,-53.25273895263672,68.67598724365234,-146.87301635742188,-0.7707982063293457,-1.2450029850006104,2.0422229766845703,-0.9715811610221864,-0.1612915247678756,-0.1201094016432762,-125.51020050048828,79.51173400878906,123.59436798095705,4.917054085572071,0.9998599793673314,2.512933941439638,0.9921749728642986,-72.25746154785156,10.83574676513672,270.4673843383789
1001.761,-1.1364552974700928,2.1602883338928223,2.84029221534729,-0.9388098120689392,-0.2833457291126251,0.2176819443702697,-53.26998901367188,68.7524642944336,-146.86813354492188,-1.1489336490631104,1.2611521482467651,2.4874539375305176,-0.949797749519348,-0.1414514482021331,-0.1390282660722732,-125.89884948730467,79.52652740478516,123.22077178955078,3.7450816008818393,1.0045068911401769,3.016285855537068,0.9702850797356218,-72.62886047363281,10.774063110351562,270.08890533447266
1024.538,-4.008121490478516,-0.5924333930015564,1.9049155712127688,-0.9437249898910522,-0.2739555537700653,0.2035226374864578,-53.2689208984375,68.78978729248047,-146.7808380126953,-1.5747098922729492,6.709711074829102,2.1928577423095703,-0.934179961681366,-0.1273265033960342,-0.1648426651954651,-126.83612823486328,79.46672821044922,122.29884338378906,4.4771328482666135,1.003538721702244,7.2324656259476,0.9571192943112176,-73.56720733642578,10.67694091796875,269.0796813964844
1034.6329999999998,-6.360715866088867,-3.762278079986572,0.9821574687957764,-0.9489327669143676,-0.2986292243003845,0.2062914669513702,-53.23230743408203,68.76390075683594,-146.60226440429688,-3.5259976387023926,10.529658317565918,0.7374054193496704,-0.9610371589660645,-0.1469633132219314,-0.1692200154066085,-127.984130859375,79.32769012451172,121.20793151855467,7.455070487512068,1.0159768595135203,11.128797346762418,0.9868262511511056,-74.75182342529297,10.56378936767578,267.8101959228516
1059.774,-5.231849670410156,-5.495497226715088,0.5014522075653076,-0.9390565752983092,-0.3139059543609619,0.2115702331066131,-53.12552261352539,68.69972229003906,-146.37142944335938,-4.089820384979248,13.623311042785645,0.8183028697967529,-0.966739058494568,-0.1558427810668945,-0.1443628370761871,-129.28065490722656,79.15392303466797,119.98046112060548,7.604222186330184,1.0124851422766863,14.24748588827498,0.989804025228385,-76.15513229370117,10.454200744628906,266.35189056396484
1081.596,-3.921627998352051,-5.658738136291504,0.364030510187149,-0.9345487356185912,-0.2975517809391022,0.2415749132633209,-52.94048690795898,68.6282730102539,-146.09185791015625,-2.901512622833252,14.676292419433594,1.1087418794631958,-0.9991414546966552,-0.1584930568933487,-0.1114868223667144,-130.52305603027344,78.98226928710938,118.77588653564452,6.894418152746878,1.01008754091144,15.001388043659832,1.0177588157997817,-77.58256912231445,10.353996276855469,264.8677444458008
1101.613,-4.648221492767334,-6.233264923095703,-0.4022403955459595,-0.935170352458954,-0.3063966333866119,0.2754518985748291,-52.74065017700195,68.52399444580078,-145.78515625,-1.1670790910720823,15.250995635986328,2.4145357608795166,-0.9894224405288696,-0.147156149148941,-0.1210389956831932,-131.8543701171875,78.81951904296875,117.46028900146484,7.7859714861492035,1.021908133589968,15.484990294935857,1.0076021717575077,-79.11371994018555,10.295524597167969,263.24544525146484
1125.177,-1.1136107444763184,-8.553049087524414,-1.526867151260376,-0.9403485655784608,-0.2977808713912964,0.2795451879501343,-52.4045295715332,68.37769317626953,-145.4091796875,-0.3473504781723022,14.161775588989258,2.724400520324707,-0.9781119227409364,-0.1341073215007782,-0.1393414139747619,-133.1243438720703,78.66917419433594,116.1884765625,8.759343633024868,1.0252191883973418,14.42563337891006,0.9970475097690032,-80.71981430053711,10.291481018066406,261.59765625
1135.485,-0.7611672878265381,-10.64688491821289,-2.001305341720581,-0.9443597793579102,-0.2990581691265106,0.2514182329177856,-52.03630828857422,68.20806121826172,-145.00025939941406,0.2798407673835754,14.700517654418944,3.616674900054932,-0.9870197772979736,-0.1068422421813011,-0.151328757405281,-134.51278686523438,78.52725219726562,114.77617645263672,10.8600532766891,1.021989388024026,15.141461867853456,1.0042528059754154,-82.47647857666016,10.319190979003906,259.7764358520508
1161.645,-5.1096954345703125,-12.941137313842772,-3.9731035232543945,-0.9461759328842164,-0.3349916636943817,0.2751970291137695,-51.74102783203125,67.95877075195312,-144.57435607910156,-3.4219892024993896,10.03223991394043,-0.4152393937110901,-1.0074938535690308,-0.11086405813694,-0.1310772895812988,-135.28590393066406,78.39888000488281,114.0589599609375,14.469539523298554,1.0407697706731742,10.60793436758408,1.0220156359909305,-83.54487609863281,10.440109252929688,258.63331604003906
1175.287,-4.962765216827393,-16.391950607299805,-4.957862377166748,-0.9533678293228148,-0.3403626084327698,0.3142306804656982,-51.31478118896485,67.64042663574219,-144.0148468017578,-2.823768377304077,6.50369930267334,0.3387831747531891,-0.9856305122375488,-0.1694889962673187,-0.1673125922679901,-135.79473876953125,78.29146575927734,113.59516143798828,17.829904168571233,1.0599518119956164,7.098348153461624,1.013995823482913,-84.4799575805664,10.651039123535156,257.6100082397461
1196.875,-5.174065113067627,-22.10550308227539,-5.396570205688477,-0.9390565156936646,-0.3356101512908935,0.3099592328071594,-50.713172912597656,67.24465942382812,-143.25880432128906,0.4376938641071319,8.468378067016602,0.8562706708908081,-0.9594547152519226,-0.1516204178333282,-0.1609064936637878,-136.41305541992188,78.16925048828125,112.95504760742188,23.33553484066039,1.0442873356115283,8.52280484737464,0.9845978881890188,-85.69988250732422,10.924591064453123,256.21385192871094
1219.099,-4.000593662261963,-27.282943725585938,-7.497713088989258,-0.9563022255897522,-0.3250435292720794,0.3239981830120086,-49.97292709350586,66.75515747070312,-142.37806701660156,1.1930696964263916,9.320959091186523,1.5352814197540283,-0.9770115613937378,-0.1556069105863571,-0.1816679835319519,-137.128173828125,78.03582763671875,112.19915008544922,28.57585465998909,1.0607271398359928,9.521595597269693,1.005866968321271,-87.15524673461914,11.280670166015623,254.5772171020508
1234.388,-5.288833618164063,-31.518001556396484,-10.811516761779783,-0.9513288140296936,-0.3968270421028137,0.3735775351524353,-49.264137268066406,66.1194076538086,-141.49647521972656,7.299822807312012,14.55538558959961,2.2132458686828613,-0.982617437839508,-0.125820517539978,-0.193201407790184,-138.1488494873047,77.84040069580078,111.02495574951172,33.73788786868376,1.0963842339790284,16.43304962431862,1.0093040254315924,-88.88471221923828,11.720993041992188,252.52143096923828
1257.364,2.1276025772094727,-38.63191604614258,-13.223605155944824,-0.9612415432929992,-0.3700535595417022,0.3673957288265228,-48.278621673583984,65.36882019042969,-140.48297119140625,3.775399923324585,12.244388580322266,0.3923925757408142,-0.9790720343589784,-0.1631885170936584,-0.1758991181850433,-138.82859802246094,77.64678192138672,110.2702178955078,40.887838820890096,1.0935742146931606,12.819230406715612,1.0080441658743586,-90.54997634887695,12.277961730957031,250.7531890869141
1278.9969999999998,-0.5112126469612122,-44.76010894775391,-16.189985275268555,-0.9494386315345764,-0.3943406343460083,0.3763916194438934,-47.32133483886719,64.47881317138672,-139.41909790039062,4.005511283874512,9.143927574157717,3.0813417434692383,-0.9960772395133972,-0.1796368807554245,-0.1709052473306656,-139.43853759765625,77.53377532958984,109.57579803466795,47.60088564930935,1.0948099844878372,10.447497263303488,1.0264735162532563,-92.11720275878906,13.054962158203123,248.9948959350586
1295.21,-2.453287601470948,-51.35002899169922,-18.6903133392334,-0.954129993915558,-0.416139543056488,0.452009379863739,-46.31079864501953,63.435768127441406,-138.31564331054688,3.55246639251709,7.565356254577637,1.097647786140442,-0.9926115870475768,-0.1583634465932846,-0.1771168857812881,-139.86553955078125,77.42325592041016,109.07180786132812,54.7007487172032,1.1348341923247498,8.429677537786327,1.0206503491337644,-93.55474090576172,13.98748779296875,247.387451171875
1317.067,-4.817255973815918,-58.58965301513672,-22.00428009033203,-0.9426702260971068,-0.4112403094768524,0.471417635679245,-45.31171798706055,62.239051818847656,-137.1486358642578,2.899495840072632,10.831343650817873,-2.4624907970428467,-0.982195258140564,-0.187088742852211,-0.1559727042913437,-140.146240234375,77.21458435058594,108.72388458251952,62.77054833156364,1.1313621588766338,11.479936512639425,1.0119472354326509,-94.83452224731444,14.97553253173828,245.8725204467773
1338.969,-0.64920574426651,-64.07085418701172,-25.70867156982422,-0.9412586092948914,-0.4568997919559479,0.5051435828208923,-44.297813415527344,60.89229583740234,-136.04376220703125,2.1837143898010254,9.527997016906738,-3.027207374572754,-1.03275728225708,-0.1481611877679824,-0.136704683303833,-140.36631774902344,77.04834747314453,108.45930480957033,69.03934833293833,1.1618499166098302,10.233050384859611,1.052248788097687,-96.0685043334961,16.156051635742188,244.5030670166016
1361.59,8.541951179504395,-70.24319458007812,-29.355085372924805,-0.9371048212051392,-0.442126989364624,0.5432862639427185,-43.12015914916992,59.40167999267578,-134.9007110595703,-1.09200119972229,3.098203420639038,-4.114808082580566,-1.0107418298721311,-0.1525478661060333,-0.1411920487880706,-140.2194061279297,76.96295928955078,108.63966369628906,76.6080436509082,1.1699579843906274,5.265261305227378,1.0318939348342646,-97.09924697875977,17.561279296875,243.54037475585932
1385.9,9.408392906188965,-78.1255874633789,-31.50790405273437,-0.920428454875946,-0.41054767370224,0.5500437021255493,-41.899173736572266,57.7710075378418,-133.68576049804688,-1.5415667295455933,2.4613747596740723,-4.431020736694336,-1.001012086868286,-0.160544604063034,-0.1369632184505462,-140.0075225830078,76.88185119628906,108.8993911743164,84.76363189111005,1.148166367376968,5.297993814475221,1.023014511704741,-98.10834884643556,19.110843658447266,242.58515167236328
1394.434,4.512699604034424,-85.51904296875,-35.273712158203125,-0.9374857544898988,-0.4449508190155029,0.563575029373169,-40.854278564453125,55.97710037231445,-132.53700256347656,-0.1695356369018554,1.6642305850982666,-5.223296165466309,-0.9765836596488952,-0.1720914542675018,-0.1836884766817093,-139.73031616210938,76.77621459960938,109.2094268798828,92.61806485468657,1.18088000446575,5.48463568568882,1.008500158349407,-98.87603759765624,20.79911422729492,241.74642944335932
1417.637,8.558284759521484,-95.05896759033205,-37.76248550415039,-0.9329561591148376,-0.4770911633968353,0.609542727470398,-39.7259407043457,53.9908447265625,-131.34683227539062,1.045109748840332,3.1121702194213867,-8.10428237915039,-0.9828831553459167,-0.2080543637275695,-0.173211932182312,-139.250244140625,76.60444641113281,109.69690704345705,102.64237365150916,1.212256371248965,8.743983688387232,1.0194843249305794,-99.5243034362793,22.613601684570312,241.04373931884768
1437.4150000000002,15.81557559967041,-104.4957046508789,-39.46308135986328,-0.9211691617965698,-0.430732250213623,0.6310686469078064,-38.42716217041016,51.84479141235352,-130.13885498046875,9.319171905517578,0.5372036099433899,-5.783852577209473,-0.9775805473327636,-0.1683688908815384,-0.1886054277420044,-138.72198486328125,76.51012420654297,110.07095336914062,112.81320628564632,1.1968001224637037,10.981279677615763,1.0097444316825173,-100.2948226928711,24.665332794189453,240.20980834960932
1459.042,15.4693603515625,-113.0317153930664,-43.59074783325195,-0.9336806535720824,-0.456754982471466,0.6376891136169434,-37.24343490600586,49.51645278930664,-129.02110290527344,10.437989234924316,1.291337251663208,-5.947896480560303,-0.9631174206733704,-0.1555782556533813,-0.169529527425766,-138.20680236816406,76.4128189086914,110.41008758544922,122.129534065466,1.2194392492013957,12.082907088502775,0.990222207540246,-100.9633674621582,26.89636611938477,239.43119049072263
1479.088,19.866613388061523,-123.14930725097656,-46.08807373046875,-0.9295783638954164,-0.4751259684562683,0.6671159267425537,-36.01652526855469,46.99249267578125,-127.9166488647461,3.226637840270996,7.115070343017578,-5.272539615631104,-0.9396538138389589,-0.1541402041912078,-0.2036102712154388,-138.26071166992188,76.2213363647461,110.30947875976562,132.9832498628728,1.2389125393818412,9.425236959183378,0.973737970377366,-102.2441864013672,29.228843688964844,238.2261276245117
1501.544,22.728736877441406,-132.98934936523438,-47.68155670166016,-0.8998203277587891,-0.4364410638809204,0.6955492496490479,-34.75101852416992,44.29071807861328,-126.80459594726562,5.549938201904297,9.190214157104492,-4.691442012786865,-0.973320484161377,-0.1913350522518158,-0.1948941648006439,-138.3297119140625,76.00337219238281,110.13331604003906,143.09539955612118,1.2181732976784534,11.71629115623806,1.0109132517588653,-103.57869338989258,31.71265411376953,236.9379119873047
1524.934,20.613731384277344,-140.2194366455078,-49.98968505859375,-0.8622491359710693,-0.4678380489349365,0.7519524097442627,-33.62209701538086,41.42208480834961,-125.76934814453124,9.887840270996094,12.89264965057373,-7.123169898986816,-1.0055150985717771,-0.2181961387395858,-0.1732593923807144,-138.28280639648438,75.70389556884766,109.98015594482422,150.28434697939807,1.2360333486740185,17.740613000880295,1.0434025998936414,-104.66070938110352,34.28181076049805,235.74950408935547
1535.104,22.11454200744629,-145.9123992919922,-50.8720817565918,-0.8126904964447021,-0.4768314957618713,0.7489659190177917,-32.553977966308594,38.446067810058594,-124.80023956298828,14.207464218139648,16.221324920654297,-8.469565391540527,-1.0051629543304443,-0.1936531960964203,-0.1764910519123077,-138.2847137451172,75.34732055664062,109.70262908935548,156.1007685362062,1.2036544629636057,23.16715260045437,1.0387507961593958,-105.7307357788086,36.90125274658203,234.5028686523437
1557.155,23.53241920471192,-150.2964324951172,-52.53751373291016,-0.785636842250824,-0.4741479456424713,0.7598447799682617,-31.553470611572266,35.38322830200195,-123.91957092285156,17.79814338684082,12.42978858947754,-9.340728759765623,-1.0118510723114014,-0.1681826412677765,-0.164373904466629,-137.9958953857422,75.05410766601562,109.65235900878906,160.944035998919,1.191388102972259,23.63308625975804,1.0388198947994511,-106.44242477416992,39.67087936401367,233.57192993164065
1583.91,25.30284118652344,-156.02752685546875,-54.35350036621094,-0.7557634711265564,-0.4514403045177459,0.8081322908401489,-30.575380325317383,32.202919006347656,-123.09327697753906,14.91696548461914,2.6604273319244385,-11.115169525146484,-1.0187386274337769,-0.1758433729410171,-0.1249943971633911,-137.1254425048828,74.89783477783203,110.26872253417967,167.15001020282392,1.1950123732961444,18.79203891094616,1.041332263091454,-106.55006217956544,42.694915771484375,233.36199951171875
1603.77,21.318679809570312,-162.50250244140625,-56.80972290039063,-0.7468278408050537,-0.4432603418827057,0.8172429800033569,-29.750228881835938,28.90326499938965,-122.33135986328124,5.348243713378906,-6.609311103820801,-9.932729721069336,-0.9992249608039856,-0.1601448506116867,-0.1475951820611953,-136.11778259277344,74.8863525390625,111.23954010009766,173.46150588692984,1.1925257409600345,13.074625187614368,1.0226833494483245,-106.3675537109375,45.98308753967285,233.5708999633789
1614.974,18.394262313842773,-168.06698608398438,-58.775535583496094,-0.711322546005249,-0.471998393535614,0.8430213332176208,-29.05749893188477,25.476173400878903,-121.62718200683594,0.6312475204467773,-28.872074127197266,-13.00328254699707,-1.036638259887695,-0.1373598426580429,-0.1740384697914123,-133.95323181152344,75.14253997802734,113.51588439941406,178.99559849491123,1.19976965131462,31.67144604901208,1.0600830142990536,-104.89573287963869,49.66636657714844,235.14306640625
1634.67,21.60702133178711,-171.9029998779297,-59.38654708862305,-0.6239868998527527,-0.4468567669391632,0.7848955392837524,-28.358163833618164,21.89184761047364,-120.96141052246094,-14.665245056152344,-48.3203239440918,-21.064746856689453,-1.0519970655441284,-0.1767557710409164,-0.1227553114295005,-130.3846435546875,75.51251983642578,117.55522918701172,183.1509396999454,1.0977712097403098,54.7142273888189,1.0737827038064451,-102.02647972106934,53.62067222595215,238.51663970947263
1657.0739999999998,22.570777893066406,-172.95046997070312,-59.09510803222656,-0.5352673530578613,-0.4299021959304809,0.8579949140548706,-27.68648910522461,18.34772109985352,-120.3407974243164,-23.007383346557617,-63.04264068603516,-19.59792137145996,-1.075588941574097,-0.2057336121797561,-0.1249781548976898,-125.9407196044922,76.00328826904297,122.66802978515624,184.1562838219911,1.0988549994696497,69.91275102015311,1.1021966383629769,-98.25423049926758,57.65556716918945,243.00882720947263
1674.027,14.84955883026123,-174.83343505859375,-57.370391845703125,-0.4484456777572632,-0.4082354605197906,0.8244533538818359,-27.210248947143555,14.783945083618164,-119.72207641601562,-23.159894943237305,-62.490684509277344,-16.98117446899414,-1.0452438592910769,-0.2234541028738021,-0.0851835384964943,-121.29499053955078,76.42616271972656,127.96370697021484,184.60390373004148,1.0234661938002567,68.77373532509516,1.0722512283544483,-94.08474159240724,61.6422176361084,247.68578338623047
1697.234,5.549090385437012,-174.6663818359375,-56.68540191650391,-0.3661843538284302,-0.4305420517921448,0.852634072303772,-26.96311378479004,11.23622703552246,-119.1264190673828,-25.45337677001953,-59.913124084472656,-21.225236892700195,-1.0345828533172607,-0.2114759981632232,-0.0896364599466323,-116.52933502197266,76.64470672607422,133.41653442382812,183.7181867377284,1.0229576240506977,68.46873379659674,1.0597728403431466,-89.56622123718262,65.40847969055176,252.5429534912109
1718.8349999999998,12.65480136871338,-172.56710815429688,-53.52759552001953,-0.309451162815094,-0.4371040165424347,0.7818320393562317,-26.634239196777344,7.728110313415527,-118.52180480957033,-25.51900291442871,-56.86241149902344,-29.368696212768555,-0.9886701107025146,-0.2326976805925369,-0.0010996453929692,-111.46144104003906,76.5812759399414,139.16793823242188,181.12082789279972,0.9476715049050842,68.8990106494192,1.0156859788190735,-84.82720184326172,68.85316562652588,257.6897430419922
1733.861,6.4172844886779785,-172.62428283691406,-51.476806640625,-0.2399929761886596,-0.3627364337444305,0.7931661009788513,-26.42980194091797,4.229723930358887,-117.89862060546876,-27.943572998046875,-53.97414779663086,-27.13467025756836,-0.9401894211769104,-0.2596147060394287,-0.0687140598893165,-107.0007095336914,76.39903259277344,144.3369903564453,180.2503430983804,0.9045920697903068,66.5608160425989,0.977792189226006,-80.57090759277344,72.16930866241455,262.23561096191406
1756.746,-6.474922180175781,-169.4221954345703,-50.11556243896485,-0.1477044373750686,-0.3867349028587341,0.8259671926498413,-26.519512176513672,0.8155332803726196,-117.2858428955078,-19.18360710144043,-59.85384368896485,-29.976930618286133,-0.994629442691803,-0.2495837360620498,-0.0034830626100301,-101.91181182861328,76.11507415771484,149.9728546142578,176.79755236338215,0.9239059958909782,69.63554950640523,1.0254715507030134,-75.39229965209961,75.29954087734222,267.2586975097656
1779.598,-5.06989336013794,-165.14968872070312,-47.78751373291016,-0.0936242043972015,-0.4242724776268005,0.7929982542991638,-26.645692825317383,-2.4984850883483887,-116.6623306274414,-22.57339096069336,-58.90052795410156,-32.538665771484375,-1.0093249082565308,-0.2266127467155456,-0.0017243917100131,-97.24390411376952,75.68177032470703,155.2383270263672,171.9993313126577,0.9042227923703948,70.97601667411733,1.034453034665077,-70.59821128845215,78.18025541305542,271.9006576538086
1801.285,0.0563697218894958,-161.90020751953125,-45.323486328125,-0.0611418075859546,-0.3886934518814087,0.8102008104324341,-26.68066596984864,-5.719641208648682,-116.01988220214844,-16.830718994140625,-51.29597091674805,-29.632709503173828,-0.9539605975151062,-0.2556142210960388,0.0089184204116463,-93.37532043457033,75.17987060546875,159.5660858154297,168.12465252112364,0.9006921079901477,61.58447212285802,0.9876532741101768,-66.69465446472168,80.89951181411743,275.5859680175781
1822.756,-10.02772331237793,-160.76025390625,-44.00674057006836,-0.0396791212260723,-0.3597249686717987,0.8087561726570129,-26.95670890808105,-8.949551582336426,-115.35265350341795,-15.301680564880373,-43.72297286987305,-23.329694747924805,-0.9432897567749025,-0.3142941892147064,0.0045568663626909,-90.35045623779295,74.70598602294922,163.00120544433594,166.97606920284375,0.8860378279498117,51.86631316876728,0.994282237416334,-63.39374732971192,83.65553760528564,278.3538589477539
1833.848,-13.40226936340332,-158.7447052001953,-42.99608612060547,-0.0050987186841666,-0.4269489347934723,0.8100155591964722,-27.35224151611328,-12.165359497070312,-114.65763854980467,-1.1980812549591064,-47.78907775878906,-34.665184020996094,-0.9888009428977966,-0.2329215854406356,-0.0120213096961379,-87.06124114990234,74.01158142089844,166.42718505859375,165.00959267532497,0.9156618349553914,59.05003247195208,1.0159351758486177,-59.70899963378906,86.17694091796875,281.08482360839844
1856.975,-1.894110918045044,-156.09136962890625,-41.438255310058594,0.0420650094747543,-0.3729284405708313,0.7595292329788208,-27.562231063842773,-15.316088676452637,-113.9336166381836,-12.60703468322754,-37.821998596191406,-29.70365524291992,-0.947087824344635,-0.209250122308731,-0.0034023993648588,-84.91854095458984,73.402099609375,168.91331481933594,161.50923296189384,0.8471893191950067,49.71667764548081,0.9699342952125732,-57.35630989074707,88.71818828582764,282.8469314575196
1878.814,-5.50778865814209,-153.52256774902344,-42.26068878173828,0.1293769776821136,-0.362802118062973,0.7562704086303711,-27.865907669067383,-18.374181747436523,-113.2286605834961,-4.194538116455078,-31.62042236328125,-18.74857711791992,-0.945445477962494,-0.2567112445831299,-0.0007600300014019,-83.10990905761719,72.9791030883789,170.85842895507812,159.32821583279966,0.8487100271559692,36.999383837967926,0.979677698297124,-55.244001388549805,91.35328483581544,284.0870895385742
1901.373,-5.972299575805664,-149.19000244140625,-41.9274787902832,0.1815685331821441,-0.39368936419487,0.7830190658569336,-28.2106990814209,-21.32177352905273,-112.53048706054688,1.2704582214355469,-30.30183982849121,-16.644433975219727,-1.015150785446167,-0.272225558757782,0.0078659486025571,-81.346923828125,72.58831787109375,172.6451416015625,155.08461776849313,0.8950292203149243,34.595559591360825,1.05104697572486,-53.1362247467041,93.91009140014648,285.1756286621094
1923.71,-0.2004390358924865,-146.22987365722656,-41.47476959228516,0.2029642611742019,-0.3874968886375427,0.7006377577781677,-28.49762344360352,-24.20492935180664,-111.81373596191406,-2.217930793762207,-27.53397750854492,-24.472824096679688,-0.959643006324768,-0.2093539237976074,0.0210775565356016,-79.96559143066406,72.0680160522461,174.1122589111328,151.9979362963481,0.8259791750656819,36.90471858331943,0.9824398344870818,-51.46796798706055,96.27294540405272,285.9259948730469
1933.509,4.492218017578125,-143.6385955810547,-40.6273078918457,0.2632071375846863,-0.3371059596538543,0.7066526412963867,-28.69289207458496,-27.046669006347656,-111.0955581665039,-3.301957607269287,-16.12253761291504,-21.32228660583496,-0.9112209677696228,-0.2112150490283966,0.0366073660552501,-79.30467224121094,71.63907623291016,174.85247802734375,149.34123445905377,0.8260002304847317,26.93471828739689,0.93609590763371,-50.61178016662598,98.6857452392578,285.94803619384766
1957.166,0.9126120209693908,-139.27069091796875,-40.01510620117188,0.3278796076774597,-0.3761654198169708,0.6565979719161987,-29.03367042541504,-29.823530197143555,-110.3603744506836,-12.501994132995604,-10.620978355407717,-20.2985897064209,-0.9598138928413392,-0.3425109088420868,0.0204519126564264,-79.23651123046875,71.19004821777344,175.17051696777344,144.9081327385053,0.8246977367019193,26.098616488180216,1.0193010901094848,-50.20284080505371,101.013578414917,285.53089141845703
1980.877,-0.9359811544418336,-136.70849609375,-38.3875732421875,0.3567110896110534,-0.3564491868019104,0.6886799335479736,-29.43557548522949,-32.52149963378906,-109.59396362304688,-0.7061725854873657,-0.5838324427604675,-20.94327163696289,-0.9426003098487854,-0.2855549454689026,0.019997201859951,-79.50012969970703,70.79794311523438,174.88182067871094,141.99892515213148,0.8535683189381443,20.963305247534983,0.9851075368156524,-50.06455421447754,103.31944274902344,284.4757843017578
2000.947,6.221649169921875,-133.05966186523438,-39.340110778808594,0.411628395318985,-0.4375092685222626,0.6446081399917603,-29.784093856811523,-35.16619873046875,-108.8076171875,-0.07249017059803,7.512160301208496,-15.153878211975098,-0.9424914121627808,-0.256481796503067,0.038152802735567,-80.09076690673828,70.56558227539062,174.2266387939453,138.89286104826635,0.8811197137843442,16.913835522413592,0.9775114374239376,-50.30667304992676,105.73178100585938,283.0342559814453
2023.354,15.85947608947754,-132.67648315429688,-39.39244842529297,0.4178256094455719,-0.3273576498031616,0.620863139629364,-29.91556739807129,-37.8054084777832,-108.0300521850586,-5.084738731384277,22.3842830657959,-20.84015655517578,-0.9006404876708984,-0.2733319401741028,0.0505223982036113,-81.61031341552734,70.25016021728516,172.6871337890625,139.30662998208126,0.8168306488762797,31.003593688157387,0.9425583007282134,-51.694746017456055,108.05556869506836,280.7171859741211
2043.41,6.046352863311768,-130.18154907226562,-39.664329528808594,0.5227906703948975,-0.3213568031787872,0.5721847414970398,-30.289411544799805,-40.45103454589844,-107.23971557617188,-10.589398384094238,18.77018165588379,-7.162876129150391,-0.9194822311401368,-0.2833672761917114,-0.0219333600252866,-83.01349639892578,70.18917083740234,171.39666748046875,136.22427514496928,0.8390325729095804,22.710391277419383,0.9624061818591734,-52.72408485412598,110.64020538330078,278.6363830566406
2053.417,5.548751354217529,-124.15203857421876,-40.63819885253906,0.5788774490356445,-0.3961295187473297,0.5515679717063904,-30.731369018554688,-42.992408752441406,-106.45490264892578,-5.9023518562316895,16.235746383666992,-9.95099639892578,-0.9344151616096495,-0.3097857236862182,0.0334584899246692,-84.08739471435547,70.04313659667969,170.3380584716797,130.7515985741809,0.8923255706508179,19.936387521337743,0.9849966291281512,-53.35602569580078,113.0355453491211,276.79296112060547
2073.349,13.677482604980469,-122.8140106201172,-40.37948989868164,0.6058924794197083,-0.3592987060546875,0.5715113878250122,-31.02393341064453,-45.49332809448242,-105.65546417236328,-1.4314303398132324,29.352033615112305,-0.4340581893920898,-0.9429917335510254,-0.3627424538135528,0.0115686478093266,-85.76677703857422,70.07609558105469,168.57281494140625,130.0032997253744,0.9070978575675316,29.39012209352317,1.0104203733874242,-54.74284362792969,115.56942367553712,274.2282791137696
2096.6800000000003,11.77729320526123,-119.70460510253906,-39.67723083496094,0.6400262117385864,-0.3396648168563843,0.4624504148960113,-31.43558883666992,-47.96824645996094,-104.80098724365234,7.890896797180176,37.88755035400391,8.330066680908203,-0.9289700388908386,-0.3593244254589081,0.0163563396781682,-87.68740844726562,70.27425384521484,166.34788513183594,126.65772682599466,0.8595732230357225,39.58690105324369,0.9961761419226464,-56.2518196105957,118.24250030517578,271.1488723754883
2113.431,8.64805793762207,-117.81901550292967,-39.91794967651367,0.6766915321350098,-0.3422403633594513,0.4918637275695801,-31.94025421142578,-50.38854217529297,-103.92570495605467,7.589612007141113,37.116432189941406,11.131235122680664,-0.9309298396110536,-0.3369850814342499,-0.0067111500538885,-89.62861633300781,70.51318359375,164.1199493408203,124.69784291056816,0.9038638296083532,39.4858980432997,0.990067851676114,-57.68836212158203,120.90172576904295,268.045654296875
2137.0710000000004,13.572876930236816,-114.45660400390624,-38.05888366699219,0.7053791284561157,-0.3644385933876037,0.4528741538524627,-32.463401794433594,-52.72433471679688,-102.94762420654295,13.316864013671877,49.01599884033203,12.506436347961426,-0.9392751455307008,-0.3470759391784668,-0.0242011472582817,-92.19335174560548,70.74039459228516,161.11776733398438,121.379635088626,0.914040591242768,52.309826606476825,1.001641254190816,-59.72994995117188,123.46472930908205,264.06539154052734
2158.524,13.827665328979492,-113.77084350585938,-38.61539840698242,0.7300919890403748,-0.3044543862342834,0.4373207092285156,-33.00401306152344,-55.05801010131836,-101.9486083984375,16.467039108276367,52.1168212890625,19.17458915710449,-0.9820595979690552,-0.3527182638645172,-0.0707148686051368,-95.0186004638672,71.05155181884766,157.78515625,120.9386545096934,0.9038673511519026,57.9222867954411,1.0458737114339298,-62.01458740234375,126.10956192016602,259.7337646484375
2173.292,11.953819274902344,-111.10257720947266,-37.41220474243164,0.7516019940376282,-0.3091510236263275,0.3967013657093048,-33.70192337036133,-57.32881927490234,-100.84123229980467,21.58661651611328,60.95830154418945,23.61312294006348,-0.937224805355072,-0.3183941841125488,-0.0770154073834419,-98.37476348876952,71.37751007080078,153.80538940429688,117.84035608200396,0.9043516386927004,68.84385313699849,0.9928225245349672,-64.6728401184082,128.70632934570312,254.6466217041016
2196.775,13.887826919555664,-108.12454223632812,-36.470924377441406,0.7851277589797974,-0.2917072772979736,0.3131165206432342,-34.47901153564453,-59.5527572631836,-99.62773895263672,17.848682403564453,75.70048522949219,29.14952278137207,-0.9434040784835817,-0.3098471760749817,-0.1146111041307449,-102.8915557861328,71.6684341430664,148.68991088867188,114.95180161836564,0.8941815749885258,83.05921746504481,0.9995760266288728,-68.41254425048828,131.22119140625,248.3176498413086
2218.385,13.967193603515623,-104.7496337890625,-35.96480941772461,0.8165634274482727,-0.285866916179657,0.3031129539012909,-35.35972595214844,-61.71063995361328,-98.32212829589844,16.301225662231445,83.64900207519531,25.98011779785156,-0.9674586057662964,-0.3089026510715484,-0.123830460011959,-107.92185974121094,71.72012329101562,143.0703582763672,111.62900963707438,0.9167187069297232,89.09462400760927,1.0230987169071566,-72.5621337890625,133.4307632446289,241.3924865722656
2242.326,12.434165000915527,-99.73373413085938,-34.209266662597656,0.8495047092437744,-0.2811725735664367,0.2477173060178756,-36.41555404663086,-63.77007293701172,-96.8853988647461,11.83098316192627,96.54443359375,21.29616928100586,-0.9557778835296632,-0.3018691539764404,-0.1121435165405273,-113.55457305908205,71.43365478515625,136.8962860107422,106.16826318890053,0.9284827035836892,99.57071179097316,1.0085695400263532,-77.13901901245117,135.20372772216797,233.78168487548828
2263.288,13.785176277160645,-93.04925537109376,-34.008140563964844,0.885804295539856,-0.2795983552932739,0.1910421401262283,-37.487892150878906,-65.71469116210938,-95.42577362060548,10.71369171142578,93.314208984375,22.419509887695312,-0.9401519298553468,-0.2838601171970367,-0.1566091626882553,-118.8748016357422,71.00469207763672,131.06448364257812,100.0237403556066,0.9483256769610184,96.5658283870208,0.9944790833314516,-81.38690948486328,136.7193832397461,226.4902572631836
2273.2160000000003,17.724380493164062,-84.53531646728516,-33.5491828918457,0.9120293259620668,-0.2501271367073059,0.1461368352174759,-38.40092468261719,-67.50782775878906,-94.06487274169922,6.0171613693237305,78.15335845947266,19.103647232055664,-0.9032142758369446,-0.2669746875762939,-0.1709556877613067,-123.16988372802734,70.52525329589844,126.41574096679688,92.66024534179164,0.95693105840473,80.67901218412466,0.957234223719596,-84.76895904541016,138.0330810546875,220.4806137084961
2296.643,12.533465385437012,-74.87789154052734,-31.47704315185547,0.9489454627037048,-0.1943691819906234,0.1148354709148407,-39.30356597900391,-69.09323120117188,-92.8324966430664,2.916889190673828,53.65665435791016,14.430397987365724,-0.9328081011772156,-0.3037399649620056,-0.2144403159618377,-126.04466247558594,70.13092041015625,123.32017517089844,82.18631663304237,0.975430189954097,55.63974465711249,1.004178056445557,-86.74109649658203,139.22415161132812,216.15267181396484
2318.089,5.773519515991211,-62.5892333984375,-28.21129608154297,0.958518922328949,-0.2302755713462829,0.0851179435849189,-40.26454162597656,-70.45249938964844,-91.70049285888672,-0.5791513919830322,39.687644958496094,12.830827713012695,-0.8558807373046875,-0.3113143742084503,-0.2119192332029342,-128.18202209472656,69.8174819946289,121.10916137695312,68.89573928485054,0.989459664433893,41.71420283893114,0.9350712472744171,-87.91748046875,140.26998138427734,212.80965423583984
2340.716,11.87442111968994,-51.52024841308594,-24.182758331298828,0.935550332069397,-0.2328458130359649,0.0449151024222373,-40.90610504150391,-71.55143737792969,-90.77513885498048,5.329126834869385,21.051380157470703,10.304315567016602,-0.8593706488609314,-0.3107229173183441,-0.1892261207103729,-129.22607421875,69.68611145019531,119.93855285644533,58.139003035688745,0.9651367586560666,24.03620433140676,0.9332058552267968,-88.3199691772461,141.237548828125,210.71369171142572
2364.33,9.946619033813477,-41.67891693115234,-17.201751708984375,0.9585340023040771,-0.2068290114402771,0.0250158663839101,-41.59989929199219,-72.40668487548828,-89.84036254882812,8.878661155700684,4.119229793548584,10.597382545471191,-0.8911912441253662,-0.314837098121643,-0.1874451637268066,-129.48939514160156,69.78018951416016,119.5265655517578,46.17323476447437,0.9809135879971144,14.425782295073777,0.9635766297310996,-87.88949584960938,142.18687438964844,209.366928100586
2374.384,3.064025402069092,-31.301815032958984,-13.369732856750488,0.9716714024543762,-0.1332288682460785,0.0497067347168922,-42.27222442626953,-73.08544158935547,-89.07826232910156,9.695602416992188,-6.974078178405762,5.399160861968994,-0.905246376991272,-0.3182022869586944,-0.1896854490041732,-129.09506225585938,69.93390655517578,119.80778503417967,34.175161048383885,0.9820213873220892,13.10699853819775,0.978112604992637,-86.82283782958984,143.01934814453125,208.88604736328125
2397.981,-8.640679359436035,-18.65499496459961,-8.388923645019531,0.9656964540481568,-0.1641872525215149,0.0345898829400539,-42.934356689453125,-73.50363159179688,-88.57481384277344,7.835641860961914,-15.59160041809082,4.188648700714111,-0.8698862195014954,-0.2810516953468323,-0.195370465517044,-128.37046813964844,70.18047332763672,120.49005126953124,22.20459900209388,0.9801650653096926,17.945474775236864,0.934805706621584,-85.43611145019531,143.6841049194336,209.0648651123047
2420.645,-11.23904800415039,-6.662716865539551,-3.514777660369873,0.9389431476593018,-0.1741245239973068,0.0077688368037343,-43.29335021972656,-73.64930725097656,-88.43563079833984,10.1060152053833,-17.721805572509766,4.222146511077881,-0.8885316252708435,-0.2733193635940552,-0.1812505275011062,-127.48779296875,70.46083068847656,121.2715835571289,13.530028014449089,0.9549837376724952,20.83315763974064,0.9471238975663824,-84.19444274902344,144.11013793945312,209.70721435546875
2440.67,-8.261021614074707,4.075833320617676,0.611906111240387,0.9352412223815918,-0.1518901735544204,0.0347548127174377,-43.36043548583984,-73.6102066040039,-88.54273986816406,11.045989990234377,-17.78591537475586,4.719799041748047,-0.8682327270507812,-0.2681682407855987,-0.1600157767534256,-126.56005096435548,70.74883270263672,122.08000946044922,9.232081263433512,0.9481321985204544,21.46227349506153,0.9226848446236025,-83.19961547851562,144.35903930664062,210.62274932861328
2464.358,-8.556686401367188,14.232303619384766,5.042956829071045,0.9277281761169434,-0.1397767812013626,0.0571930781006813,-43.25518798828125,-73.41387939453125,-88.84115600585938,9.352516174316406,-19.73660469055176,3.286871194839477,-0.8922417163848877,-0.2517724633216858,-0.1554424613714218,-125.52264404296876,71.04342651367188,123.03937530517578,17.35530933361803,0.9399405116851356,22.086345233048974,0.9400250063385154,-82.2674560546875,144.45730590820312,211.8805313110352
2474.437,-8.531782150268555,24.06995010375977,9.449869155883787,0.9037402868270874,-0.1373504698276519,0.0703580230474472,-42.908241271972656,-73.00857543945312,-89.38945007324219,7.943713188171387,-25.334102630615234,0.0528184249997139,-0.8623881340026855,-0.2440202981233596,-0.1578748673200607,-124.12747955322266,71.33683013916016,124.4001693725586,27.22964986408106,0.9168216342360864,26.55036958500753,0.9100459731772752,-81.21923828125,144.34540557861328,213.7896194458008
2500.807,-9.838418006896973,33.87297058105469,14.214548110961914,0.8891032338142395,-0.1317466795444488,0.0652564391493797,-42.35704803466797,-72.36504364013672,-90.1745834350586,6.69985294342041,-36.58446502685547,0.9831607341766356,-0.8362575173377991,-0.2413159608840942,-0.1513388752937317,-122.18236541748048,71.75162506103516,126.37198638916016,38.02927796924735,0.9011770918084762,37.20588281164548,0.8834384435016198,-79.8253173828125,144.11666870117188,216.54656982421875
2514.444,-13.925082206726074,43.94866943359375,19.3159122467041,0.8851209282875061,-0.1197374984622001,0.0985044240951538,-41.758819580078125,-71.53372955322266,-91.09757995605467,2.847480058670044,-43.945560455322266,4.579087257385254,-0.8320689797401428,-0.2492608428001403,-0.1559356451034546,-119.96707153320312,72.27085876464844,128.6802215576172,49.98497699679125,0.8985984908716683,44.27514501983766,0.8824883456528302,-78.208251953125,143.8045883178711,219.77780151367188
2534.601,-16.609939575195312,55.15684509277344,24.836576461791992,0.8718744516372681,-0.1442931443452835,0.1164963394403457,-41.11612319946289,-70.44721984863281,-92.1312484741211,-3.2490062713623047,-51.8910026550293,7.250187397003174,-0.8363488912582397,-0.2246686816215515,-0.1677057594060897,-117.4427490234375,72.88936614990234,131.4478759765625,62.72976314017362,0.8913792503899987,52.49568949530307,0.8820888312117019,-76.32662582397461,143.33658599853516,223.5791244506836
2555.822,-13.279666900634766,66.79609680175781,29.67068672180176,0.8687270283699036,-0.1576797515153885,0.1172968000173568,-40.30558776855469,-69.11074829101562,-93.28168487548828,-4.192929267883301,-60.69926452636719,10.59587860107422,-0.8535777926445007,-0.2121324241161346,-0.1401898711919784,-114.28691864013672,73.61544036865234,134.88912963867188,74.28605354630785,0.8906784454294769,61.75964712671271,0.8906449424108742,-73.98133087158203,142.72618865966797,228.17081451416016
2573.944,-13.876501083374023,77.72950744628906,35.12459182739258,0.8622910976409912,-0.1719533503055572,0.1395065486431121,-39.49131774902344,-67.528564453125,-94.46028900146484,-3.4199700355529785,-64.39924621582031,6.578232765197754,-0.9987696409225464,-0.2307382971048355,-0.1397602558135986,-110.48674011230467,74.24114990234375,138.97854614257812,86.41857763930462,0.8902673580821236,64.8246269138747,1.0345597549124332,-70.99542236328125,141.76971435546875,233.43883514404297
2597.439,-14.577459335327148,87.72584533691406,40.69521331787109,0.8542550802230835,-0.1689817160367965,0.1360776573419571,-38.70375061035156,-65.6791763305664,-95.63389587402344,-11.600985527038574,-55.32914352416992,0.2885887622833252,-0.9204428195953368,-0.2371943145990371,-0.1043768972158432,-107.0273208618164,74.60235595703125,142.87770080566406,97.7978867242862,0.8813760214967062,56.5330016166705,0.9562273075451924,-68.32357025146484,140.28153228759766,238.5115966796875
2618.38,-21.5510196685791,97.8909683227539,46.02083206176758,0.8448377251625061,-0.184938907623291,0.1756075024604797,-38.11420822143555,-63.60689926147461,-96.76290893554688,-12.204550743103027,-56.20416641235352,-0.6184566020965576,-0.91401344537735,-0.2280070185661316,-0.0875349566340446,-103.350830078125,74.88928985595703,146.94827270507812,110.29508199180644,0.8824914596363308,57.51731799655805,0.9460814697894224,-65.23662185668945,138.49618911743164,243.711181640625
2632.945,-20.462779998779297,107.6492919921875,51.216064453125,0.831515371799469,-0.2485920935869217,0.165360227227211,-37.57403564453125,-61.30115509033203,-97.83696746826172,-20.087745666503903,-63.731746673583984,-0.4680841863155365,-1.0112652778625488,-0.2433811724185943,-0.0318143591284751,-99.05342864990234,75.14130401611328,151.81832885742188,120.95528384392448,0.8834929808897029,66.82418845622824,1.0406267393955544,-61.47939300537109,136.4424591064453,249.6552963256836
2655.52,-14.37796688079834,114.8290786743164,57.95906829833984,0.7956928610801697,-0.2217900902032852,0.2807261645793915,-37.04005432128906,-58.80353927612305,-98.7787857055664,-25.490970611572266,-56.035133361816406,-0.567471981048584,-1.0170868635177612,-0.2689127624034881,0.004672706592828,-95.28104400634766,75.27117919921875,156.24789428710938,129.42834634974403,0.872424869410417,61.563363927305545,1.052046384866549,-58.240989685058594,134.0747184753418,255.02667999267572
2678.4300000000003,-24.602970123291016,122.56045532226562,62.71475982666016,0.7960795164108276,-0.2014797627925872,0.2281560003757476,-36.79244613647461,-56.107059478759766,-99.65027618408205,-24.598108291625977,-46.0312614440918,-9.088068008422852,-1.0069551467895508,-0.2578162848949432,0.0188921187072992,-92.18179321289062,75.15316009521484,159.96121215820312,139.85532684815507,0.8522862499015883,52.9767585058449,1.039608011008114,-55.389347076416016,131.2602195739746,259.6114883422852
2700.5080000000003,-34.67169570922852,130.28553771972656,68.22696685791016,0.7655888795852661,-0.2763945162296295,0.2435881197452545,-36.83211898803711,-53.2319221496582,-100.45142364501952,-24.5718994140625,-42.09084701538086,-14.29746913909912,-0.9402881264686584,-0.2500993609428406,0.0139306224882602,-89.48240661621094,74.87885284423828,163.26348876953125,151.10051895642846,0.8496207584725449,50.7920787827245,0.9730804249212228,-52.65028762817383,128.11077499389648,263.7149124145508
2722.492,-25.64626121520996,137.1171112060547,74.7156982421875,0.705094039440155,-0.3513570427894592,0.3325356841087341,-36.83031845092773,-50.159217834472656,-101.12987518310548,-33.57415008544922,-46.18657302856445,-8.92940902709961,-1.0003259181976318,-0.2787964344024658,0.0968067273497581,-86.61293029785156,74.66226196289062,166.90802001953125,158.24433153712008,0.8550961099066307,57.79409509332624,1.0429529888320157,-49.78261184692383,124.82147979736328,268.0378952026367
2733.002,-18.864376068115234,140.88638305664062,80.78822326660156,0.6625732183456421,-0.2870707213878631,0.3639697432518005,-36.760990142822266,-46.98680877685547,-101.72178649902344,-34.526756286621094,-44.37594223022461,-5.227084636688232,-0.970453917980194,-0.2939932644367218,0.0913883820176124,-83.99787902832031,74.46697998046875,170.31314086914062,163.49793464688176,0.8086326995304058,56.46807560290206,1.018118206705423,-47.23688888549805,121.45378875732422,272.03492736816406
2756.828,-27.13628387451172,144.8515625,83.00202941894531,0.6339584589004517,-0.2803772389888763,0.4080280661582947,-36.86834716796875,-43.69780349731445,-102.31444549560548,-30.257015228271484,-36.1279525756836,-19.961292266845703,-0.9856353998184204,-0.2655487060546875,0.0852887257933616,-82.1341323852539,73.9840316772461,172.83349609375,169.1380795352512,0.8043641131523328,51.17781860139341,1.0243375534510055,-45.26578521728516,117.68183517456056,275.14794158935547
2778.973,-31.934226989746094,150.44227600097656,84.27108001708984,0.5745781064033508,-0.4317192137241363,0.4516147077083587,-37.15458679199219,-40.28754425048828,-102.8945083618164,-30.171241760253903,-31.243066787719727,-11.578848838806152,-0.9921231269836426,-0.2340990900993347,0.1276005357503891,-80.55242919921875,73.67967987060547,175.04354858398438,175.36900578218888,0.8488093567316239,44.95000324904913,1.0273230162927938,-43.39784240722656,113.96722412109376,277.9380569458008
2800.4950000000003,-17.070018768310547,152.99664306640625,89.42723846435547,0.4635405540466308,-0.4105596244335174,0.4913256168365478,-37.17123031616211,-36.74094009399414,-103.42568969726562,-20.70619201660156,-11.602564811706545,2.001048803329468,-0.9814052581787108,-0.3184500932693481,0.0543088018894195,-80.1641616821289,73.66148376464844,175.82749938964844,178.0353597173901,0.7904618347653874,23.819531782793955,1.033206750194143,-42.9929313659668,110.40242385864258,279.25318908691406
2823.284,-25.564085006713867,152.96804809570312,89.7813949584961,0.4218871593475342,-0.3397109508514404,0.5887159109115601,-37.34359359741211,-33.205528259277344,-103.9626007080078,-8.795526504516602,-6.668756008148193,-4.272852897644043,-0.965986967086792,-0.2361752837896347,0.0960912406444549,-79.83726501464844,73.57347869873047,176.28543090820312,179.2022462502446,0.799986705584005,11.835998693510057,0.9990711244867624,-42.49367141723633,106.7790069580078,280.24803161621094
2833.36,-29.575803756713867,155.03378295898438,89.88722229003906,0.3801475167274475,-0.5143322944641113,0.5799643397331238,-37.70058059692383,-29.63731002807617,-104.47894287109376,-12.02760410308838,-11.283935546875,-20.31437873840332,-0.9469331502914428,-0.2615353465080261,0.1081951260566711,-79.45697021484375,73.13774108886719,176.86325073242188,181.6312604081357,0.8633704181664094,26.16609343050564,0.9883265219027408,-41.75638961791992,102.77505111694336,281.3421936035156
2855.264,-11.719603538513184,152.79736328125,92.59537506103516,0.2716595530509949,-0.5346794724464417,0.5520062446594238,-37.73986053466797,-26.066036224365234,-104.9287109375,-11.158794403076172,-3.613835573196411,4.840864181518555,-0.9774213433265686,-0.2716942727565765,0.094918243587017,-79.30221557617188,73.22713470458984,177.21075439453125,179.0482806828817,0.8151024139103449,12.689068764260568,1.018911052646247,-41.56235504150391,99.29317092895508,282.13946533203125
2880.379,-8.609996795654297,151.98519897460938,92.4168701171875,0.2310375273227691,-0.4441286027431488,0.7522845268249512,-37.72560501098633,-22.515077590942383,-105.3655014038086,-0.7054162621498108,24.85593605041504,3.559967041015625,-0.8708866238594055,-0.2163466066122055,0.0748392790555954,-80.82453155517578,73.40582275390625,175.5941925048828,178.08568340669578,0.9036374074296846,25.119485153528625,0.9004722558188072,-43.09892654418945,95.92090034484865,280.9596939086914
2900.505,-26.013389587402344,152.33413696289062,89.57395935058594,0.1805640012025833,-0.5372108817100525,0.7120954394340515,-38.07265090942383,-18.987754821777344,-105.85189819335938,4.623469352722168,25.384254455566406,21.04926109313965,-1.009993076324463,-0.3306335508823395,0.0890785977244377,-82.14884948730469,73.87727355957031,174.07456970214844,178.62217084056255,0.9100982391043032,33.298772284990726,1.0664612303149932,-44.07619857788086,92.86502838134766,279.9264678955078
2923.453,-14.694503784179688,150.70318603515625,88.13630676269531,0.0443787574768066,-0.6474097967147827,0.6855982542037964,-38.217376708984375,-15.530621528625488,-106.35208129882812,23.40873908996582,18.40564727783203,2.867911100387573,-0.9704498052597046,-0.1776374280452728,0.0038712825626134,-82.95746612548828,74.04183959960938,172.7103729248047,175.20099112841262,0.9440094730270217,29.91591268167805,0.9865814042438756,-44.74008941650391,89.57246112823486,279.0624542236328
2943.527,7.210253715515137,147.4766082763672,84.9780502319336,0.0411116071045398,-0.5835428237915039,0.7619530558586121,-37.96435928344727,-12.13412380218506,-106.84546661376952,0.6931860446929932,26.796295166015625,12.420172691345217,-0.9715169072151184,-0.1937713921070099,0.0666379332542419,-84.63938903808594,74.39059448242188,170.90675354003906,170.3602264865957,0.9606169115571292,29.54289476675613,0.9928912667318182,-46.67502975463867,86.52471828460693,277.7522201538086
2953.475,-6.855061531066895,149.14608764648438,81.3133316040039,-0.0150185478851199,-0.5519164204597473,0.8568332195281982,-37.99274063110352,-8.763694763183594,-107.40663146972656,7.267641067504883,38.906394958496094,14.118473052978516,-0.9250040650367736,-0.2019052803516388,0.0017012604512274,-87.25948333740234,74.76213073730469,168.0017852783203,170.01001507378973,1.0193137191467283,42.02210676180163,0.946784641222888,-49.26674270629883,83.52582550048828,275.4084167480469
2973.5040000000004,-17.620515823364258,146.8357391357422,77.62071228027344,-0.0670501440763473,-0.5932222008705139,0.8013424873352051,-38.27067947387695,-5.472792148590088,-108.00142669677734,15.633554458618164,42.48006439208984,18.56141662597656,-1.032990336418152,-0.3351881504058838,0.0514947101473808,-89.97694396972656,75.12713623046875,164.8191680908203,167.02153106805767,0.9992787816394826,48.923308176469,1.0872312709258167,-51.70626449584961,80.59992837905884,272.82059478759766
2995.103,-5.326171398162842,144.5741424560547,74.46575927734375,-0.1391113400459289,-0.7193318605422974,0.7743338346481323,-38.33505630493164,-2.282444953918457,-108.6270751953125,27.0709228515625,36.43668746948242,15.703011512756348,-0.965983748435974,-0.1855043023824691,-0.0629001185297966,-92.36102294921876,75.46756744384766,161.76393127441406,162.71201576225866,1.0660127475792671,48.031777276650345,0.9856433804149878,-54.02596664428711,77.75001239776611,270.39100646972656
3013.546,13.959383964538574,140.85293579101562,72.97836303710938,-0.2535218894481659,-0.6856885552406311,0.8699159026145935,-38.04914474487305,0.8324636816978455,-109.22164154052734,20.24943733215332,37.90601348876953,26.98793029785156,-0.9819050431251526,-0.226039707660675,-0.03190303966403,-95.10103607177734,75.97264862060547,158.48782348632812,159.24903576848908,1.1363079779879728,50.74696003349636,1.008091894171229,-57.0518913269043,75.14018493890762,267.70946502685547
3035.089,10.643061637878418,135.84426879882812,72.08203887939453,-0.2400835752487182,-0.5182564854621887,0.7947726249694824,-37.85718536376953,3.860147476196289,-109.75372314453124,28.241029739379883,47.08296203613281,23.997848510742188,-0.906734585762024,-0.2722067534923553,-0.0122268702834844,-98.49141693115234,76.31391143798828,154.37734985351562,154.15174489938963,0.9787203038808934,59.91876006711916,0.9467912240936786,-60.63423156738281,72.45376396179199,264.1310729980469
3057.521,-16.99798011779785,134.3606414794922,69.1174545288086,-0.2358113080263137,-0.5837405920028687,0.81496661901474,-38.24811553955078,6.864968776702881,-110.32077026367188,18.54542732238769,40.1158561706543,18.67657852172852,-1.0931859016418457,-0.2831371426582336,-0.0680298507213592,-101.68923950195312,76.53076171875,150.7183074951172,152.0491230734581,1.0298206843199726,47.97946827709617,1.131304608710817,-63.44112396240234,69.66579294204712,261.03907775878906
3074.095,9.04231071472168,135.34181213378906,70.2685775756836,-0.3230470418930053,-0.8415137529373169,0.7915719151496887,-38.16103363037109,9.872843742370604,-110.90243530273438,8.947731018066406,39.69289779663086,13.065024375915527,-1.0930012464523315,-0.1527357101440429,-0.0909253880381584,-105.1131591796875,76.6495132446289,147.02890014648438,152.76400914230186,1.1996211420745362,42.7350311548818,1.1073605321165485,-66.9521255493164,66.7766695022583,257.93133544921875
3095.026,31.233583450317383,129.57530212402344,69.9480972290039,-0.4150013625621795,-0.505164623260498,0.837547779083252,-37.63460159301758,12.776078224182127,-111.39815521240234,14.286806106567385,56.413818359375,13.554719924926758,-0.8631400465965271,-0.2321622520685196,-0.0588110834360122,-109.63414001464844,76.55123138427734,142.08358764648438,150.52585147288846,1.0624988045968211,59.75250758632991,0.8957504087965014,-71.99953842163086,63.775153160095215,253.48174285888672
3117.586,6.817761898040772,128.3574676513672,63.03631591796875,-0.3832830786705017,-0.6038893461227417,0.7716500759124756,-37.64600372314453,15.650809288024902,-111.98458862304688,27.35367774963379,44.521522521972656,19.23306655883789,-0.9144729375839232,-0.3202130496501922,-0.1284277290105819,-113.12393951416016,76.51367950439453,137.923828125,143.1631883679604,1.0521559297040624,55.6803421627599,0.9773898057164614,-75.47793579101562,60.86287021636963,249.90841674804688
3140.309,4.396241664886475,125.7086181640625,65.23395538330078,-0.453422337770462,-0.5615361332893372,0.7371162176132202,-37.70341491699219,18.4879150390625,-112.5080795288086,31.733924865722656,34.08723831176758,23.83795928955078,-1.111780285835266,-0.2439142614603042,-0.1123659759759903,-115.91095733642578,76.6650619506836,134.40647888183594,141.69492777246694,1.0316273375823226,52.318544572616375,1.1437550801953662,-78.2075424194336,58.17714691162109,246.91455841064453
3163.801,10.580802917480469,123.75723266601562,65.41587829589844,-0.4920254349708557,-0.663449764251709,0.7934463024139404,-37.68794250488281,21.302589416503903,-113.0254364013672,23.24684333801269,27.46124649047852,8.62821102142334,-1.048517107963562,-0.1609961986541748,-0.0924388170242309,-117.8457260131836,76.60419464111328,131.97186279296875,140.38177645532446,1.1453434651484515,36.999754180577135,1.064825261048124,-80.15778350830078,55.301605224609375,244.997299194336
3173.515,20.860315322875977,122.39038848876952,64.96957397460938,-0.5560581684112549,-0.5343360900878906,0.7348793745040894,-37.46984100341797,24.088743209838867,-113.52842712402344,12.846126556396484,32.27566909790039,17.13622283935547,-0.9264239072799684,-0.2433744221925735,-0.1117152422666549,-120.58435821533205,76.56305694580078,128.919189453125,140.12710477364465,1.0652527582216418,38.73489275085405,0.9643509012346853,-83.11451721191406,52.47431373596192,242.44761657714844
3194.937,7.697283744812012,121.71512603759766,59.478763580322266,-0.5384170413017273,-0.5293633341789246,0.7338389158248901,-37.55606460571289,26.798093795776367,-114.11614990234376,27.97591209411621,24.72323989868164,17.969602584838867,-0.9848203659057616,-0.1644541025161743,-0.1562065929174423,-122.68551635742188,76.61860656738281,126.22673797607422,135.6891425296818,1.0529188023376654,41.43424749699853,1.010602198992281,-85.12945175170898,49.820512771606445,240.342887878418
3217.427,0.7435237765312195,125.19239044189452,57.01799392700195,-0.5823639631271362,-0.5990959405899048,0.7145435810089111,-37.90119171142578,29.515369415283203,-114.84137725830078,14.052189826965332,9.880236625671388,24.203514099121094,-1.0941370725631714,-0.1791498064994812,-0.0642710477113723,-124.15426635742188,76.94165802001953,124.4719009399414,137.5672166020003,1.099379943759884,29.6798451724176,1.1105680322698943,-86.2530746459961,47.42628860473633,239.3132781982422
3238.186,12.34426498413086,121.74442291259766,57.80266189575195,-0.6286508440971375,-0.5212578773498535,0.7369697690010071,-37.97835159301758,32.187644958496094,-115.51010131835938,1.623986005783081,4.508588790893555,3.7708680629730233,-0.9970263838768004,-0.2203169018030166,-0.0784083008766174,-124.47803497314452,76.95622253417969,124.1441879272461,135.3337840694425,1.1000164084706718,6.097880728638451,1.024084473572804,-86.49968338012695,44.7685775756836,239.65428924560547
3260.084,8.594084739685059,121.01956939697266,54.277320861816406,-0.6704481244087219,-0.4608985781669616,0.6396676301956177,-38.20847702026367,34.83213806152344,-116.2629852294922,0.5592930316925049,6.5639824867248535,17.22828483581543,-0.9511680603027344,-0.2083144634962082,-0.1493233442306518,-125.7968978881836,77.14315795898438,122.82720184326172,132.91208383543665,1.0349409954193416,18.44484950237649,0.9850954551585368,-87.58842086791992,42.31101989746094,239.0901870727539
3283.17,-0.2696990966796875,121.77503204345705,48.222923278808594,-0.7542456984519958,-0.5287203192710876,0.6307016611099243,-38.78366470336914,37.403438568115234,-117.21292114257812,7.9348225593566895,2.3388009071350098,16.60321617126465,-1.0190682411193848,-0.0856200084090232,-0.1498005390167236,-126.84748077392578,77.4244384765625,121.64617919921876,130.97588135355912,1.1163405998933649,18.54988371827261,1.0335719942934882,-88.06381607055664,40.02099990844727,238.85910034179688
3293.089,9.452449798583984,119.04053497314452,45.51116561889648,-0.7806514501571655,-0.5525661706924438,0.6387580633163452,-39.24553298950195,39.86855697631836,-118.23694610595705,0.9187686443328856,-8.486052513122559,9.336715698242188,-0.9756715893745422,-0.0718023031949997,-0.1646218746900558,-126.95631408691406,77.7104721069336,121.55449676513672,127.79383384920348,1.150112135001559,12.65035505853828,0.9920640013039584,-87.71078109741211,37.841915130615234,239.7914428710937
3320.289,11.445204734802246,114.0327606201172,42.767574310302734,-0.8560378551483154,-0.4840207099914551,0.5547793507575989,-39.718505859375,42.25591659545898,-119.29244232177734,-12.139225006103516,-9.9262113571167,3.707628965377808,-0.8629988431930542,-0.2791582942008972,-0.1973064988851547,-126.67654418945312,77.8540267944336,122.10880279541016,122.32550273125288,1.1290956492585489,16.11325442608879,0.928238229699694,-86.95803833007812,35.59811019897461,241.4012451171875
3340.308,0.4714662134647369,105.25514221191406,38.918418884277344,-0.8753452301025391,-0.4923045039176941,0.5578556656837463,-40.43827438354492,44.43194580078125,-120.34420776367188,-10.635251998901367,3.3774328231811523,6.65733814239502,-0.9482101202011108,-0.2632953822612762,-0.2509235143661499,-127.59833526611328,77.87528228759766,121.40315246582033,112.22081166562988,1.1488237202357765,12.993682645709972,1.015573483522377,-87.16006088256836,33.443336486816406,241.7473602294922
3362.606,1.7535784244537354,100.54644775390624,40.36840057373047,-0.8562552332878113,-0.4728125035762787,0.563456654548645,-41.10982894897461,46.52161407470703,-121.33983612060548,1.1913074254989624,2.284970998764038,7.287578105926514,-1.0004233121871948,-0.1900566816329956,-0.1804979741573333,-128.22589111328125,77.93821716308594,120.7546615600586,108.36175966687172,1.12880826078922,7.729754232653271,1.0341894722321654,-87.11606216430664,31.416603088378903,242.0944976806641
3382.494,1.507948637008667,95.10787200927734,40.77772903442383,-0.8745808601379395,-0.4662621617317199,0.5649539232254028,-41.76841735839844,48.51403427124024,-122.246826171875,-3.0555579662323,6.815443992614746,8.592225074768066,-0.9832216501235962,-0.1883962154388427,-0.1758072972297668,-129.33572387695312,77.96212005615234,119.69859313964844,103.492049996267,1.140817697859798,11.38477241919869,1.0164281347063755,-87.56730651855469,29.44808578491211,241.94541931152344
3393.458,1.7263004779815674,89.95709991455078,38.16795349121094,-0.8912292718887329,-0.4480779469013214,0.4786337614059448,-42.49228286743164,50.4036979675293,-123.23865509033205,-7.531657695770264,8.093903541564941,-1.385114073753357,-0.9552095532417296,-0.1639028489589691,-0.1864421814680099,-130.0888214111328,77.8144302368164,119.09912109375,97.73460294125104,1.1064148133174228,11.142516914221964,0.9869397760409102,-87.59653854370117,27.41073226928711,242.33777618408203
3412.582,-0.8431106209754944,87.33125305175781,33.81348419189453,-0.8905801177024841,-0.445964366197586,0.4486895501613617,-43.39361953735352,52.17774200439453,-124.31884765625,-2.722280740737915,6.753300666809082,5.648009300231934,-0.969033181667328,-0.1093278378248214,-0.1535502672195434,-131.08123779296875,77.82896423339844,118.15576171875,93.65260438612938,1.09240078468893,9.215090416443182,0.9871958102924404,-87.68761825561523,25.651222229003903,242.474609375
3435.844,3.8415298461914062,89.11156463623047,31.276649475097656,-0.8612485527992249,-0.4797988831996918,0.4821300804615021,-44.37039566040039,53.88395690917969,-125.64492797851562,-8.25064468383789,-3.774179458618164,16.528522491455078,-1.128056287765503,-0.1512417793273925,-0.0961373820900917,-131.9387664794922,78.16072082519531,117.4604949951172,94.51908328937806,1.0974540776288753,18.85496284895131,1.142202898094966,-87.5683708190918,24.276763916015625,243.1054229736328
3452.646,9.798733711242676,91.11276245117188,31.821407318115234,-0.853022575378418,-0.4137728214263916,0.4653678238391876,-45.321407318115234,55.618309020996094,-127.01470947265624,-13.37684154510498,-14.822219848632812,6.4039506912231445,-1.0411276817321775,-0.0903967171907424,-0.0655598491430282,-131.521728515625,78.51256561279297,118.1798324584961,97.0059411970881,1.056135726751636,20.96780091997414,1.0470990927164143,-86.20032119750977,22.894256591796875,245.1945419311524
3475.835,5.731753349304199,92.29557800292967,32.679840087890625,-0.8502042293548584,-0.3765305280685425,0.4123910665512085,-46.48668670654297,57.3768424987793,-128.59840393066406,-13.902483940124512,-20.54810333251953,9.30392360687256,-1.030611276626587,-0.1873849034309387,-0.0426426157355308,-130.6103057861328,78.94564056396484,119.40734100341795,98.07802334632484,1.0171965699665466,26.496539486352567,1.0483754567045498,-84.12361907958984,21.568798065185547,248.00574493408203
3497.425,-4.01693868637085,95.54737854003906,34.882896423339844,-0.8593001961708069,-0.4348407685756683,0.350028932094574,-48.11278533935547,59.17542266845703,-130.44842529296875,-6.338834762573242,-18.097034454345703,1.4169244766235352,-1.0284539461135864,-0.1680134981870651,-0.0271686762571334,-129.21719360351562,79.22664642333984,120.98040008544922,101.79515609873113,1.0246968207513545,19.227354398393903,1.0424414572623384,-81.10440826416016,20.05122375488281,251.428825378418
3512.646,-1.7802003622055054,100.68241119384766,36.301513671875,-0.893778383731842,-0.4122155904769897,0.3381296992301941,-49.98290252685547,61.036746978759766,-132.5799102783203,1.884162425994873,-30.45321273803711,-0.1248160600662231,-1.0666548013687134,-0.1887663751840591,-0.0027479026466608,-126.36099243164062,79.62378692626953,123.87875366210938,107.04165979657614,1.040717630176456,30.51169961120696,1.0832325515105303,-76.37808990478516,18.58703994750977,256.4586639404297
3535.1240000000003,0.118165336549282,102.7280502319336,34.36658477783203,-0.9360578060150146,-0.4288142621517181,0.4262449443340301,-52.10140228271485,62.821964263916016,-134.99765014648438,16.07481575012207,-30.47569465637207,14.529483795166016,-0.9805120229721068,-0.1770906448364257,-0.0490951649844646,-123.9981689453125,80.22049713134766,125.97605895996094,108.3241820499622,1.11434762986991,37.39349630006252,0.9975847126466436,-71.89676666259766,17.39853286743164,260.9737091064453
3557.558,6.644680500030518,101.06719207763672,34.48480224609375,-0.9794232845306396,-0.4059247076511383,0.3742759525775909,-54.34065246582031,64.55474090576172,-137.65524291992188,18.705543518066406,-27.159387588500977,16.65526580810547,-0.9378676414489746,-0.1631442904472351,-0.1241052150726318,-122.05787658691406,80.77336883544922,127.58628845214844,106.9950030578886,1.124334170627359,36.94492619599265,0.9600072274680116,-67.71722412109375,16.2186279296875,265.2415313720703
3579.669,10.685956954956056,87.00020599365234,29.310466766357425,-1.0279370546340942,-0.2703941166400909,0.3189989924430847,-56.38041687011719,66.06139373779297,-140.15902709960938,1.5589687824249268,-6.599556922912598,3.8247933387756334,-0.824410080909729,-0.1414099335670471,-0.220765084028244,-121.68295288085938,80.88626098632812,127.95838165283205,92.42472061652585,1.109742278091222,7.785472325278763,0.8650930430554972,-65.30253601074219,14.824867248535156,268.1174087524414
3600.878,-0.1505314111709594,72.06787109375,24.460697174072266,-1.036837100982666,-0.349721223115921,0.2362479567527771,-58.57307815551758,67.2637710571289,-142.54388427734375,-0.614037275314331,6.423240661621094,10.80734157562256,-0.8974579572677612,-0.1048200875520706,-0.2899166643619537,-123.08758544921876,81.00151062011719,126.56595611572266,76.10602085205075,1.1194414700830486,12.58704470099149,0.9489308236601908,-64.51450729370117,13.73773956298828,269.1098403930664
3612.234,-3.658307552337648,58.33684921264648,22.79976463317871,-1.0433112382888794,-0.4059576392173767,0.2641050815582275,-60.507720947265625,68.22433471679688,-144.5576934814453,-8.722187995910645,8.893463134765625,-7.723894119262695,-0.977202296257019,-0.1364479213953018,-0.181974858045578,-123.92710876464844,80.74075317382812,125.90835571289062,62.74074001424346,1.15023973104901,14.657038934621951,1.0033230845663812,-63.41938781738281,12.51641845703125,270.46604919433594
3634.93,-2.747354984283448,50.31877899169922,21.84395408630371,-0.9836431741714478,-0.392743855714798,0.3063390851020813,-62.167388916015625,69.04081726074219,-146.29541015625,-8.926623344421387,5.783507347106934,-13.893475532531738,-1.0199215412139893,-0.2246131598949432,-0.1166331991553306,-123.66966247558594,80.39969635009766,126.33678436279295,54.92436443646555,1.1025630437108742,17.497491932853315,1.050854093095477,-61.50227355957031,11.358879089355469,272.63219451904297
3657.401,-2.8944761753082275,45.78401947021485,19.53818702697754,-0.9664791226387024,-0.3588830232620239,0.3300355076789856,-63.72303009033203,69.75466918945312,-147.9197540283203,0.8361480236053467,7.711393356323242,7.554115295410156,-1.0418708324432373,-0.1652075052261352,-0.0734055489301681,-124.79804229736328,80.43865966796875,125.15008544921876,49.86276349621621,1.0824982010197948,10.827252140302036,1.0574387575139976,-61.07501220703125,10.683990478515623,273.06983947753906
3679.755,-4.80538272857666,40.04776382446289,17.520347595214844,-0.9601119756698608,-0.3573988080024719,0.3391235172748565,-65.3092269897461,70.39558410644531,-149.5136260986328,3.224747896194458,4.754660606384277,5.904397964477539,-0.9659593105316162,-0.0900693610310554,-0.0902662500739097,-125.67229461669922,80.50254821777344,124.18023681640624,43.97587600452334,1.07914488079921,8.238186195931698,0.9743397124728436,-60.363067626953125,10.106964111328123,273.69386291503906
3702.748,-5.333714962005615,29.889835357666016,14.367724418640137,-0.959804356098175,-0.3509128391742706,0.2891318798065185,-66.4361343383789,70.85244750976562,-150.61663818359375,-7.02493953704834,10.537158966064451,1.2798784971237185,-0.9165021777153016,-0.1483340561389923,-0.1492992639541626,-127.019775390625,80.3657455444336,122.94161987304688,33.5899133368083,1.0620553029870106,12.728691352322794,0.9403560518148382,-60.583641052246094,9.513298034667969,273.5582580566406
3712.199,-9.360177040100098,19.558237075805664,9.519975662231444,-0.9835411310195924,-0.3759568035602569,0.2437839955091476,-67.3246078491211,71.13079833984375,-151.37149047851562,-10.270169258117676,12.286569595336914,-0.835914134979248,-0.9551100134849548,-0.0990131571888923,-0.1711189746856689,-128.54779052734375,80.1902084350586,121.58409881591795,23.68052973108742,1.0807993851853122,16.035427074216045,0.9753565741067302,-61.223182678222656,9.059410095214844,272.9555892944336
3737.657,-4.348227500915527,9.463515281677246,5.056214332580566,-0.9737548232078552,-0.4113804697990417,0.2794674336910248,-67.72093200683594,71.2508773803711,-151.7078399658203,-11.273919105529783,13.870025634765623,-3.3153557777404785,-0.9485613107681274,-0.1273709386587143,-0.1471286416053772,-129.8687744140625,79.947265625,120.45521545410156,11.577154540872726,1.0934049538695574,18.17884614160322,0.9683174858906524,-62.14784240722656,8.696388244628906,272.1630554199219
3759.713,1.526179313659668,0.6200979948043823,-0.1060473769903183,-0.991813898086548,-0.4070957005023956,0.3393836617469787,-67.7265396118164,71.25365447998047,-151.7459259033203,-7.593371868133545,16.624385833740234,-2.367988109588623,-1.0021830797195437,-0.1790576130151748,-0.1367815881967544,-131.20689392089844,79.66910552978516,119.22781372070312,1.650754635543889,1.1245456805599126,18.429239494997564,1.027200933081969,-63.48035430908203,8.415451049804688,270.97373962402344
3779.769,7.795999526977539,-6.780419826507568,-3.350415229797364,-0.986785888671875,-0.406167060136795,0.3262054026126861,-67.27886199951172,71.13959503173828,-151.43800354003906,0.7983047962188721,13.17873191833496,0.2870593667030334,-1.0229666233062744,-0.16432486474514,-0.1012634113430976,-132.1732635498047,79.49666595458984,118.2139129638672,10.861721035839077,1.1158530528325912,13.206008806714417,1.0410176041013866,-64.89440155029297,8.357070922851562,269.65191650390625
3802.621,7.521921157836914,-15.239266395568848,-6.7514967918396,-1.0044121742248535,-0.3760735690593719,0.3211545348167419,-66.33820343017578,70.85760498046875,-150.61798095703125,5.8781280517578125,14.32633113861084,1.156258225440979,-1.0152605772018433,-0.1115640178322792,-0.1377367079257965,-133.3335418701172,79.32647705078125,116.93802642822266,18.28653185024566,1.1195603513475767,15.52846052800768,1.0306172763957226,-66.9953384399414,8.4688720703125,267.5560073852539
3812.223,8.673930168151855,-25.018836975097656,-10.454553604125977,-1.0060442686080933,-0.401821106672287,0.3098448514938354,-64.93804931640625,70.39259338378906,-149.33984375,3.010838270187378,11.26710033416748,-3.05515193939209,-0.9882750511169434,-0.1405608057975769,-0.161850243806839,-133.96548461914062,79.11175537109375,116.25495147705078,28.468877027554704,1.1267604466628085,12.055979860724433,1.011256850758992,-69.02743530273438,8.719161987304688,265.5947952270508
3841.99,14.891694068908691,-35.846588134765625,-13.356599807739258,-1.0139682292938232,-0.3519103527069092,0.2949477434158325,-63.02045822143555,69.79864501953125,-147.63949584960938,5.373894691467285,12.510945320129396,-0.3490388095378876,-0.9820984601974488,-0.1575590074062347,-0.1641360074281692,-134.770263671875,78.91064453125,115.34636688232422,41.05044691071694,1.1130887824902578,13.62073144323797,1.008108553317299,-71.74980545043945,9.11199951171875,262.9858627319336
3852.63,11.645244598388672,-44.59003448486328,-17.00917625427246,-0.981674313545227,-0.3695200681686401,0.3291847705841064,-60.946533203125,69.0225601196289,-145.69778442382812,0.8214124441146851,15.358941078186035,1.8616886138916016,-1.0064351558685305,-0.1207109615206718,-0.1280359178781509,-135.9845733642578,78.73046875,114.1110610961914,49.12428090024834,1.0993598827674038,15.493149258353853,1.0217025278750458,-75.03804016113281,9.707908630371094,259.8088455200196
3872.263,10.569107055664062,-50.94739532470703,-18.455453872680664,-0.9692863821983336,-0.4013372957706451,0.3697724044322967,-58.88850021362305,68.15655517578125,-143.7266387939453,-4.4107770919799805,9.034011840820312,-0.3119606077671051,-1.0340425968170166,-0.1133829355239868,-0.0715316832065582,-136.57984924316406,78.63719940185547,113.60253143310548,55.20821399006412,1.112348572512803,10.058113337799265,1.0426967746197735,-77.69134902954102,10.48064422607422,257.3291702270508
3895.161,9.767292022705078,-57.37238693237305,-19.92617988586425,-0.9681984186172484,-0.4095863699913025,0.3859649002552032,-56.74543762207031,67.1533432006836,-141.63902282714844,-10.041055679321287,8.288997650146484,-1.286121845245361,-1.0030410289764404,-0.1443527042865753,-0.0969994515180587,-137.13648986816406,78.51693725585938,113.22817993164062,61.51457892742621,1.119883063772554,13.083745281844246,1.0180068283856294,-80.39105224609375,11.36359405517578,254.86720275878903
3914.876,13.27055549621582,-64.37861633300781,-23.12971878051757,-0.97988623380661,-0.4123116731643677,0.3823024034500122,-54.52703857421875,65.98152923583984,-139.58531188964844,-7.416361808776855,5.9394378662109375,-0.3887186646461487,-1.0078613758087158,-0.1453060209751129,-0.1057932302355766,-137.5523223876953,78.44059753417969,112.94166564941406,69.68283701885703,1.1297491202541203,9.50949245993226,1.0237629609154333,-83.02528381347656,12.459068298339844,252.5269775390625
3940.409,13.290300369262695,-71.65608215332031,-26.702470779418945,-0.9725120067596436,-0.4250577986240387,0.4235442578792572,-52.34794998168945,64.62981414794922,-137.53265380859375,-7.847622394561768,6.253852844238281,3.0712807178497314,-1.0142711400985718,-0.0940411686897277,-0.1111362427473068,-138.35113525390625,78.42362976074219,112.29818725585938,77.61603016899497,1.1427350847179207,10.494218307851716,1.024666263471856,-86.0031852722168,13.793815612792969,249.83084106445312
3952.295,13.10018539428711,-78.5601806640625,-29.44137382507324,-0.9613212943077089,-0.4234727025032043,0.3921887874603271,-50.28826141357422,63.1381950378418,-135.56570434570312,-11.817870140075684,2.901559352874756,1.7464346885681152,-0.9962155818939208,-0.1215304881334304,-0.1146619096398353,-138.85792541503906,78.42487335205078,112.03271484375,84.9123744576875,1.1212848905003658,12.293540395157995,1.010129941481019,-88.56966400146484,15.286678314208984,247.59841918945312
3974.744,11.999414443969728,-85.11767578125,-32.803653717041016,-0.9756129384040833,-0.4535350203514099,0.4324171543121338,-48.3703727722168,61.47917175292969,-133.6380157470703,-14.815591812133787,-0.1336162090301513,-0.446813702583313,-0.990952730178833,-0.1554347425699234,-0.1488397419452667,-139.0589599609375,78.41547393798828,112.13291931152344,92.0058931514046,1.159525426892402,14.822930092255632,1.0140515477178638,-90.6885871887207,16.936302185058594,245.7709350585937
3997.122,10.699956893920898,-93.49552154541016,-35.53118896484375,-0.9686569571495056,-0.4513415992259979,0.456644594669342,-46.53726577758789,59.64831161499024,-131.79013061523438,-15.156207084655762,0.3225463032722473,-1.5993530750274658,-0.9933710694313048,-0.1654185056686401,-0.1452116817235946,-139.1823272705078,78.38236999511719,112.30735778808594,100.59009402438916,1.162122982160988,15.243771828826484,1.0174653783346808,-92.64506149291992,18.73405838012696,244.0974884033203
4019.887,11.070829391479492,-100.64974975585938,-38.932430267333984,-0.9602553248405457,-0.4709952175617218,0.4918000996112823,-44.82493209838867,57.64325714111328,-130.0159912109375,-9.854862213134766,-1.984352827072144,-0.7942434549331665,-0.9864026308059692,-0.1622320115566253,-0.1592808663845062,-139.14418029785156,78.38947296142578,112.53731536865234,108.48349881826812,1.177197571280328,10.083986713987915,1.012264673902456,-94.31924819946288,20.7462158203125,242.55330657958984
4042.362,15.175007820129396,-106.67119598388672,-41.93804550170898,-0.9535480737686156,-0.4579359292984009,0.4887684285640716,-43.1816520690918,55.5078010559082,-128.4151153564453,-6.097307205200195,-1.3024163246154783,-1.0654642581939695,-0.9635352492332458,-0.1832289695739746,-0.1496663242578506,-138.99156188964844,78.3758773803711,112.82901763916016,115.61930883497432,1.1652698490440827,6.325239720571856,0.9921557541147308,-95.80990982055664,22.86807632446289,241.24413299560547
4053.498,17.10042953491211,-113.454345703125,-45.16156005859375,-0.9572316408157348,-0.4625614583492279,0.55118727684021,-41.612491607666016,53.20874786376953,-126.91631317138672,-1.892879605293274,1.4938747882843018,1.4427549839019775,-0.9850663542747498,-0.1591653972864151,-0.1685181558132171,-139.20181274414062,78.35687255859375,112.66637420654295,123.30401354428274,1.1975236661876352,2.8100172644986867,1.0119721907523826,-97.5893211364746,25.14812469482422,239.5826873779297
4074.418,14.399456024169922,-121.49398040771484,-47.65299606323242,-0.9485067129135132,-0.4903691112995147,0.5283614993095398,-40.23004913330078,50.754825592041016,-125.51870727539062,0.4448678195476532,1.5628772974014282,-1.826825857162476,-0.9614979028701782,-0.1856604367494583,-0.1741645038127899,-139.08389282226562,78.27863311767578,112.78720092773438,131.29714255422562,1.191340725280261,2.444951029366292,0.9946262058613304,-98.85384368896484,27.52380752563477,238.305908203125
4097.111,16.032276153564453,-129.37442016601562,-50.43233489990234,-0.9590175151824952,-0.517341136932373,0.6125591993331909,-38.89863204956055,48.12302780151367,-124.18578338623048,3.095428466796875,5.033481121063232,-7.165547847747803,-0.9576465487480164,-0.1925927847623825,-0.1870715469121933,-138.7608642578125,78.06990814208984,113.06053161621094,139.77909312702243,1.2500340871660292,9.287770752312936,0.9945726000326156,-99.86223220825195,29.94688034057617,237.2463150024414
4120.298,24.9485092163086,-138.8135528564453,-52.55345916748047,-0.9594947099685668,-0.5138394832611084,0.6263661980628967,-37.46553039550781,45.32080841064453,-122.8962173461914,2.268742322921753,3.269648551940918,-9.253950119018556,-0.934686839580536,-0.2009060233831405,-0.1965614855289459,-138.21607971191406,77.85088348388672,113.57636260986328,150.51078579029945,1.2557849047872311,10.073399931815931,0.9760323436802816,-100.75054931640624,32.53007507324219,236.4725799560547
4141.94,25.120418548583984,-150.05889892578125,-56.29909896850586,-0.9881873726844788,-0.4771756529808044,0.6525498032569885,-36.09974670410156,42.31021881103516,-121.6540756225586,6.12272834777832,10.879717826843262,-7.7527174949646,-0.9042690992355348,-0.1555355489253997,-0.2507406771183014,-138.36976623535156,77.52879333496094,113.3181610107422,162.22915003025656,1.276727117696434,14.695601075463006,0.9511912520484588,-102.27001953125,35.21857452392578,234.9722366333008
4153.116,22.468032836914062,-161.17771911621094,-60.9725341796875,-0.9681578874588012,-0.5164704322814941,0.6979974508285522,-34.90354919433594,39.0509033203125,-120.50187683105467,9.11952018737793,22.20468521118164,-11.230096817016602,-0.8929393291473389,-0.1807425171136856,-0.2479531913995742,-138.817626953125,76.98341369628906,112.68814849853516,173.78354226841503,1.3004890787057304,26.50148615257697,0.944187104421536,-103.91407775878906,37.93251037597656,233.19002532958984
4177.085,26.491613388061523,-171.4125213623047,-65.06547546386719,-0.9377444982528688,-0.5155815482139587,0.737406313419342,-33.72495651245117,35.573143005371094,-119.4265365600586,18.555274963378903,37.085693359375,-11.722198486328123,-0.9468955993652344,-0.2110792100429535,-0.2462446689605713,-139.7274627685547,76.20919799804688,111.38591766357422,185.25003146295057,1.299598841155582,43.09358210064534,1.00090066739967,-106.00250625610352,40.63605499267578,230.8124542236328
4200.768,26.83023452758789,-180.31820678710932,-68.037841796875,-0.8573412895202637,-0.4858125448226928,0.7729910612106323,-32.623016357421875,31.9030704498291,-118.42072296142578,26.00309944152832,17.25520896911621,-15.39749526977539,-1.0562093257904053,-0.2246570885181427,-0.1881973296403885,-139.06727600097656,75.73188018798828,111.5447998046875,194.5858810399683,1.252422890295011,34.799228119552225,1.0961145844262106,-106.44425964355467,43.82880973815918,229.96552276611328
4219.271,18.52491950988769,-185.4015655517578,-73.05866241455078,-0.7818830013275146,-0.5400436520576477,0.7770282030105591,-31.83144187927246,28.03278923034668,-117.56932067871094,9.177629470825195,-1.1071186065673828,-14.845834732055664,-1.0946323871612549,-0.1346936076879501,-0.1416651010513305,-137.945068359375,75.59380340576172,112.53804779052734,200.1361569174692,1.2275019357078434,17.488664992053486,1.1119493836637648,-106.11362648010254,47.56101417541504,230.10736846923828
4243.291,21.984739303588867,-188.3248748779297,-75.64338684082031,-0.6800500154495239,-0.5052614212036133,0.8044126629829407,-31.066898345947266,24.124282836914062,-116.82144165039062,-1.5377354621887207,-30.108434677124023,-16.938907623291016,-1.1127722263336182,-0.0879842787981033,-0.091380551457405,-135.38645935058594,75.87828063964844,115.2536849975586,204.13600670333645,1.1682623248384325,34.58047224270808,1.119979315076738,-104.31956100463869,51.753997802734375,232.0751266479492
4254.377,21.07808303833008,-187.8450164794922,-79.89593505859375,-0.571682333946228,-0.5269284844398499,0.7978805303573608,-30.44696617126465,20.16522979736328,-116.2400360107422,-14.186622619628906,-46.718021392822266,-18.27709579467773,-1.100669264793396,-0.149200826883316,-0.0815573036670684,-131.83900451660156,76.31446838378906,119.2457504272461,205.21548732890133,1.1140411389996454,52.13334839524306,1.1137258688676233,-101.39203834533691,56.14923858642578,235.48578643798828
4283.601,22.506309509277344,-186.94190979003903,-80.36261749267578,-0.5056057572364807,-0.4921341836452484,0.7946245074272156,-29.8442611694336,16.172122955322266,-115.7299575805664,-18.7243881225586,-49.82897186279297,-11.438325881958008,-1.0982578992843628,-0.1466942876577377,-0.0690090358257293,-128.32557678222656,76.83702087402344,123.28275299072266,204.72411165749045,1.062667090045982,54.44597732109414,1.110158490665864,-98.48131561279295,60.66489791870117,239.01271057128903
4302.75,16.39298439025879,-187.31375122070312,-80.97100830078125,-0.3882057964801788,-0.4423714280128479,0.774816632270813,-29.40499687194824,12.193921089172363,-115.27405548095705,-20.889442443847656,-49.92082214355469,-8.980937004089355,-1.0356166362762451,-0.2047077268362045,-0.0966195464134216,-124.6934814453125,77.29757690429688,127.47515869140624,204.7229237746372,0.973004128658466,54.855396439864194,1.0600671712244023,-95.28848457336426,65.10365581512451,242.74921417236328
4312.897000000001,6.33026647567749,-182.0380859375,-79.74815368652344,-0.270564466714859,-0.4845649003982544,0.7579448223114014,-29.23946189880371,8.304134368896484,-114.8823013305664,-21.16153144836425,-54.30062103271485,-15.740169525146484,-1.0561769008636477,-0.2120404839515686,-0.0651948004961013,-120.1129379272461,77.6263198852539,132.62989807128906,198.84090379459423,0.9394086581543348,60.36655360759775,1.0792224862205573,-90.87347602844238,69.32218551635742,247.51219940185547
4334.175,5.206411361694336,-175.68017578125,-77.89275360107422,-0.1739840805530548,-0.5041008591651917,0.7507774829864502,-29.142253875732425,4.521669864654541,-114.5318832397461,-25.137754440307617,-58.02150344848633,-27.972551345825195,-1.032792568206787,-0.2135276198387146,0.0011047637090086,-114.50655364990234,77.68012237548828,138.87823486328125,192.2444067986264,0.9208989985098506,69.14380080324442,1.0546353653656844,-85.36429977416992,73.15845251083374,253.4101181030273
4352.9580000000005,6.554547309875488,-171.25465393066406,-74.70862579345703,-0.1484358757734298,-0.4632181227207184,0.7740168571472168,-29.012699127197266,0.8681245446205139,-114.17467498779295,-20.68516159057617,-64.706298828125,-28.59969711303711,-0.980280339717865,-0.247887909412384,0.0236488804221153,-108.196533203125,77.61349487304688,145.7563934326172,186.9558700637552,0.9141697509661904,73.70701250912508,1.011413481033071,-79.18383407592773,76.74537032842636,259.93106842041016
4375.276000000001,2.38584041595459,-169.9781036376953,-71.35728454589844,-0.155037447810173,-0.4167248010635376,0.771685004234314,-28.969358444213867,-2.7614991664886475,-113.77727508544922,-15.133573532104492,-64.09416961669922,-30.6517391204834,-0.9736483693122864,-0.3166978657245636,-0.020166328176856,-102.0804672241211,77.30146026611328,152.32672119140625,184.3640691906148,0.8906143474057951,72.64032446111455,1.02405828252649,-73.11110877990723,80.06295943260193,266.10399627685547
4396.611,-5.326552867889404,-167.34381103515625,-69.04551696777344,-0.1325712203979492,-0.4234478175640106,0.7347568273544312,-29.109359741210938,-6.356189727783203,-113.3596420288086,-7.301348209381103,-58.35417556762695,-38.013301849365234,-0.9556010961532592,-0.2281747907400131,-0.048569731414318,-96.7427978515625,76.73065185546875,157.9596710205078,181.1066168602672,0.8583418771220909,70.02521409708804,0.9836646831660768,-67.63343811035156,83.08684158325195,271.3193130493164
4411.79,-4.918797969818115,-164.57562255859375,-67.15377044677734,-0.06696368008852,-0.4176045656204223,0.8088295459747314,-29.269195556640625,-9.88306713104248,-112.92396545410156,-5.990554332733154,-57.577880859375,-31.10065078735352,-0.9821168184280396,-0.2080675065517425,-0.0589502491056919,-92.0163116455078,76.20842742919922,162.9501495361328,177.81720670181238,0.9127337739558614,65.71415056794635,1.0056444024562048,-62.74711608886719,86.0914945602417,275.8741149902344
4435.144,-2.911724090576172,-160.7338104248047,-63.495452880859375,-0.0072776074521243,-0.4352062344551086,0.7770903706550598,-29.424190521240234,-13.30583667755127,-112.44581604003906,-2.6508021354675293,-44.28940582275391,-28.83965301513672,-1.032321810722351,-0.2491034865379333,-0.0238265711814165,-88.58739471435547,75.63754272460938,166.52833557128906,172.84533111253575,0.8906889885047645,52.91789684149845,1.0622187031834316,-59.163204193115234,88.94337940216064,278.9741516113281
4456.933,-2.009819984436035,-160.40093994140625,-61.3282585144043,0.0081332027912139,-0.3767197430133819,0.8144428730010986,-29.60166549682617,-16.70032501220703,-111.91651916503906,-4.953391075134277,-28.23033142089844,-28.64251136779785,-0.9334394931793212,-0.2257018536329269,-0.059477724134922,-86.78577423095703,75.0518798828125,168.49441528320312,171.73717187279536,0.8973857070100878,40.52013268403023,0.9621788886836362,-57.18410873413086,91.75220489501952,280.4109344482422
4479.281,-6.04442024230957,-159.77383422851562,-60.32471084594727,0.0795250535011291,-0.4013171195983886,0.721471905708313,-29.901460647583008,-20.07177925109864,-111.35062408447266,3.048411130905152,-21.7185173034668,-28.2684268951416,-0.972655177116394,-0.228181779384613,-0.0082296375185251,-85.33173370361328,74.4764175415039,169.9267578125,170.88968330122793,0.8293982007115097,35.778356074727334,0.9990959638333738,-55.43027305603027,94.54819679260254,281.27738189697266
4501.808999999999,-0.5502826571464539,-157.1490478515625,-59.18741226196289,0.1401323974132537,-0.3930836021900177,0.7483761310577393,-30.130958557128903,-23.385522842407227,-110.7614517211914,0.3671430349349975,-13.73625659942627,-30.6528377532959,-0.9419655203819276,-0.2128913402557373,-0.0411194562911987,-84.67977142333984,73.87283325195312,170.59320068359375,167.92640001477727,0.8568655907739654,33.5919038118304,0.9665984554249832,-54.54881286621094,97.25835609436037,281.3546524047852
4511.502,4.690962791442871,-155.2188262939453,-58.61480712890625,0.2314380258321762,-0.3661808371543884,0.693648636341095,-30.26775550842285,-26.573915481567383,-110.16908264160156,6.922707557678223,-5.612517356872559,-23.866464614868164,-0.952844262123108,-0.2244206219911575,-0.0061822114512324,-84.37240600585938,73.41777801513672,170.7433624267578,165.98368830321715,0.8178021741216175,25.47611360123606,0.9789356583423936,-54.10465049743652,99.9916934967041,280.9124450683594
4535.155,-1.5950164794921875,-151.14234924316406,-58.39228057861328,0.2863054573535919,-0.3102209270000458,0.6845524907112122,-30.545806884765625,-29.732929229736328,-109.59384155273438,12.424393653869627,-3.861983060836792,-17.431684494018555,-0.9499176144599916,-0.2170907258987426,-0.0017366043757647,-84.03462982177734,73.10182189941406,170.7833251953125,162.03768772567673,0.8042511740732129,21.75187566918111,0.974410012944942,-53.48882293701172,102.8347511291504,280.3771667480469
4556.843,-4.673111915588379,-146.45614624023438,-60.89800262451172,0.3967335522174835,-0.3958188891410827,0.6240919232368469,-30.930776596069336,-32.843650817871094,-109.0586929321289,13.545121192932127,6.156012058258057,-19.53563690185547,-0.9796565175056458,-0.2032158821821212,0.0409445762634277,-84.25521087646484,72.7771987915039,170.2113037109375,158.68146542735093,0.8387853319565441,24.55621920723496,1.00134911264141,-53.32443428039551,105.620849609375,279.2699966430664
4580.014,1.5870789289474487,-142.817626953125,-61.52613067626953,0.397891640663147,-0.3269795179367065,0.6267204880714417,-31.1479721069336,-35.87811279296875,-108.57430267333984,13.04774284362793,12.393197059631348,-9.01406478881836,-0.9702058434486388,-0.2313303798437118,0.0251919161528348,-84.83668518066406,72.66009521484375,169.30667114257812,155.5148164775372,0.8111793470178084,20.126805277771084,0.9977212816914212,-53.68871307373047,108.5382080078125,277.880973815918
4602.743,-2.0238046646118164,-139.33543395996094,-62.919071197509766,0.4566847383975982,-0.3700820803642273,0.5824002027511597,-31.48728370666504,-38.87628555297852,-108.09707641601562,13.303539276123049,26.48932456970215,-11.424395561218262,-0.9515929222106934,-0.2588806748390198,0.0277754552662372,-86.29304504394531,72.4950180053711,167.47854614257812,152.8962669998468,0.8274730766959062,31.767676770100103,0.9865696981571244,-54.80576133728027,111.3713035583496,275.5756225585937
4612.473,7.206695079803467,-136.02838134765625,-62.46080780029297,0.4894977807998657,-0.3477705717086792,0.528836190700531,-31.66792869567871,-41.82366561889648,-107.6135025024414,9.865503311157228,34.82328796386719,-0.6989191770553589,-0.8745165467262268,-0.2432934492826461,-0.0136026628315448,-88.35479736328125,72.5356216430664,165.09104919433594,149.85662980696517,0.8001375910112106,36.2005252477492,0.9078303395447416,-56.68686866760254,114.35928726196288,272.70455169677734
4635.155,9.73233413696289,-134.39759826660156,-62.595977783203125,0.5461726188659668,-0.3421125710010528,0.5577369332313538,-31.801074981689453,-44.73691177368164,-107.1368408203125,18.9788818359375,39.93787384033203,4.81653356552124,-0.9585866928100586,-0.3097952902317047,-0.0088799446821212,-90.53812408447266,72.63616180419922,162.38088989257812,148.57889884576335,0.8523004326680672,44.47955393455007,1.0074425159282436,-58.7370491027832,117.37307357788086,269.5177307128906
4658.929,7.913918018341064,-134.4169158935547,-60.590946197509766,0.6133928298950195,-0.2912055253982544,0.516396164894104,-32.027156829833984,-47.65969467163086,-106.59039306640624,24.04762077331543,49.93290710449219,8.570893287658691,-0.9747103452682496,-0.3176208436489105,-0.0301775224506855,-93.31715393066406,72.76858520507812,158.94630432128906,147.65432651245104,0.8530629642098129,56.0806873042001,1.0255993078948804,-61.28999710083008,120.42827987670898,265.5366973876953
4678.852,1.8976820707321167,-130.37698364257812,-59.7868537902832,0.6540229916572571,-0.3243030905723572,0.4477075934410095,-32.4468879699707,-50.50472640991211,-105.99847412109376,29.0981674194336,54.67584991455078,12.287261962890623,-0.9665247201919556,-0.2707836925983429,-0.058601226657629,-96.40160369873048,72.93498992919922,155.1059112548828,143.4441596828514,0.8563647922444216,63.14371479088452,1.005449126850837,-63.954715728759766,123.43971633911131,261.10438537597656
4701.532,15.601336479187012,-125.20140075683594,-57.0005111694336,0.6829627156257629,-0.3048737049102783,0.3994294703006744,-32.6561279296875,-53.2417221069336,-105.3524398803711,25.88263320922852,69.45382690429688,21.174724578857425,-0.9127406477928162,-0.2930246889591217,-0.0687871500849723,-100.63524627685548,73.13883209228516,150.13189697265625,138.4480072987234,0.8478973691581508,77.08510708616782,0.9610882532263372,-67.97911834716797,126.38055419921876,255.4843368530273
4711.762000000001,12.768818855285645,-121.42204284667967,-53.581356048583984,0.7476235628128052,-0.2255777716636657,0.4113593399524688,-32.94670104980469,-55.8993034362793,-104.67081451416016,29.654022216796875,70.02830505371094,29.323617935180664,-1.058825135231018,-0.3298821151256561,-0.1302632838487625,-105.10710144042967,73.3846435546875,144.8626251220703,133.33160518056152,0.88263402909008,81.50582255973085,1.1166473928666218,-72.160400390625,129.2839469909668,249.53343963623047
4734.348,9.415428161621094,-116.26427459716795,-48.646915435791016,0.7885116338729858,-0.2523070871829986,0.317583680152893,-33.51593017578125,-58.43654251098633,-103.78836059570312,30.62232780456543,88.73145294189453,28.80838394165039,-0.981101095676422,-0.2562666237354278,-0.154074490070343,-110.87298583984376,73.38768005371094,138.24046325683594,126.38257085725596,0.8867180255838211,98.1881901588956,1.0256563220049235,-77.3570556640625,131.8242225646973,242.02882385253903
4751.683,18.52912139892578,-109.85977172851562,-42.95318222045898,0.7724351286888123,-0.2332412004470825,0.277688980102539,-34.06685256958008,-60.79610443115234,-102.73983001708984,24.403018951416016,122.98287963867188,29.26562118530273,-1.0198249816894531,-0.2629743814468384,-0.135868638753891,-118.58895874023438,72.89616394042969,129.6916046142578,119.40466342200226,0.8533279881082575,128.75081592566653,1.0619128050702074,-84.5221061706543,133.69226837158203,232.43143463134768
4775.426,18.59021377563477,-104.93083953857422,-34.96595764160156,0.804164469242096,-0.2107383608818054,0.2138006687164306,-34.86564636230469,-62.95114517211914,-101.42472839355467,18.405492782592773,155.7362823486328,19.95401382446289,-0.9351406097412108,-0.2814830839633941,-0.1888077855110168,-127.05070495605467,71.51403045654297,120.45545959472656,112.15478290419937,0.8583716422868156,158.08451686376503,0.9946703305187508,-92.18505859375,134.4651756286621,221.88018798828125
4791.487,14.399988174438477,-99.65371704101562,-29.723011016845703,0.830287516117096,-0.1533166915178299,0.1919178068637848,-35.9497184753418,-64.96646118164062,-99.9029541015625,6.862082004547119,131.7825164794922,15.63390827178955,-0.7125879526138306,-0.2040020823478698,-0.1748794913291931,-133.25857543945312,70.03163146972656,113.75202941894533,104.98419101665884,0.8658613121679911,132.88393020585858,0.7615650177760237,-97.30885696411131,134.9980926513672,213.6549835205078
4815.454,7.59376335144043,-88.7032699584961,-24.135374069213867,0.8829424381256104,-0.2083751261234283,0.1092964485287666,-37.29030990600586,-66.67974853515625,-98.27144622802734,-1.907423973083496,95.07215881347656,8.493390083312988,-0.8845182061195374,-0.238415390253067,-0.226515918970108,-137.1643829345703,68.79767608642578,109.68030548095705,92.24126855496078,0.9137577665285004,95.46984509663416,0.9436756947242624,-99.87407302856444,135.47742462158203,207.9517517089844
4836.820000000001,7.802460670471191,-76.91571807861328,-20.24221420288086,0.909809112548828,-0.1865115165710449,0.0702604204416275,-38.63853073120117,-68.14338684082031,-96.64656829833984,-4.218433856964111,74.68762969970703,7.741044521331787,-0.8301262855529785,-0.2308896780014038,-0.241949051618576,-139.98162841796875,67.77859497070312,106.80032348632812,79.91653968921752,0.9313837521511484,75.2061233188321,0.8949631483769069,-101.34309768676758,135.92198181152344,203.446891784668
4851.714,-1.2726441621780396,-63.20376968383789,-17.645889282226562,0.9399011135101318,-0.1669725924730301,0.0446178689599037,-40.01766204833984,-69.34671783447266,-95.19812774658205,-1.458943247795105,31.84821510314941,4.394506931304932,-0.8175036311149597,-0.2541182935237884,-0.2527467608451843,-141.0956268310547,67.32988739013672,105.6623764038086,65.63317403548109,0.9556593033321412,32.18305473111663,0.8926193024505572,-101.07796478271484,136.67660522460938,200.86050415039065
4874.017,-13.131296157836914,-48.84492492675781,-13.759244918823242,0.9711081385612488,-0.1730836033821106,0.0247567929327487,-41.44330978393555,-70.26810455322266,-93.96229553222656,0.0926340222358703,3.574503421783448,10.293249130249023,-0.8875767588615417,-0.2794673144817352,-0.2367318570613861,-141.47756958007812,67.4094009399414,105.2290496826172,52.41731060080813,0.9867227824145668,10.896634041381285,0.9601752209271625,-100.03425979614258,137.67750549316406,199.1913452148437
4896.442999999999,-11.21086883544922,-33.72986602783203,-9.037787437438965,0.964859664440155,-0.2500765025615692,-0.0002532316138967,-42.564571380615234,-70.89144134521484,-93.0136947631836,-2.67978310585022,-13.070585250854492,4.340973854064941,-0.8911397457122803,-0.2823456823825836,-0.2590309679508209,-141.2100372314453,67.66304016113281,105.5628890991211,36.6751829452216,0.9967409359122588,14.030876319600663,0.9700238002780002,-98.64546585083008,138.55448150634766,198.5765838623047
4919.277,-9.014971733093262,-20.926889419555664,-2.054821252822876,0.975533366203308,-0.1805363595485687,0.014251148328185,-43.48750305175781,-71.22606658935547,-92.2300262451172,-1.012137770652771,-22.02485656738281,1.8222177028656008,-0.898222029209137,-0.281639039516449,-0.2544204294681549,-140.52772521972656,68.0237808227539,106.37863159179688,22.87852063634871,0.9922004943173932,22.12327297298491,0.9751169761967474,-97.04022216796876,139.24984741210938,198.6086578369141
