Timestamp (ms),Wrist Gyroscope X (deg/s),Wrist Gyroscope Y (deg/s),Wrist Gyroscope Z (deg/s),Wrist Accelerometer X (g),Wrist Accelerometer Y (g),Wrist Accelerometer Z (g),Wrist Roll (deg),Wrist Pitch (deg),Wrist Yaw (deg),Arm Gyroscope X (deg/s),Arm Gyroscope Y (deg/s),Arm Gyroscope Z (deg/s),Arm Accelerometer X (g),Arm Accelerometer Y (g),Arm Accelerometer Z (g),Arm Roll (deg),Arm Pitch (deg),Arm Yaw (deg),Wrist Gyroscope Magnitude (deg/s),Wrist Accelerometer Magnitude (g),Arm Gyroscope Magnitude (deg/s),Arm Accelerometer Magnitude (g),Difference Roll (deg),Difference Pitch (deg),Difference Yaw (deg)
0.0,69.73148345947266,143.46031188964844,-20.27756690979004,0.5425616502761841,0.0705581679940223,0.5862447023391724,13.50641918182373,-35.79014205932617,-121.44261169433594,-16.237998962402344,-79.29200744628906,8.944281578063965,-0.8854876160621643,-0.000751573650632,-0.3864642977714538,171.1337890625,67.41185760498047,60.14380645751953,160.79340966816682,0.8018942888198131,81.43030902626512,0.966148816960612,157.62736988067627,103.20199966430664,181.58641815185547
22.645,64.94943809509277,147.30169677734375,-20.33756160736084,0.4912827312946319,0.130187053233385,0.6105242371559143,14.007004261016846,-34.2706413269043,-121.0031852722168,-9.087039470672607,-90.81273651123048,11.190085411071776,-0.902677446603775,0.0149662643379997,-0.3632010668516158,170.36790466308594,68.4076919555664,59.3382511138916,162.37293094023775,0.7986308360101046,92.33009833343908,0.973649340064778,156.3609004020691,102.6783332824707,180.3414363861084
42.55,57.64042282104492,150.65637715657553,-23.527900060017902,0.4607836306095123,0.1456529026230175,0.5972010691960653,14.422128995259603,-32.707736333211265,-120.59808349609376,-4.120388031005859,-89.5021743774414,14.016506830851236,-0.9005171259244283,0.0286335100536234,-0.3483377595742543,169.4822031656901,69.28310902913411,58.35816828409831,163.53517181698902,0.7719903603315754,91.30979906640646,0.9666970722551128,155.0600741704305,101.99084536234538,178.95625178019205
65.045,55.325798988342285,153.25005340576172,-27.212289333343502,0.4197684004902839,0.1443341169506311,0.6118138283491135,14.845165014266968,-31.089350700378414,-120.23104667663574,2.980947971343994,-88.57161521911621,17.81120538711548,-0.9083065837621688,0.0378461684886133,-0.3242725580930709,168.42258071899414,70.11148643493652,57.09071636199951,165.7617499599994,0.7623009066684776,91.93485770776394,0.966871050730319,153.57741570472717,101.20083713531494,177.32176303863525
87.313,56.2788589477539,155.40996704101562,-30.754252243041996,0.3911858260631561,0.1456183895468711,0.6485968112945557,15.3244234085083,-29.430800247192384,-119.88562469482422,7.329560470581055,-89.15701599121094,21.330364608764647,-0.9169776678085328,0.0440426662447862,-0.3038820624351501,167.0827178955078,70.92633514404297,55.49197082519531,168.68776684435073,0.7810202136933858,93.7834288987033,0.9694380737937246,151.75829448699952,100.35713539123536,175.37759552001953
98.16,50.716775512695314,159.93311767578126,-35.40454940795898,0.3217136442661285,0.1947272628545761,0.6997541666030884,16.22654495239258,-26.14475288391113,-119.15949401855468,16.175852584838868,-88.46268768310547,24.636465644836427,-0.9056559085845948,0.0589797087013721,-0.2667097687721252,164.5813995361328,72.534423828125,52.5240592956543,171.87504004978393,0.8047110332982289,94.4459086700213,0.9474096861269772,148.35485458374023,98.67917671203614,171.68355331420898
122.444,44.208395385742186,162.10189819335938,-40.70299911499024,0.2607109129428863,0.2125044852495193,0.7286645889282226,17.032913589477538,-22.782281494140623,-118.48317413330078,19.58647785186768,-72.59929962158203,23.094707107543947,-0.935796856880188,0.0571156203746795,-0.251057356595993,162.26368713378906,73.82386932373046,49.6869140625,173.26150364295484,0.8133626613214666,79.42517837541234,0.9716387858223712,145.23077354431152,96.6061508178711,168.1700881958008
145.55599999999998,43.16464462280273,162.66206970214844,-44.91086883544922,0.1944190725684165,0.2121758729219436,0.7934850931167603,17.838421249389647,-19.381925582885746,-117.8434799194336,23.189592361450195,-60.130856323242185,17.952467250823975,-0.9646354198455812,0.0597335755825042,-0.2315082013607024,160.37328491210937,74.89067840576172,47.22848510742188,174.54426462751994,0.8524523542841106,68.51815081479884,0.9942431628894332,142.53486366271972,94.27260398864746,165.07196502685548
168.554,40.860450744628906,161.83941345214845,-47.627760314941405,0.1436263993382453,0.2459219127893447,0.857986855506897,18.612075424194337,-15.978562355041504,-117.22110290527344,19.712811946868896,-45.22584609985351,6.767614650726318,-0.9770754814147948,0.0567213028669357,-0.2176540851593017,159.36348571777344,75.7308349609375,45.7619873046875,173.92060423750775,0.911151882169992,55.71847391705497,1.0031254975856958,140.7514102935791,91.709397315979,162.98309020996095
177.93800000000002,34.17434310913086,160.7591125488281,-49.37587127685547,0.1012273579835891,0.2851853847503662,0.8870618939399719,19.265335464477538,-12.585471057891844,-116.6008514404297,15.44180965423584,-28.28190975189209,-8.202737522125243,-1.007814562320709,0.0550658784806728,-0.2159436076879501,159.68524780273438,76.33221282958985,45.76508026123047,171.75960251717342,0.9410040365272666,43.51584643973203,1.0326773343667446,140.41991233825684,88.91768388748169,162.36593170166014
199.837,29.249488067626952,159.5174102783203,-50.97361068725586,0.052882845699787,0.302024894952774,0.8975899696350098,19.831895446777345,-9.200321531295776,-115.98436431884764,8.271367073059082,-12.986897242069244,-21.09794130325317,-1.0432515621185303,0.0346776228398084,-0.2166319280862808,161.29239196777343,76.72186279296875,47.24178466796875,170.1839848085329,0.9531834020179552,34.52540691991791,1.066861738640134,141.4604965209961,85.92218432426452,163.2261489868164
222.381,29.111395263671877,157.3231414794922,-52.64593353271484,-0.0014368668198585,0.2929137617349624,0.9186867594718932,20.400606536865237,-5.850909543037415,-115.38336791992188,5.698435688018799,-5.72884556055069,-30.65461473464966,-1.0218921065330506,0.060259611532092,-0.1942362815141677,163.78960266113282,77.01626434326172,49.689501953125,168.61619430047068,0.970494577370696,37.73190956130971,1.0437403174410635,143.38899612426758,82.86717388629913,165.07286987304687
237.856,28.104546356201173,155.15457763671876,-53.13958969116211,-0.0526471465826034,0.3435465723276138,0.945401132106781,20.955521392822263,-2.532999539375305,-114.7750228881836,-0.2333950996398925,-6.698766672611237,-40.998705291748045,-1.0374945044517516,0.0387471180409193,-0.1690340176224708,167.2113830566406,77.36049194335938,53.208099365234375,166.54959574229596,1.0135630031775782,43.79918262769498,1.0551927793647142,146.25586166381837,79.89349148273467,167.98312225341795
260.15700000000004,22.50714702606201,154.46862182617187,-52.82043685913086,-0.0847969114780425,0.3545378893613815,0.9143121719360352,21.41336708068848,0.7606469869613648,-114.13936004638671,3.408434295654297,-18.71746860742569,-45.543427276611325,-1.0521398186683657,0.0128662284463643,-0.1693808183073996,99.3407989501953,77.916162109375,57.372206115722655,165.03479676561298,0.9896916276423589,55.91078176600477,1.0699953418898789,77.92743186950683,77.15551512241363,171.51156616210938
283.43800000000005,21.81148624420166,154.58102111816407,-52.325006103515626,-0.1338576212525367,0.3658827751874923,0.8959238052368164,21.86653633117676,4.044599413871765,-113.46999053955078,7.684030246734619,-34.00169578790665,-47.68095779418945,-1.046693503856659,-0.0084602210670709,-0.1607917383313178,32.281072998046874,78.71369171142578,62.2684944152832,164.88441737240322,0.9801476626147426,67.92573310441271,1.0630116769709086,10.414536666870124,74.66909229755402,175.73848495483395
304.98900000000003,22.913739585876463,154.19716186523436,-52.98922958374023,-0.1880310118198394,0.3686752051115036,0.9102756023406984,22.35207862854004,7.32314178943634,-112.79325256347656,16.312305164337157,-51.99600028991699,-50.59052734375,-1.0585169672966004,-0.0169896982610225,-0.1296815134584903,-33.21761779785156,79.78104248046876,68.56484985351562,164.86324934488422,1.0035654043860027,81.95841352286678,1.0713504473856312,-55.56969642639159,72.4579006910324,181.35810241699215
328.403,20.85340824127197,153.51197814941406,-53.26267852783203,-0.2627893537282943,0.4001366078853607,0.9149452686309816,22.8039306640625,10.591364002227785,-112.10625915527343,25.595066261291503,-70.97566146850586,-47.02882041931152,-1.0645685195922852,-0.0348210327327251,-0.1092333413660525,-97.46698913574218,81.139404296875,75.92977142333984,164.04406416092397,1.041039158005127,92.74188437560676,1.0734085632625745,-120.27091979980467,70.54804029464722,188.0360305786133
338.499,16.09299240112305,152.70892944335938,-51.13838958740234,-0.3279536843299865,0.4015116691589355,0.8803961515426636,23.183607864379884,13.8218430519104,-111.36827850341795,35.534003829956056,-80.93795623779297,-38.48924522399902,-1.0219788432121275,-0.0386937856674194,-0.1067150987684726,-160.06656494140626,82.57151489257812,84.76006469726562,162.00485833998732,1.0328353491324167,98.0838501157658,1.0309975966110427,-183.2501728057861,68.74967184066773,196.1283432006836
359.92600000000004,15.197222995758056,152.1723419189453,-48.618717956542966,-0.4000267148017883,0.4086124837398529,0.8786968469619751,23.585612106323243,17.028806686401367,-110.56867218017578,42.16926345825196,-81.26629943847657,-30.31509895324707,-1.0099723935127258,-0.0492443233728408,-0.1010877318680286,-148.4692596435547,83.85860290527344,95.65515594482422,160.75450580782504,1.0564393829797676,98.7700069154674,1.0193583258329184,-172.05487174987792,66.82979621887208,206.223828125
383.481,15.08596124649048,152.24794921875,-45.912061309814455,-0.4601604044437408,0.3950002253055572,0.8649787664413452,24.03584747314453,20.22077922821045,-109.68904876708984,45.84405288696289,-78.14132385253906,-23.220875549316403,-1.0080395340919497,-0.0642690025269984,-0.0642066014930605,-134.21307678222655,84.86472930908204,109.12573852539064,160.09220306501985,1.0602442312983578,95.02033021097398,1.015928905907945,-158.2489242553711,64.64395008087158,218.81478729248047
405.08,16.826879596710206,153.16754150390625,-43.34001007080078,-0.50683553814888,0.381258338689804,0.8252318382263184,24.57839889526367,23.408044052124023,-108.72459411621094,46.968310546875,-75.53704071044922,-14.280305862426758,-1.0198734164237977,-0.0381347946822643,-0.0407481065019964,-117.6886459350586,85.52577667236328,124.82098541259764,160.5053076679503,1.0417843717273063,90.43342707960366,1.0278145859109826,-142.26704483032228,62.11773262023926,233.5455795288086
427.16,21.907524204254152,156.1428955078125,-40.67042999267578,-0.5453735291957855,0.3895797431468963,0.8005252599716186,25.30301628112793,26.626422500610357,-107.64171752929688,42.75839309692383,-74.34718475341796,-11.179315757751464,-1.0200180649757384,-0.0429557666182517,-0.0041638752445578,-99.48558807373048,85.76811370849609,70.25656433105469,163.37642864794077,1.0470194371174495,87.02420929207382,1.0293353672801089,-124.7886043548584,59.14169120788574,177.89828186035157
437.307,21.181075191497804,157.34811401367188,-39.49268264770508,-0.602991646528244,0.3663915634155273,0.7639765262603759,26.089743041992183,29.855264282226564,-106.48174133300782,37.90788459777832,-68.98135070800781,-11.403127861022949,-1.00600506067276,-0.0563911117613315,0.017521415837109,-82.41414184570313,85.60128173828124,14.623794555664062,164.19976386215603,1.0481371375427369,80.31154241606615,1.0161509570184808,-108.5038848876953,55.74601745605469,121.10553588867184
462.814,31.00213165283203,158.53237915039062,-38.85132751464844,-0.671614533662796,0.3384095668792725,0.7079506397247315,27.165171813964843,33.07718925476074,-105.2416732788086,30.50472755432129,-64.103466796875,-10.821375370025637,-0.9805766224861144,-0.0570190139114856,0.0444890731945633,-67.40301666259765,85.1343978881836,-42.92952270507813,166.93055807611933,1.0457884436911,72.22226620856938,0.988719770132806,-94.5681884765625,52.05720863342285,62.31215057373045
483.807,38.76224327087402,158.9061065673828,-37.46339912414551,-0.7360863089561462,0.3649590134620666,0.6859122276306152,28.53424415588379,36.26471481323242,-103.87164154052736,28.32361946105957,-59.09613189697266,-9.968706226348877,-0.9690614342689514,-0.0711463965475559,0.0517302364110946,-55.694593048095705,84.46790008544922,-103.7508544921875,168.91705474661333,1.0797948758599416,66.7969308844432,0.9796661549635236,-84.2288372039795,48.2031852722168,0.120787048339838
505.31000000000006,40.55883140563965,159.57035217285156,-34.539574432373044,-0.8024754524230957,0.3924386382102966,0.6615371584892273,30.13601264953613,39.40014190673829,-102.303271484375,27.71594657897949,-51.32693939208984,-7.876540851593018,-0.9690730690956116,-0.1173769913613796,0.0780639141798019,-47.58119277954102,83.71266479492188,-168.15707702636718,169.3382706314636,1.1177116342292417,60.04925669916081,0.9850338520157722,-77.71720542907715,44.3125228881836,-65.85380554199219
525.202,39.30827369689941,157.61349792480468,-32.83964080810547,-0.8704365968704224,0.3939240634441375,0.6114438891410827,31.880912399291997,42.45141296386719,-100.58189697265624,29.719814682006835,-41.184119415283206,-6.350074076652527,-0.9572072625160216,-0.1062267437577247,0.0771787405014038,-42.58696899414063,83.01663513183594,-163.72025451660156,166.8027811989626,1.140257465886597,52.87820557610856,0.973918753052782,-74.46788139343262,40.56522216796875,-63.13835754394531
547.3299999999999,46.88213882446289,152.76639556884766,-32.74941635131836,-0.9408730030059814,0.4107978880405426,0.5647008001804352,33.89786911010742,45.38755035400391,-98.77926177978516,27.160437965393065,-33.82478427886963,-6.534178996086121,-0.9447742938995362,-0.0819431509822606,0.0615932635962963,-39.18808212280273,82.41574096679688,-160.83142700195313,163.45124474106643,1.1811958145872157,46.057838765803645,0.95989123734229,-73.08595123291016,37.02819061279297,-62.05216522216797
557.341,46.28382110595703,141.85343017578126,-32.31781539916992,-0.9954822540283204,0.4565199375152587,0.5661965429782867,35.968750381469725,48.11382217407227,-96.9743637084961,21.709517765045167,-23.32115707397461,-8.374499106407166,-0.9309295892715456,-0.0648454073816537,0.021452359855175,-37.41756362915039,81.93982849121093,-159.47508239746094,153.31133335723865,1.2414994338878116,38.68799471141666,0.9502123942397466,-73.38631401062011,33.82600631713867,-62.500718688964845
579.689,41.83633499145508,126.16718139648438,-33.177941513061526,-1.0456957459449767,0.4783127307891845,0.5552263557910919,37.911617279052734,50.55997772216797,-95.30332641601562,13.65868616104126,-10.49609375,-8.349591422080994,-0.9164272546768188,-0.0374976817518472,-0.0146110996603965,-37.03800506591797,81.66576843261718,-159.3596405029297,137.87207403831226,1.2823390507245962,32.85956117272493,0.933987972021896,-74.9496223449707,31.10579071044922,-64.05631408691406
597.093,38.83086700439453,106.63158569335936,-34.34287872314453,-1.063703441619873,0.4945953369140625,0.5481525123119354,39.65480346679688,52.66861114501953,-93.87817840576172,5.298115825653075,4.75355224609375,-10.680162024497983,-0.8977185964584351,-0.011585384234786,-0.0646362580358981,-38.51750183105469,81.61286010742188,-160.951318359375,119.28811507445906,1.2991370576389143,30.25721097699841,0.9095896172840604,-78.17230529785157,28.944248962402344,-67.07313995361328
618.106,36.05925025939941,86.72393188476562,-33.738785934448245,-1.0429871678352356,0.5210931718349456,0.5674063622951507,41.16625671386719,54.4191146850586,-92.72143249511718,-2.965766048431397,18.531285095214844,-12.9664794921875,-0.9196147441864012,-0.0330352010205387,-0.0850861463695764,-41.77100448608398,81.73822326660157,-164.16842346191407,100.29737397249204,1.3023769117180088,30.388487062693518,0.9288719028347036,-82.93726119995117,27.31910858154297,-71.44699096679688
637.276,32.08352470397949,68.7006233215332,-32.10839004516602,-0.9993405818939208,0.5607929170131684,0.6198976874351502,42.407657623291016,55.85694656372071,-91.83005828857422,-7.81657190322876,30.294944190979,-12.413514137268066,-0.9722442388534546,-0.0321290681604296,-0.0633909191936254,-46.28297882080078,82.01732788085937,-168.56043701171876,82.8937074777052,1.3056600933185252,35.3221273620439,0.9814637409583912,-88.6906364440918,26.160381317138672,-76.73037872314453
659.731,24.965380096435545,52.04271278381348,-29.933978652954103,-0.9681600093841553,0.5991517782211304,0.6710130095481872,43.2863037109375,57.000665283203126,-91.21373596191408,-11.640259170532229,37.712467956542966,-12.931866455078126,-1.0165156602859498,-0.0398717003408819,-0.0115657638758421,-51.90573577880859,82.34044494628907,-102.00048522949218,65.64530960303912,1.3239746708626552,42.25174013633832,1.0203434975226224,-95.1920394897461,25.339779663085935,-10.786749267578124
682.181,17.61460151672363,35.25342909097672,-25.924285888671875,-0.9448996663093568,0.612306785583496,0.7058425426483155,43.78589019775391,57.843223571777344,-90.8856475830078,-13.631063461303713,41.00866317749024,-13.371492767333985,-1.036404013633728,-0.0469947772566228,0.0188818052411079,-58.29118347167969,82.63467407226562,-36.16203918457031,49.03129484193317,1.3307917550480597,45.99010970159996,1.0389413994520809,-102.0770736694336,24.79145050048828,54.7236083984375
697.029,13.506505298614504,17.390784895420076,-20.31759719848633,-0.9330588698387146,0.6332795977592468,0.7557007431983948,43.95789108276367,58.35942153930664,-90.84586791992189,-16.779912376403807,39.68581924438477,-13.07708683013916,-1.0471352338790894,-0.0449287740979343,0.0366630278527736,-64.84199829101563,82.84085235595703,29.57750549316406,37.49057924515092,1.3592351388684536,45.67341108885587,1.0494980630339232,-108.7998893737793,24.48143081665039,120.42337341308594
719.5559999999999,7.65619306564331,-0.9785731673240662,-12.90365524291992,-0.9261169672012328,0.6491508722305298,0.806924557685852,43.78756408691407,58.52109069824219,-91.07012481689452,-21.40202293395996,35.324906539916995,-12.133300971984864,-1.060060906410217,-0.0598670773673802,0.0392304573208093,-71.0251953125,82.94188537597657,95.7872314453125,32.3052267983612,1.3905596902352404,43.63050620732468,1.063208799685521,-114.81275939941406,24.42079467773437,186.85735626220705
742.3,-0.6440888404846191,-20.037020432949067,-3.8831787109375,-0.9205902457237244,0.6560426712036133,0.8404593110084534,43.25113372802734,58.27946472167969,-91.52687225341796,-22.35713310241699,29.38995742797852,-10.066035556793214,-1.068752646446228,-0.0840413976460694,0.0397956494241952,-76.34264526367187,82.96767120361328,162.89776611328125,34.55721335409886,1.4092880925245024,39.141330703288375,1.0732451232919618,-119.59377899169922,24.688206481933594,254.4246383666992
765.471,-9.015843677520753,-39.7591788649559,5.789466476440429,-0.9186750531196596,0.6433563709259034,0.8497230172157287,42.37238388061523,57.61194610595703,-92.17760772705078,-20.762511825561525,22.49799900054932,-7.092479610443116,-1.0702811241149903,-0.0951156679540872,0.0402736004441976,-80.41146697998047,82.96234893798828,159.243310546875,45.79015741954304,1.4075664308211162,32.61482410422057,1.076008962147507,-122.7838508605957,25.35040283203125,251.4209182739258
787.246,-15.564159107208251,-59.61756973266601,16.160479736328124,-0.9205124974250792,0.6307929039001465,0.8545047044754028,41.24101486206055,56.49899291992188,-92.96495666503908,-20.111497688293458,15.20566987991333,-4.216902303695679,-1.069030499458313,-0.1019425008445977,0.0418719187378883,-83.20848693847657,82.95240325927735,156.85613708496095,64.95313869532312,1.406030551456372,26.82144335003639,1.0755121191397277,-124.4495018005371,26.453410339355468,249.82109375
798.255,-21.57649211883545,-78.87898559570313,26.092953491210935,-0.93264878988266,0.6094253897666931,0.8461543798446656,39.915147399902345,54.93664703369141,-93.82390594482422,-18.98487663269043,8.074151134490966,-1.767908716201782,-1.058233952522278,-0.1184375584125518,0.0370249211788177,-84.81278228759766,82.94732818603515,155.64993286132812,86.10916201729205,1.3998387217153103,22.07061481746105,1.0657564998171014,-124.7279296875,28.01068115234375,249.47383880615237
819.456,-24.16527862548828,-97.73816146850588,35.15229377746582,-0.9472037434577942,0.5921397089958191,0.8341001749038697,38.50226669311523,52.942579650878905,-94.71385498046874,-17.2621280670166,2.8706020355224613,1.0359445095062256,-1.041246247291565,-0.1175185471773147,0.0312039041891693,-85.51307373046875,82.98162536621093,155.32190551757813,106.9078490076987,1.394781192754833,18.866905942349817,1.0486103397226685,-124.01534042358398,30.03904571533203,250.03576049804687
842.0889999999999,-25.71357536315918,-115.51826629638671,44.28355407714844,-0.9636108875274658,0.5827394485473633,0.8352591037750244,37.08238830566406,50.53419647216797,-95.56281433105468,-18.35488510131836,-0.7641387939453125,2.807589960098267,-1.030762767791748,-0.1186931267380713,0.023068474791944,-85.65592956542969,83.04232940673828,155.57718505859376,126.63838574904862,1.4023590877499152,19.294641756496823,1.0380420615720414,-122.73831787109376,32.50813293457031,251.13999938964844
864.669,-26.268364334106444,-132.47916259765626,51.34830551147461,-0.9783053874969484,0.5660846352577209,0.8346145391464234,35.68891220092773,47.755810546875,-96.3611068725586,-20.31557846069336,-2.4943140029907225,5.010241365432739,-1.0264595985412597,-0.1120869442820548,0.016826151497662,-85.55488433837891,83.14754638671874,156.11911315917968,144.64805988741526,1.40525687968463,21.2495752069393,1.0328224619251016,-121.24379653930664,35.39173583984375,252.48022003173827
886.837,-25.19423484802246,-148.1261413574219,56.83182601928711,-0.9792131423950196,0.5560526967048645,0.849878478050232,34.372141647338864,44.65124282836914,-97.10018463134766,-22.990100288391112,-2.135234832763672,6.447640895843506,-1.0177212238311768,-0.1144040152430534,0.0115095787681638,-85.5805435180664,83.2796127319336,156.5931427001953,160.70989132961307,1.4112138706982935,24.20810622752253,1.024370037314963,-119.95268516540528,38.628369903564455,253.69332733154295
897.422,-25.38361587524414,-162.4452697753906,61.632843017578125,-0.9659668922424316,0.5495516538619996,0.8636057019233704,33.13125305175781,41.26489715576172,-97.75828247070312,-26.274825286865237,0.0729621887207031,8.260662651062011,-1.0112276315689086,-0.1154903218150138,0.0111219051294028,-86.03776397705079,83.44881896972656,156.7043212890625,175.64416239467874,1.4080926735801715,27.998876866124306,1.0180380315822846,-119.1690170288086,42.18392181396485,254.4626037597656
919.377,-27.95138320922852,-175.86114501953125,65.40708847045899,-0.942186951637268,0.5371126770973206,0.8744521141052246,31.919013595581056,37.61721305847168,-98.34095611572266,-28.074549865722656,4.552312755584717,10.094404983520509,-1.0063679695129395,-0.1211831927299499,0.0138629064895212,-87.34149322509765,83.65177764892579,156.00270080566406,189.77059864904325,1.3940054375447066,31.33761601246269,1.0138138976442974,-119.26050682067871,46.0345645904541,254.34365692138672
944.477,-29.17953872680664,-188.16583557128905,66.96927490234376,-0.8970635414123536,0.5071335077285767,0.8727838397026062,30.73963203430176,33.74306373596191,-98.88306121826172,-28.208888626098634,10.724672603607178,12.552910232543946,-0.9942263841629028,-0.1136304199695586,0.0104161046445369,-89.89602966308594,83.89935607910157,154.04750366210936,201.88390823782552,1.3519212423691167,34.097596207131005,1.0009034314849423,-120.63566169738768,50.15629234313965,252.9305648803711
967.961,-27.22518997192383,-197.7646240234375,68.84359436035156,-0.8251156449317932,0.4851941108703613,0.8718037962913513,29.686403274536133,29.66644744873047,-99.35031280517578,-29.13144874572754,18.95734624862671,14.774406433105469,-0.9848565936088562,-0.1000404551625251,0.0121915701776742,-94.2800521850586,84.16316528320313,150.27320556640626,211.2335338083512,1.2965915908528882,39.2121473905219,0.9905481383799564,-123.96645545959473,54.496717834472655,249.62351837158204
987.601,-25.31898307800293,-204.2881591796875,70.60444641113281,-0.7440423250198365,0.4772205650806427,0.885450792312622,28.765919876098632,25.451349639892577,-99.72327880859376,-31.25602607727051,29.63846607208252,16.90686149597168,-0.9765003442764282,-0.086020441353321,0.0149804086424409,-101.06878662109376,84.37676391601562,144.12176208496095,217.75085529519728,1.2566495451005557,47.571681085265006,0.9808107084585131,-129.83470649719237,58.92541427612305,243.84504089355468
997.009,-28.33013458251953,-209.25934753417968,72.4771514892578,-0.6606231749057769,0.4528277337551116,0.8661693572998047,27.873033142089845,21.110386848449707,-100.0011489868164,-35.034424209594725,44.64687538146973,19.275270462036133,-0.9792706966400146,-0.0783001720905303,0.0102087060920893,-110.80055389404296,84.40880584716797,135.07354278564452,223.4632792371296,1.184755479207496,60.65981731861363,0.9827982605924492,-138.6735870361328,63.29841899871826,235.0746917724609
1019.383,-24.41301708221436,-212.11541442871092,72.91942596435547,-0.5738449156284332,0.4225920915603637,0.844353973865509,27.13888092041016,16.69417495727539,-100.20025787353516,-39.361397171020506,60.65117378234864,21.607655715942386,-0.971420156955719,-0.0736255913972854,-0.0088117432780563,-122.62037506103516,84.11793060302735,123.99545745849608,225.8757529514603,1.1086764087701777,76.04663339523673,0.9749277522309328,-149.7592559814453,67.42375564575195,224.19571533203128
1036.826,-19.043454551696776,-213.12892150878903,73.84098052978516,-0.4816879153251648,0.4159382104873657,0.8439619064331054,26.587303161621094,12.239284324645997,-100.31578063964844,-41.02920112609864,77.20003356933594,26.21683006286621,-0.9772867321968078,-0.0782893165946006,-0.0306542284786701,-135.55393676757814,83.42123565673828,111.80354766845704,226.6814505052673,1.0618962352964467,91.95785962157618,0.9823867597557504,-162.14123992919923,71.18195133209228,212.11932830810548
1059.399,-19.683115577697755,-213.03317565917968,74.254248046875,-0.4022001892328262,0.4001199543476105,0.8235355854034424,26.085153579711918,7.776827549934387,-100.36591186523438,-37.06225090026855,84.75398406982421,33.04892501831055,-0.9935331106185912,-0.0809482567012309,-0.0516232423484325,-148.30292816162108,82.42965393066406,99.6937484741211,226.78563413670304,1.0039955352637575,100.07496206772024,0.9994456993441012,-174.388081741333,74.65282638072968,200.05966033935547
1079.45,-14.97350730895996,-211.1614776611328,73.05944519042968,-0.3176757663488387,0.3750077486038207,0.782641077041626,25.72803916931152,3.34566204547882,-100.37545928955078,-28.629486656188966,80.6861328125,44.59807014465332,-1.0098001837730408,-0.0720659151673316,-0.0784383099526166,-160.13345947265626,81.3406967163086,88.32383880615234,224.5541664055501,0.931850423096862,102.91173709235169,1.0165923493860318,-185.86149864196776,77.99503467082977,188.6992980957031
1096.731,-10.228828048706054,-208.97877197265623,71.99543762207031,-0.2263371489942073,0.3864904940128326,0.7941168665885925,25.50323028564453,-1.0346482038497928,-100.35943603515626,-17.194257926940917,66.83782768249512,56.64886627197266,-1.059678137302399,-0.0668281473219394,-0.1044199407100676,-98.3196044921875,80.31500549316407,78.37331848144531,221.54286820912063,0.9222001101614168,100.2947475866982,1.0676158955173831,-123.82283477783206,81.34965369701385,178.73275451660157
1119.231,-12.970556449890136,-206.2426727294922,70.99383239746093,-0.1466235302388667,0.3439295411109924,0.7534793257713318,25.264894104003908,-5.3593083143234255,-100.31881561279296,-5.292873573303223,44.78685569763184,62.84460601806641,-1.0769452810287476,-0.0447704847902059,-0.1199422806501387,-34.797705078125,79.56006317138672,69.89248199462891,218.8988314291476,0.849676621330104,89.67722629781795,1.0856138683600594,-60.06259918212893,84.91937148571014,170.21129760742187
1141.754,-12.71907730102539,-201.1592590332031,68.90353088378906,-0.0636597625911235,0.3402200043201446,0.7275870680809021,25.06886482238769,-9.563949847221377,-100.26183319091795,3.689978408813477,21.099738121032715,64.6586814880371,-1.0894199371337892,-0.0201430100947618,-0.1372647076845168,30.07191772460937,79.13261108398437,62.58766021728516,213.4071638239517,0.8169069072183623,75.47662241681567,1.0992414562292274,5.003052902221668,88.69656093120575,162.84949340820313
1164.637,-10.146060943603516,-194.43018493652343,67.00215301513671,0.0116551466286182,0.3184735000133514,0.6964336633682251,24.94680404663086,-13.62479019165039,-100.17451629638671,7.962909698486328,1.8314641952514648,59.43189926147461,-1.0990821361541747,-0.0058109942823648,-0.1478317409753798,95.99523620605468,78.99365844726563,56.26203994750976,206.24683848237757,0.7750936857714656,63.608545513672894,1.1096913219746014,71.04843215942383,92.61844863891602,156.4365562438965
1177.274,-16.412003135681154,-189.72247924804688,64.84717559814453,0.0662533767521381,0.3380891740322113,0.706617271900177,24.734423446655278,-17.582954597473144,-100.08793487548829,9.313258171081545,-9.574622535705569,46.749941444396974,-1.0916010856628418,0.008046706393361,-0.1603651791810988,163.24035034179687,79.02242279052734,51.237603759765626,201.359068137818,0.7938290520711029,51.84972536643229,1.104292865191293,138.5059268951416,96.60537738800048,151.3255386352539
1199.182,-21.58294353485108,-184.1920318603516,59.3173942565918,0.1218619406223296,0.2589403390884399,0.6122989118099212,24.46915473937988,-21.401819038391118,-100.05226593017576,9.659882926940918,-14.885283279418946,31.600335311889648,-1.0320085406303403,0.0329610552638768,-0.1722898244857787,159.90518188476562,79.14697265625,47.63785858154297,195.32445372259244,0.6910254259574112,38.330353067838914,1.047524632705035,135.43602714538574,100.54879169464112,147.69012451171875
1221.635,-19.023653984069824,-176.1908752441406,56.14623565673829,0.1945591866970061,0.3015608429908752,0.6307366788387299,24.283808517456052,-25.043492126464844,-100.01446990966797,9.14131851196289,-11.407833766937255,20.66474175453186,-1.0119166374206543,0.0344242867082356,-0.1943515419960021,157.7851348876953,79.2294906616211,45.30332794189453,186.50921640983103,0.7380975181817677,28.38766023610009,1.0322719251476071,133.50132637023927,104.27298278808594,145.3177978515625
1244.292,-28.736516189575195,-169.5135284423828,52.158564758300784,0.2476569086313247,0.2665198326110839,0.5833962261676788,23.931323623657228,-28.54655990600586,-99.99571838378908,10.118560791015623,-4.041315937042237,10.01606502532959,-0.9953598022460938,0.0390866722911595,-0.2064649820327758,157.01050415039063,79.22588958740235,44.33898162841797,180.6005310581567,0.7023806495737493,24.34860319770673,1.0188334073434897,133.0791805267334,107.7724494934082,144.33470001220704
1266.7330000000002,-34.55052871704102,-162.4338806152344,47.265692138671874,0.3064937114715576,0.2626056253910064,0.5747386991977692,23.497971725463863,-31.893355941772462,-100.01012573242188,10.354520988464357,10.06776762008667,3.1591063499450684,-0.9724354386329652,0.0464038122445344,-0.2234694838523864,157.37423706054688,78.9921661376953,44.5482063293457,173.3341605539496,0.7181592196649873,27.84641244504464,0.9994686588127882,133.87626533508302,110.88552207946778,144.55833206176757
1276.766,-37.41173324584961,-153.49603576660155,42.71897354125976,0.3726990938186645,0.195493659377098,0.4960981607437134,23.0281623840332,-35.05159912109375,-100.0341781616211,9.769831562042237,31.17262296676636,-0.1899337291717529,-0.954136884212494,0.0551541585475205,-0.2444344967603683,158.6487060546875,78.3701171875,45.7178955078125,164.20637238046362,0.659113663184903,39.523486077433496,0.9873847509373944,135.62054367065429,113.42171630859374,145.7520736694336
1301.308,-33.85818099975586,-142.15120849609374,39.25222930908203,0.4385552465915679,0.2202774643898009,0.5201554417610168,22.6384635925293,-37.981214141845705,-100.0370361328125,9.515363788604736,52.23249216079712,-2.4643574714660645,-0.9336142539978028,0.0485757943242787,-0.2713307678699493,160.63517150878906,77.35087432861329,47.63329086303711,151.8704319903001,0.72489821079668,54.29728791676271,0.974955251898824,137.99670791625977,115.33208847045898,147.67032699584962
1321.524,-40.32823028564453,-131.8148986816406,33.45719566345215,0.4904572308063507,0.1902515828609466,0.480569714307785,22.15250396728516,-40.69261856079102,-100.08198699951171,10.96113348007202,68.53935661315919,-2.4058011054992674,-0.9220888018608092,0.0511174872517585,-0.2784708082675934,162.86460876464844,76.01631011962891,49.75507125854492,142.16367355570077,0.7170511185567445,69.9326116173941,0.966056580251482,140.71210479736328,116.70892868041992,149.83705825805663
1343.98,-42.72943115234375,-120.48450012207032,28.35279197692871,0.5443518757820129,0.1815141320228576,0.4545545041561126,21.638303375244146,-43.16361312866211,-100.14398040771484,9.928287601470949,82.54897003173828,-0.774724817276001,-0.9078630685806276,0.0577726460993289,-0.2910252809524535,164.9377197265625,74.39507293701172,51.74083480834961,132.0737057971289,0.7376082331095893,83.37776472309623,0.9564762880708166,143.29941635131837,117.55868606567384,151.88481521606445
1366.418,-47.21677017211914,-108.78419494628906,22.53154888153076,0.6037578701972961,0.1649494022130965,0.4123423933982849,21.0634033203125,-45.3770751953125,-100.2424301147461,9.145544052124023,88.18672027587891,2.172147607803345,-0.8803773760795593,0.0590827517211436,-0.3215458512306213,166.5981201171875,72.63299407958985,53.31227416992188,122.40727883494183,0.754865784450925,88.84201124845086,0.940094225146965,145.534716796875,118.01006927490236,153.55470428466796
1376.456,-48.398240661621095,-95.47751159667968,18.345575904846196,0.6605540871620178,0.1671960592269897,0.3933865308761596,20.452682495117184,-47.30928802490234,-100.32009735107422,9.281543731689451,80.97021408081055,5.266256618499756,-0.8739911794662476,0.0531488619744777,-0.3377300381660461,167.72958679199218,70.997900390625,54.32004852294922,110.03168650507924,0.7935972646816903,82.00980222189641,0.9392161124564368,147.276904296875,118.30718841552736,154.64014587402343
1404.061,-49.397264099121095,-81.82556381225587,14.515052604675294,0.7049077033996582,0.1604196727275847,0.3574256360530853,19.793695831298827,-48.95794219970704,-100.36331329345704,9.50182228088379,68.69797019958496,8.53718991279602,-0.8786892890930176,0.058852569758892,-0.3416340470314026,168.3533966064453,69.59805908203126,54.78643798828125,97.04204667329302,0.8111764196262111,70.52633145100401,0.9453234781311408,148.5597007751465,118.55600128173828,155.14975128173828
1426.524,-46.76809005737304,-67.26610565185547,11.592055225372311,0.7519761681556701,0.1503010630607604,0.3229171633720398,19.128568267822267,-50.308301544189455,-100.33737335205078,6.9111656665802,54.63458595275879,9.785444831848144,-0.8745698928833008,0.0718365892767905,-0.3531450927257538,168.61099548339843,68.47151794433594,54.9249153137207,82.90907718826188,0.8336932252492103,56.74356673013536,0.9464019145825012,149.48242721557617,118.7798194885254,155.26228866577148
1436.5939999999998,-39.48477287292481,-51.49356117248535,8.576303005218506,0.7898442506790161,0.1467581868171691,0.3024620592594146,18.54731559753418,-51.33897857666015,-100.24339904785155,5.083765959739685,36.93067150115967,10.459861183166504,-0.8693182587623596,0.0777326300740241,-0.3625626564025879,168.57163696289064,67.69206848144532,54.77685394287109,65.96453652318858,0.8591070646400294,39.52188687102685,0.9453803038183576,150.02432136535646,119.03104705810549,155.02025299072267
1462.472,-31.68844261169433,-34.624234199523926,6.792136168479919,0.8112394690513611,0.1472810298204421,0.2882169961929321,18.028906631469727,-52.03782424926758,-100.04572448730468,2.7205609083175664,22.88942222595215,9.54544415473938,-0.8758296847343445,0.0832838654518127,-0.3605922520160675,168.37742919921874,67.20093994140625,54.50929412841797,49.49239886276551,0.8740791703606636,25.70023559089272,0.9509892605532654,150.34852256774903,119.23876419067383,154.55501861572264
1476.517,-25.32175769805908,-17.26091365814209,4.2787105470895765,0.8229463696479797,0.1451841086149215,0.275988507270813,17.55918197631836,-52.391258239746094,-99.76925811767578,-0.049971604347229,15.80723304748535,6.305837106704712,-0.8791934967041015,0.0914343461394309,-0.3588637948036193,168.20496520996093,66.86701202392578,54.32748947143555,37.93345066735718,0.8805257334944059,18.488537101748243,0.9541313428029684,150.6457832336426,119.25827026367188,154.09674758911132
1499.947,-19.318382263183597,0.7017946243286133,2.1874985605478288,0.8251220703125,0.1360037386417388,0.264532059431076,17.121424865722656,-52.38954391479492,-99.40734405517578,-4.127783226966858,13.291122436523438,1.766899347305298,-0.8783231973648071,0.0937514722347259,-0.3623757481575012,168.1364715576172,66.60140228271484,54.34794311523437,33.95058394815668,0.8772652000085298,16.055764947143686,0.9548353976709943,151.01504669189453,118.99094619750976,153.75528717041016
1520.986,-9.115593338012696,19.562294960021973,0.0559491544961929,0.8129518270492554,0.1227298334240913,0.267243367433548,16.799954986572267,-52.01446914672852,-98.94239654541016,-7.47156970500946,14.184680557250976,-2.9947247982025145,-0.8757447242736817,0.0869124099612235,-0.3686950802803039,168.2332763671875,66.33644104003906,54.62021942138672,36.111871394791656,0.8650866349541022,17.968604696769816,0.954293952356379,151.43332138061524,118.35091018676758,153.56261596679687
1537.669,1.9531894683837887,38.090878105163576,-1.835286197066307,0.7941677927970886,0.1107773646712302,0.2828056931495666,16.61509017944336,-51.27360229492187,-98.3794891357422,-11.151538467407226,17.41879367828369,-8.09233660697937,-0.8730587840080262,0.0834542587399482,-0.3739718377590179,168.50950927734374,66.02713317871094,55.1693115234375,44.881112105237214,0.8516390058172778,22.92730898684601,0.9536069450520152,151.8944190979004,117.3007354736328,153.54880065917968
1558.903,12.039336013793946,55.55124168395996,-3.804929289221763,0.7722498774528503,0.0974559277296066,0.3107190787792205,16.563279342651366,-50.18692855834961,-97.73289031982422,-15.331520462036131,21.605344009399413,-12.438685607910156,-0.8647204756736755,0.0832177489995956,-0.3807576060295105,168.91517028808593,65.64878387451172,55.9536361694336,58.66247310540697,0.8406153106759404,29.476010574574296,0.948771657168022,152.35189094543458,115.83571243286131,153.6865264892578
1581.399,19.890725135803223,71.6773696899414,-7.043675756454467,0.7398186326026917,0.0939721807837486,0.3331538200378418,16.64104118347168,-48.77295608520508,-97.04329986572266,-19.592027282714845,23.09864463806152,-15.436776542663576,-0.8721335530281067,0.0807169809937476,-0.3891405522823333,169.36405029296876,65.25196228027343,56.88087844848633,75.15928773914086,0.8192367563000206,34.24588218637981,0.9585541051058962,152.72300910949707,114.02491836547853,153.92417831420897
1603.826,27.782111358642577,86.17155456542969,-10.874048852920533,0.7025868535041809,0.0892147630453109,0.365618622303009,16.873628997802733,-47.06009140014648,-96.3450485229492,-21.878779029846196,19.744690036773683,-16.920378494262696,-0.8581947684288025,0.076175020635128,-0.4013229191303253,169.79580688476562,64.91842803955078,57.84064407348633,91.33632348959566,0.7993848850489926,35.18442368498329,0.9509126009069814,152.92217788696288,111.97851943969728,154.18569259643556
1617.656,33.6399112701416,99.69373779296876,-14.037934303283691,0.66615309715271,0.1003836318850516,0.4030718505382538,17.213056564331055,-45.08359985351562,-95.6141845703125,-24.951566314697267,10.469110584259033,-15.953458404541015,-0.8614622354507446,0.0702260993421077,-0.4094254493713379,170.0527557373047,64.76229858398438,58.675499725341794,106.28150980520012,0.7886538494089129,37.31499186391403,0.9569344829127108,152.83969917297364,109.8458984375,154.2896842956543
1640.054,37.01974487304688,112.71947784423828,-17.710741806030274,0.6269457340240479,0.113687728345394,0.4331424474716187,17.623537445068358,-42.85289764404297,-94.86976470947266,-26.05546035766601,-2.9998110771179194,-12.21223737001419,-0.8826200485229492,0.0616932459175586,-0.4135800421237945,170.0305419921875,64.86134033203125,59.22563781738281,120.05294490453365,0.7747235156987762,39.83632622043064,0.9774365945447564,152.40700454711913,107.71423797607422,154.09540252685548
1662.5939999999998,40.75685958862304,124.5660873413086,-22.62396545410156,0.5780166923999787,0.1334027767181396,0.458999890089035,18.134313583374023,-40.37798385620117,-94.13969573974607,-23.36704635620117,-16.59910840988159,-5.837432682514191,-0.8935046672821045,0.0500042274594306,-0.4154725909233093,169.693359375,65.20525970458985,59.36697082519531,133.0917313971194,0.7551994133769384,39.57329873000143,0.9873826345819504,151.55904579162598,105.58324356079102,153.5066665649414
1684.111,47.649105834960935,134.44827575683593,-27.032807540893558,0.5347121894359589,0.1457576975226401,0.5193372905254364,18.791100692749023,-37.68940315246582,-93.4060546875,-18.21089305877685,-32.10116300582886,2.681727397441864,-0.8758103251457214,0.0383503198623656,-0.4114283919334411,168.9605285644531,65.81375579833984,58.95851593017578,145.33627142991432,0.76670768253866,44.09688196872783,0.9688763337523266,150.1694278717041,103.50315895080568,152.36457061767578
1706.557,51.120740509033205,143.20338439941406,-31.77883987426758,0.4801431000232696,0.1740806967020034,0.5677820205688476,19.533631896972658,-34.7994083404541,-92.67934112548828,-11.144463539123535,-45.91846237182617,13.398109233379364,-0.911118185520172,0.0463030382990836,-0.3959849119186401,167.6999084472656,66.6501449584961,57.82513885498047,155.56939855607283,0.7725234488483378,54.264669520313575,0.9954601619345296,148.16627655029296,101.4495532989502,150.50447998046874
1720.053,49.278768157958986,149.95167846679686,-37.272543334960936,0.4294118821620941,0.2019406020641326,0.5976542532444,20.287717819213867,-31.73511161804199,-91.98946990966796,2.257195854187013,-56.30446243286133,23.00255106687546,-0.8999666571617126,0.0507005475461482,-0.3723078846931457,166.04202880859376,67.63248901367187,55.97755584716797,162.540496602808,0.7716075393202101,65.07662276818164,0.9761646831821942,145.7543109893799,99.36760063171388,147.96702575683594
1742.422,50.15275497436524,154.68243713378905,-43.52840423583984,0.370118647813797,0.2321730703115462,0.661008095741272,21.1090446472168,-28.51593399047852,-91.35667419433597,13.329923057556153,-65.80517120361328,27.08500442504883,-0.8816068530082702,0.0782686971127986,-0.3536224663257599,164.084521484375,68.75163269042969,53.58357543945313,168.6841606728609,0.8016167461203143,74.65659258989574,0.955372647079105,142.9754768371582,97.2675666809082,144.94024963378905
1762.408,49.67150955200195,155.90711059570313,-49.21759719848633,0.310424679517746,0.2528791218996047,0.7184430360794067,21.96682243347168,-25.22156677246094,-90.78755798339844,21.805794334411623,-70.80087432861328,27.86378555297852,-0.9088424563407898,0.0949163734912872,-0.3189165085554123,161.98394165039062,69.95072784423829,50.87074508666992,171.30340622640108,0.8307644801520043,80.60100628052967,0.9710611728513754,140.01711921691896,95.1722946166992,141.65830307006837
1783.738,45.298876190185545,157.42592163085936,-53.74884262084961,0.2524709820747375,0.2880655795335769,0.7432255744934082,22.776889038085937,-21.85638179779053,-90.25558166503906,28.47344970703125,-73.90252838134765,25.317256355285643,-0.9344358921051026,0.1035428717732429,-0.2936697334051132,159.83872985839844,71.20335693359375,47.98657989501953,172.67578497594425,0.8424697709395543,84.22120807017652,0.9872153502985008,137.0618408203125,93.05973873138429,138.2421615600586
1803.723,39.29782524108887,159.41726379394532,-57.06397094726562,0.2186097800731658,0.3209064722061157,0.7553540945053101,23.4971622467041,-18.438164520263676,-89.73040618896485,33.4099422454834,-72.95128936767578,15.377737045288086,-0.9146401286125184,0.1042404875159263,-0.2842765241861343,158.13119812011718,72.47028961181641,45.4737419128418,174.09380058346568,0.8545613941565566,83.38614146667103,0.9655885120969978,134.63403587341307,90.90845413208008,135.20414810180665
1827.386,37.07489242553711,160.95217590332032,-60.51008758544922,0.1611992143094539,0.3496004343032837,0.8225676059722901,24.18777770996094,-14.956453418731687,-89.21604614257812,28.144657325744628,-65.55968475341797,-2.558430862426758,-0.9765405893325806,0.1115445435047149,-0.2763106495141983,157.42026977539064,73.71573333740234,44.12458877563476,176.20297432556714,0.9125757875135608,77.70632892989507,1.0230556354637277,133.23249206542968,88.67218675613402,133.34063491821288
1836.277,30.570311546325684,159.75265808105468,-64.65310745239258,0.0972097106277942,0.3575874209403992,0.8325774192810058,24.76957473754883,-11.470393753051756,-88.75222320556641,22.41303215026856,-49.84456787109375,-18.173082733154292,-1.0259291291236878,0.0970179989933967,-0.2395725339651107,157.97861328125,74.78531494140626,44.21835632324219,175.47162567272082,0.9183448165271972,69.89682272948124,1.060533032807624,133.20903854370118,86.25570869445801,132.9705795288086
1858.97,24.56519775390625,159.92669982910155,-66.52574310302734,0.0420202113687992,0.3907737791538238,0.8344732761383057,25.23595657348633,-7.964121985435486,-88.289013671875,14.303057289123537,-37.48961405754089,-31.28859214782715,-1.0145411610603332,0.0873828746378421,-0.2321164220571518,159.640869140625,75.69674072265624,45.62631454467773,175.33242096993737,0.930733114290314,65.35749854025353,1.047052777343541,134.40491256713867,83.66086270809174,133.91532821655272
1877.465,17.90904951095581,161.05550231933594,-68.07053070068359,-0.0076366402208805,0.4096730828285217,0.8346825242042542,25.58190040588379,-4.431100726127624,-87.81839752197266,5.192761611938477,-23.6218991279602,-41.9224760055542,-1.015457320213318,0.0688734043389558,-0.2263595759868621,162.3544494628906,76.40391082763672,48.310594177246095,176.0362858357709,0.9375937635863568,58.21357503031054,1.0460342666825335,136.77254905700684,80.83501155376435,136.12899169921874
1896.325,15.734582042694091,160.67196655273438,-69.3803207397461,-0.0793216563761234,0.4143355190753937,0.8919353365898133,25.889300918579103,-0.8940848112106323,-87.35274963378906,-4.67743148803711,-11.681900310516358,-51.73643264770508,-1.0602741837501526,0.0421968970447778,-0.1997698456048965,166.1600128173828,76.92413330078125,52.32657928466797,175.90290286638574,0.9905243194913887,55.84211443644722,1.082280157328739,140.2707118988037,77.81821811199188,139.67932891845703
1919.445,11.643220233917235,158.99540100097656,-71.4721176147461,-0.1461306393146514,0.4108861088752746,0.8779994487762451,26.12810707092285,2.6240385293960573,-86.92930603027344,-8.586701583862304,-8.147207927703857,-54.542870330810544,-1.0516116738319397,0.0049947444349527,-0.1676810160279273,98.61139526367188,77.32279815673829,57.09843673706055,174.81149573201265,0.9841992237549796,56.54460543209859,1.068344776639903,72.48328819274903,74.69875962734223,144.027742767334
1936.199,7.4470970153808596,158.77284240722656,-69.62136840820312,-0.196331588923931,0.4158896386623382,0.8584515452384949,26.287096786499024,6.115750050544738,-86.46997375488282,-6.3049219131469725,-15.082136821746824,-51.83093795776367,-1.0317861437797546,-0.0045450542122125,-0.172896884381771,31.16603698730469,77.7728271484375,61.93849029541016,173.70543094577584,0.9796217042182144,57.8267378164849,1.048775526619344,4.878940200805664,71.65707709789277,148.40846405029296
1958.6,6.10987777709961,160.3613494873047,-67.0327865600586,-0.26261078864336,0.4362209856510162,0.8857434749603271,26.44386444091797,9.613619136810303,-85.9444564819336,0.9034950256347656,-31.19155688285828,-51.12626342773437,-1.0435788750648498,-0.0226677052676677,-0.1656764164566993,-35.68447570800781,78.46578063964844,67.23119735717773,174.11651232377145,1.0285937121470634,67.29231706150028,1.058765473487841,-62.12834014892578,68.85216150283813,153.17565383911133
1981.614,2.938879108428955,159.35492553710938,-65.00077514648437,-0.3358151137828826,0.432554280757904,0.9113575220108032,26.560104751586916,13.075495529174804,-85.39430236816406,9.100638389587402,-45.291510581970215,-51.624698638916016,-1.0457002878189088,-0.0594353083521127,-0.1597255185246467,-101.47583618164064,79.34468536376953,73.4253028869629,172.4533926992903,1.0686968827825096,76.46297802072972,1.063611272620037,-128.03594093322755,66.26918983459473,158.81960525512696
2006.041,-2.797780513763428,157.9839111328125,-62.39558868408203,-0.4033888936042785,0.4356689691543579,0.8750189781188965,26.595843887329103,16.500902366638183,-84.81281127929688,20.21548175811768,-58.048143005371095,-45.06940536499023,-1.0286189079284669,-0.0728625405579805,-0.1450576320290565,-166.55745544433594,80.36768951416016,80.10945587158203,170.2114568015192,1.060940888630045,80.96751804226787,1.0456949252545038,-193.15329933166504,63.866787147521975,164.9222671508789
2016.067,-2.9539380073547363,157.72095642089843,-58.47564086914063,-0.4463591694831848,0.4271345615386963,0.8217393040657044,26.67180137634277,19.88337993621826,-84.15870513916016,30.262068939208984,-67.24861602783203,-36.63898048400879,-1.009426522254944,-0.0465286914259194,-0.141810031235218,-158.86585083007813,81.47102355957031,87.34410400390625,168.48365545492666,1.0322386933913603,83.78781112586354,1.0257949434779667,-185.5376522064209,61.58764362335205,171.5028091430664
2038.627,2.468000221252441,159.27718811035157,-54.90938415527344,-0.5040514767169952,0.4535203993320465,0.8556700348854065,26.92039680480957,23.26276092529297,-83.41395874023438,36.271380233764646,-71.6302276611328,-32.31656723022461,-1.013952612876892,-0.0772463601082562,-0.1183963082730769,-149.542333984375,82.5259292602539,96.07957000732422,168.998064292498,1.0953130161475395,87.5378807917934,1.0286231077693608,-176.46273078918458,59.26316833496094,179.4935287475586
2061.741,1.6413726806640625,159.11427001953126,-53.615380859375,-0.5436830878257751,0.4247308194637298,0.8115301489830017,27.2016227722168,26.62514991760254,-82.63394470214844,39.87274055480957,-67.72118225097657,-26.96790313720703,-1.0165737390518188,-0.0949152052402495,-0.0867378439754247,-138.85009765625,83.34978485107422,106.11894989013672,168.4051033300415,1.06857644028323,83.82454309307568,1.0298499245012005,-166.0517204284668,56.72463493347168,188.75289459228517
2084.126,7.273358917236328,160.4922332763672,-50.76679611206055,-0.5843064665794373,0.4208305954933166,0.7616947412490844,27.687231063842773,29.981150436401368,-81.75687713623047,43.38147277832032,-64.63591232299805,-20.730249977111814,-1.014105784893036,-0.077733515202999,-0.0548639964312314,-127.25340118408204,83.96007995605468,116.97982177734374,169.02886293557407,1.0512600989764238,80.73269162726051,1.0210278056076625,-154.9406322479248,53.97892951965332,198.73669891357423
2105.945,13.154153442382812,163.1366424560547,-46.72765426635742,-0.6269260048866272,0.4400403380393982,0.7354052901268006,28.441499328613283,33.326558685302736,-80.7157485961914,44.805078125,-61.381466674804685,-16.576577949523926,-1.0076578617095948,-0.0828422859311103,-0.0283503588289022,-115.02391052246094,84.35562438964844,128.41828155517578,170.55106846631642,1.065599989776338,78.1986048587531,1.0142803727790026,-143.4654098510742,51.02906570434571,209.1340301513672
2116.013,16.40889091491699,166.7095733642578,-42.07423400878906,-0.6878817439079284,0.4586669862270355,0.7556922435760498,29.444040298461918,36.67340087890625,-79.47187652587891,50.06135330200196,-58.99594573974609,-11.877476608753204,-1.029606556892395,-0.0922078944742678,0.0086845714598894,-102.0849624633789,84.54716644287109,140.44691619873046,173.0740263906459,1.1247877054674065,79.22521155254319,1.036129359566369,-131.5290027618408,47.873765563964845,219.91879272460935
2138.572,14.136430740356444,167.45870056152344,-37.9528305053711,-0.7583188414573669,0.4598258554935455,0.7218468308448791,30.5976619720459,39.973291015625,-78.0420166015625,50.18008117675781,-55.21020431518555,-10.668034088611602,-1.0078680515289309,-0.091899437457323,0.0406196277588606,-89.82308197021484,84.47747650146485,151.77749328613282,172.64519374795384,1.146128492595718,76.06053677184354,1.0157014775170192,-120.42074394226074,44.50418548583984,229.8195098876953
2159.2030000000004,14.68494520187378,164.40213317871093,-34.75344619750977,-0.8461923122406005,0.4372445464134216,0.6549544036388397,31.91913757324219,43.16256561279297,-76.48468475341797,46.341796875,-51.10171737670898,-7.939554607868194,-0.9665502071380616,-0.0576949857175349,0.0269118711352348,-78.9117218017578,84.24932861328125,161.80861206054686,168.85436960825604,1.1723244518475802,70.14939526673706,0.9741027977559492,-110.830859375,41.08676300048828,238.29329681396484
2181.024,24.201806163787843,157.3182403564453,-31.4118896484375,-0.9281386137008668,0.4376231074333191,0.6284025251865387,33.57545776367188,46.16749267578125,-74.82805938720703,39.29356021881104,-43.611235809326175,-7.9224969983100895,-0.9468743205070496,-0.0386160548776387,0.0053545176982879,-70.24275131225586,83.914208984375,97.73236999511718,164.15448211219825,1.2203815143369825,60.47464487546672,0.9552838905974876,-103.81820907592774,37.74671630859375,172.56042938232423
2201.235,31.74714078903198,146.9951385498047,-28.112207412719727,-0.9866148710250856,0.4467395663261413,0.6180305898189544,35.515452194213864,48.92025375366211,-73.09175720214844,30.2325496673584,-35.01711483001709,-8.25995351076126,-0.948724341392517,-0.0524207200855016,-0.0254324153065681,-63.927842712402345,83.54547729492188,31.47529296875,155.56893597097303,1.260198383606108,48.6971257691978,0.9607251703986108,-99.44329490661622,34.625223541259764,104.56705017089844
2223.359,34.45740423202515,132.56742401123046,-27.30368423461914,-1.0287548780441285,0.4655706405639648,0.5888154685497284,37.55202178955078,51.38217315673828,-71.3949951171875,19.99582176208496,-22.26814956665039,-8.734475541114808,-0.933153772354126,-0.0640199560672044,-0.0470211640000343,-60.46042175292969,83.21331939697265,34.563720703125,142.15631092683157,1.2829810719523065,34.70619910363973,0.9446450431981646,-98.01244354248048,31.83114624023437,105.9587158203125
2243.46,36.982148265838624,116.63653411865236,-27.029494857788087,-1.0336735606193543,0.4644021511077881,0.5254459381103516,39.62225952148437,53.54614410400391,-69.79490661621094,13.27818431854248,-9.896000289916993,-7.241698288917542,-0.9413012504577636,-0.0400054186582565,-0.0744786903262138,-59.313236236572266,83.0202392578125,35.458822631835936,127.08678666602744,1.2559410158080269,24.917127586034347,0.9504853523244908,-98.93549575805665,29.474095153808594,105.25372924804688
2265.877,42.22404441833496,101.06058807373049,-25.424945831298828,-1.0157925248146058,0.5106521546840668,0.547633272409439,41.74728012084961,55.41486740112305,-68.3129379272461,5.151513862609863,2.6259300231933587,-9.082166409492492,-0.959332513809204,-0.0501811493653803,-0.0828846812248229,-60.36700668334961,82.90387725830078,34.30562744140625,113.04992905874488,1.264453657876606,21.16252132256104,0.9689696835249124,-102.11428680419922,27.48900985717773,102.61856536865234
2286.235,34.15549392700196,85.83111419677735,-23.458177947998045,-0.993556535243988,0.544085705280304,0.5626239120960236,43.62341918945312,56.98709411621094,-66.98493804931641,-2.406787872314452,12.061854553222656,-9.22549488544464,-0.9802300453186036,-0.0599868596065789,-0.0676002442836761,-62.93379516601563,82.87047424316407,103.77883605957032,95.81303803725945,1.2663687323480457,24.208609594320485,0.988440582847872,-106.55721435546874,25.883380126953124,170.7637741088867
2296.076,27.883184051513677,70.10229721069337,-22.68134765625,-0.9764549612998964,0.5513191223144531,0.5600466907024384,45.18971405029297,58.29811553955078,-65.9089111328125,-7.786411094665527,19.73122310638428,-9.133764386177065,-0.9852234601974488,-0.0411184147465973,-0.0445423528552054,-66.66328048706055,82.8901153564453,172.18988342285155,79.12157130448264,1.255612554955049,29.19219256273168,0.9891391886505828,-111.85299453735352,24.59199981689453,238.09879455566409
2316.077,23.308009910583497,54.25703468322754,-19.376527786254883,-0.9624040007591248,0.5652624368667603,0.566270238161087,46.468831634521486,59.32863311767578,-65.09414672851562,-14.56144733428955,24.11965866088867,-10.326890754699708,-0.9933111190795898,-0.04839718346484,-0.0382896646857261,-71.22079849243164,82.88643035888671,167.89913635253907,62.44632819723704,1.2542154876414102,32.46685398237488,0.9977821029132076,-117.68963012695312,23.557797241210935,232.9932830810547
2338.388,21.679533004760746,38.01759490966797,-15.157715797424316,-0.9552306175231934,0.5915638923645019,0.6263893365859985,47.46804275512695,60.06514053344726,-64.57787628173828,-20.29596900939941,26.69651756286621,-9.59867172241211,-1.0065402746200562,-0.057525334926322,-0.0351001925766467,-76.23270263671876,82.87678527832031,163.26491088867186,47.13870999195982,1.2885373061780734,35.234670091935165,1.0109593376072394,-123.7007453918457,22.811644744873043,227.84278717041016
2358.483,17.00219097137451,21.99041538238525,-9.2608060836792,-0.9509772181510924,0.6198727488517761,0.6811509847640991,48.13603134155274,60.49451293945312,-64.34167785644532,-22.716437530517577,26.819830703735352,-8.07984676361084,-1.0367953062057496,-0.0728132046759128,-0.0115804150933399,-81.19375152587891,82.86357727050782,158.7303497314453,34.40094893627439,1.3250892612492828,36.51478583004316,1.040231381760352,-129.32978286743165,22.369064331054688,223.07202758789063
2375.93,10.347160911560058,4.375647926330567,-3.043217277526856,-0.951861846446991,0.6491024136543274,0.7225711345672607,48.37770614624024,60.60003890991211,-64.4391586303711,-22.44020271301269,24.566075325012207,-6.03551025390625,-1.0581535816192629,-0.0853726901113986,-0.0005613681161775,-85.635791015625,82.84010009765625,154.71224975585938,29.519059219001477,1.361292788440967,34.50468439019445,1.062279814247273,-134.01349716186525,22.24006118774414,219.1514083862305
2398.298,2.537453269958496,-15.01374568939209,4.030754280090331,-0.95772625207901,0.6377812385559082,0.7490310311317444,48.139844512939455,60.33840866088868,-64.8964859008789,-22.613019943237305,21.00286083221436,-4.177478051185608,-1.060313892364502,-0.0869201727211474,-0.0052418705308809,-89.45873260498047,82.81275939941406,151.32378234863282,32.51234498116713,1.3745263327874784,31.957030313679205,1.0646774097578742,-137.59857711791992,22.47435073852539,216.2202682495117
2451.082,-2.297886466979981,-35.90141010284424,12.210701179504394,-0.9595382332801818,0.6392070293426514,0.7884310126304627,47.49131622314453,59.67020721435547,-65.70440673828125,-24.79784317016601,16.740910530090332,-2.360392427444458,-1.0560712337493896,-0.0800879172980784,-0.0164057050133123,-92.65108489990234,82.79920501708985,148.61900939941407,44.06963258598391,1.3976129875644976,30.849520127713124,1.0600044097545638,-140.14240112304688,23.12899780273437,214.32341613769532
2451.194,-8.151645851135253,-56.86909923553467,21.464552688598637,-0.962655520439148,0.6384927988052368,0.8051510453224182,46.47757263183594,58.57307662963867,-66.7777328491211,-27.659385681152344,12.061052370071412,-1.1154781818389892,-1.0552954196929931,-0.0996902614831923,-0.0205960490042343,-95.15813446044922,82.78701934814453,146.66446228027343,62.26718100544653,1.4088867475200333,31.01469461370549,1.0606257705875597,-141.63570709228514,24.21394271850586,213.44219512939455
2456.837,-14.79758415222168,-78.02656631469726,30.99101905822754,-0.9738874077796936,0.6300283789634704,0.8105566740036011,45.13716430664063,57.02639312744141,-68.05518493652343,-27.694538497924803,7.651394295692444,0.7129621028900146,-1.0447174072265626,-0.1179522722959518,-0.0266662657260894,-96.98548583984376,82.7984634399414,145.39691772460938,85.35077650861577,1.4159495631521075,29.54962469078608,1.052253908585568,-142.12265014648438,25.7720703125,213.45210266113287
2479.614,-18.177414321899413,-99.06741104125976,39.43554878234863,-0.9857720732688904,0.6042771816253663,0.8162686824798584,43.58217468261719,55.03039016723633,-69.47890167236328,-27.92081069946289,4.219487929344178,2.6422878742218017,-1.0297879695892334,-0.1110918387770652,-0.0315853748470544,-98.3310089111328,82.85381927490235,144.6230499267578,108.27057175753583,1.4157626018713894,29.049322132419583,1.036773014106699,-141.91318359375,27.823429107666016,214.10195159912115
2500.88,-21.227294921875,-119.58031005859377,47.65222778320312,-0.9999380469322204,0.6170429944992065,0.8378661036491394,41.90677871704101,52.59062728881836,-70.9536148071289,-30.40972328186035,1.3604501485824585,3.4919745206832884,-1.0228978633880614,-0.1173002302646636,-0.0308963794261216,-99.29169158935548,82.92650299072265,144.28860168457032,130.5082091285778,1.443464546703663,30.92354275348041,1.0306779911920194,-141.19847030639647,30.335875701904296,215.2422164916992
2523.1910000000003,-26.863564491271973,-139.224609375,55.87245178222656,-1.011755883693695,0.6081677794456481,0.8455875992774964,40.14303817749023,49.71867904663086,-72.39615020751953,-31.552461624145508,-0.4278732180595398,4.8636754035949705,-1.0148743629455566,-0.1324426069855689,-0.0321906384080647,-100.03512573242188,83.02089996337891,144.19791564941406,152.4607049684912,1.4523878748432666,32.046697440792784,1.0242328867063744,-140.17816390991212,33.30222091674805,216.5940658569336
2545.73,-31.52745361328125,-157.9408935546875,62.70634689331055,-1.0151970267295838,0.5918005466461181,0.8532890439033508,38.34542541503906,46.44743118286133,-73.76412200927734,-31.42285041809082,-0.2196301341056824,6.330007266998291,-1.003783392906189,-0.1268299564719199,-0.0306612417101859,-100.8639144897461,83.14434356689453,144.0200927734375,172.86482198994372,1.452530454734597,32.172764789005086,1.012588222361668,-139.20933990478517,36.696912384033205,217.78421478271488
2555.746,-32.58776931762695,-175.36981201171875,68.17423858642579,-0.9970150113105772,0.5833390593528748,0.8703912734985352,36.62026519775391,42.81939010620117,-75.03534240722657,-33.950514221191405,1.09677757024765,7.216367626190186,-0.9946515679359436,-0.1141852602362632,-0.01845547221601,-101.95220336914062,83.2855941772461,143.63156127929688,191.02185674382784,1.446888593609484,34.89236786943868,1.0018931939699438,-138.57246856689454,40.46620407104492,218.66690368652343
2581.429,-36.18217124938965,-190.10052490234372,73.59373931884765,-0.9553014636039734,0.5775762438774109,0.886597216129303,34.96903648376465,38.88375701904297,-76.14632110595703,-37.19727630615235,4.9065050959587095,7.860325050354004,-0.9907984375953676,-0.1256146222352981,-0.0124800360761582,-103.74705505371094,83.4098892211914,142.5956024169922,207.09504795545325,1.4275134984028717,38.84251877376191,0.9993997968659748,-138.7160915374756,44.52613220214844,218.7419235229492
2600.768,-40.28214111328125,-201.88560791015624,78.79870910644532,-0.8945446372032165,0.5612982630729675,0.8848633527755737,33.4043529510498,34.68390235900879,-77.06554718017578,-37.03941421508789,10.003005492687226,9.377268600463868,-0.9965785384178162,-0.1325176864862441,-0.0010470408014953,-106.4155487060547,83.52371368408203,140.67471923828126,220.52983983133356,1.3803295559652828,40.49336956315708,1.006173082495727,-139.81990165710448,48.83981132507324,217.74026641845705
2623.199,-40.52357482910156,-211.11085510253903,80.86603393554688,-0.822150993347168,0.5383967578411102,0.8765143871307373,31.97765693664551,30.290228652954102,-77.82796325683594,-34.89314422607422,17.64030079841614,10.664089012145997,-0.9961625456809996,-0.129067900776863,0.0166947816498577,-110.3135025024414,83.592919921875,137.4688232421875,229.7690859790545,1.3193100588752074,42.775587604759245,1.0053754465408833,-142.29115943908693,53.302691268920896,215.29678649902343
2646.985,-38.8738712310791,-217.81183166503905,82.75789031982421,-0.7383950591087342,0.5255223035812377,0.8767860293388366,30.72169189453125,25.74213638305664,-78.43577423095704,-33.0548454284668,27.934372997283937,12.94489288330078,-0.9819673895835876,-0.118298340588808,0.0257214867509901,-115.89289245605468,83.57431030273438,132.52838592529298,236.3859220237169,1.263831959926601,48.64963735144688,0.9905235556224634,-146.61458435058594,57.832173919677736,210.96416015625
2655.6670000000004,-40.69241065979004,-222.35027770996092,83.7909652709961,-0.646017187833786,0.5052931666374206,0.8565138697624206,29.553256607055665,21.0819450378418,-78.90674591064453,-31.98796157836914,43.8109733581543,16.097192001342773,-0.9747639298439026,-0.101418175920844,0.0072405715472995,-123.64837799072264,83.34531707763672,125.36363372802734,241.21879248196123,1.1887384209327034,59.29445777332619,0.9826118348439908,-153.2016345977783,62.26337203979492,204.27037963867187
2683.945,-37.724089050292974,-224.53985595703125,83.73204803466797,-0.5615405440330505,0.4769559562206268,0.8252636909484863,28.54510154724121,16.362216186523437,-79.26504669189453,-30.213427734375,60.44764366149902,21.072698211669923,-0.9898022770881651,-0.0959792103618382,-0.007176624238491,-132.87801055908204,82.82591705322265,116.6633804321289,242.79522174307775,1.1098693343097217,72.01926407738577,0.9973157450569204,-161.42311210632323,66.46370086669921,195.92842712402344
2705.5950000000003,-33.57475128173828,-225.4910675048828,82.68306579589844,-0.4820559620857239,0.4357080221176147,0.790313994884491,27.69289741516113,11.62417392730713,-79.54515991210937,-26.88189239501953,72.19109420776367,27.882722854614254,-1.005047905445099,-0.0814013835042714,-0.0259912628680467,-142.85333404541015,82.05911865234376,107.13221893310546,242.57422490399276,1.0260042579457709,82.63407228371806,1.0108433531534886,-170.54623146057128,70.43494472503662,186.67737884521483
2725.591,-26.530291748046874,-223.71194763183595,81.48601531982422,-0.3877132475376129,0.4307445347309112,0.7918577194213867,27.05378303527832,6.916178798675537,-79.74855499267578,-20.58846206665039,72.8544204711914,37.14739112854004,-1.017549979686737,-0.0695879440754651,-0.0622220184653997,-152.8598663330078,81.20484924316406,97.43231506347657,239.79877594512905,0.9877788923954872,88.16878697985454,1.023694514446366,-179.91364936828614,74.28867044448853,177.18087005615234
2735.613,-24.52205390930176,-220.1148223876953,79.91460418701172,-0.2961762085556984,0.3984419822692871,0.7395737051963807,26.50977745056152,2.277053928375244,-79.88818359375,-12.475924301147462,63.65014572143555,47.84619789123535,-1.0509384036064149,-0.0800330359488725,-0.0951101943850517,-162.3314208984375,80.40101928710938,88.1007293701172,235.69410002245417,0.8982818858228768,90.84753905033388,1.0593440994858476,-188.84119834899903,78.12396535873413,167.9889129638672
2758.089,-22.78681678771973,-215.32693786621093,78.78602142333985,-0.2265811368823051,0.4028599858283996,0.7452104210853576,26.04610061645508,-2.271973705291748,-79.95951385498047,-0.055816268920897,44.46237316131591,57.83047790527344,-1.084803581237793,-0.077633322123438,-0.1095900133252143,-98.71122436523436,79.82030487060547,79.60759048461914,230.60796199428688,0.8849763706479044,87.4652177087438,1.094383577286254,-124.75732498168944,82.09227857589721,159.5671043395996
2775.622,-25.271452331542967,-210.7440307617188,76.06737670898437,-0.1576794348657131,0.3602222472429275,0.7054973006248474,25.573269271850585,-6.7177763938903805,-80.00334930419922,8.997717666625977,21.6645170211792,63.97291259765625,-1.0751206874847412,-0.0424935528077184,-0.1293742850422859,-34.201892089843746,79.53072052001953,71.83431472778321,225.7953926851713,0.8147035882332316,78.49694194606417,1.0858758471525762,-59.77516136169434,86.24849691390992,151.83766403198243
2799.203,-22.72628517150879,-204.2626495361328,73.38802185058594,-0.0798458717763423,0.3594802886247635,0.693726921081543,25.177632904052736,-11.028466892242433,-80.01289520263671,13.949458503723145,-1.0838605880737304,65.69421310424805,-1.0640726327896115,-0.008912602905184,-0.1554233193397521,30.7266357421875,79.5404296875,64.38458862304688,218.54593914353524,0.789975155411201,71.94528929108684,1.0774725354676469,5.549002838134766,90.56889657974244,144.3974838256836
2820.679,-23.20130882263184,-197.00794677734376,69.88210830688476,-0.0251614712178707,0.3140025824308395,0.6450488448143006,24.80573844909668,-15.181033515930176,-80.00646667480468,12.683628177642824,-17.067052268981932,58.71654624938965,-1.059348201751709,0.0030507168034091,-0.1650651067495346,96.24967956542967,79.76112823486328,57.56294555664063,210.57470979346712,0.7247394306432291,66.65033797401527,1.0738820789319257,71.44394111633301,94.94216175079346,137.5694122314453
2835.52,-24.74456901550293,-190.06808471679688,65.95859832763672,0.0208176769316196,0.3257723599672317,0.6689259767532348,24.43259506225586,-19.1782283782959,-80.00298309326172,10.36275043487549,-24.71211109161377,47.417327880859375,-1.04171302318573,0.031942287669517,-0.1803197503089904,162.60708618164062,80.05540161132812,51.64558029174805,202.9593113765665,0.7514907706290131,58.26006406924356,1.0585898589033955,138.17449111938475,99.23362998962402,131.64856338500977
2858.048,-28.2684383392334,-182.6341857910156,60.25205078125,0.081045664101839,0.2633136123418808,0.608385169506073,24.021895599365237,-22.997627639770503,-80.0331787109375,5.688445425033571,-22.928507804870605,35.59055519104004,-1.017536163330078,0.0409322685794904,-0.1984319329261779,158.15616760253906,80.2824951171875,47.05687637329102,194.9758850881916,0.6747732058628355,45.457787174169496,1.0379708349796375,134.13427200317383,103.280122756958,127.09005508422852
2881.641,-26.68184280395508,-173.36340942382813,55.134395599365234,0.1519442543387412,0.2577853322029113,0.5925134778022766,23.665703201293944,-26.60702438354492,-80.0768829345703,5.323731565475465,-15.402388954162598,25.61207447052002,-0.994558811187744,0.0367559707956388,-0.2257587939500808,155.11013793945312,80.37894897460937,43.91032485961914,184.48562465196773,0.6737939381405835,37.974809306629865,1.0224306101583014,131.44443473815917,106.9859733581543,123.98720779418946
2903.33,-29.467820358276366,-163.6952697753906,49.50501022338867,0.2207237526774406,0.2354413837194442,0.5786377906799316,23.27692031860352,-29.9959774017334,-80.1479263305664,5.172191572189332,-1.1424207687377943,13.054842948913574,-0.9686441659927368,0.0264468509005382,-0.2364366650581359,154.00924987792968,80.27924041748047,42.75244216918945,174.08164519533548,0.6751942738174174,33.5842774063134,0.999129999000126,130.73232955932616,110.27521781921386,122.90036849975586
2925.381,-35.14568977355957,-154.6046936035156,44.340982055664064,0.2870518192648887,0.2308030247688293,0.5626227259635925,22.80305290222168,-33.18459014892578,-80.2464385986328,6.273082208633424,21.87138614654541,5.241777229309082,-0.9489362835884094,0.0443618807941674,-0.2598084598779678,154.6052276611328,79.79229125976562,43.31031112670898,164.86593961410924,0.6866037024200504,39.525412219434656,0.9863303307204448,131.80217475891112,112.9768814086914,123.5567497253418
2935.496,-35.33635368347168,-144.55406341552734,37.68665199279785,0.3624024033546448,0.1893523633480071,0.5093437850475311,22.371051025390624,-36.14797096252441,-80.39891204833984,6.338278722763063,48.60531139373779,1.3531298160552978,-0.9316909790039064,0.0491708371788262,-0.2741902440786361,156.4698272705078,78.82810821533204,45.15817718505859,153.66787902311307,0.6605910621875285,53.5557760120344,0.9736679496900876,134.0987762451172,114.97607917785643,125.55708923339844
2958.088,-36.11163749694824,-134.7003158569336,32.55201454162598,0.4381233692169189,0.2019174605607986,0.5118329584598541,21.96635627746582,-38.89581298828125,-80.59719543457031,7.809766769409181,72.61325263977051,-2.67583794593811,-0.9027817010879516,0.0549560394138097,-0.2975711911916732,159.20755310058593,77.4245819091797,47.86329574584961,143.71928610052203,0.7072219271029515,74.4268333559873,0.9533171669249472,137.2411968231201,116.32039489746094,128.46049118041992
2978.431,-42.62075576782227,-125.52401428222656,27.58290328979492,0.5097759604454041,0.2030914425849914,0.495851719379425,21.47332878112793,-41.44635848999023,-80.84207000732422,7.672059822082521,89.63042602539062,-5.72318236976862,-0.8998776435852051,0.061044044420123,-0.3005106240510941,162.2991180419922,75.70512542724609,50.93022079467774,136.47317732742897,0.7461145005307079,90.39518498010332,0.9518581265036976,140.82578926086427,117.15148391723632,131.77229080200195
3001.618,-44.76368942260742,-115.68390655517578,22.607742309570312,0.5765897750854492,0.1928827196359634,0.456373131275177,20.966153717041017,-43.78478164672852,-81.12386932373047,7.471384429931642,101.6196304321289,-3.911431337893009,-0.8890164613723754,0.0757990360260009,-0.3181996762752533,164.99865112304687,73.7240707397461,53.61513061523438,126.93063352668742,0.7684810749804871,102.15204865342444,0.9478191618125088,144.03249740600586,117.50885238647462,134.73899993896484
3022.964,-47.79631881713867,-105.25269317626952,19.119062232971192,0.6474940538406372,0.1919811934232711,0.4301239967346191,20.39932174682617,-45.90667495727539,-81.40376586914063,6.721742343902589,99.57442016601564,-1.0690516248345374,-0.8749376177787781,0.076917415857315,-0.3288943469524383,166.9564636230469,71.75724487304687,55.55987014770508,118.02616740612672,0.8079208804124238,99.84437690724876,0.9383656075832492,146.5571418762207,117.66391983032229,136.9636360168457
3045.413,-54.27672805786133,-94.86900024414062,16.380062294006347,0.7127086997032166,0.1902924865484237,0.4081760704517364,19.68760070800781,-47.81086349487305,-81.66163330078125,6.397363471984865,85.66961822509765,0.1548463568091392,-0.870483672618866,0.0763509511947631,-0.3499345183372497,168.30835571289063,70.05136413574219,56.87744598388672,111.0817727973845,0.849911289552252,86.0052459124345,0.9415598197425128,148.62075500488282,117.86222763061524,138.53907928466796
3056.133,-56.93611831665039,-82.7251350402832,13.564801979064942,0.7668716192245484,0.1761128604412078,0.3587109446525573,18.88186187744141,-49.46791305541992,-81.87171478271485,5.882016277313234,63.957320022583005,3.4628491148352625,-0.8837969899177551,0.0793022364377975,-0.3529491126537322,168.99873046875,68.76686248779296,57.510066986083984,102.33723263159904,0.8672630279799073,65.48852747045522,0.9552426142139508,150.1168685913086,118.23477554321288,139.38178176879882
3079.38,-57.19514617919922,-68.86348190307618,11.183198070526124,0.8064100503921509,0.1662887960672378,0.3159671664237976,18.011505889892575,-50.84727096557617,-82.01256103515625,4.224714362621309,43.57326898574829,5.182775211334229,-0.887798798084259,0.0847578793764114,-0.3544703781604766,169.25800170898438,67.88436431884766,57.71946792602539,92.09235903206827,0.8851690501791107,45.83640273524863,0.9599178599161384,151.2464958190918,118.73163528442385,139.73202896118164
3101.756,-58.74233169555664,-54.12152786254883,8.480994415283202,0.8361989498138428,0.1531875759363174,0.2717644363641738,17.051952362060543,-51.930320739746094,-82.09029541015624,2.2911779284477247,23.34436820745468,5.633560037612915,-0.8930067777633667,0.0879296109080314,-0.3519029021263122,169.22306213378906,67.40660400390625,57.64239044189453,82.2151438308214,0.8979054341155658,26.808840997065158,0.9641917778207552,152.1711097717285,119.33692474365236,139.7326858520508
3125.5440000000003,-52.84300231933594,-36.92003145217896,5.699987936019897,0.8552857756614685,0.1336334109306335,0.2256459921598434,16.138779830932613,-52.66780548095703,-82.09289855957032,-0.1081235051155076,10.126917016506196,4.548173809051514,-0.8966766595840454,0.0853000834584236,-0.3480815708637237,169.06847229003907,67.20001983642578,57.4811264038086,67.15676847583724,0.8991965888840431,15.503704369644206,0.965965128960814,152.92969245910643,119.8678253173828,139.57402496337892
3145.448,-40.35428466796875,-16.798719120025638,4.384340286254883,0.8580732703208923,0.1157117336988448,0.1855574011802672,15.354916191101074,-53.01222457885742,-81.96629638671875,-4.093019878864287,3.960146653652191,1.8983793258666988,-0.9043769598007202,0.0827759273350238,-0.3348201811313629,168.9056823730469,67.1354995727539,57.3975700378418,54.22217956482196,0.8878545683498238,12.081182162651317,0.9680692372541746,153.5507661819458,120.14772415161131,139.36386642456054
3155.639,-22.801603698730467,5.033549404144284,2.85821830034256,0.8486200332641601,0.0949580714106559,0.1661570608615875,14.80432300567627,-52.9277961730957,-81.70489654541015,-9.795017540454865,4.143852555751801,-3.33996868133545,-0.904916536808014,0.0782442711293697,-0.3302014648914337,168.8817596435547,67.09051055908203,57.58770446777344,48.09901996051933,0.8706574932137583,14.422803727803176,0.9666181503345708,154.0774366378784,120.01830673217772,139.2926010131836
3177.865,-0.3264328002929673,27.75130453109741,1.7277107238769531,0.8241376280784607,0.0808788165450095,0.1765901029109954,14.580167198181153,-52.39860229492187,-81.31035766601562,-14.18241090774536,5.840012204647064,-9.842474555969238,-0.899045991897583,0.0717790871858596,-0.335385525226593,169.094384765625,67.0327362060547,58.12891540527344,50.26510273826935,0.8485074284409999,19.48852201936136,0.9626013291034274,154.51421756744384,119.43133850097657,139.43927307128905
3200.384,20.800782775878908,50.11562643051148,0.5952757835388184,0.7834657073020935,0.0764829233288764,0.2101376801729201,14.665002822875977,-51.431828308105466,-80.7844451904297,-18.14484424591064,9.672874546051023,-15.939790153503418,-0.877104663848877,0.0600884221494197,-0.3488087892532349,169.554248046875,66.90875854492188,59.02283020019532,60.706909691857774,0.8188383044833205,26.504986010606565,0.946806379264856,154.889245223999,118.34058685302736,139.807275390625
3215.484,34.83668746948242,70.97805519104004,-0.6389770030975341,0.7366136908531189,0.0736741378903388,0.2509914487600326,14.934871292114256,-50.05653839111328,-80.1400360107422,-22.96332874298096,13.408449363708495,-22.1934534072876,-0.8663827419281006,0.0557785019278526,-0.3591335952281952,170.22789916992187,66.72211456298828,60.25525207519532,79.75676388747718,0.7871491705810023,34.900076448388475,0.940602651660316,155.29302787780762,116.77865295410156,140.3952880859375
3237.971,43.41612243652344,89.73782806396484,-3.4772544860839845,0.6912417531013488,0.073306231200695,0.2918817341327667,15.33628749847412,-48.30658721923828,-79.4469970703125,-27.711576080322267,12.754405665397645,-28.791564750671387,-0.8530432224273682,0.0600796781480312,-0.3752581417560577,171.08402404785156,66.55281982421874,61.79367218017578,100.16950970886572,0.7584222611132108,42.73240341417745,0.934717349216361,155.74773654937744,114.85940704345704,141.24066925048828
3260.438,49.16253204345704,107.03953247070312,-7.510496437549591,0.645116651058197,0.0766066372394561,0.3255010187625884,15.845982551574709,-46.20446090698242,-78.71964263916016,-32.23596839904785,4.627085185050964,-32.653529739379884,-0.8462892889976501,0.0537121545523404,-0.3946868240833282,171.978369140625,66.53868865966797,63.47261505126953,118.61800802867332,0.7291283322016382,49.73997818873103,0.9357745898175166,156.1323865890503,112.7431495666504,142.1922576904297
3275.376,52.73157501220703,122.79710083007812,-12.702102756500244,0.6006403565406799,0.0793629795312881,0.3553360044956207,16.4516019821167,-43.77481842041016,-77.99969635009765,-35.463430404663086,-7.689967274665832,-31.296431732177734,-0.8502414584159851,0.0404848396778106,-0.402831882238388,172.689306640625,66.7558807373047,65.01986389160156,134.63937273308983,0.7044987600297471,54.88509405179877,0.9423712624149122,156.2377046585083,110.53069915771484,143.01956024169922
3297.9500000000003,56.55706024169922,137.6348449707031,-18.484077167510986,0.5578752934932709,0.0922753334045409,0.3890534281730652,17.16470375061035,-41.04201889038086,-77.28703308105469,-37.204376220703125,-21.891421055793764,-24.334269523620605,-0.8890169858932495,0.0337751923128962,-0.4041265964508057,172.95166015625,67.23906860351562,66.11785202026367,150.15015554482324,0.6911206159128622,59.3090362500151,0.978065267850018,155.78695640563964,108.28108749389648,143.40488510131837
3322.255,60.007415008544925,151.97103881835938,-26.30312213897705,0.5037044227123261,0.1195628196001052,0.4077988445758819,18.01573638916016,-38.00205001831055,-76.622607421875,-32.684777641296385,-34.44160416126251,-9.454418754577636,-0.9164178133010864,0.0260646844282746,-0.3994361162185668,172.4909912109375,67.92847442626953,66.33647003173829,165.75339794686906,0.6673193113371907,61.14397629315997,1.0012240125892216,154.47525482177736,105.93052444458009,142.95907745361328
3343.7450000000003,66.1084701538086,164.75491333007812,-35.53505020141601,0.4476437509059906,0.129689460992813,0.4487081706523895,19.05471267700195,-34.67087097167969,-76.02476654052734,-20.78098621368408,-42.179779052734375,9.574002265930178,-0.9126060366630554,0.0064169876277446,-0.3903423368930817,171.27974853515624,68.70393829345703,65.48506698608398,181.37991621324755,0.6576787644409878,63.29031912597236,0.9932951066526664,152.22503585815429,103.37480926513672,141.50983352661132
3365.116,71.54069061279297,175.40127868652343,-42.92514991760254,0.3919137120246886,0.1698989123106002,0.5197833120822907,20.24290237426758,-31.094616317749026,-75.44602508544922,-4.864274024963376,-54.67030487060547,26.535747718811034,-0.9274204730987547,0.0060024309903383,-0.348484656214714,169.2751007080078,69.66987457275391,63.44655227661133,194.52131325053364,0.6872062014598781,72.84985997672779,0.993308455474517,149.03219833374024,100.76449089050293,138.89257736206054
3375.148,69.93437957763672,183.1178649902344,-51.10778427124024,0.3249944031238556,0.2069451808929442,0.5861140966415406,21.43949203491211,-27.31248435974121,-74.90950469970703,14.016602134704591,-65.03753814697265,37.933604621887206,-0.935258424282074,0.0438348062336444,-0.3046865463256836,166.60323181152344,70.77872772216797,60.31428604125976,202.9885728306704,0.7158944269987527,84.18493114171112,0.9905958125236024,145.16373977661132,98.09121208190918,135.2237907409668
3397.57,65.88322296142579,188.6760284423828,-59.96053695678711,0.253518071770668,0.2170626997947692,0.5977316558361053,22.60543365478516,-23.35094184875489,-74.43539581298828,32.456348991394044,-67.14739990234375,42.04356155395508,-0.88341783285141,0.065307499654591,-0.261528143286705,163.7314025878906,71.87869262695312,56.59699401855469,209.0973896799147,0.69593245483508,90.02949444621777,0.929601817616329,141.12596893310547,95.229634475708,131.03238983154296
3417.595,70.123388671875,191.6013549804688,-67.28812637329102,0.1960111603140831,0.2330858141183852,0.6777229309082031,23.87538108825684,-19.2715763092041,-73.989208984375,39.44062271118164,-67.2763656616211,36.46056613922119,-0.8842694878578186,0.0784441335126757,-0.2353025019168853,161.06709899902344,72.97769165039062,52.96605377197265,215.3611060081909,0.7520539836748018,88.61458452111033,0.9234776092417872,137.1917179107666,92.24926795959472,126.95526275634764
3440.194,65.84729537963867,193.23737487792968,-70.77487411499024,0.1283716740086674,0.3181617438793181,0.7738637089729309,25.07443008422852,-15.131888580322263,-73.50806884765625,45.3493350982666,-73.82873992919922,21.933164024353022,-0.9765136122703552,0.0705950677394866,-0.1929149150848388,158.9802734375,74.27193145751953,49.83414840698242,216.60386610959176,0.8551324088049295,92.7123497455518,1.0028106518085922,133.90584335327148,89.4038200378418,123.34221725463868
3460.204,52.92781753540039,193.12401123046877,-75.79302215576172,0.0459283174946904,0.3432735085487365,0.7919971346855164,26.04671516418457,-10.962188005447388,-73.0444549560547,46.40961265563965,-63.738037109375,1.337150382995604,-0.9582463383674622,0.0869766041636466,-0.1926443725824355,158.33016967773438,75.47756805419922,48.18856048583984,215.3044556603421,0.8739700489922833,86.34802987903578,0.986242792150329,132.2834545135498,86.43975605964661,121.23301544189454
3484.517,46.340958786010745,192.7697540283203,-78.3981948852539,-0.0225721923634409,0.3748530864715576,0.7777873277664185,26.918510055541997,-6.793695497512817,-72.56891021728515,33.10108108520508,-39.55055389404297,-18.292602729797363,-0.978940451145172,0.0474574089050293,-0.1947146356105804,159.51146850585937,76.33550567626953,48.72166290283203,214.60109636710652,0.8742832449079978,75.30058100430493,1.0037872589133603,132.59295845031738,83.12920117378235,121.2905731201172
3505.318,44.87331962585449,191.1383514404297,-79.3779052734375,-0.0900996087118983,0.4253374338150024,0.8802510738372803,27.78694267272949,-2.6530075550079357,-72.06765289306641,11.84028244018555,-18.45870132446289,-34.38577823638916,-1.030465579032898,0.0141046278178692,-0.1884094238281249,162.06641845703126,76.87309112548829,51.11621932983398,213.15407653152275,0.9910240219252748,73.28743724262655,1.0514606862157114,134.27947578430175,79.52609868049622,123.1838722229004
3515.344,30.89358100891113,189.5720764160156,-79.2547393798828,-0.1643754495307803,0.4892821848392487,0.9134468674659728,28.406080627441405,1.4594384670257567,-71.53345184326172,3.062577438354495,-7.679002189636231,-48.03088111877442,-1.0887505769729615,0.0017500218003988,-0.1675654619932174,165.84181518554686,77.25797119140626,54.96006088256836,208.4237113109127,1.054900585162361,74.76660723209258,1.1049348428281427,137.43573455810548,75.7985327243805,126.49351272583009
3542.804,18.973197174072265,187.3560546875,-80.78355560302734,-0.247114148736,0.4963076293468475,0.896892499923706,28.81835060119629,5.548811674118042,-71.01407318115234,-5.052530670166012,-3.0152723312377945,-58.16796035766602,-1.0519855976104735,-0.0013088542968034,-0.1643523454666137,98.87058715820312,77.5531005859375,60.26777572631836,205.58563918943375,1.059165129041061,74.08131724868583,1.0682462729384916,70.05223655700684,72.00428891181946,131.2818489074707
3566.253,12.565295791625976,183.22392883300785,-79.73952178955078,-0.3339726060628891,0.5159168481826782,0.8973201394081116,29.127598571777344,9.553521347045898,-70.49772338867187,-9.83822555541992,-3.287690544128418,-56.28428192138672,-1.0725807309150697,-0.0164038706570863,-0.156146028637886,32.09210205078125,77.78027954101563,65.87135314941406,201.46170388791973,1.0984156721819822,71.00168178749422,1.0854132454281171,2.9645034790039064,68.22675819396973,136.36907653808595
3586.25,9.308548831939698,178.4335174560547,-77.5428482055664,-0.4067805051803589,0.5097743153572083,0.9319890141487122,29.403525161743165,13.455917358398438,-69.97604064941406,-3.628565597534176,-23.311549186706543,-52.38785018920898,-1.041752278804779,-0.0026058468967676,-0.1688476711511611,-34.67841796875,78.30192413330079,71.34122772216797,195.94607229689967,1.1503781859106803,75.89323526634783,1.0585420247242152,-64.08194313049316,64.84600677490235,141.31726837158203
3596.413,0.0098085880279541,176.24866943359376,-73.90647201538086,-0.4591798365116119,0.5491196036338806,0.919541883468628,29.547798538208006,17.27761917114258,-69.3956069946289,10.20743789672852,-47.68934001922607,-47.23438491821289,-1.0663686275482178,-0.0247093182057142,-0.1773091673851013,-101.04239501953126,79.22611999511719,76.92546234130859,191.54359720276491,1.173180136746519,76.99447566262941,1.0862192852894486,-130.59019355773927,61.94850082397461,146.3210693359375
3617.678,-6.102913236618042,174.669189453125,-71.3178611755371,-0.5086466193199157,0.523667848110199,0.8801550507545471,29.61895408630371,21.04097728729248,-68.78390960693359,23.74493255615235,-63.97117309570312,-40.35130805969239,-1.0730070352554322,-0.0620674967765807,-0.1518428161740303,-166.5986541748047,80.39594268798828,83.03937072753907,189.09251874979773,1.1476556566065867,83.02999767788039,1.093600522074759,-196.2176082611084,59.35496540069581,151.82328033447266
3642.656,-6.974440908432007,172.65936279296875,-67.64009552001953,-0.5538009703159332,0.5041890799999237,0.8403673648834229,29.73447494506836,24.73229522705078,-68.12334747314453,31.580590438842773,-73.06750946044922,-30.697041702270507,-1.0543381929397584,-0.0476733956951648,-0.135011276602745,-158.81832275390624,81.63288116455078,90.33377227783204,185.8783718520952,1.129782632346323,87.37773127526265,1.07317953242512,-188.55279769897464,56.9005859375,158.45711975097657
3656.265,-7.739140081405639,172.35796813964845,-63.53403167724609,-0.5760293900966644,0.4850374102592468,0.8209112763404847,29.91456527709961,28.388161849975585,-67.37724609375,37.65573387145996,-79.14118347167968,-26.138804626464843,-1.0343644976615909,-0.055204659467563,-0.1211488127708435,-149.05723266601564,82.84646606445312,99.48519897460938,184.20972206550408,1.1208166501269492,92.65629021428737,1.051198194293029,-178.97179794311523,54.458304214477536,166.86244506835936
3677.686,-8.514917135238647,175.1040466308594,-58.564344787597655,-0.612298995256424,0.4947506070137024,0.8008461236953736,30.21355209350586,32.03858528137207,-66.47825927734375,41.65079994201661,-77.90030670166016,-21.25491523742676,-1.0570713043212892,-0.0974635807331651,-0.0737611822783946,-137.02104797363282,83.8501693725586,110.83063507080078,185.2687250833868,1.1305136925852102,91.46589340248138,1.0690674790024512,-167.23460006713867,51.811584091186525,177.30889434814452
3700.0,-4.521288967132569,177.63833312988282,-53.1861328125,-0.677725863456726,0.4563040971755981,0.7539753079414367,30.76826858520508,35.67410507202148,-65.38557052612305,49.06642761230469,-73.9278190612793,-17.416264533996582,-1.0665525913238525,-0.107462560897693,-0.0124154977500438,-123.06539306640624,84.57693634033203,123.94339447021484,186.5004797001648,1.1154810650994056,91.046318871892,1.077816371170469,-153.83366165161132,48.90283126831055,189.3289649963379
3722.633,-5.3117630958557145,176.32723388671874,-45.89399414062501,-0.7620686888694762,0.45270437002182,0.7315765142440795,31.513087463378906,39.198865509033205,-64.07469329833984,51.40570983886719,-70.57614288330078,-15.294125175476074,-0.9768177032470704,-0.0778211716096848,-0.014780075661838,-108.0951904296875,84.99005126953125,137.99845123291016,183.36036771363396,1.1531139985269614,89.62133903820468,0.9860816544166005,-139.6082778930664,45.791185760498045,202.07314453125
3742.72,-2.3523605346679703,173.1903045654297,-40.04436569213867,-0.8423267006874084,0.396374899148941,0.6493044137954712,32.499867630004886,42.58446273803711,-62.58853225708008,47.98724365234376,-60.10408477783203,-12.964449310302737,-0.9470317125320434,-0.0625790550373494,-0.0222292302176356,-94.11675109863282,85.04279479980468,151.09471282958984,178.66461647477666,1.1553842365242837,78.67243043668438,0.957613441802101,-126.61661872863768,42.45833206176758,213.68324508666996
3755.231,14.38310317993164,168.65281372070314,-36.018132019042966,-0.9235470056533812,0.4254118561744689,0.6566664814949036,34.00273132324219,45.81723175048828,-60.95907974243164,39.95060071945191,-52.10367126464844,-12.134728240966796,-0.9639766454696655,-0.0763659795746207,-0.0158691508695483,-82.16283569335937,84.844482421875,162.30195007324218,175.36261053402654,1.228393358156262,68.28294709336087,0.9743690875424006,-116.16556701660156,39.02725067138672,223.26102981567385
3777.475,19.267842006683345,159.06704711914062,-34.16558685302734,-1.006872832775116,0.420405638217926,0.6042532622814178,35.73742523193359,48.84549789428711,-59.265306854248045,36.88147497177125,-39.96627235412598,-11.318098640441894,-0.9529587268829346,-0.0752708872780203,-0.0352587467059492,-73.46950988769531,84.52322082519531,170.28416137695314,166.19528240873302,1.2635467818087558,57.51554382359719,0.9647132938655838,-109.20693511962892,35.6777229309082,229.5494682312012
3800.022,22.28967390060425,142.47289276123047,-33.21285133361816,-1.0750668048858645,0.4290622353553772,0.5451461195945739,37.56634521484375,51.56428909301758,-57.64235305786133,30.3186469078064,-25.995651054382325,-11.619817924499513,-0.8951903820037842,-0.0294431759044527,-0.0979488348588347,-68.35601959228515,84.185107421875,174.79786987304686,150.6954993900037,1.2918505377887026,46.53167582096743,0.9066917808157816,-105.9223648071289,32.620818328857425,232.4402229309082
3822.69,34.01734266281128,124.05611877441406,-33.677750778198245,-1.097123336791992,0.440963864326477,0.497001588344574,39.55826873779297,53.959014892578125,-56.195420837402345,17.562658214569094,-9.471153831481931,-12.397887992858887,-0.9099374890327454,-0.0148858413100242,-0.1474890053272247,-67.062109375,83.89604339599609,175.73737487792968,134.63148980899473,1.2922152339936102,36.021057049628226,0.9288420630703046,-106.62037811279296,29.93702850341797,231.932795715332
3845.066,40.89919471740723,105.02190780639648,-31.95460319519043,-1.0868839621543884,0.5170254468917846,0.5513756513595581,41.59071655273438,55.9972900390625,-54.92209854125976,5.712029170989992,5.765305519104004,-13.387981033325197,-0.9362865805625916,-0.0280117016285658,-0.1582924336194991,-68.887255859375,83.6776138305664,173.7783630371094,117.99730561997151,1.330241253400368,35.12376960581762,0.9555833289329676,-110.47797241210938,27.680323791503906,228.70046157836916
3855.251,34.368172836303714,86.1740592956543,-29.699943923950197,-1.0530580878257751,0.5293073534965516,0.5232980966567993,43.352159118652345,57.69512634277344,-53.86393432617187,-0.6372989654540987,20.755769538879395,-13.000045013427734,-0.956155014038086,-0.0190346758812666,-0.1557238593697547,-73.24471588134766,83.54409332275391,169.4024658203125,98.32626568289672,1.296387026853377,37.49971988152944,0.9747411312582984,-116.596875,25.848966979980467,223.2664001464844
3879.321,33.00384330749512,67.81821823120117,-26.83975830078125,-1.0131188750267028,0.5717315077781677,0.5538273870944976,44.895974731445314,59.053453063964845,-53.05387725830078,-9.970573425292963,30.632036399841308,-14.4489595413208,-0.9811580777168274,-0.00885003618896,-0.1312830541282892,-79.14880676269532,83.39744873046875,163.65575256347657,80.44448082574822,1.2949591243431156,41.51559718060604,0.9967312383212904,-124.04478149414062,24.343995666503908,216.70962982177736
3900.082,30.685207748413085,51.87541809082031,-23.654814910888668,-0.9581647992134096,0.5962805628776551,0.586509394645691,46.18382949829102,60.11545104980469,-52.507250213623045,-19.925866699218748,35.67920074462891,-15.130410194396973,-1.0144576668739318,-0.0232295338064432,-0.0950473688542842,-85.86864776611328,83.20948791503906,157.28388366699218,64.96521403018053,1.2755373703712931,44.227617256390815,1.0257051414574376,-132.0524772644043,23.094036865234376,209.79113388061523
3922.496,27.617072677612303,37.836958694458005,-17.854323196411134,-0.9304972171783448,0.6321009397506714,0.6609898924827575,47.24652557373047,60.89079360961914,-52.157763671875,-25.98040580749512,35.65658836364746,-14.772174644470216,-1.042879343032837,-0.0548243191093206,-0.0431424843613058,-92.32034759521484,82.96937103271485,151.30279846191405,51.24125669049594,1.3068271041011628,46.96658962789945,1.0476208576307031,-139.5668731689453,22.0785774230957,203.46056213378907
3942.609,19.179449892044065,23.95040884017944,-12.418667960166932,-0.911854100227356,0.6524182200431824,0.6818615198135376,47.940756225585936,61.398957061767575,-52.0402229309082,-25.23552436828613,32.66459846496582,-13.1364333152771,-1.0516141414642337,-0.0803913176059722,-0.0141097282525152,-97.88949432373047,82.69965209960938,146.19305114746095,36.89467925196856,1.313869287604937,43.92290846023955,1.0556580480202582,-145.83025054931642,21.3006950378418,198.23327407836916
3964.882,14.990442132949823,7.983893108367921,-5.472245192527771,-0.9216199040412902,0.6577992558479309,0.7191871523857116,48.30861892700195,61.58728332519532,-52.19769134521484,-25.11920204162597,27.341265487670903,-11.36029119491577,-1.0535758495330811,-0.0995745673775672,-0.0097934109624475,-102.28325805664062,82.41758728027344,142.26546325683594,30.253849712178837,1.3428667008495874,39.57858266115839,1.0587584412852542,-150.59187698364258,20.83030395507813,194.4631546020508
3975.968,8.053681039810176,-9.38606843948364,2.6694128274917603,-0.9228894233703612,0.6530773043632507,0.7522643446922302,48.27788391113281,61.42049865722656,-52.63799514770508,-25.512251663208005,21.046076202392577,-7.997223842144012,-1.0517781257629395,-0.093770408630371,-0.0217200906481593,-105.61451568603516,82.19766998291016,139.42247009277344,31.21320804897817,1.3593579423842426,34.923402656282946,1.0567307627529088,-153.89239959716798,20.777171325683597,192.0604652404785
3997.423,-0.1379464626312298,-27.683595752716062,12.088742280006407,-0.9321953892707824,0.6581108212471009,0.7927207231521607,47.84170837402344,60.86602096557617,-53.344171142578126,-26.29328994750976,14.330961084365844,-5.527385053038597,-1.0594907522201538,-0.1102802231907844,-0.0251577911432832,-107.92805480957033,82.0341796875,137.6264404296875,38.95164530162753,1.390215472015958,31.54664379407308,1.065955409677235,-155.76976318359374,21.168158721923827,190.9706115722656
4015.543,-11.601431417465212,-46.54973077774048,21.58057234287262,-0.9411121845245362,0.6421199679374695,0.78801509141922,46.95274353027344,59.91187973022461,-54.28877944946289,-23.45478286743164,8.269042015075684,-2.223810777068138,-1.0590241432189942,-0.1259523466229438,-0.0309268969111144,-109.40117645263672,81.95533294677735,136.62049255371093,53.54450769743479,1.3859844077274928,26.52420856491654,1.0675939484865276,-156.35391998291016,22.04345321655273,190.90927200317384
4037.238,-19.319640541076662,-66.12372093200683,30.97257442474365,-0.9634421229362488,0.618806803226471,0.7933959364891052,45.71673049926758,58.53714141845703,-55.43648376464844,-21.568808555603024,2.798511981964112,0.3978313356637954,-1.0549000740051269,-0.1288908094167709,-0.0438210636377334,-110.2292709350586,81.95468444824219,136.23005065917968,76.54049944589451,1.3937386806339254,23.41990375604841,1.0641656199674538,-155.94600143432618,23.41754302978516,191.66653442382807
4055.937,-29.75398559570313,-85.39745330810547,39.20225791931152,-0.9766842126846312,0.6075201749801635,0.7911563277244568,44.128632354736325,56.74393539428711,-56.73730697631836,-21.145801734924312,-1.7921341896057128,2.7044335275888445,-1.0458073616027832,-0.1250735074281692,-0.0483483098447322,-110.55451202392578,82.0278076171875,136.34049072265626,98.67714588814124,1.3968925538317851,22.469434225611327,1.0549596166452084,-154.68314437866212,25.283872222900392,193.07779769897465
4077.133,-36.88037109375001,-104.30802459716796,45.99303207397461,-0.9959560751914976,0.5994104623794556,0.7885200381278992,42.30823516845703,54.55335693359375,-58.12593994140625,-22.459247398376466,-5.1714959144592285,3.9060044080019,-1.034623348712921,-0.1335446193814277,-0.0550116345286368,-110.52591552734376,82.13955688476562,136.8359832763672,119.94615965130396,1.4055736572248976,23.847536960216207,1.0451414160597727,-152.8341506958008,27.586199951171874,194.96192321777343
4099.632,-42.87666320800782,-122.39415130615234,50.90573806762696,-1.0101310968399049,0.5798678517341613,0.7834737658500671,40.32315444946289,51.998046875,-59.563742065429686,-23.48425617218017,-6.850595998764038,5.433426666259765,-1.0258821845054626,-0.1299478560686111,-0.0607049897313117,-110.39093780517578,82.29099884033204,137.46084289550782,139.46855411110627,1.4042126368874683,25.193543425857136,1.0363157013358175,-150.71409225463867,30.29295196533203,197.0245849609375
4114.762,-46.196308898925786,-139.2086624145508,54.07554244995117,-1.009121561050415,0.5656871318817138,0.7899025440216064,38.266421508789065,49.11488876342774,-61.00238723754883,-26.32626438140869,-6.891495037078857,6.683821964263916,-1.0175138115882874,-0.1237647861242293,-0.0627067252993583,-110.37973480224608,82.46688842773438,138.01741638183594,156.4571065700725,1.4013075293579007,28.199073801572204,1.0271586721551142,-148.64615631103516,33.35199966430664,199.0198036193848
4137.782999999999,-48.679829406738286,-154.65958709716796,56.211892700195314,-0.9996188879013062,0.5537104725837707,0.8035923838615417,36.211056518554685,45.94567184448242,-62.38337478637696,-30.20884246826172,-5.67618705034256,7.394239044189453,-1.0102178812026978,-0.1217504933476447,-0.0568281326442956,-110.63336334228516,82.64750213623047,138.3827880859375,171.69820323268655,1.3975514824898403,31.84845419878251,1.0194269581682205,-146.84441986083985,36.701830291748045,200.76616287231445
4159.648,-50.92816009521485,-168.70273132324218,57.829438018798825,-0.9742997407913208,0.5446475625038147,0.8182932615280152,34.20740737915039,42.52052459716797,-63.660911560058594,-33.43645820617676,-2.757314884662628,8.558253765106201,-0.9979582190513612,-0.1199844151735305,-0.0510320540517568,-111.43064575195312,82.82745819091797,138.26410522460938,185.54234752102133,1.3848728393013434,35.084930268439855,1.0067700897149592,-145.6380531311035,40.30693359375,201.925016784668
4182.197999999999,-53.49307708740236,-180.92853393554688,59.07337951660156,-0.9340078234672546,0.5274871289730072,0.8301828980445862,32.27092742919922,38.86915359497071,-64.80469818115235,-35.08010330200195,2.8832727313041686,10.447484016418455,-0.9897480249404907,-0.1121713310480117,-0.0427645992487668,-113.21572265625,82.99679565429688,137.18081970214843,197.7447085467286,1.3575615579468416,37.79499586241617,0.9972539178240402,-145.4866500854492,44.12764205932617,201.9855178833008
4204.058,-54.431194305419936,-191.37721557617184,60.297071838378905,-0.880275022983551,0.5036892712116241,0.8425772070884705,30.44480857849121,35.017835235595705,-65.8012306213379,-36.80443572998047,10.67759016752243,12.091180038452148,-0.9761695981025696,-0.1047565326094627,-0.0390310917049645,-116.3159194946289,83.1143295288086,134.80577087402344,207.9548054414695,1.320621572819762,41.92199570473171,0.9828284103699436,-146.7607280731201,48.09649429321289,200.6070014953613
4214.805,-51.55472412109376,-199.86223449707032,60.8667610168457,-0.8185120463371277,0.4810775458812714,0.8470993757247924,28.800961303710935,31.00792007446289,-66.6556884765625,-38.0235466003418,22.149019801616667,14.589715194702148,-0.9737983345985411,-0.0938668325543403,-0.035741627588868,-121.19397735595705,83.12454223632812,130.65963439941407,215.42945437862605,1.2756291898196526,48.90145720762008,0.9791017962099836,-149.99493865966798,52.11662216186524,197.31532287597656
4237.974,-48.3518653869629,-206.3579559326172,61.703434753417966,-0.7374637722969055,0.464666473865509,0.8539400696754456,27.346590042114254,26.85916862487793,-67.36636047363281,-39.327806854248045,37.60542821884155,18.143333435058597,-0.9728382349014282,-0.0778825275599956,-0.0423742987215518,-128.10803985595703,82.93267669677735,124.47874298095704,221.0350954502653,1.2240197997041415,60.039765313923645,0.977188048780755,-155.4546298980713,56.07350807189941,191.84510345458983
4258.016,-43.25636520385744,-210.90272521972656,61.82970275878906,-0.6580065727233887,0.4350378751754761,0.8602480530738831,26.10199966430664,22.60228061676025,-67.95041046142578,-42.69668273925781,55.8656925201416,21.63451309204101,-0.9639954924583436,-0.0559230864048003,-0.0613171055912971,-136.6787902832031,82.41614227294922,116.6858413696289,224.3503202142866,1.171448326389085,75.18667931226628,0.969151228815192,-162.78078994750976,59.81386165618896,184.6362518310547
4279.839,-37.05988883972168,-214.8221893310547,60.56042556762695,-0.5851025342941284,0.4180435538291931,0.8698967337608338,25.069912338256835,18.255617332458492,-68.45858154296874,-44.9891845703125,75.3821189880371,27.614514541625976,-0.9765512585639954,-0.041198406741023,-0.0708988666534423,-146.21499786376953,81.49095916748047,107.94264068603516,226.4533333990847,1.1323289644482473,93.01326754437258,0.9816486189566468,-171.28491020202637,63.23534183502197,176.4012222290039
4303.612,-32.011931610107425,-217.58604431152344,59.56738052368164,-0.5102816820144653,0.4020162999629974,0.859248960018158,24.21714324951172,13.8386794090271,-68.89466247558593,-42.41357269287109,82.93349914550781,37.06517753601074,-0.9915095090866088,-0.0231716003268956,-0.0870491348206996,-155.92794189453124,80.35210876464843,98.95641174316408,227.92251110082148,1.080237931681766,101.8456944318784,0.9972878780671652,-180.14508514404295,66.51342935562134,167.85107421875
4324.748,-29.788289642333982,-219.33553466796877,58.89733963012695,-0.4273973643779755,0.3797207653522491,0.8437241435050964,23.473537826538085,9.36750123500824,-69.27013854980468,-36.80081481933594,81.35309219360352,52.69351196289063,-1.0369365453720092,-0.0370709773153066,-0.1352721311151981,-93.4980224609375,79.11160583496094,89.98143157958984,229.12669966439756,1.0229025808999,109.89856171358244,1.049395379769757,-116.97156028747558,69.74410459995269,159.25157012939454
4334.917,-25.84109916687012,-219.61436462402344,57.63139343261719,-0.3456264495849609,0.3610859513282776,0.8362855672836303,22.863344955444337,4.882949233055115,-69.60050811767579,-28.9849155664444,66.61143922805786,65.5888442993164,-1.0556693077087402,-0.0491303954273462,-0.1622395291924476,-30.30817565917969,77.98489837646484,81.60029907226563,228.56965243888763,0.9804777156407108,110.04879342578792,1.072037079613962,-53.17152061462402,73.10194914340973,151.2008071899414
4362.067,-24.979193496704102,-218.73260192871092,56.07927551269531,-0.2566665887832641,0.3337001621723175,0.8036357402801514,22.322290802001955,0.4234693288803101,-69.89624328613282,-16.592657494544984,45.46290292739868,76.7745246887207,-1.0968337535858157,-0.0295575719326734,-0.1708676382899283,33.64616394042969,77.10432586669921,73.71621780395508,227.22503224505203,0.9156839719440756,104.07300549412476,1.1151046319059088,11.323873138427734,76.68085653781891,143.6124610900879
4382.233,-18.94958531856537,-215.0976989746094,55.65577621459961,-0.1717063218355178,0.3143120527267456,0.7710712313652038,21.953491973876957,-3.97085325717926,-70.13331451416016,-8.330216431617734,17.760703754425048,78.80451736450195,-1.1181421279907229,-0.0161736212670803,-0.183396491408348,98.5271240234375,76.62970275878907,66.59893417358398,223.1924941741599,0.8575725908139598,88.98923549702809,1.1380072496556457,76.57363204956054,80.60055601596832,136.73224868774415
4405.462,-14.713286375999454,-210.4106414794922,54.83897399902344,-0.0907544508576393,0.2967172622680664,0.7447057604789734,21.7096809387207,-8.271715092658997,-70.32783203125,-5.127693390846249,-2.6956515312194824,70.2058334350586,-1.121514654159546,-0.0021865852177143,-0.1963723927736282,164.36345520019532,76.47146606445312,60.39182815551758,218.14609041762947,0.8122729913718567,77.32101382656525,1.1439020282249293,142.6537742614746,84.74318115711212,130.71966018676758
4424.838000000001,-10.077553510665895,-204.95905151367188,52.57960281372071,-0.0261176258325576,0.2869390845298767,0.7287285923957825,21.600526046752933,-12.456368446350098,-70.5197509765625,-5.538522362709043,-13.135751056671143,50.365972983837125,-1.0710684537887574,0.033370291814208,-0.191414788365364,159.86810302734375,76.5108154296875,55.91068725585937,212.0601702949407,0.7875621993634735,58.36307491570428,1.0915490077648375,138.26757698059083,88.9671838760376,126.43043823242188
4434.787,-10.799966764450076,-199.1898406982422,51.04732971191406,0.0396404147148132,0.2778379321098327,0.7017722129821777,21.511835861206052,-16.515387535095215,-70.70579071044922,-5.1909883916378,-12.98604965209961,32.13340785503387,-1.0397027015686036,0.0547772636637091,-0.2092537969350814,156.9456787109375,76.58130340576172,53.04481735229492,206.18632691840796,0.7606951742465409,40.78756288895151,1.0643949032062885,135.43384284973143,93.09669094085692,123.75060806274412
4454.563,-19.609308958053592,-193.44562683105468,50.51488494873047,0.0938407331705093,0.2674298852682114,0.6714437961578369,21.268579483032227,-20.468730163574214,-70.86513671875,-4.323965305089947,-9.461933135986328,12.921869349479678,-1.0027855157852172,0.0373266668990254,-0.2326699584722519,155.72768859863282,76.67360229492188,51.92721405029297,202.6513450947828,0.735319916454633,27.43639538176088,1.0326243618201725,134.4591091156006,97.1423324584961,122.79235076904295
4477.372,-27.94636304378509,-186.78009948730468,46.76017379760742,0.1650231719017028,0.2280726790428161,0.6143048226833343,20.898033905029298,-24.27433662414551,-71.05077209472657,1.1698520243167898,2.9323787689208984,-1.4095931291580193,-0.968491280078888,0.0422346794977783,-0.2635424852371215,156.0988555908203,76.61517181396485,52.346222686767575,196.3129505212124,0.6889603324375679,25.0696010861642,1.0064335906104074,135.20082168579103,100.88950843811035,123.39699478149414
4494.776,-29.992291426658632,-178.20307312011718,42.65570983886719,0.240089701116085,0.2117452144622802,0.5946519792079925,20.515620040893555,-27.89924011230469,-71.25517578125,6.789439731836322,21.443395614624023,-8.190358662605286,-0.9492233157157898,0.0401895070448517,-0.2905150771141052,157.62152099609375,76.24553833007812,53.84088439941407,187.1613814789875,0.6907971732477839,29.86223130706725,0.994465364159411,137.10590095520018,104.14477844238282,125.09606018066408
4517.349,-38.64445114135742,-169.6396942138672,39.74234085083008,0.3163166165351867,0.191393956542015,0.5499335289001465,19.984294128417968,-31.351953506469727,-71.45518798828125,11.902660328149798,39.01733531951904,-10.255960094928742,-0.9277453660964966,0.0513435861095785,-0.3114990234374999,159.72100219726562,75.53748168945313,55.82738037109375,179.38561903865772,0.6759264212509261,43.37156049994332,0.9807596897893716,139.73670806884766,106.88943519592286,127.282568359375
4539.629,-42.21621398925781,-159.22344055175782,33.9331615447998,0.3812789708375931,0.1575786143541335,0.5002414882183075,19.429815673828124,-34.58461799621582,-71.70389709472656,14.892790031433108,55.02503089904785,-10.657186698913574,-0.9102479338645936,0.0607637923210858,-0.3294131517410278,162.0926544189453,74.51089477539062,58.03758697509765,168.87660618029707,0.6580464225937156,59.64648665227803,0.9710190196125648,142.6628387451172,109.09551277160644,129.74148406982422
4554.485,-36.15892486572265,-145.8994613647461,27.0880708694458,0.4552987217903137,0.1300851821899413,0.4496369838714599,19.043420791625977,-37.52751579284668,-72.00783996582031,15.457272529602054,68.6518325805664,-7.439355754852295,-0.8982520341873169,0.0647108256816863,-0.342182719707489,164.35021057128907,73.19127044677734,60.12387542724609,153.23757323715353,0.6628172610559592,71.71996433294758,0.9641760205856608,145.3067897796631,110.71878623962402,132.1317153930664
4577.437,-31.883841705322265,-131.6056930541992,22.580128479003907,0.5137798726558686,0.1439304471015929,0.4341036796569824,18.76385078430176,-40.17494583129883,-72.32627716064454,14.01860332489014,77.64885101318359,-2.6153926849365234,-0.8811937689781189,0.0619343489408492,-0.3571756720542908,166.169287109375,71.65618591308593,61.78956298828125,137.82736582813214,0.6983900006056623,79.49175811152816,0.9534352352345148,147.40543632507325,111.83113174438476,134.11584014892577
4599.518,-35.07061920166016,-117.29180450439452,17.94939727783203,0.5670296728610993,0.1365210741758346,0.3763702273368835,18.4380256652832,-42.52164001464844,-72.66340484619141,12.377478027343752,79.1800521850586,3.4016788482666014,-0.8433578729629516,0.0630339711904525,-0.3658664643764496,167.41153869628906,70.05369262695312,62.87565536499024,123.95214516125648,0.7026059889449443,80.77850433156928,0.9219069312922092,148.9735130310059,112.57533264160156,135.53906021118163
4621.953,-30.40450782775879,-100.0879737854004,12.719305324554444,0.6232118606567383,0.1307537257671355,0.3359807074069976,18.203481674194336,-44.5057373046875,-73.00645751953125,11.032448101043704,70.46825866699218,9.062155532836917,-0.8308019280433655,0.0660109087824821,-0.3760948538780212,168.06397399902343,68.59679718017578,63.35866012573242,105.5256409593892,0.7258986554247557,72.6619225934244,0.914771069176506,149.8604923248291,113.10253448486328,136.36511764526367
4644.517,-23.8412561416626,-81.24701080322265,9.612920475006105,0.6773764014244079,0.1363210886716842,0.3026751041412353,18.04999504089356,-46.113348388671874,-73.29008636474609,8.438289880752567,57.66954689025879,12.390111351013184,-0.8371858835220337,0.0700752720236777,-0.3792262434959411,168.27935485839845,67.38712005615234,63.421206665039065,85.42821601070821,0.7571740835298696,60.63192783828872,0.922142512334534,150.22935981750487,113.50046844482422,136.71129302978517
4654.318,-16.923923873901373,-61.77686042785645,6.866146564483643,0.7221622824668884,0.1531233102083205,0.2929105937480926,17.97440376281738,-47.33218612670898,-73.5051513671875,5.443403619527819,44.5230167388916,13.381998348236085,-0.8354696393013,0.0795059859752654,-0.3853298366069794,168.21751098632814,66.43667602539062,63.23959884643555,64.60799438620221,0.7965519371376277,47.893967615149386,0.9236261569060524,150.24310722351075,113.76886215209962,136.74475021362304
4730.746,-13.380586910247803,-41.87049548625946,3.9991386413574217,0.7624061226844787,0.1429132744669913,0.265962678194046,17.902663803100587,-48.15320816040039,-73.64978485107422,2.3318409860134155,29.18233184814453,13.08328456878662,-0.8281935334205628,0.0862577944993972,-0.3857942700386047,167.9449493408203,65.79354248046874,62.89045639038086,44.8910909797678,0.8208369087550202,32.84098471789083,0.9178413006813352,150.04228553771972,113.94675064086914,136.54024124145508
4730.807000000001,-4.915510845184329,-20.602435183525085,0.9795784950256348,0.7884911894798279,0.1396632984280585,0.2592947423458099,17.92313232421875,-48.551239776611325,-73.7028793334961,-0.9785220205783816,17.970908164978027,9.705674570798871,-0.8414981961250305,0.0916612118482589,-0.3905707597732544,167.65625,65.39014587402343,62.597058868408205,31.39529240970099,0.8422403500492625,21.65041673024777,0.932375199317258,149.73311767578124,113.94138565063476,136.2999382019043
4730.840999999999,3.1796547889709443,0.7817910432815551,-1.91347770690918,0.7996222138404846,0.135223464667797,0.2572563230991363,18.02144927978516,-48.52468032836914,-73.66461791992188,-4.795845228433606,14.025853538513184,4.520102423429489,-0.8582295417785645,0.0896758913993834,-0.3896579444408417,167.48773193359375,65.09439392089844,62.51894760131836,27.71268645757123,0.8511429890238024,17.988840724184303,0.9469778382976156,149.4662826538086,113.61907424926758,136.18356552124024
4742.735,9.45105695724487,21.46679241657257,-4.717942237854004,0.7966625452041626,0.1305333778262137,0.2630915462970733,18.16209526062012,-48.08766174316406,-73.52774200439453,-8.38822799324989,14.662049293518066,-1.297770768404007,-0.862088429927826,0.0864585816860198,-0.3871200919151306,167.5014862060547,64.81625823974609,62.72083740234375,33.18984147771876,0.8495980898377857,19.20452007979156,0.9492630649870196,149.33939094543456,112.90391998291015,136.2485794067383
4764.374,16.286201190948482,41.6385945558548,-7.753795623779297,0.7793970465660095,0.1231655359268188,0.2715433895587921,18.364956665039063,-47.24892578125,-73.29979248046875,-11.399594020843503,17.947518730163573,-7.1106970608234406,-0.8579198718070984,0.0826217919588088,-0.39158336520195,167.72345581054688,64.49746475219726,63.21974563598633,46.42302695949719,0.8354277267120679,23.59279671543832,0.947037158567562,149.3584991455078,111.74639053344728,136.51953811645507
4774.335,24.609091949462886,61.53882598876953,-10.22953405380249,0.7544601678848266,0.1195827275514602,0.2924311518669128,18.652074813842773,-46.01778182983399,-72.97077178955078,-14.779592514038082,21.467038917541505,-12.611735993623734,-0.8543712973594666,0.0767822861671447,-0.3974350214004516,168.12803344726564,64.13083038330078,63.99652557373047,67.10420400422637,0.8191150113784513,29.383402925981205,0.9458700732967392,149.47595863342286,110.14861221313475,136.96729736328126
4802.939,32.68819694519043,80.5302719116211,-12.769483947753908,0.7210286021232605,0.1191177874803542,0.3183109283447266,19.029155349731447,-44.412157440185545,-72.53523254394531,-19.041273689270017,22.4643856048584,-18.077470111846925,-0.8657929301261902,0.0708710268139838,-0.4003834903240204,168.66544189453126,63.76939086914062,65.01742858886719,87.87911910894206,0.7991645346108562,35.275279477818025,0.9568622020459046,149.63628654479982,108.18154830932616,137.5526611328125
4824.398,37.156545639038086,97.20963439941406,-16.35900135040283,0.6799919962882995,0.1257041752338409,0.3430411279201507,19.458130264282225,-42.46971969604492,-72.04391174316406,-22.274871063232418,17.747718715667723,-20.379821014404296,-0.870180356502533,0.0678290516138076,-0.401917552947998,169.18234252929688,63.51045684814453,66.08954238891602,105.42281436604496,0.7746583174818826,37.73359265074463,0.9612758896606248,149.72421226501464,105.98017654418943,138.1334541320801
4844.541,40.281436157226565,111.98690490722656,-20.89355411529541,0.6354249477386474,0.1328890651464462,0.3689041554927825,19.94195899963379,-40.22082061767578,-71.5196517944336,-26.3127197265625,10.32129602432251,-17.09268488883972,-0.8667810440063477,0.0667170651257037,-0.4084880113601684,169.42320861816407,63.38118133544922,66.94482879638672,121.01367478761858,0.7506134200271243,39.224751156615866,0.9608009451267184,149.48124961853028,103.602001953125,138.4644805908203
4854.37,45.43543930053711,126.14370269775392,-25.236004447937013,0.588773512840271,0.1478366598486899,0.3996781527996063,20.52374839782715,-37.686213684082034,-70.95711669921874,-31.23268852233887,1.7482611656188976,-7.156043577194214,-0.8800346970558166,0.0530427222605794,-0.416129457950592,169.11893615722656,63.380950164794925,67.29763336181641,136.62298533693442,0.7319597249479056,42.17796238004025,0.9755096348284444,148.5951877593994,101.06716384887696,138.25475006103517
4881.954000000001,50.057595825195314,139.44647827148438,-30.22263870239258,0.5380882322788239,0.1724025040864944,0.4447249352931976,21.20604705810547,-34.883032608032224,-70.36882934570312,-30.53832664489746,-11.550830173492432,5.111302995681763,-0.9136860013008118,0.0391637862194328,-0.4218586921691895,168.24508056640624,63.591862487792966,66.9948516845703,151.3824423545242,0.726085074095704,45.94933926826416,1.0077260016180696,147.03903350830078,98.4748950958252,137.36368103027343
4894.281999999999,48.22877960205078,149.80153198242186,-36.142180633544925,0.4793280243873596,0.2027267485857009,0.483910447359085,21.88929481506348,-31.85227165222168,-69.79007263183594,-20.24340553283691,-31.49611291885376,20.27094502449036,-0.8963133931159973,0.0503739193547516,-0.4085135996341705,166.73744201660156,64.11143341064454,65.7617172241211,161.67365151932384,0.7200402526724753,56.85709233548901,0.9877965897539268,144.8481472015381,95.9637050628662,135.55178985595705
4918.154,46.80001373291016,156.98434143066407,-42.606501770019534,0.419438099861145,0.2176765412092208,0.536503529548645,22.579748916625977,-28.641512298583983,-69.2493179321289,-6.934857940673825,-43.28625602722168,35.12084774971008,-0.8758682012557983,0.0614046589005738,-0.387488842010498,164.68671264648438,64.7678237915039,63.64056015014648,169.71702644217677,0.7256449420750852,68.17990075374756,0.962232399077565,142.1069637298584,93.40933609008788,132.8898780822754
4939.361,48.950991821289065,163.99229125976564,-47.352657318115234,0.3590015679597854,0.2433758705854415,0.6037243008613586,23.33189506530762,-25.26100730895996,-68.70058746337891,9.017954254150393,-59.0796781539917,46.085449600219725,-0.8987263798713684,0.0712675877381115,-0.3653389692306518,162.1576385498047,65.63901977539062,60.65530242919922,178.03503431278688,0.7549021589339746,84.00341981838656,0.9763377373807032,138.82574348449708,90.90002708435058,129.35588989257812
4954.156,44.41939163208008,168.56531372070313,-52.81625900268555,0.2876351803541183,0.2746857583522796,0.6694107770919799,24.03057289123535,-21.73579654693604,-68.17525939941406,32.364625549316415,-75.14837493896485,48.02964477539062,-0.8649572968482971,0.1195663998834788,-0.3261610150337219,159.5305389404297,66.75084838867187,57.08201141357422,182.626776251788,0.7902031823363231,99.24315915691317,0.9375918612397636,135.49996604919434,88.48664493560791,125.25727081298828
