Timestamp (ms),Wrist Gyroscope X (deg/s),Wrist Gyroscope Y (deg/s),Wrist Gyroscope Z (deg/s),Wrist Accelerometer X (g),Wrist Accelerometer Y (g),Wrist Accelerometer Z (g),Wrist Roll (deg),Wrist Pitch (deg),Wrist Yaw (deg),Arm Gyroscope X (deg/s),Arm Gyroscope Y (deg/s),Arm Gyroscope Z (deg/s),Arm Accelerometer X (g),Arm Accelerometer Y (g),Arm Accelerometer Z (g),Arm Roll (deg),Arm Pitch (deg),Arm Yaw (deg),Wrist Gyroscope Magnitude (deg/s),Wrist Accelerometer Magnitude (g),Arm Gyroscope Magnitude (deg/s),Arm Accelerometer Magnitude (g),Difference Roll (deg),Difference Pitch (deg),Difference Yaw (deg)
0.0,7.376931,-0.219755,-3.360926,-0.905794,0.392265,0.149193,67.908478,65.201324,-70.172531,-0.023337,-1.723623,1.864408,-0.964618,0.204526,-0.055991,99.90313,77.843094,-11.198036,8.109452929529958,0.9982951226516136,2.53918058675668,0.9876506278441786,31.994652,12.641769999999994,58.974495000000005
19.986,7.1995415000000005,-0.4409875,-3.124295,-0.8960015,0.4046125,0.155789,67.9464035,65.21574749999999,-70.219597,0.8880105,-0.9736935,2.3609985,-0.956596,0.1975635,-0.0530385,99.9121365,77.817898,-11.2081945,7.8606034776220275,0.9953894592969628,2.7038778813131983,0.97822304523585,31.965733,12.6021505,59.0114025
39.973,5.897203666666667,-0.3866196666666666,-2.7316013333333333,-0.894301,0.398141,0.162141,67.95875533333333,65.229914,-70.26364133333334,0.6312286666666667,-0.1095326666666666,2.585653333333333,-0.961047,0.1966576666666666,-0.048339,99.95319633333334,77.79001366666667,-11.173476,6.510616844590739,0.9922601666715236,2.663841248060151,0.9821518380519266,31.994441,12.560099666666668,59.09016533333334
59.959,4.497268,-0.2854255,-2.15905775,-0.89375575,0.39506575,0.1640107499999999,67.96061875000001,65.23780225,-70.2933635,0.32449175,0.00021425,2.177515,-0.96576875,0.200871,-0.04216375,99.9653835,77.77105900000001,-11.16116275,4.996840756689101,0.9908460090229396,2.201560018928878,0.9873379456557034,32.00476475,12.533256750000003,59.13220075
79.946,3.3504156000000003,-0.0594494,-1.5638276000000002,-0.8941102000000001,0.3951656,0.1631246,67.9664534,65.23939179999999,-70.3022552,0.053684,-0.0276083999999999,1.9209132,-0.9663026,0.2070698,-0.0373338,99.9514892,77.7540528,-11.1707174,3.697888003496791,0.9910593000888293,1.9218615240284092,0.9889451094278388,31.9850358,12.514661,59.1315378
99.932,1.4777416000000003,0.3371673999999999,-0.7594702,-0.8907879999999999,0.3989823999999999,0.1667576,67.9908782,65.2449766,-70.3208222,-0.3282868,0.492183,2.0989322,-0.9663086,0.2135916,-0.0311322,99.9410292,77.7081894,-11.1737132,1.6953457100784373,0.9902011480560502,2.180718392810057,0.990122667098052,31.950151,12.463212800000004,59.147109
119.918,-0.6537244,1.0587696,-0.0662664,-0.8940303999999999,0.3930586,0.1692689999999999,68.0064528,65.246263,-70.3002976,-1.103437,0.5987476,2.0998096,-0.9762934,0.2191863999999999,-0.0259934,99.9086882,77.6609878,-11.1824714,1.2460898413872412,0.9911798088738086,2.446481607886501,1.0009331334670064,31.9022354,12.414724799999998,59.1178262
139.904,-2.1061536,1.8846614,0.5447143999999999,-0.8984745999999999,0.3916509999999999,0.1662608,68.0390076,65.2447448,-70.2296372,-1.7880688,-0.0590766,1.7237134,-0.9802554,0.2221384,-0.021181,99.7966918,77.6231918,-11.2582986,2.87828861600262,0.9941276408302908,2.484324448122781,1.005333155100696,31.757684200000007,12.378446999999998,58.9713386
159.891,-2.9992324,2.7563542,0.8895959999999998,-0.902696,0.3890978,0.1641849999999999,68.0952776,65.2459868,-70.1141756,-2.2280004,-0.386711,1.7620348,-0.9801346,0.2184298,-0.0203926,99.6472916,77.58816519999999,-11.363511399999998,4.169444148598635,0.9966011642607286,2.866757369630747,1.0043860163203986,31.552014000000003,12.342178399999996,58.7506642
179.877,-3.1942568,3.4670688,0.8891532,-0.9064788,0.3852742,0.16321,68.1749026,65.25538180000001,-69.9696322,-2.4307848,-0.6626058,2.0437596,-0.9837244,0.2131866,-0.0243634,99.4800308,77.5517286,-11.4835482,4.797336342320592,0.9983874639312535,3.244181636822581,1.0068544069697862,31.3051282,12.296346799999997,58.486084000000005
199.863,-2.7263092,3.934701,0.8014122,-0.9131114,0.3764776,0.1600302,68.2801012,65.27612620000001,-69.80719780000001,-2.1575256,-1.1126192,1.7946939999999998,-0.987986,0.20766,-0.0274102,99.2948104,77.52534,-11.628276799999998,4.853544614785618,1.0005585825046728,3.0189012492130307,1.009945706887276,31.01470920000001,12.249213799999996,58.178921
219.85,-1.8467026,4.1096548,0.6327779999999998,-0.9167974,0.373981,0.1550594,68.4114046,65.30397500000001,-69.6364106,-1.5057378,-1.356232,1.3104558,-0.9847928,0.205382,-0.0315928,99.1221938,77.51003700000001,-11.7742018,4.549723185567864,1.0022088996492298,2.4132770176518235,1.0064773866648369,30.710789200000004,12.206062,57.8622088
239.845,-1.0850335999999998,3.9747198,0.2217969999999999,-0.9168084,0.3737122,0.1541876,68.54590759999999,65.3383378,-69.4802462,-0.4674435999999999,-1.2950317999999998,1.2068287999999998,-0.9818446,0.2021685999999999,-0.0372166,98.9949356,77.4975432,-11.8957416,4.126122793961662,1.0019841649113823,1.8308595343995235,1.0031331101557162,30.44902800000001,12.1592054,57.5845046
259.822,-0.4817058,3.712787,-0.212014,-0.9168109999999998,0.3732974,0.1543032,68.6736526,65.3785142,-69.3473832,0.4686640000000001,-1.1608592,1.15805,-0.9816352,0.201498,-0.039694,98.907022,77.48582300000001,-11.9965378,3.749903694939197,1.0018497073403774,1.705379673158045,1.0028881909360785,30.233369400000004,12.107308800000002,57.3508454
279.809,-0.1448482,3.3161978,-0.3603116,-0.916305,0.3719998,0.1559527999999999,68.7860502,65.418216,-69.240857,1.0341954000000002,-0.9476432,0.7462677999999999,-0.9805802,0.2010624,-0.0383214,98.8526062,77.4819152,-12.0744988,3.338858083067119,1.0011593180173073,1.5888685877706314,1.001714603579163,30.066556,12.063699200000002,57.16635819999999
299.795,-0.5278112,2.9021202,-0.320262,-0.911968,0.377681,0.1586398,68.8732176,65.44938959999999,-69.152182,1.0571926,-0.8882235999999999,0.375931,-0.9773866,0.204512,-0.0387075999999999,98.8092026,77.4828384,-12.141683,2.9670615205515167,0.99974754659816,1.431056069430097,0.999303758774738,29.93598500000001,12.033448800000002,57.010499
319.781,-1.283914,2.494436,-0.2337132,-0.9065028,0.3828988,0.1589214,68.93173820000001,65.4717574,-69.07724759999999,0.5738322000000001,-0.9133213999999998,0.4139649999999999,-0.9735108,0.2089226,-0.0362264,98.7457198,77.48030539999999,-12.2191372,2.815185247429774,0.9968023017766562,1.1553382165754753,0.9963354267335676,29.813981600000005,12.008548,56.8581104
339.768,-2.045145,2.221043,0.0964739999999999,-0.9040368,0.3886694,0.1578255999999999,68.97295840000001,65.4825744,-69.00323619999999,-0.3043406,-0.8315281999999999,0.6033386000000001,-0.9734756,0.2163346,-0.0352862,98.6647902,77.46976299999999,-12.296213,3.0207544275478604,0.9966219736018068,1.0714848643137989,0.9978479437584468,29.6918318,11.9871886,56.7070232
359.754,-2.813708,1.9659718,0.4903024,-0.9019452,0.3946848,0.156101,68.99950720000001,65.48102420000001,-68.9267302,-1.5383416,-0.9227984,0.5529050000000001,-0.9724092,0.2242912,-0.0374184,98.555223,77.4558302,-12.3774622,3.467332443118917,0.9968193203159136,1.8771669356661167,0.9986422438995056,29.5557158,11.974805999999996,56.549268000000005
379.74,-3.4949746,1.6789694000000002,0.6578495999999999,-0.9001823999999999,0.4002338,0.1524454,69.01060340000001,65.4718842,-68.85080079999999,-2.5322852,-0.8965668000000001,0.7503234,-0.9690906,0.226223,-0.0399927999999999,98.4328094,77.436357,-12.4518302,3.932753716799678,0.9968726337468392,2.789137064683061,0.995948221941884,29.422206,11.9644728,56.3989706
399.726,-3.5181321999999997,1.2692,0.7302533999999999,-0.9012658,0.4004008,0.1460073999999999,69.0139388,65.4599442,-68.7853436,-2.8820608,-0.59957,1.2668704,-0.9690692,0.2219284,-0.040359,98.3268372,77.4083084,-12.502255,3.8106945357622655,0.9969548654503072,3.204796288407861,0.9949754660272786,29.312898399999995,11.9483642,56.2830886
419.713,-3.1718198,0.7892056,0.9063452,-0.903745,0.3991344,0.1465245999999999,69.00605759999999,65.4425354,-68.7402494,-2.695629,-0.206996,1.6358772,-0.9711142,0.219968,-0.0429899999999999,98.2630876,77.37325899999999,-12.5135818,3.391864965517708,0.99876561449297,3.159961592035074,0.9966427898528338,29.25703,11.9307236,56.2266676
439.699,-2.7687295999999995,0.2634518,0.8427646,-0.9047754,0.3935944,0.1456097999999999,68.9823728,65.4258346,-68.7217696,-2.915982,0.0411967999999999,1.6043888,-0.9714022,0.2227927999999999,-0.0400301999999999,98.2093996,77.33717659999999,-12.509663,2.9061181359078567,0.9973651738518644,3.3284698619966018,0.9974273320942836,29.2270268,11.911342,56.21210659999999
459.686,-1.9374676,-0.2806638,0.7611231999999999,-0.9068156,0.3884483999999999,0.1441292,68.951492,65.4101866,-68.73011319999999,-3.1044338,0.460846,1.6529592000000002,-0.9729878,0.2205326,-0.0376046,98.1832186,77.3009324,-12.473383000000002,2.1004431425912107,0.996985415218578,3.547134388652773,0.9983756770638796,29.2317266,11.8907458,56.25673020000001
479.672,-1.0620622,-0.6646240000000001,0.7348348,-0.909324,0.3866367999999999,0.1456212,68.91957520000001,65.39363540000001,-68.75882120000001,-3.2793874,0.8024766,1.5802268,-0.976084,0.2164302,-0.0353644,98.180002,77.26835639999999,-12.4097194,1.4524749090211095,0.9987811001313952,3.727662424665699,1.000416237031067,29.2604268,11.874720999999996,56.34910179999999
499.658,-0.608326,-0.7530714,0.6213188,-0.9110562,0.383387,0.1469803999999999,68.8883024,65.3804548,-68.7952562,-3.394757,0.9424598,1.3953184,-0.9771906,0.2174637999999999,-0.032435,98.180974,77.2391846,-12.339034000000002,1.150310439406424,0.9993058737501744,3.789395598382887,1.0016206878173992,29.2926716,11.858729799999995,56.4562222
519.645,0.161741,-0.7156094,0.4325744,-0.911409,0.37835,0.1417426,68.87553240000001,65.3747176,-68.82827319999998,-3.3412104,0.9163564,0.977972,-0.9774344,0.2178573999999999,-0.0275492,98.173195,77.21883700000001,-12.2778172,0.8516910096887954,0.9969483699950364,3.599975725150535,1.0017977897054675,29.2976626,11.844119399999997,56.550456
539.631,1.2860052,-0.5289818000000001,0.430405,-0.9105892,0.3773731999999999,0.1410375999999999,68.8932068,65.3708342,-68.85343639999999,-2.8602024,0.9091114,0.676013,-0.9760952,0.2147418,-0.0273916,98.1789338,77.2062408,-12.2126758,1.4556371742928524,0.995728290171892,3.0763996623886043,0.9998130724694692,29.285727,11.835406599999995,56.6407606
559.617,1.913891,-0.1614006,0.2872659999999999,-0.9080502,0.3771413999999999,0.1451596,68.93039560000001,65.3710356,-68.8722626,-2.4167982,0.7702592,0.4380835999999999,-0.9742694,0.2127657999999999,-0.02461,98.1779312,77.19997860000001,-12.163293,1.9420480602491177,0.9939125267276594,2.574127039463445,0.9975348623110872,29.247535600000003,11.828943,56.7089696
579.604,1.9344788,0.4066349999999999,0.0750866,-0.9040124,0.374421,0.1451778,68.98593460000001,65.37960799999999,-68.8735504,-2.1332538,0.4242258,0.1463572,-0.9715254,0.2156688,-0.021751,98.1478744,77.1988266,-12.1491942,1.978180539883557,0.9891946715422602,2.1799448925585065,0.9954133513970967,29.1619398,11.819218600000005,56.7243562
599.59,2.0969222000000003,0.9401302,-0.1258638,-0.9022414,0.3703002,0.1442948,69.06185780000001,65.3974288,-68.8591324,-1.8704044,0.2018024,-0.3123598,-0.970475,0.2149534,-0.0216108,98.1096252,77.2076766,-12.148962,2.301471095181367,0.9858918659270092,1.907014806665423,0.994230213015678,29.0477674,11.810247800000004,56.7101704
619.576,2.3460792,1.3961684,-0.3878241999999999,-0.9035856,0.3694988,0.147939,69.1514222,65.4231918,-68.83765860000001,-1.6895268,0.1091434,-0.5646638,-0.971186,0.2119723999999999,-0.0264398,98.0839158,77.2230696,-12.1403184,2.7574954984436224,0.98736125478459,1.7847291942231014,0.9944011303200534,28.932493600000004,11.7998778,56.697340200000006
639.562,2.5601372,1.5838604,-0.7685646,-0.9061294,0.3721054,0.1512252,69.24325859999999,65.4558258,-68.8185912,-0.9238228,0.3814896,-0.8345786000000001,-0.9721582,0.2080822,-0.0314362,98.1150192,77.2447752,-12.0898346,3.10702555410881,0.9911619339787824,1.3021153252634576,0.9946748224693938,28.871760600000005,11.788949400000002,56.72875660000001
659.549,2.7360424,1.5504374,-1.2500008,-0.9093654,0.3718296,0.143727,69.3386214,65.4991502,-68.79981380000001,0.1280549999999999,0.7850256,-1.1890612,-0.9720410000000002,0.2100556,-0.0334596,98.2110246,77.27081439999999,-11.9945434,3.38412265527081,0.9929048960914234,1.4305697511920905,0.9950410069964556,28.8724032,11.7716642,56.805270400000005
679.535,3.5285868,1.2297672,-1.6592124,-0.913503,0.37085,0.1372133999999999,69.43760660000001,65.5500442,-68.79467919999999,1.3615824,1.5531469999999998,-1.6994046,-0.9741498,0.2096286,-0.035759,98.4108996,77.3046736,-11.8182444,4.088549615651477,0.995411960269998,2.6747239539997243,0.9970911136195127,28.973293,11.754629400000002,56.97643480000001
699.521,4.4720688,0.8687952000000001,-1.7739078,-0.913652,0.3756765999999999,0.1416636,69.53463880000001,65.59683079999999,-68.8104904,2.1645342,3.7882678,-2.6518996,-0.9705808,0.2061799999999999,-0.0401668,98.8488802,77.3506926,-11.4147068,4.888860126284789,0.9979786873758976,5.105756821076248,0.9930511837518146,29.314241400000004,11.7538618,57.3957836
719.508,4.4192124,0.6477408,-1.7699562,-0.9107318,0.3844414,0.1535911999999999,69.60967860000001,65.63443140000001,-68.8456314,2.8442636,8.925843799999999,-4.170965,-0.9634398,0.1996278,-0.0489892,99.8021898,77.4072768,-10.4975638,4.804347128405362,1.0004088455639726,10.254631733977988,0.985123062603612,30.192511199999995,11.772845400000003,58.3480676
739.494,3.6789896,0.330157,-1.5216216,-0.9048056,0.3889408,0.158651,69.655545,65.6602706,-68.8955522,4.4461152,13.2057212,-5.163883199999999,-0.9640278,0.1988014,-0.0602696,101.204381,77.4599486,-9.1537048,3.9949093125055697,0.99755614353128,14.860171684305762,0.9861561846375856,31.548835999999994,11.799678000000004,59.7418474
759.48,3.0785458,-0.2070641999999999,-0.552482,-0.905294,0.3912958,0.159467,69.6817946,65.66280040000001,-68.95432600000001,5.9512586,17.385568,-6.403631799999999,-0.9631412,0.1941672,-0.0696646,103.0465028,77.5117522,-7.390073200000001,3.134574322925408,0.9990492248246028,19.45975215249848,0.9849847862715648,33.364708199999995,11.8489518,61.564252800000006
779.467,1.9845226,-1.048569,0.922349,-0.905964,0.3997221999999999,0.1707348,69.663591,65.6259628,-69.036017,7.773272400000001,22.2536594,-7.2873592,-0.962251,0.1941144,-0.0859088,105.3954072,77.5419478,-5.1449052,2.4266344132301345,1.0048377871078893,24.67295532775988,0.9853870859747452,35.7318162,11.915985,63.8911118
799.453,-0.1617176,-2.2955022,2.690314,-0.9023178,0.4057148,0.1893175999999999,69.55864260000001,65.5406372,-69.16327820000001,9.7299674,25.4851302,-7.8369546,-0.9626998,0.1971078,-0.0968652,108.0827958,77.5429946,-2.5924716,3.5402361998813863,1.0072849968135331,28.38277619117756,0.9874336720569742,38.52415319999999,12.002357400000005,66.5708066
819.439,-2.4729058,-4.257177400000001,4.691521,-0.9022192,0.4100536,0.198175,69.35262,65.40123759999999,-69.34966740000002,10.2970222,25.8073512,-7.7285254,-0.9715446,0.1984197999999999,-0.100706,110.7824982,77.51219019999999,-0.0377293999999999,6.800675834370096,1.0106516562825194,28.8405642629592,0.996700067852511,41.4298782,12.1109526,69.31193800000001
839.425,-5.847289,-6.3912178,7.0201998,-0.909963,0.4175912,0.2063392,69.028502,65.20132779999999,-69.5898392,9.1940864,26.1431,-7.9635674,-0.977441,0.1966882,-0.104566,113.4621904,77.4603868,2.5205066,11.149962280137,1.0222479822152155,28.8342037877762,1.002502471246949,44.43368840000001,12.259059000000002,72.1103458
859.412,-10.5124892,-8.8375106,9.2131192,-0.9137312,0.4248279999999999,0.2203043999999999,68.5431094,64.9392018,-69.9005828,7.228729400000001,26.1079988,-8.177044599999999,-0.980145,0.1946724,-0.118112,116.0990542,77.388144,5.0754846,16.53770202230762,1.0314637967940512,28.29745904616905,1.0062464950948946,47.5559448,12.4489422,74.9760674
879.398,-14.939011399999998,-11.8893278,11.3437934,-0.9156658,0.4360558,0.2360022,67.8860506,64.60879320000001,-70.2982574,4.270198,25.8159208,-8.609911,-0.974807,0.181117,-0.1388162,118.6746812,77.300499,7.62736,22.208372877071977,1.0412903324280505,27.546813339096,1.0011603229855046,50.7886306,12.6917058,77.9256174
899.403,-18.5694538,-15.9837422,13.164019,-0.9272146,0.4392647999999999,0.2316684,67.0596268,64.21611499999999,-70.8014724,1.9459628,25.785584,-8.4945184,-0.9799246,0.1744296,-0.1606782,121.1820406,77.1842866,10.1565278,27.81359425494584,1.0518320809572028,27.21837534255082,1.008213960921272,54.1224138,12.9681716,80.95800019999999
919.371,-20.2827672,-21.3495794,15.0651222,-0.9368806,0.4437711999999999,0.2284698,66.0705054,63.746264800000006,-71.4453384,1.5738244,25.6810276,-8.9953136,-0.9775568,0.1646886,-0.1792124,123.6763232,77.05201120000001,12.6797102,33.07798501643099,1.0615444343586564,27.256334467355327,1.007400971068601,57.6058178,13.3057464,84.1250486
939.357,-20.0268814,-27.9564458,16.811816,-0.9391728,0.4458798,0.2376958,64.912966,63.185778000000006,-72.2797744,1.8492094,25.724560399999994,-9.6182982,-0.9720288,0.1524606,-0.1927128,126.1810502,76.908342,15.208178199999995,38.27892367342452,1.0664678324476178,27.526064801246463,1.0026078225635584,61.2680842,13.722564,87.4879526
959.343,-17.506957800000002,-35.6751742,18.5971958,-0.9407338,0.4473774,0.2559164,63.60595599999999,62.5187316,-73.3322342,3.754063000000001,26.170289000000004,-9.8618584,-0.9691466,0.1421743999999999,-0.2022156,128.7253616,76.7426072,17.7390902,43.875589081342994,1.072669485108139,28.21760561162376,1.0001749052992082,65.11940560000001,14.223875600000005,91.0713244
979.33,-14.263543400000003,-43.8831186,20.7045734,-0.9423886,0.4471923999999999,0.279616,62.17687880000001,61.730223,-74.5876618,6.3599956,26.5261126,-9.8982314,-0.970912,0.139891,-0.2027602,131.25483400000002,76.5492708,20.2040594,50.57525213047719,1.0799363052901405,29.018255952897032,1.001674249608644,69.07795520000002,14.819047800000003,94.7917212
999.316,-12.932782800000002,-51.588295200000005,23.2920726,-0.9353182,0.4668056,0.3185797999999999,60.6373014,60.798848,-75.9908082,9.2144854,27.06319,-10.278547,-0.967753,0.1373726,-0.2045352,133.7925232,76.33094960000001,22.6218098,58.061430559348,1.092804050326791,30.38044638569556,0.9986249287288996,73.1552218,15.532101600000004,98.612618
1019.302,-14.870905400000002,-58.4061312,25.6377792,-0.940227,0.4832288,0.36162,58.973418200000005,59.735846,-77.5029496,12.6011306,28.5048726,-10.5390092,-0.9604928,0.1307052,-0.2224206,136.3951568,76.0669222,25.039566,65.495921334655,1.1172761113880667,32.89964998686417,0.9945356662600088,77.4217386,16.331076200000005,102.5425156
1039.289,-17.832037800000002,-65.98096100000001,28.480334400000004,-0.9638156,0.4982908,0.3939572,57.1976866,58.526298,-79.0904984,17.3601324,31.8455004,-10.9674922,-0.9451934,0.1117864,-0.267004,139.155539,75.730095,27.526891800000005,74.04456924123453,1.1543121361225654,37.89189857778297,0.9885230895859336,81.95785240000001,17.203797,106.6173902
1059.275,-22.2060646,-75.4457338,32.001041,-0.9982566,0.5217660000000001,0.3999796,55.308406000000005,57.13622840000001,-80.748294,21.6895388,36.7799754,-11.9096144,-0.9317298,0.0978496,-0.3157236,142.13589480000002,75.29372559999999,30.157682,84.9072121714258,1.1952989913054055,44.32878973012909,0.988623465241019,86.8274888,18.157497200000005,110.905976
1079.261,-26.1001322,-87.24022240000001,34.854596400000005,-1.0201782,0.5338096,0.4078808,53.2901596,55.5417552,-82.5193586,25.8325772,41.974763,-13.1958802,-0.9306344,0.0966764,-0.3413,145.3175934,74.7444748,32.9171226,97.5034163271515,1.221508491913192,51.02287749581437,0.9959479920057674,92.0274338,19.2027196,115.4364812
1099.248,-28.08647,-100.5613526,37.039732,-1.0236362,0.5429082,0.4714462,51.1611382,53.718825800000005,-84.43374159999999,29.0807894,46.6412638,-14.2326834,-0.9421232,0.0942676,-0.3506032,148.58976119999997,74.09638199999999,35.7111742,110.78527510655128,1.2509364104830107,56.777364131782114,1.0096559355732229,97.428623,20.3775562,120.1449158
1119.234,-29.1043708,-114.4465668,38.5438392,-1.005985,0.5464878,0.5490229999999999,48.9578752,51.6584398,-86.46879099999998,31.0722094,49.6425516,-14.155496199999998,-0.9700962,0.1138198,-0.3312988,151.7310424,73.3724684,38.3398688,124.22040328483162,1.2696775142936256,60.25149955830415,1.0314070384711944,102.7731672,21.7140286,124.8086598
1139.22,-30.4367396,-127.0845842,39.2606094,-0.9760506,0.5479033999999999,0.6148538,46.7069024,49.3702714,-88.589337,29.339837,50.4054658,-13.9339422,-0.9968638,0.1356204,-0.2940154,154.6187254,72.60798179999999,40.7496764,136.44882597231998,1.277074040479392,59.964087276756565,1.0481294691419376,107.91182299999998,23.2377104,129.3390134
1159.207,-30.758115600000004,-137.319478,38.9946478,-0.9209224,0.5446394,0.6951174,44.476802,46.8850656,-90.730345,25.5835376,49.5857796,-13.8369986,-1.0134104000000002,0.1508847999999999,-0.252799,157.1610258,71.8350432,42.888076,146.02494057694904,1.2758990330887787,57.48677643534026,1.0553076310252856,112.6842238,24.9499776,133.618421
1179.193,-32.1128282,-144.7669832,38.9500188,-0.8613455999999999,0.5501254,0.7752138,42.3254142,44.2287858,-92.7992598,18.893215,47.545134,-13.449533400000002,-1.010339,0.1623283999999999,-0.2276069999999999,159.245111,71.08653999999999,44.700470800000005,153.31606936114736,1.2827745842800908,52.89974753051187,1.048303558525182,116.9196968,26.8577542,137.49973060000002
1199.179,-32.0444806,-151.2605838,38.9386182,-0.8178584000000001,0.5377404,0.7852653999999999,40.3155082,41.4303536,-94.7608076,10.0016932,45.1479484,-12.4338302,-1.0040474,0.1700708,-0.21924,160.8661256,70.3663588,46.2227404,159.4453791609088,1.254870052507382,47.88497932586397,1.04168202252866,120.5506174,28.9360052,140.983548
1219.165,-29.936575000000005,-156.8549654,39.992703,-0.7682262000000001,0.5407384000000001,0.7658074,38.5130798,38.4900048,-96.5842162,1.0898415999999993,41.5377468,-11.9579476,-0.9926116,0.1661134,-0.2253552,162.1161896,69.7037154,47.5466828,164.6180275261857,1.2120356783097437,43.238462909062186,1.031337198146736,123.6031098,31.2137106,144.13089900000003
1239.152,-27.5711614,-161.1979462,40.9539808,-0.7024276,0.5382004,0.7823566,36.9206642,35.4320836,-98.2667784,-7.440969600000001,38.3269642,-11.2957618,-0.9788972,0.1725438,-0.2270249999999999,163.0161684,69.0928802,48.6867446,168.58877585239685,1.181163008803391,40.64379962575528,1.019583955204906,126.0955042,33.660796600000005,146.95352300000002
1259.138,-25.3116864,-164.4067322,41.628285,-0.6457332000000001,0.5282966,0.7907112,35.5227486,32.289302,-99.819435,-14.1240664,33.0364036,-8.3746662,-0.9873536,0.1748299999999999,-0.2292412,163.49956379999998,68.5668244,49.5285636,171.47352324232358,1.1494750388587132,36.89211634557069,1.0285835834342292,127.9768152,36.2775224,149.3479986
1279.124,-20.0649066,-167.00238640000003,42.0334532,-0.5905922,0.5200638000000001,0.7871444000000001,34.3666214,29.0823684,-101.2584228,-16.1242176,27.0821254,-5.4725598,-1.0029092,0.1605258,-0.2385253999999999,163.708365,68.1408036,50.1178718,173.37591738208116,1.1130416924907351,31.99032385203456,1.043307127530259,129.3417436,39.058435200000005,151.3762946
1299.111,-17.4868586,-167.4011534,42.6757582,-0.536808,0.5302472,0.8105772,33.395698800000005,25.842733600000003,-102.5738968,-13.348599800000002,20.4128596,-2.2452892,-1.003726,0.1569418,-0.2550326,163.7230592,67.82015240000001,50.4379684,173.63800482985167,1.1074115400932392,24.49308631556074,1.047443668521606,130.3273604,41.9774188,153.0118652
1319.097,-15.959813,-167.13139940000002,42.2024146,-0.4991563999999999,0.4958986,0.8237322,32.5547536,22.6021536,-103.8034958,-10.4526034,14.507129799999998,1.0275316,-0.9981394,0.1544912,-0.2691525999999999,163.5648256,67.5894898,50.5080476,173.11459815529014,1.0833315607235672,17.910040593497772,1.0452716942482276,131.01007199999998,44.9873362,154.3115434
1339.084,-11.071649,-166.96734,41.850077,-0.4503582,0.497378,0.7936868,31.909207,19.3613256,-104.9594178,-5.4153048,7.709563800000001,4.9166054,-0.9929234,0.1534787999999999,-0.2832713999999999,163.2458222,67.45871120000001,50.2934496,172.4879792424989,1.0393007840300517,10.627130785046482,1.0438847189105511,131.33661519999998,48.0973856,155.2528674
1359.07,-3.075799800000001,-167.0458922,41.1753822,-0.4036258,0.4901712,0.794725,31.5026526,16.119818,-106.071425,0.3990960000000001,3.3478116,8.4613484,-0.9757698,0.1588293999999999,-0.30138,162.67548240000002,67.37235100000001,49.6624048,172.07324819570235,1.0172361659713445,9.10832239616567,1.033529576401372,131.1728298,51.25253299999999,155.7338298
1379.056,2.1734722,-166.42101440000002,40.40272220000001,-0.3631634,0.4902191999999999,0.7878038,31.2768684,12.9007844,-107.1522096,5.3221984,0.0627456,11.7237878,-0.9642726,0.1625696,-0.3138434,162.01525299999997,67.3190064,48.82640239999999,171.26896384488217,0.9964122372003668,12.875439145858708,1.0270093483890397,130.7383846,54.418222,155.97861200000003
1399.042,7.4481114,-165.9077302,39.1816796,-0.3195514,0.4736536,0.759096,31.2187256,9.7130436,-108.22603,7.569190600000001,-1.863098,14.8701988,-0.944609,0.1583402,-0.3170592,161.2467806,67.274678,47.8219612,170.634267718474,0.950098714477038,16.789478635391088,1.008902531527045,130.028055,57.5616344,156.0479912
1419.029,13.8209318,-164.7184296,38.421056400000005,-0.266491,0.4887845999999999,0.7334596,31.3517824,6.548325199999999,-109.29116820000002,10.6622782,-1.8105336,17.012756000000003,-0.9337834,0.1544897999999999,-0.3376424,160.47142359999998,67.2011566,46.73910600000001,169.70373237086565,0.920809873486552,20.159267720987792,1.0048984658647655,129.1196412,60.6528314,156.03027419999998
1439.015,17.838091,-162.6995544,37.4700576,-0.2213892,0.4871386,0.7443552,31.6267046,3.440934,-110.3564086,11.9431778,-0.7599419999999999,19.3950004,-0.9314718,0.141654,-0.3512526,159.665079,67.0852264,45.5896638,167.90874816110733,0.9167234355320256,22.789976926749556,1.0055267072126923,128.0383744,63.6442924,155.9460724
1459.001,18.4368326,-159.7932556,36.8358764,-0.1673768,0.507803,0.745722,31.977814,0.3983029999999999,-111.415689,12.1096282,1.5253336000000002,19.693113200000003,-0.9365062,0.1360178,-0.3731896,159.0715182,66.91813199999999,44.6799798,165.01722068233798,0.9175947805383596,23.168695372021677,1.0172586603727882,127.0937042,66.519829,156.09566880000003
1478.988,17.7227802,-156.3959746,36.5655852,-0.1198808,0.5206538,0.7611546,32.3659076,-2.5790498,-112.4634276,10.3124354,4.6108656,20.410711600000003,-0.9454528,0.1282675999999999,-0.391957,158.4983186,66.6815566,43.8263596,161.5884891634296,0.9299505958728346,23.32817081296369,1.0314862403767682,126.132411,69.2606064,156.2897872
1498.974,18.099948,-152.9927976,36.90896360000001,-0.0767656,0.5397576,0.7582858,32.8168914,-5.4992494,-113.4938782,7.605469999999999,8.1988992,18.1722036,-0.950786,0.1279888,-0.4070357999999999,158.0530092,66.3885132,43.167788,158.41930383985215,0.9339317847588012,21.337621837789552,1.0421388070708624,125.2361178,71.8877626,156.66166619999998
1518.96,16.102993599999998,-149.15789479999998,36.8661246,-0.0210196,0.5548114000000001,0.7797908,33.2784212,-8.3383416,-114.5122422,3.7424088,12.6403282,18.7960478,-0.9483658,0.1264808,-0.4129942,157.6043702,66.00634,42.5866936,154.4878478297637,0.9572519025412068,22.95811258640217,1.042093706252907,124.325949,74.34468159999999,157.0989358
1538.947,13.791721,-145.480478,37.2788856,0.0207714,0.5597668,0.7824633999999999,33.736742400000004,-11.1103552,-115.5135606,1.5343804,19.9945094,17.8658908,-0.9373526,0.1271216,-0.4227064,157.2880188,65.487346,42.1977836,150.81278579360642,0.9622989627863888,26.857490266890483,1.0360842140068924,123.5512764,76.59770119999999,157.7113442
1558.956,12.0021794,-141.8865112,37.7640128,0.0597504,0.560944,0.7754336000000001,34.202293399999995,-13.8171554,-116.4992418,-1.5782136000000002,27.0282756,17.157625,-0.9263326,0.1350664,-0.4252682,157.0563446,64.84269040000001,41.971765000000005,147.3158342935887,0.9589189483189496,32.053120530104486,1.0281965085347062,122.8540512,78.6598458,158.4710068
1578.919,9.4302812,-138.273999,38.1438872,0.1091926,0.5581773999999999,0.7485252,34.6628768,-16.4587684,-117.4727022,-5.4753472,35.6253426,14.271133199999998,-0.8974176,0.1432094,-0.4364808,156.9888794,64.0572564,42.0164702,143.7483395858519,0.9400930851785688,38.76608962921157,1.0081581075440302,122.3260026,80.5160248,159.48917239999997
1598.906,5.039191400000001,-134.564615,38.043647,0.1547708,0.5486956000000001,0.7359912,35.074063,-19.028304,-118.4388398,-9.015972199999998,45.93736320000001,12.4445332,-0.8917902,0.1411074,-0.4548129999999999,157.0737152,63.0942002,42.3112052,139.92979717388528,0.9309693380930651,48.43960671852931,1.0109678155707036,121.9996522,82.12250420000001,160.750045
1618.892,1.7614428000000004,-131.6214326,38.6937164,0.198451,0.5463258,0.7158100000000001,35.458644,-21.5505794,-119.3934312,-14.3753086,56.93864,9.184699599999998,-0.8809761999999999,0.1507823999999999,-0.469594,157.3084504,61.9534876,42.8993804,137.20243397716254,0.9220838547803774,59.43918681423118,1.0096399962126104,121.8498064,83.504067,162.2928116
1638.878,-2.936605,-128.3301666,38.8921036,0.2493858,0.5396044,0.6965874,35.7833168,-24.0245422,-120.337645,-21.6965018,67.90418860000001,4.951301999999999,-0.8748818,0.1523924,-0.4821148,157.65964679999996,60.6453324,43.7930838,134.12625034251468,0.9157511624779736,71.45790656937118,1.0104831952724598,121.87632999999998,84.6698746,164.1307288
1658.864,-9.5135724,-124.5826416,38.6992798,0.296934,0.525114,0.665234,36.0101936,-26.4421094,-121.2703018,-29.1630364,80.0316612,1.3963997999999993,-0.8570738,0.1412928,-0.4890228,158.0889008,59.1412498,44.9580818,130.80128785636165,0.8980260509072105,85.19095855136712,0.9968362217025022,122.07870719999998,85.58335919999999,166.2283836
1678.851,-14.870459399999998,-120.409253,38.2666574,0.3416498,0.5058184000000001,0.6298488,36.1581254,-28.7982796,-122.18661040000002,-34.9636284,90.5840942,-0.5141460000000007,-0.8358598,0.1451664,-0.4949854,158.5085298,57.4497796,46.26718219999999,127.21578455268056,0.8770897049219311,97.098907197955,0.9822145565802616,122.35040439999996,86.2480592,168.4537926
1698.837,-18.6318052,-115.7579986,38.02485059999999,0.3973196,0.4878416,0.598357,36.2478272,-31.0923786,-123.0713608,-41.0384996,96.7236022,-3.165459200000001,-0.8128234000000001,0.1520294,-0.498724,158.855536,55.665908,47.66275399999999,123.25967575829765,0.8682645856440996,105.11723837653798,0.965670982388888,122.6077088,86.75828659999999,170.7341148
1718.823,-22.2314692,-110.1600998,37.899241800000006,0.4395101999999999,0.4579964,0.5390164000000001,36.2673204,-33.3113366,-123.9046828,-44.4428606,97.461328,-7.460907800000001,-0.7860072,0.1503986,-0.4986246,159.1756562,53.8998426,49.13618760000001,118.59948709733688,0.8327476195018272,107.3757116811559,0.94289636178053,122.9083358,87.21117920000002,173.0408704
1738.81,-24.0480976,-103.5015366,38.2116898,0.4869556,0.4264123999999999,0.4780894,36.2231858,-35.4354978,-124.6526732,-45.6793284,90.955493,-11.7789754,-0.7634598,0.150474,-0.5058176,159.4380982,52.2864698,50.5979666,112.92038041961996,0.8046879927260503,102.4609535941468,0.9280973738578296,123.21491239999996,87.7219676,175.2506398
1758.796,-24.267057,-95.5916948,39.7433016,0.5494922000000001,0.4040864,0.4306207999999999,36.1081528,-37.457029,-125.2638578,-44.043178,77.24869980000001,-16.5377274,-0.749541,0.15665,-0.5162002,159.6579622,50.9625364,51.99189199999999,106.330579760698,0.8066360827029994,90.44699871575018,0.9234790629251104,123.5498094,88.4195654,177.2557498
1778.782,-24.3922304,-85.8681734,41.8772798,0.591259,0.3762401999999999,0.3767366,35.8793312,-39.347403,-125.6851836,-40.9889376,58.138969,-19.398579,-0.7433726,0.176154,-0.525065,159.78506780000004,50.021278800000005,53.2133252,98.60035836844936,0.7956597004728843,73.73287997344804,0.926998548203696,123.9057366,89.3686818,178.8985088
1798.769,-23.4961874,-73.4559702,43.653499800000006,0.6228400000000001,0.3398241999999999,0.3054308,35.522747200000005,-41.0539086,-125.8733488,-35.5757254,36.448523,-20.27457,-0.7249260000000001,0.1981694,-0.5386726000000001,159.817856,49.483566800000006,54.1914586,88.61985344801585,0.7724623784329435,54.819570002898,0.9246388411499488,124.2951088,90.5374754,180.0648074
1818.755,-19.910486400000003,-58.594233,44.0292222,0.6532654,0.311226,0.2446478,35.0720148,-42.5153458,-125.8109756,-28.8368738,13.790339,-19.1266692,-0.7125792,0.2278194,-0.5565548,159.7444916,49.3517164,54.8691464,75.949219989937,0.7638519830163433,37.25007671103881,0.932429107595875,124.6724768,91.8670622,180.680122
1838.742,-15.2955184,-41.7508696,42.3549592,0.6657485999999999,0.2868236,0.1919517999999999,34.553472400000004,-43.6808106,-125.5111328,-21.5857382,-7.1349462,-14.6255304,-0.7030192,0.2709671999999999,-0.568586,159.5096984,49.5682874,55.1630818,61.40871733161838,0.7498896381749517,27.03253022558484,0.9439010850933904,124.956226,93.249098,180.6742146
1858.728,-9.3063682,-23.229132,37.4154496,0.6554447999999999,0.2592995999999999,0.1516982,34.0223398,-44.4836792,-125.0209382,-13.742797,-26.3093214,-7.590684400000001,-0.691327,0.2988932,-0.5822916,159.096588,50.0809882,55.0265836,45.01240863714733,0.7210107574027173,30.6376133465404,0.952015584623382,125.0742482,94.5646674,180.0475218
1878.714,-0.8031482000000004,-3.975448399999999,29.41733,0.6526396,0.2394676,0.1382598,33.571189200000006,-44.875766,-124.4043122,-4.8415688,-43.487472,0.2813668,-0.6928226,0.3074036,-0.5904463999999999,158.5177458,50.84411,54.448615,29.695598012855807,0.7088010660502423,43.75705859255235,0.9607950247772308,124.9465566,95.719876,178.8529272
1898.7,8.4290356,14.966207400000002,19.3104046,0.6505274,0.2379849999999999,0.1559162,33.2596558,-44.83816,-123.7245394,4.274905800000001,-58.7782882,9.5078506,-0.7041796,0.3003376,-0.5797692,157.7409482,51.8178488,53.38829559999999,25.844297841140573,0.7100229713172665,59.695571078205234,0.9603144840616328,124.4812924,96.6560088,177.112835
1918.687,15.704382,33.351594,8.0638328,0.6357348,0.2354358,0.1934808,33.0828048,-44.367984,-123.026352,12.680445400000002,-71.9752846,17.926586800000003,-0.7317012,0.285489,-0.558365,156.7558684,52.9706168,51.8612006,37.73568385188104,0.7049989871065916,75.2502345716697,0.9636711516007108,123.6730636,97.3386008,174.8875526
1938.673,23.2363984,50.1686294,-3.397230199999999,0.6192982,0.2315488,0.2276149999999999,33.07382199999999,-43.4901268,-122.3450318,20.3626508,-79.84288419999999,24.1554758,-0.7576134,0.2627184,-0.5425077999999999,155.6378966,54.21171880000001,49.9854736,55.39280422139557,0.6992522402750527,85.86623734682762,0.96814964474453,122.5640746,97.7018456,172.3305054
1958.659,30.0822024,65.178032,-13.5974832,0.6025046,0.2413403999999999,0.2865704,33.2199364,-42.2634118,-121.6788316,25.7903552,-82.8358154,26.6405952,-0.7915158,0.2320122,-0.5116799999999999,154.4727476,55.488729,47.9292488,73.06166098578565,0.7094924776553165,90.75591466640236,0.9706406878956187,121.2528112,97.7521408,169.6080804
1978.646,33.03940300000001,79.26147160000001,-22.5927992,0.5774982,0.2578916,0.3451758,33.4378708,-40.7106712,-121.0139726,29.5549832,-83.54347379999999,24.8011086,-0.8214574000000001,0.217915,-0.4751984,153.32949200000002,56.7911712,45.8302742,88.79424309315068,0.7205265999666077,92.02230183120048,0.9737005323005222,119.8916212,97.5018424,166.8442468
1998.632,33.323591400000005,92.3787964,-30.4990438,0.5415186000000001,0.2720796,0.3780282,33.677896,-38.8645806,-120.3443436,33.0226148,-79.8180314,21.7077094,-0.8442926,0.199597,-0.4516479999999999,152.2949858,58.0433426,43.8008674,102.83236572607444,0.7142653728673679,89.0653460791312,0.9780873543440584,118.6170898,96.9079232,164.145211
2018.619,33.4722436,103.7353028,-36.4256646,0.5094164,0.292294,0.4378582,33.9174658,-36.7672524,-119.6454438,34.6920092,-75.27953959999999,17.009398800000003,-0.8684452,0.178533,-0.42005,151.3863248,59.24718399999999,41.9045478,114.92707766308652,0.732571262289342,84.61598095075358,0.9810775198688634,117.468859,96.0144364,161.5499916
2038.605,32.2388136,113.7616472,-41.0833286,0.4690497999999999,0.317894,0.4572574,34.1401922,-34.4583408,-118.9160782,35.3131582,-70.1438774,11.746280400000002,-0.8886852000000001,0.1848391999999999,-0.3912501999999999,150.61275,60.401487,40.1777336,125.17545032812302,0.7281130681225272,79.40502365719615,0.9884349414886748,116.4725578,94.8598278,159.0938118
2058.591,30.1085954,122.8174394,-44.48992679999999,0.4366016,0.3395968,0.5139226,34.3179464,-31.948236,-118.1417236,34.94104660000001,-63.41521839999999,6.182254200000001,-0.8981142,0.2041841999999999,-0.366486,150.0164244,61.481646,38.6870856,134.0522455030237,0.755025418435406,72.66764705986074,0.991268022266067,115.698478,93.429882,156.8288092
2078.577,26.4926178,131.1062546,-46.7055428,0.39912,0.3645402,0.5508637999999999,34.431073600000005,-29.265784,-117.3171692,33.951315,-56.0303528,2.456554200000001,-0.9126266,0.2073033999999999,-0.3478014,149.586206,62.46518719999999,37.4217574,141.67609721254863,0.7717753934704578,65.56010130909829,0.998412652424377,115.1551324,91.7309712,154.7389266
2098.564,20.9914302,138.3514342,-48.7706696,0.3534054,0.39105,0.5540912,34.4517036,-26.4294406,-116.4554398,29.4420402,-50.8022812,0.2231524000000007,-0.9304776,0.2500878,-0.3274186,149.1519104,63.3704728,36.2726424,148.19020784205264,0.7647434453243781,58.71758938559991,1.017612603811765,114.7002068,89.79991340000001,152.72808220000002
2118.55,19.5495604,143.685037,-50.8090042,0.3123176,0.3926936,0.580245,34.472554,-23.4776348,-115.5846208,23.248297,-42.4614418,-0.4283023999999992,-0.9346304,0.2683491999999999,-0.3254918,148.7100006,64.12798319999999,35.26826079999999,153.65262795448774,0.7670950441605785,48.4111639612274,1.025421956860706,114.2374466,87.605618,150.8528816
2138.536,18.9530698,148.2037106,-52.6632424,0.2743794,0.4275916,0.6648672,34.509626000000004,-20.4170296,-114.7038836,19.289724,-36.721846,2.601678000000001,-0.9439334,0.2839783999999999,-0.3099712,148.13916640000002,64.74675299999998,34.2201448,158.42025056959537,0.8367598372118251,41.56147439708529,1.0333131858887508,113.62954040000002,85.16378259999999,148.9240284
2158.523,15.2284008,152.864465,-55.5598894,0.2149766,0.457492,0.6674166,34.527194200000004,-17.235895,-113.836249,14.3659226,-34.4532456,6.8944176000000015,-0.953273,0.299979,-0.313467,147.3229402,65.2658968,33.0153474,163.35957321443362,0.8372328150324257,37.95970045411713,1.0473673534433847,112.795746,82.5017918,146.8515964
2178.509,13.404288599999996,155.9066312,-58.1822464,0.1515504,0.481275,0.6959328,34.560514,-13.975086199999998,-112.9911454,7.018328599999999,-32.227000200000006,10.2849074,-0.9574744,0.3088548,-0.3086528,146.24102480000002,65.6993134,31.685248,166.94827462766787,0.8596020076064271,34.548745251527635,1.0523379044234034,111.6805108,79.6743996,144.6763934
2198.495,16.0062072,157.20173619999997,-60.52166199999999,0.0886408,0.4981692000000001,0.7362718000000001,34.695547399999995,-10.6637916,-112.176265,4.4171724,-27.4619202,12.5866316,-0.9597188,0.289734,-0.3146474,145.1024566,66.0195192,30.353813,169.20832161707045,0.8933789267318322,30.530177990254305,1.050718302950986,110.40690920000002,76.6833108,142.530078
2218.482,17.517884000000002,158.4240996,-63.3109504,0.0195202,0.548214,0.7871276,34.9151138,-7.296154400000001,-111.39519500000002,4.9940722,-25.1770686,15.591453,-0.958716,0.2874664,-0.3202114,143.9113282,66.25502020000002,28.9518726,171.5032012367683,0.9594214333054062,30.03196542151592,1.050860904437367,108.9962144,73.55117460000001,140.3470676
2238.468,13.673651799999998,159.8164122,-65.29399400000001,-0.0701246,0.576789,0.8138582,35.106036399999994,-3.8935253999999992,-110.625354,2.6158588,-24.6608638,15.022026,-0.9746684,0.2771418,-0.3216818,142.6959046,66.47952280000001,27.5748946,173.1807149035365,0.999984089750132,28.994175031691515,1.0631393359842538,107.5898682,70.3730482,138.2002486
2258.454,12.005455799999998,159.52274459999998,-66.80144700000001,-0.1605038,0.5825414,0.7885434,35.3057504,-0.4940863999999999,-109.87498480000002,1.4030347999999997,-24.1669024,14.433631600000002,-0.9768962,0.2490652,-0.3197716,141.5051332,66.6989776,26.2465248,173.3610981015533,0.993436785211802,28.18399190011336,1.0576452787168484,106.1993828,67.193064,136.1215096
2278.44,18.8113078,157.1886564,-68.9516538,-0.2343433999999999,0.587093,0.7941764,35.6837984,2.886806,-109.1724824,5.4967264,-23.757919200000003,15.024935,-0.9751124,0.2234341999999999,-0.3269356,140.4069766,66.8971558,24.9242,172.67446123772515,1.0150424494027428,28.642649974896013,1.052451386483366,104.7231782,64.0103498,134.09668240000002
2298.427,25.8400168,154.69176320000005,-70.20450120000001,-0.2877709999999999,0.6248966,0.8704613999999999,36.2394892,6.2354632,-108.4904054,10.1850294,-24.826813800000004,13.1723076,-0.9558206,0.22598,-0.3127086,139.4188968,67.12138519999999,23.621384,171.83108001432677,1.109509332102493,29.89339717810193,1.030750526702907,103.1794076,60.88592200000001,132.1117894
2318.413,19.1901224,154.9477568,-70.28803239999999,-0.3507004,0.64885,0.8709218,36.7152346,9.5778854,-107.7705506,8.511949999999999,-26.5978814,10.6922452,-0.944396,0.2151632,-0.2867836,138.408887,67.40374920000001,22.3336386,171.22346694814465,1.1412720424050524,29.90359000501259,1.0101603044463785,101.6936524,57.8258638,130.1041892
2338.399,17.0479868,153.38065780000002,-70.2299072,-0.4148932,0.6145132,0.7965106,37.198733,12.8866036,-107.0342178,7.408941,-27.7143822,10.7672418,-0.944162,0.1830306,-0.2901778,137.3512728,67.69696819999999,21.0144744,169.5538259857745,1.0882058519842832,30.64168538851649,1.0045622123060374,100.1525398,54.8103646,128.0486922
2358.386,25.3990354,149.5292388,-68.8460282,-0.4617913999999999,0.6215246000000001,0.8211065999999999,37.8932856,16.1168896,-106.2807066,14.134335599999996,-27.5553066,9.0745788,-0.926731,0.1842122,-0.3086147999999999,136.4518952,67.996126,19.7258266,166.56494185233902,1.1286098413901413,32.271075982539536,0.9939857019941888,98.5586096,51.8792364,126.0065332
2378.372,23.8773748,147.8577362,-65.808571,-0.4997624,0.6673684,0.8885055999999999,38.6156108,19.2649672,-105.4476102,14.2534442,-27.0869586,7.208983600000001,-0.8960549999999999,0.202857,-0.3065618,135.6013244,68.29182,18.4917286,163.59342040128175,1.2184355703128826,31.44572216225438,0.9685275745652469,96.9857136,49.0268528,123.9393388
2398.358,12.7093846,146.97597960000002,-62.7110604,-0.5653344,0.6518612,0.826036,39.1919794,22.3514484,-104.5210584,9.326985,-27.67183720000001,9.1967324,-0.9253518,0.1974128,-0.3170409999999999,134.5617462,68.5612932,17.1586596,160.30016884826662,1.1945130728396405,30.615406416553395,0.9978791324845308,95.3697668,46.2098448,121.679718
2418.345,16.9390966,140.64745480000002,-59.7773362,-0.647038,0.6331692,0.7317773999999999,39.906173800000005,25.2876374,-103.577307,11.1069136,-30.0347178,9.7282696,-0.9692092,0.2171936,-0.3124053999999999,133.396228,68.8426164,15.657241,153.7594532329964,1.1640702609479376,33.46770133208712,1.0412188373222795,93.4900542,43.554979,119.234548
2438.331,28.1091326,132.9683824,-57.03357619999999,-0.6714287999999999,0.6583583999999999,0.7433362,40.8874168,28.0686402,-102.6280822,15.6721088,-30.3494464,7.1922718,-0.9482542,0.2284148,-0.3021736,132.3508514,69.1475876,14.1915772,147.38908666437354,1.198666393351561,34.90605484254251,1.0211112736688592,91.4634346,41.07894739999999,116.8196594
2458.318,28.6028956,128.6178148,-54.3396522,-0.6795555999999999,0.6939881999999999,0.7912106,41.9456114,30.7222226,-101.6193832,11.0114154,-31.5216148,5.7573632,-0.9387906,0.2299538,-0.264608,131.191919,69.48357239999999,12.704885,142.52531607349118,1.2527687930272529,33.88230658806526,1.002109741718341,89.2463076,38.76134979999999,114.3242682
2478.304,24.1869944,125.1597596,-51.788327800000005,-0.6980424000000001,0.6611130000000001,0.7304288,43.0071622,33.272723400000004,-100.5315964,8.1083142,-32.118510400000005,4.373514800000001,-0.9480274,0.2208876,-0.2609942,129.9839478,69.8456084,11.2277844,137.59363000355677,1.2074186609607291,33.41363645559473,1.0078021906198458,86.9767856,36.572885,111.7593808
2498.29,26.534321,119.6739044,-48.277063,-0.7390502,0.6425642,0.6550296,44.2002646,35.6710956,-99.3757752,5.3182716,-32.1365444,1.660994,-0.9346698,0.2155311999999999,-0.2574376,128.7923828,70.2362808,9.8293292,131.74440556311055,1.1781968112831744,32.61595314953365,0.9931442247222908,84.5921182,34.5651852,109.2051044
2518.277,30.8404868,113.2707596,-44.1330658,-0.7464866,0.6437480000000001,0.6468734,45.5532196,37.9064406,-98.1604324,2.5138006000000006,-27.8379178,-0.4962794,-0.9056004,0.2315416,-0.2764024,127.7771148,70.575441,8.6796504,125.41582078561338,1.1790245659489542,27.95559253779074,0.974741957513105,82.22389519999999,32.6690004,106.8400828
2538.263,29.6565574,108.039804,-40.2783668,-0.759961,0.6658286,0.6546746000000001,46.9486924,39.97606499999999,-96.8818116,-2.1220086,-23.3715176,-2.3443524,-0.8953872,0.2536734,-0.2801976,126.8927108,70.86771100000001,7.770635799999999,119.05653059472736,1.2039382367813227,23.584459790314664,0.9718946068567108,79.9440184,30.891646,104.6524474
2558.249,23.924324,102.8217878,-36.8877648,-0.7853977999999999,0.6513196000000001,0.599423,48.2896348,41.8934386,-95.5520738,-6.105445999999999,-19.2101716,-3.2125592,-0.9181528,0.2485196,-0.2709734,126.1207198,71.1269884,7.0670144,111.82754811398362,1.183374352653462,20.411460025531422,0.9890364701261324,77.831085,29.2335498,102.6190882
2578.235,24.370507,94.9159666,-33.922441,-0.8132697999999999,0.6452514,0.5186546,49.6776872,43.6391388,-94.2219392,-5.6315442,-16.827664,-3.4905824,-0.9408999999999998,0.2523849999999999,-0.251575,125.43039079999998,71.36592900000001,6.444190600000001,103.70002087968857,1.1604997763442957,18.085041643984106,1.0061217515042598,75.75270359999999,27.726790200000003,100.6661298
2598.222,28.7052258,86.6919676,-31.7892222,-0.8026146000000001,0.6448126000000001,0.5246324,51.1618942,45.226757,-92.9238206,-2.2544202,-13.241615,-4.6021296,-0.9303824,0.2633096,-0.2472871999999999,124.9828718,71.57495759999999,6.0098984,96.6956145989538,1.1555140156578283,14.198675117826635,0.9980452469531428,73.8209776,26.34820060000001,98.933719
2618.208,28.2087596,81.058856,-30.1488782,-0.7948949999999999,0.6382407999999999,0.5273452,52.644176400000006,46.6874954,-91.639966,-0.3547207999999996,-8.5468454,-4.747029400000001,-0.9159706,0.254665,-0.2538426,124.8065276,71.73662440000001,5.8217878,90.96827529923696,1.1477379229478653,9.783081378682189,0.9840185302442837,72.1623512,25.049129000000004,97.4617538
2638.194,24.9585474,76.208177,-28.7839228,-0.8045781999999999,0.6133678,0.5055227999999999,54.0612478,48.0474212,-90.3742952,2.3511450000000003,-3.9736718,-4.7548294,-0.9318638,0.2383106,-0.2473042,124.916957,71.85634780000001,5.8784456,85.2005254780611,1.1309816264254338,6.627695904931412,0.9931371764063815,70.85570919999999,23.808926600000003,96.2527408
2658.181,26.2919778,69.0941718,-27.5176358,-0.8159143999999999,0.6036271999999999,0.4511052,55.4817618,49.287217,-89.1716128,6.771352,0.9870435999999998,-5.889961,-0.9352806,0.2255107999999999,-0.2556136,125.4204726,71.9366806,6.2545886,78.88277982795135,1.110665569005468,9.028682271390768,0.9954613172584658,69.9387108,22.6494636,95.4262014
2678.187,27.763083800000004,62.065454,-26.710092600000003,-0.8317279999999998,0.591173,0.4339272,56.8721412,50.416272000000006,-88.0641056,12.0589754,7.127274,-7.2556684,-0.9283376,0.2098673999999999,-0.2693678,126.41002039999998,71.96349479999999,7.028970800000001,73.05024605716612,1.1088506647934335,15.775349324171549,0.9891481369508616,69.53787919999999,21.547222800000004,95.0930764
2698.153,26.079764,55.52985220000001,-24.78504,-0.83729,0.5977022000000001,0.4452352,58.165975200000005,51.4108858,-87.04562560000001,16.4957108,12.0501342,-8.044897800000001,-0.939287,0.2214428,-0.2618,127.7307206,71.9363234,8.0616948,66.16658358606058,1.1209535437759588,21.955286143607672,0.9999181076672428,69.56474539999999,20.525437600000004,95.1073204
2718.139,19.7049978,48.7760292,-22.504326,-0.8331185999999999,0.6121858,0.4558702,59.2719376,52.2815148,-86.1191302,18.7901362,14.6874212,-9.7159086,-0.9571146,0.2374833999999999,-0.2267004,129.217508,71.8976928,9.227909,57.21741563135767,1.1299007454797256,25.75244531776184,1.011859572356204,69.9455704,19.616178,95.3470392
2738.126,9.9332804,41.9993504,-19.3591912,-0.8222023999999999,0.6286122,0.4526944,60.1325768,53.026056800000006,-85.274959,17.206219400000002,15.298542,-10.7917628,-0.9633488,0.2495286,-0.1986048,130.6736818,71.8662582,10.4022204,47.30109700044136,1.1296469821789283,25.427573964068305,1.0147656376042893,70.541105,18.8402014,95.6771794
2758.112,-2.8045468000000007,36.9982014,-15.891989999999998,-0.8098341999999998,0.6193908,0.4639886,60.7026108,53.6627924,-84.4845552,14.944236400000005,13.5595478,-10.161361,-0.9627244,0.2696759999999999,-0.1743764,131.92063000000002,71.8416168,11.4101766,40.364436522122446,1.1201615131507776,22.5930253727094,1.0148746445784915,71.2180192,18.178824400000003,95.8947318
2778.098,-17.2505162,33.611546,-11.4322068,-0.781157,0.6301558,0.4814435999999999,60.9944168,54.1830592,-83.6910112,8.992471,11.1429204,-9.9563244,-0.9536584,0.2862988,-0.1586668,132.8841432,71.8376358,12.2496814,39.47165674245945,1.113144433981323,17.44011483002943,1.0082690614088283,71.8897264,17.654576600000002,95.9406926
2798.085,-33.3974374,31.9566082,-7.5044394,-0.7607436,0.6146982,0.4780812,60.99098660000001,54.6156618,-82.86861739999999,2.1973538000000006,9.5283642,-9.5858086,-0.9428476,0.2675582,-0.1702219999999999,133.6481264,71.8465194,13.0193074,46.82873309458092,1.0886442650460433,13.693276253915643,0.9947484689593646,72.65713980000001,17.2308576,95.8879248
2818.071,-46.156825600000005,30.8066386,-3.7028416,-0.7560216000000001,0.5898356,0.4535374,60.7537864,54.9623774,-82.01928720000001,-4.1816494,8.099582000000002,-8.73448,-0.9332032,0.2446908,-0.1956931999999999,134.2347626,71.8569166,13.731157,55.61665728191974,1.0607407166186655,12.62460142537753,0.9843970888930544,73.4809762,16.894539200000004,95.7504442
2838.058,-54.14255440000001,28.5331808,-0.2237925999999998,-0.7633886,0.5741916,0.4345606,60.34205999999999,55.2122744,-81.186026,-8.1278692,7.5301174,-8.2443342,-0.926905,0.23542,-0.2239905999999999,134.739212,71.8573134,14.4351304,61.20137814339039,1.0494289224110798,13.8106470591128,0.9822154775370626,74.39715199999999,16.645039000000004,95.6211564
2858.044,-58.4544524,24.3294508,2.6923286,-0.7783996,0.564163,0.4258762,59.7670348,55.3604998,-80.4299148,-9.6899778,9.1121364,-7.6255014,-0.925818,0.2269086,-0.2566076,135.3018524,71.8149398,15.228499199999998,63.3726582597248,1.0514544048961896,15.3321548106618,0.9871544672723314,75.5348176,16.454439999999998,95.658414
2878.033,-58.837976000000005,17.4529518,5.0501794,-0.798407,0.5548310000000001,0.437425,59.03961399999999,55.3969834,-79.84466699999999,-10.0096284,10.8866404,-6.6438802,-0.9388736,0.2350552,-0.2700669999999999,135.889267,71.7259306,16.054956400000002,61.5793574039376,1.066129357458559,16.212734008086077,1.0048237498750714,76.84965299999999,16.328947199999998,95.8996234
2898.016,-57.451503,8.2653332,7.2001138,-0.8124138000000001,0.5705828000000001,0.472535,58.16120980000001,55.3121986,-79.48277739999999,-11.1500666,11.94868,-6.6370922,-0.9534302,0.2360072,-0.2604966,136.4712584,71.6264738,16.9022924,58.48788394701061,1.0994863529445376,17.639329119842863,1.0161628921267691,78.31004859999999,16.314275200000004,96.3850698
2918.003,-57.03694,-2.045636,8.962611800000001,-0.8256699999999999,0.5800602,0.5003413999999999,57.070503200000005,55.0880256,-79.38899380000001,-11.173469399999998,12.5814274,-6.7972118,-0.9593852,0.2196554,-0.2545886,137.08648060000002,71.52784879999999,17.7848516,57.77305220849592,1.1262958319544647,18.14774978084793,1.016604058607952,80.0159774,16.4398232,97.1738454
2937.989,-56.2134964,-13.0951248,11.1105124,-0.8320196,0.5751426000000001,0.529016,55.7773972,54.71273719999999,-79.5627198,-9.868039,12.1386408,-5.8572228,-0.9618836,0.2181121999999999,-0.2530476,137.6571258,71.422969,18.5938508,58.7782524138898,1.1414480073025317,16.704246559057534,1.0182465711229085,81.87972859999999,16.710231799999995,98.1565706
2957.975,-55.0107812,-24.5767394,13.9387058,-0.8297412,0.5776738,0.5663706,54.3237894,54.1682242,-79.9833818,-9.5773918,10.782786,-5.2190612000000005,-0.961551,0.222599,-0.2476,138.1277008,71.328778,19.2932598,61.84245861177205,1.1588585481965603,15.337323998072437,1.0175639539616173,83.80391139999999,17.160553799999995,99.2766416
2977.962,-54.4441094,-36.080137,16.9455876,-0.829744,0.5809388,0.5876854,52.707329,53.429377,-80.62548380000001,-9.4808322,9.5345792,-4.6122746,-0.9592626,0.2129218,-0.2463458,138.5257568,71.248001,19.9135654,67.4765905585575,1.1710418968826863,14.215043324289752,1.0130185989662974,85.81842779999998,17.818624,100.5390492
2997.948,-52.565646400000006,-48.121336,19.9690114,-0.8344798000000001,0.5788363999999999,0.6001552,50.957558600000006,52.4709108,-81.48152780000001,-8.6986554,8.584171799999998,-4.4815038000000005,-0.9530006,0.1964924,-0.2491882,138.9129242,71.1824004,20.5037818,74.01061799612309,1.1796585856340132,13.016853981253645,1.004447194170684,87.9553656,18.7114896,101.9853096
3017.934,-50.4051706,-60.3502098,23.2303566,-0.8321028,0.5762568,0.6344498,49.1271608,51.289837,-82.5055116,-6.9384292,8.123242600000001,-3.9328822,-0.9442214,0.1874241999999999,-0.2621212,139.31216439999997,71.1117262,21.0671622,81.99072212075147,1.1945683396248703,11.384042889103338,0.9976920398865774,90.1850036,19.821889200000005,103.5726738
3037.921,-48.65582980000001,-72.743483,26.4888932,-0.8382945999999999,0.5724626,0.6642042,47.240854,49.8761856,-83.6639772,-4.694689,8.7698338,-3.5194118000000003,-0.933798,0.171421,-0.2811674,139.7962402,71.0207762,21.668759400000003,91.43667511157032,1.2131028332691174,10.551604101003916,0.9901610832928954,92.5553862,21.144590600000004,105.3327366
3057.907,-45.842994,-86.0728226,29.9197186,-0.8528509999999999,0.5764752,0.6869318,45.3367318,48.2002372,-84.9422746,-3.2252164,10.446112,-3.5448256,-0.930302,0.1653116,-0.2983755999999999,140.3882812,70.89772020000001,22.35152,102.00637455727114,1.2375596075613005,11.49300070816096,0.9908671631323342,95.0515494,22.697483,107.2937946
3077.893,-42.851413,-100.1939162,33.114937600000005,-0.8697419999999999,0.5807534000000001,0.7128738,43.4486558,46.258454,-86.3175218,-3.1163494,12.4386394,-3.7831678,-0.9285382,0.1631414,-0.3103204,141.0658722,70.74135279999999,23.1221056,113.89321108758452,1.2656676945004166,13.369507930700724,0.9925205569202886,97.6172164,24.4828988,109.4396274
3097.88,-38.8725974,-114.940779,36.2988564,-0.8798226,0.5799406,0.7462384,41.6243166,44.0434614,-87.7658418,-4.5617432,13.94795,-2.985595,-0.9398796,0.1748578,-0.3198944,141.7091034,70.5449982,23.8890672,126.64939195154923,1.2912360963951093,14.975599745227944,1.0081078017098966,100.0847868,26.5015368,111.654909
3117.866,-31.7849998,-130.3030744,39.520442200000005,-0.8875158000000001,0.5848594,0.7634736,39.9561448,41.544879,-89.2652834,-8.889859000000001,15.073244,-3.2642650000000004,-0.9538602,0.18311,-0.3172022,142.28330079999998,70.3346756,24.6780398,139.8250434008925,1.3086774816259965,17.801339941522436,1.0217611212650832,102.327156,28.7897966,113.9433232
3137.853,-22.1556842,-145.263873,42.56741100000001,-0.8800509999999999,0.5926647999999999,0.7841932,38.5156938,38.765583,-90.798697,-15.2634948,16.7935598,-4.902468399999999,-0.9558902,0.1931002,-0.310211,142.81875,70.1162888,25.5657756,152.9851352928551,1.3193560181718502,23.217065289971547,1.0233497086612573,104.3030562,31.3507058,116.3644726
3157.839,-12.7560272,-158.3134244,45.886914,-0.8586208,0.5977129999999999,0.8151446,37.324129600000006,35.7298192,-92.331099,-21.1348968,20.1623974,-7.0711038,-0.9483376,0.1931474,-0.30711,143.4131714,69.8678284,26.6442008,165.32230778580686,1.3262545862204589,30.05339649045597,1.0153652908192794,106.0890418,34.1380092,118.9752998
3177.825,-5.0975280000000005,-169.1246184,49.6597748,-0.8318439999999999,0.6087026,0.8398883999999999,36.375438,32.4713078,-93.8244018,-25.4988232,24.0350078,-9.224167,-0.9482668,0.1753506,-0.3051034,144.1263732,69.585875,27.942628000000003,176.33835253240605,1.329622435143646,36.23474632690021,1.0114572860947515,107.7509352,37.1145672,121.7670298
3197.812,0.1238071999999999,-177.7244322,53.662075,-0.8006722,0.6189783999999999,0.8485334,35.63917,29.0075532,-95.2508362,-25.4417144,28.0330044,-11.60736,-0.9544686,0.1710665999999999,-0.3069128,145.03543080000003,69.2649492,29.451706,185.6491514183159,1.3206888969151516,39.59622423250968,1.017088765460203,109.39626079999998,40.257396,124.7025422
3217.798,3.2635192,-184.309677,57.9039764,-0.7523745999999999,0.6267772,0.8634864,35.080114800000004,25.3713616,-96.5941192,-22.3015326,31.749040200000003,-13.2219968,-0.9566578,0.1793106,-0.3001066,146.12723680000002,68.8976884,31.0955346,193.218989947533,1.3055749538613093,40.99001231165087,1.0185334599004394,111.047122,43.5263268,127.6896538
3237.784,3.8637958,-188.8012756,62.2945014,-0.6926446,0.629867,0.8692206,34.6518998,21.5919934,-97.839392,-19.1804612,33.030750999999995,-13.1931068,-0.96747,0.1970332,-0.2973972,147.246109,68.50254679999999,32.709474,198.85033439963297,1.277510638336339,40.410130790495,1.0311476021259418,112.5942092,46.910553400000005,130.548866
3257.77,3.9339006,-191.925879,66.0822104,-0.6221378,0.6223272,0.8575338,34.3359634,17.7088102,-98.9953918,-17.4367412,31.00666,-11.4194124,-0.9799728,0.2126685999999999,-0.2883346,148.19133,68.1196154,34.1079868,203.0218636876413,1.2287028950039631,37.361154794688176,1.0434133714511042,113.8553666,50.4108052,133.10337859999998
3277.757,7.0450276,-194.4788636,69.0626356,-0.5343414,0.6109821999999999,0.8338965999999999,34.1749556,13.730056200000002,-100.0883102,-16.5812568,26.4946688,-8.827607,-0.9868086,0.2518848,-0.2765214,148.8263764,67.7786608,35.1663158,206.4977201739781,1.1637025049222671,32.478180325192,1.055320449040461,114.6514208,54.0486046,135.254626
3297.743,11.318306,-195.5208772,71.050926,-0.4358748,0.5983566,0.8083684,34.1856848,9.7125282,-101.1350402,-18.8717454,21.1895124,-5.1805644,-0.969837,0.2686452,-0.266392,149.0727082,67.4861878,35.8611444,208.3380703501513,1.0961190319290874,28.84400210953262,1.0410181303493422,114.8870234,57.7736596,136.9961846
3317.73,13.879934200000005,-194.258838,72.1391676,-0.3347958,0.589563,0.78079,34.3313254,5.709792,-102.1420486,-22.005493,15.190988800000005,0.2968436000000004,-0.9545572,0.281225,-0.2677458,148.856189,67.2330918,36.1260934,207.68535869561788,1.0340724262674448,26.741278559890056,1.0305118932426156,114.52486359999996,61.5232998,138.268142
3337.716,13.788627,-190.9854034,72.307318,-0.2438871999999999,0.5747274,0.7489794,34.5531486,1.7797809999999998,-103.1146302,-23.6541972,11.2280144,7.426208600000001,-0.9478896,0.274998,-0.2654212,148.2330504,66.9750916,35.9842172,204.67999116366744,0.9750706088581278,27.216501000565984,1.022040609370097,113.6799018,65.1953106,139.0988474
3357.702,13.065542400000002,-186.9502196,71.7233612,-0.1627726,0.5582554,0.71729,34.8269196,-2.0675192000000004,-104.06539619999998,-22.5693618,8.404239200000001,12.680439,-0.9461268,0.2714892,-0.2726958,147.3782682,66.7082442,35.5641282,200.6622374751166,0.9233899257842918,27.217657169985017,1.0213840153108529,112.55134859999998,68.7757634,139.6295244
3377.688,12.0906602,-182.1500548,70.7876984,-0.0895757999999999,0.5461226000000001,0.6837215999999999,35.1446282,-5.818552800000001,-104.9987856,-21.8817442,8.0829012,17.704850399999998,-0.9420484,0.2634622,-0.2786762,146.3721068,66.3921186,34.9598352,195.79510916385075,0.8796300043103124,29.284906500270324,1.017117467757702,111.2274786,72.2106714,139.9586208
3397.675,9.7196058,-176.2961852,69.63780840000001,-0.0247765999999999,0.5346216,0.6592704,35.4747858,-9.4496092,-105.9111956,-21.7156988,10.7780436,21.731459,-0.9361314,0.2632261999999999,-0.2900692,145.32586959999998,65.981674,34.304304,189.8005269005732,0.8491593463009637,32.55755071384368,1.0147759216797767,109.8510838,75.43128320000001,140.2154996
3417.661,5.7381932,-169.7927306,68.5413362,0.0353576,0.5244848,0.6666316,35.769357400000004,-12.954009000000005,-106.7936602,-22.7312124,15.810612200000003,22.6576372,-0.9352816,0.2471709999999999,-0.309844,144.415515,65.47649220000001,33.8119196,183.19501356174007,0.848959454524985,35.777814337931915,1.0157994284678251,108.6461576,78.43050120000001,140.6055798
3437.647,2.9273376000000004,-163.46202699999998,67.4084306,0.0791992,0.5203253999999999,0.6478657999999999,36.0435722,-16.3536886,-107.6471926,-25.1925506,20.801122600000003,21.4009394,-0.923493,0.2435336,-0.3258288,143.67455439999998,64.8995024,33.5546426,176.8397582341938,0.8347102071829718,39.05574880035285,1.0091146328774547,107.6309822,81.253191,141.2018352
3457.634,0.8785042000000001,-157.32530820000002,66.2071182,0.1214788,0.5052977999999999,0.6185894000000001,36.3184608,-19.6390836,-108.477675,-29.6833874,26.207924400000003,18.8850386,-0.9165838,0.2471306,-0.3420375999999999,143.09109800000002,64.2617012,33.568116,170.69096891810997,0.8079206714316944,43.870302846208894,1.0090535742429934,106.7726372,83.9007848,142.045791
3477.62,-1.0118941999999995,-150.75709220000002,64.873323,0.1675576,0.4867511999999999,0.603005,36.5974892,-22.7883056,-109.28455820000002,-33.1339124,32.156449800000004,14.960099799999998,-0.907865,0.2408732,-0.362276,142.7473846,63.57361159999999,33.920443600000006,164.125783518415,0.7928539020804526,48.53553338222167,1.0067187575878578,106.1498954,86.3619172,143.20500180000002
3497.606,-1.6060091999999997,-144.53934020000003,63.5799452,0.2208988,0.4715526,0.5986811999999999,36.8914666,-25.8178206,-110.0670196,-36.017538599999995,36.5041248,9.767263,-0.9020734,0.2261781999999999,-0.380783,142.6438386,62.881238,34.6012106,157.91329761181237,0.7934590812648374,52.20357881149178,1.0049321819067196,105.752372,88.6990586,144.6682302
3517.593,-0.4217021999999996,-138.3207276,61.68943840000001,0.262687,0.4397286,0.5486154,37.2385522,-28.7306782,-110.8362152,-36.2228564,40.904435,5.4181748,-0.902464,0.228879,-0.3935716,142.7597138,62.1720544,35.5366522,151.45424499381414,0.7505628279791905,54.90559849967579,1.0108043689377089,105.5211616,90.9027326,146.37286740000002
3537.595,3.3213232000000006,-132.1488708,59.1904746,0.3169948000000001,0.402248,0.5126746000000001,37.6973612,-31.5182022,-111.6091888,-35.901343,49.4452386,-3.4716766,-0.8811396,0.2292286,-0.4171026,143.3088288,61.4180314,36.961592,144.8373830365876,0.7246546779095544,61.20286421262951,1.0014625927476672,105.6114676,92.9362336,148.57078080000002
3557.566,6.820572200000001,-124.54594740000002,56.6895904,0.375981,0.39756,0.5149952,38.2411028,-34.1544392,-112.364029,-37.9780482,59.6035942,-10.4383124,-0.8600874000000001,0.234752,-0.4180038,144.1579622,60.570237,38.792849,137.01066702493918,0.7514224657168829,71.4414372223837,0.9846755881797824,105.9168594,94.7246762,151.156878
3577.551,5.4541372,-115.2744492,53.1302056,0.4158204,0.3855292,0.4917184,38.7729204,-36.6078042,-113.0991914,-40.834603400000006,69.70170600000002,-17.555529,-0.8392848,0.2266094,-0.4298972,145.27503059999998,59.6218682,41.0136766,127.04631044645916,0.7505507004908862,82.66794573845155,0.9698259628651112,106.50211020000002,96.2296724,154.112868
3597.538,3.3687326,-105.837439,48.5117242,0.4550288,0.3591814,0.4441652,39.2855874,-38.873263,-113.8273744,-40.8162112,78.780867,-22.8283396,-0.8291270000000001,0.2261114,-0.4309144,146.59656679999998,58.5630608,43.495710200000005,116.47445744997437,0.7303048759432188,91.61616227984898,0.9613871059392882,107.3109794,97.4363238,157.32308460000002
3617.524,3.4453656,-96.9444962,43.8857484,0.5014010000000001,0.3403507999999999,0.404634,39.8207482,-40.9411446,-114.5520494,-41.1019808,84.1141402,-28.1979922,-0.7958491999999999,0.2242244,-0.4323672,148.0391144,57.4502428,46.1513666,106.47095754344272,0.7286770915965728,97.77365786028508,0.933056228922909,108.2183662,98.3913874,160.703416
3637.51,1.9915356,-87.9160294,39.826062,0.5565366,0.3336608,0.3905716,40.3283386,-42.8079766,-115.2514726,-39.8944078,79.62169180000001,-29.6823504,-0.7916046000000001,0.2340824,-0.4209984,149.33198239999996,56.4126856,48.6378792,96.53657158784736,0.7573695870067401,93.8734227780966,0.9266455986694592,109.0036438,99.2206622,163.8893518
3657.497,-1.7760855999999996,-78.5849792,35.5027946,0.6052072000000001,0.3089066,0.3297029999999999,40.7551026,-44.4777398,-115.9170716,-33.578286000000006,66.9886764,-28.3364264,-0.7859860000000001,0.2379446,-0.4222844,150.4259062,55.5641482,50.760385,86.25080788220333,0.7552503629025279,80.11202854530855,0.9234260876477988,109.6708036,100.041888,166.6774566
3677.483,-2.0238507999999995,-69.5522674,31.5681064,0.6608954,0.2795504,0.2678053999999999,41.144368,-45.9566986,-116.5263398,-24.8195804,47.698528,-23.9002138,-0.7938228,0.2655657999999999,-0.425323,151.2081084,54.9925158,52.321791000000005,76.40784785755639,0.765931386059143,58.84200340135062,0.9389246435462646,110.0637404,100.9492144,168.8481308
3697.47,0.5511940000000004,-59.53785620000001,27.829645600000003,0.7110356,0.2646784,0.2191215999999999,41.5348976,-47.2193214,-117.053415,-16.908699000000002,25.789673800000003,-19.8534628,-0.7867538,0.2829618,-0.4346949999999999,151.6908506,54.75343339999999,53.340416600000005,65.72327829573868,0.7897091587923241,36.676577835643165,0.9423421168018968,110.155953,101.9727548,170.3938316
3717.456,1.7049862000000005,-47.64735180000001,23.7780892,0.74963,0.257177,0.1910725999999999,41.8657196,-48.2481004,-117.458699,-8.3160736,3.727055599999999,-13.272111,-0.7958822000000001,0.3036156,-0.4441096,151.845236,54.8288416,53.75892180000001,53.27827547413965,0.8152262782195874,16.099594838455697,0.9606478260280196,109.9795164,103.076942,171.21762080000002
3737.442,1.4548396000000003,-34.07202260000001,18.5501554,0.7609794,0.256157,0.1473522,42.0901932,-49.0037126,-117.7224564,1.0097538,-16.160728999999996,-4.4448542,-0.7999826,0.3137218,-0.4571075999999999,151.68506759999997,55.1594424,53.567749000000006,38.82174065753349,0.8163447352180327,16.79123263513769,0.9733143819320456,109.5948744,104.163155,171.2902054
3757.429,2.8649364000000004,-19.23704160000001,12.1818262,0.7693026,0.2501806,0.134173,42.2309432,-49.4531418,-117.8349732,8.5264492,-31.242225399999995,2.3591972,-0.8014490000000001,0.3169978,-0.4750952,151.29357599999997,55.6760766,52.9107514,22.949259675710287,0.8200117175456214,32.470645132689825,0.9841359427786794,109.0626328,105.1292184,170.7457246
3777.415,4.9580822,-3.4606448000000065,5.070044,0.7663634,0.2544242,0.151441,42.2946746,-49.572776,-117.7892212,14.619178,-41.3495104,8.3704386,-0.795728,0.309669,-0.4861082,150.7203796,56.29693520000001,51.8855788,7.890753303434338,0.8215710017315607,44.64937421814288,0.982537084110437,108.425705,105.8697112,169.6748
3797.401,5.376522400000001,12.563612799999992,-2.8141408,0.7494844,0.2689966,0.1825008,42.255931,-49.348751,-117.596109,20.7869838,-49.1734282,14.7225748,-0.8070152,0.3033006,-0.4829822,149.966745,56.984414,50.4991942,13.9524459557545,0.8169409884780908,55.37940903606333,0.9881986604464914,107.710814,106.333165,168.09530320000002
3817.388,5.7125298,28.3321118,-11.7228772,0.7270209999999999,0.2797572,0.2032219999999999,42.1366812,-48.7711532,-117.2855256,26.713815,-54.9457052,18.496520800000003,-0.8154147999999999,0.292964,-0.4745228,149.1102662,57.7255028,48.8543204,31.189219381219964,0.8050607471966571,63.8340012335461,0.987877061721184,106.973585,106.496656,166.13984599999998
3837.374,8.128939800000001,43.32749179999999,-20.9016054,0.7110136,0.2796269999999999,0.2377248,42.0007804,-47.8475914,-116.8842438,31.52963560000001,-57.8087484,20.5677752,-0.8317116,0.2763268,-0.4625044,148.2070588,58.4882324,47.047116,48.7875836278904,0.8001529097922471,68.985525215954,0.9909646845332885,106.20627840000002,106.3358238,163.9313598
3857.36,13.2176218,55.99750959999999,-29.3807996,0.6891912,0.292361,0.2743698,41.929920200000005,-46.6331338,-116.4273346,35.836440200000006,-59.284088,21.0624434,-0.8523083999999999,0.270111,-0.4385864,147.2874726,59.2672898,45.13281619999999,64.60385431679201,0.7973319582397785,72.40497260670791,0.9958652475593872,105.3575524,105.9004236,161.5601508
3877.346,17.1635878,67.73989939999998,-37.0012802,0.6700844,0.3165746,0.3109492,41.9142304,-45.1522836,-115.9228896,38.9340392,-59.3443168,19.9903724,-0.867868,0.2668022,-0.4044183999999999,146.38321839999998,60.0564622,43.1810126,79.07197640965691,0.8036927183128886,73.73752324004774,0.9939479471317398,104.468988,105.2087458,159.1039022
3897.333,16.9861348,79.64906699999999,-43.5921974,0.6471832,0.3353085999999999,0.345119,41.8596154,-43.416115000000005,-115.3504044,39.843174,-57.37160179999999,17.3463144,-0.8751789999999999,0.2649312,-0.3760344,145.5361908,60.8349426,41.2906272,92.37306059438988,0.8064645533172552,71.97134034291487,0.9887005071091044,103.6765754,104.2510576,156.6410316
3917.319,13.926460799999996,90.75590379999998,-49.1111938,0.6182162,0.3538362,0.367631,41.7218622,-41.4523096,-114.7168366,38.945301,-54.04995279999999,14.0250882,-0.8830544,0.2637978,-0.350023,144.7640136,61.59037860000001,39.5215308,104.12727664464266,0.8015883473042007,68.07963694586368,0.9858450452141048,103.0421514,103.0426882,154.23836740000002
3937.305,10.1023562,100.92186759999998,-53.1134436,0.5829388000000001,0.3728784,0.3855684,41.4863068,-39.2884324,-114.0177522,36.841834600000006,-52.0209214,10.9903256,-0.8934792,0.2580874,-0.323392,144.0095488,62.344307,37.835116600000006,114.49156672748428,0.7921609286064039,64.68604406510535,0.9846301704373068,102.523242,101.6327394,151.8528688
3957.292,4.066915,110.9675448,-55.6970878,0.5385174,0.3896206,0.39788,41.103785,-36.9295804,-113.238579,34.4990954,-48.564431,10.3422652,-0.8908842,0.2603162,-0.3083771999999999,143.23194560000002,63.0359726,36.1889466,124.22761925577636,0.7746700565060716,60.46200452548024,0.978026420538791,102.1281606,99.965553,149.42752560000002
3977.278,-1.6592466,119.7750262,-57.610048600000006,0.494939,0.4075114,0.4235398,40.60058299999999,-34.398691799999995,-112.4000248,33.6007312,-45.8043816,8.270427399999999,-0.8961308000000001,0.2721428,-0.29572,142.49125959999998,63.6940666,34.617463400000005,132.92000489085405,0.7683853961619781,57.40601432177418,0.9821213940753354,101.8906766,98.0927584,147.0174882
3997.264,-4.143313,127.06428859999998,-59.412777600000005,0.4525672,0.4096662,0.4474258,40.0574204,-31.7212278,-111.5314334,30.4787302,-44.0078554,8.7636068,-0.9122836,0.2845884,-0.2888507999999999,141.6489256,64.3034432,33.013559400000005,140.32953581547656,0.7568575245341226,54.24430970762469,0.9983419799368152,101.5915052,96.02467099999998,144.5449928
4017.251,-4.7794488,133.4207126,-60.522877400000006,0.3996958,0.4249501999999999,0.4833898,39.52043160000001,-28.905264,-110.6384294,26.1078566,-40.672484,7.7734426,-0.9233768,0.305086,-0.2864759999999999,140.7805846,64.85643999999999,31.48606640000001,146.58427054189357,0.7576312452385527,48.95199220493395,1.0137902548112403,101.260153,93.761704,142.1244958
4037.237,-5.4719772,139.0271548,-61.93979420000001,0.342932,0.4431809999999999,0.5135322,39.0073694,-25.9594446,-109.7420762,21.894891,-33.3990814,7.066933799999999,-0.9190628,0.313709,-0.2935608,140.01297,65.286409,30.1671588,152.29914777108516,0.7600835979165975,40.55645994905484,1.0145283191323349,101.0056006,91.2458536,139.90923500000002
4057.223,-5.2279752,143.5790254,-63.92112960000001,0.2924924,0.4753172,0.592129,38.5398064,-22.8915086,-108.8626496,16.232389400000002,-29.7447776,6.854288800000001,-0.9407086,0.3157596,-0.2964846,139.2122804,65.6533142,28.9398688,157.25196046105646,0.8136922005983589,34.57200507723698,1.0356350289282803,100.672474,88.54482279999999,137.8025184
4077.21,-5.6315186,147.74220580000002,-66.9288422,0.2202682,0.4864228,0.610418,38.11455980000001,-19.7120016,-108.0198608,11.342388200000004,-27.238043800000003,8.7100868,-0.9511147999999998,0.3132488,-0.2952636,138.2998354,65.9484666,27.6990646,162.2927703091675,0.8110088501459648,30.76404414562156,1.0439946201803147,100.1852756,85.6604682,135.7189254
4097.196,-4.0631244,150.250415,-69.724788,0.1390008,0.5128588,0.637413,37.784143,-16.449777200000003,-107.2313858,12.237350600000005,-22.1395894,4.9814456,-0.9405504,0.30775,-0.2972456,137.6724062,66.20688179999999,26.7508938,165.69019961725874,0.8298437827127947,25.78233831082185,1.0332957292854354,99.8882632,82.656659,133.9822796
4117.182,-3.6902232,152.203668,-71.9959306,0.0755242,0.5532114,0.7157234000000001,37.5136718,-13.1280162,-106.4847124,8.563164600000004,-21.3682904,5.6584326,-0.9406598,0.2788826,-0.2904434,136.98212600000002,66.450412,25.8109692,168.4131477138292,0.9077481716771232,23.7054736732715,1.0232173437360998,99.4684542,79.57842819999999,132.2956816
4137.169,-5.527368,154.065811,-74.07279820000001,0.003681,0.5659696000000001,0.7406514,37.251901200000006,-9.7595208,-105.77299659999998,7.591729200000003,-22.0220962,7.9488496,-0.9545692,0.2748306,-0.2986209999999999,136.181894,66.6671982,24.770472,171.0368537750653,0.9321478606997498,24.612827615932456,1.0372601977932057,98.9299928,76.426719,130.54346859999998
4157.155,-2.6622006000000003,154.3629638,-76.0024262,-0.0800881999999999,0.5733083999999999,0.7453158,37.1023124,-6.3758128,-105.1109208,12.746063600000005,-19.6361482,6.4887848,-0.9454988,0.2752044,-0.30102,135.6061158,66.8592454,23.8620842,172.07957663081692,0.9437119703699004,24.29289570241307,1.029717671490977,98.5038034,73.2350582,128.973005
4177.141,0.3462156000000002,153.74660039999998,-76.5186142,-0.1399615999999999,0.599537,0.8107842,37.0537162,-2.9921617999999994,-104.4745392,12.019484800000004,-15.986220399999995,3.5260870000000004,-0.9235542,0.2614284,-0.3036944,135.2425476,67.03423319999999,23.198513400000003,171.73594649603035,1.0180397255575049,20.30912472428037,1.0067410080331287,98.1888314,70.026395,127.67305259999998
4197.128,-2.3554664,153.7865174,-76.15460800000001,-0.2048622,0.6325278,0.8514949999999999,36.9880348,0.3923973999999999,-103.8367722,4.701031800000003,-16.928157399999996,6.552323200000001,-0.9454024,0.248368,-0.3083851999999999,134.61425479999997,67.183072,22.4032498,171.62565506245184,1.080325725782127,18.75087070674437,1.0249750206365031,97.62622000000002,66.7906746,126.240022
4217.114,-1.857776,152.5847932,-76.1732008,-0.2903162,0.620325,0.7963903999999999,36.97071,3.7539186,-103.217517,7.257263800000002,-19.6333042,8.5928464,-0.9931274,0.2580552,-0.2955352,133.843454,67.3407076,21.4016926,170.55183073678825,1.0503924365776822,22.626787684656456,1.067818136817707,96.872744,63.586789,124.6192096
4237.1,9.9820978,148.41038220000002,-76.00653820000001,-0.351356,0.6211066,0.7749645999999999,37.2207862,7.045881400000001,-102.6384018,12.8247676,-18.6606338,4.3115924,-0.9640122,0.2605378,-0.2939922,133.3351776,67.5468568,20.5671172,167.03974877371826,1.0534678820698429,23.049593203253064,1.0409759270216197,96.1143914,60.5009754,123.205519
4257.087,20.0873334,145.32601019999998,-75.1760984,-0.3726984,0.6616238000000001,0.8462270000000001,37.6968674,10.2720076,-102.060855,11.957929200000004,-20.188811,4.4698400000000005,-0.9271112,0.277456,-0.2697592,132.71812119999998,67.7707734,19.6380782,164.84718976803862,1.136991770250779,23.88639005734298,1.0046327861891031,95.0212538,57.4987658,121.6989332
4277.073,15.8762026,145.7651032,-74.201161,-0.4039589999999999,0.6846016,0.8654142,38.1334626,13.4784614,-101.428894,10.605388600000005,-22.2969142,8.497641400000001,-0.949338,0.2710666,-0.262067,131.857672,67.9674652,18.4757448,164.3329894258935,1.1750761515600596,26.112000297988768,1.0214689678930828,93.7242094,54.4890038,119.9046388
4297.06,16.374589399999998,144.551648,-73.7909392,-0.4691585999999999,0.6480686,0.7439168,38.6255586,16.651351400000003,-100.7701964,14.740885200000005,-25.1993704,9.2057792,-0.9653318,0.2635334,-0.2365218,130.91988220000002,68.1876006,17.1442366,163.1208411747334,1.0924810788211208,30.61124524933816,1.02823046973042,92.2943236,51.5362492,117.914433
4317.046,29.491254400000003,139.98504800000003,-72.645732,-0.5012862,0.6512538,0.709041,39.4140838,19.7333268,-100.1067748,20.4593118,-22.9417294,6.677509800000001,-0.9059534,0.2638024,-0.2598126,130.26389160000002,68.3896924,15.991872199999998,160.44609726466908,1.0854301018517407,31.456247778804443,0.9786959979156348,90.8498078,48.6563656,116.098647
4337.032,34.564756,138.34599160000002,-70.2750976,-0.5073831999999999,0.710308,0.8477004000000001,40.3635346,22.7485366,-99.364421,15.528221400000003,-24.3730328,7.6181478,-0.8931889999999999,0.275005,-0.234831,129.39442300000002,68.5806424,14.7188202,158.97460517899182,1.216787218319785,29.88656158911457,0.9636181496355284,89.03088840000001,45.8321058,114.0832412
4357.018,22.5237946,139.9696856,-67.5975684,-0.555047,0.6985705999999999,0.7626836,41.1803764,25.7425038,-98.4807616,9.261357000000002,-23.0136914,8.845943199999999,-0.9290581999999998,0.2463,-0.269074,128.4330446,68.7306164,13.478144599999998,157.06134299609982,1.1737820620125017,26.337301236715756,0.9981050277717468,87.25266819999999,42.98811260000001,111.9589062
4377.005,27.4372064,135.822896,-65.0725432,-0.663002,0.6604327999999999,0.6147153999999999,42.1736152,28.63149,-97.5384094,8.054578200000003,-24.6129426,6.3474172,-0.9631602,0.2593218,-0.2627107999999999,127.4352678,68.9311734,12.2275442,153.08525484637275,1.1196509091306093,26.66388716075857,1.031475802554728,85.2616526,40.299683400000006,109.76595360000002
4396.991,42.9914436,128.021016,-61.5178198,-0.6995346,0.7053648,0.644052,43.5296798,31.3427982,-96.5675614,6.917587400000002,-24.2801198,2.8476526,-0.9414874,0.2882978,-0.2561658,126.4786484,69.16648380000001,11.0518094,148.39840603399185,1.183930376491878,25.40642356313217,1.0174158751136333,82.94896859999999,37.823685600000005,107.6193708
4416.977,45.7206216,124.138266,-58.6723212,-0.7099498,0.7398887999999999,0.707185,45.0187898,33.937011,-95.5110078,-2.6413295999999966,-25.1273008,-0.1964634,-0.9366826,0.2733668,-0.2169484,125.3349336,69.4704238,9.8848886,144.7173990920688,1.245622245751287,25.266508769852955,0.9995850682896178,80.31614379999999,35.5334128,105.3958964
4436.964,37.6502424,122.4291046,-55.7213834,-0.7408073999999999,0.713929,0.628521,46.462346,36.4388908,-94.3215318,-7.504396399999997,-26.4586118,-0.7035218,-0.9687442,0.2430588,-0.2117908,124.0515976,69.8116806,8.6702144,139.6828513953889,1.2056238502853034,27.511253090953662,1.0209790635736464,77.58925159999998,33.3727898,102.9917462
4456.95,39.675920000000005,117.8458388,-51.8616828,-0.7810349999999999,0.6876300000000001,0.5655264,48.0654658,38.7936598,-93.0181612,-7.247582799999996,-29.856655199999995,-2.8948074,-0.9673494,0.2600932,-0.1857932,122.6468826,70.2092926,7.324445200000001,134.72733387538625,1.184344036681048,30.859799514216505,1.018789697402187,74.5814168,31.415632800000004,100.3426064
4476.936,44.757572,112.7379286,-46.9308388,-0.7683401999999999,0.6919516,0.5748332,49.8979098,40.9766196,-91.58817,-9.539151599999997,-29.2062606,-4.3507072,-0.924544,0.282177,-0.1972982,121.232283,70.5979248,6.019633,130.05992629101968,1.1830371454442332,31.03110898152089,0.9865759205394384,71.33437319999999,29.6213052,97.607803
4496.923,42.60295240000001,110.1532028,-42.5821588,-0.7661406,0.690968,0.5741276,51.8293924,43.0258116,-90.00215920000001,-14.919482199999996,-26.0425214,-5.801550000000001,-0.9059928000000002,0.2882554,-0.2129424,119.8902222,70.96109320000001,4.905004399999999,125.54672392525028,1.180690771148026,30.568968781888515,0.9742990275058064,68.0608298,27.935281600000003,94.9071636
4516.909,35.1592602,107.9525452,-38.2752098,-0.7904465999999999,0.6845991999999999,0.5276892,53.741568,44.9320402,-88.2672914,-17.653861199999994,-22.3831104,-4.8601894,-0.9184168,0.2834716,-0.230386,118.6386428,71.25914159999999,3.9424944,119.81200807182626,1.171297478819467,28.91857339931079,0.9883942915278294,64.89707480000001,26.327101400000004,92.2097858
4536.895,33.375124,102.460199,-34.7808648,-0.8292035999999999,0.677219,0.4434478,55.71267,46.672219,-86.45417499999999,-16.410113199999994,-19.6759514,-5.0532098,-0.9303672,0.2850244,-0.228362,117.5162796,71.52445839999999,3.0929436,113.23294501765312,1.1588141074127465,26.11455165257087,0.9994854868757224,61.8036096,24.8522394,89.5471186
4556.882,34.7366874,95.1267228,-32.2763318,-0.8446016000000001,0.6778584,0.4340692,57.745603800000005,48.2383544,-84.6383012,-16.066914999999998,-16.522852599999997,-6.439395,-0.9336236,0.2817676,-0.2107204,116.561168,71.78165759999999,2.4159208000000003,106.28966288711732,1.1667304502590818,23.92940082042541,0.997721952180506,58.8155642,23.543303200000004,87.05422200000001
4576.868,31.4922328,88.90601059999999,-30.0473546,-0.8426335999999999,0.6811486,0.4425641999999999,59.7404166,49.6512656,-82.821579,-15.677420199999997,-12.710798,-8.1043014,-0.9276216,0.2675824,-0.193822,115.8464708,72.0271928,1.9851524,98.9893073316247,1.1704092746781187,21.749151503132573,0.9847076425316909,56.1060542,22.3759272,84.8067314
4596.854,21.3921818,83.528267,-26.7640804,-0.8388228,0.6736472,0.4512991999999999,61.55395660000001,50.9087386,-81.0001756,-14.306836399999998,-10.130379199999997,-6.982216599999999,-0.937996,0.261701,-0.180751,115.2550646,72.2292406,1.6563222,90.2824059817039,1.16665985093699,18.86959191825496,0.9904518329621084,53.701108,21.320502,82.6564978
4616.841,9.960021,77.39468400000001,-22.337883,-0.8336939999999998,0.6689026,0.4424583999999999,63.1717834,52.01034919999999,-79.1727616,-10.920008399999997,-9.056210799999995,-6.107353000000001,-0.9496874,0.2869842,-0.1562168,114.7149966,72.40171819999999,1.3149754000000002,81.16723567241888,1.1568257473160422,15.445429685726328,1.004325533565009,51.5432132,20.391369,80.48773700000001
4636.827,-1.889286599999999,71.3451044,-17.796896,-0.8226051999999999,0.6661752,0.4398282,64.5573388,52.9445976,-77.36486199999999,-10.665984799999997,-8.155677199999998,-5.693776600000001,-0.9450348,0.305174,-0.1370024,114.1811694,72.5540374,0.9782002,73.55557649110402,1.1462624296718966,14.584148734675546,1.0024926937852463,49.6238306,19.6094398,78.34306219999999
4656.813,-16.222605199999997,66.4418954,-13.085586800000002,-0.8102136,0.6665112,0.431184,65.6596534,53.7151932,-75.5704544,-11.107938999999996,-5.4034435999999975,-5.005946800000001,-0.9345502,0.3012518,-0.137434,113.7824176,72.6686598,0.7919602000000001,69.63426574410003,1.134285193064954,13.328278768488154,0.9914760852785508,48.122764200000006,18.9534666,76.3624146
4676.8,-33.061865,63.04235620000001,-8.7698588,-0.7992099999999999,0.6483144000000001,0.4271616,66.4318848,54.3579864,-73.77566379999999,-9.200255599999997,-2.9119571999999976,-3.4531208,-0.9427679999999998,0.2877158000000001,-0.1351872,113.5361528,72.742778,0.7247618,71.72402676856508,1.1142330177579194,10.24930442026949,0.9949208322462044,47.104268000000005,18.3847916,74.5004256
4696.786,-46.6789892,60.1299722,-5.0442686000000005,-0.7986224,0.6208587999999999,0.3950521999999999,66.93767840000001,54.8992774,-71.9702956,-5.142005199999996,-0.777921599999997,-2.2178598,-0.9477728,0.2700752,-0.1384872,113.48496400000002,72.78524,0.7751278,76.2888342761602,1.0859694415792922,5.653696276333704,0.9951847057901966,46.5472856,17.8859626,72.7454234
4716.772,-53.06625799999999,56.07433640000001,-2.3202568,-0.8150383999999999,0.5878906,0.340008,67.2655716,55.3457214,-70.2293974,-2.6224967999999964,1.9263664000000031,-1.81277,-0.9347354,0.2731978,-0.1546466,113.6567474,72.79015799999999,1.004246,77.23821937642577,1.0608998025765295,3.724850607200132,0.9860440542032388,46.391175800000006,17.444436599999996,71.2336434
4736.759,-55.36763520000001,51.0820558,0.3627582,-0.8247135999999999,0.573538,0.3238109999999999,67.4560348,55.6945022,-68.5858366,-2.065118199999996,7.081270600000002,-2.0768012,-0.9267942,0.2747663999999999,-0.1674475999999999,114.16659239999998,72.7516708,1.5746426,75.33314705961952,1.055439208666212,7.663041805622428,0.981062058418508,46.71055760000001,17.0571686,70.1604792
4756.745,-56.403183,45.3786092,2.0509402000000003,-0.8295779999999999,0.5548797999999999,0.3254173999999999,67.4960984,55.9718804,-67.0882094,-1.2127457999999964,11.317443800000005,-1.9126688,-0.942083,0.2680167999999999,-0.1670153999999999,114.9300094,72.679445,2.3936238000000003,72.42060191107079,1.049756035826801,11.541819114856615,0.9936033050510652,47.433911,16.707564599999998,69.4818332
4776.731,-55.1503868,37.9233056,3.5019774,-0.8348796,0.5592805999999999,0.3331848,67.38076779999999,56.161165800000006,-65.7954452,-1.7561067999999964,13.169100200000004,-2.5067084,-0.9513144,0.2770799999999999,-0.1571663999999999,115.7674926,72.5995498,3.3051046,67.02242995841554,1.0586929899567483,13.520084991348128,1.003231623971414,48.3867248,16.438383999999996,69.1005498
4796.718,-54.546856000000005,29.8683818,4.6953674,-0.8368981999999999,0.5623272,0.3485665999999999,67.06663819999999,56.26280319999999,-64.75613560000001,-5.559157399999997,15.194527600000004,-4.2933634,-0.9417034,0.283012,-0.1566858,116.6729446,72.5260452,4.3694208,62.366066140620816,1.066821986865025,16.73950026941056,0.9957165890137616,49.6063064,16.263241999999998,69.1255564
4816.704,-56.4658326,22.0546992,5.910107399999999,-0.8324123999999999,0.5541202,0.384085,66.514746,56.28709739999999,-63.959504,-9.435996799999996,17.303225400000006,-4.8525458,-0.9519366,0.2743038,-0.1520206,117.6193466,72.44738,5.559548400000001,60.90754778755453,1.0712053430350317,20.297459092061576,1.0022654977291996,51.1046006,16.160282599999995,69.51905239999999
4836.69,-57.723561800000006,13.3142608,7.3150414,-0.8312826,0.5479004,0.4044618,65.7261062,56.22542059999999,-63.428299800000005,-11.285854199999996,16.918961000000003,-4.5425002,-0.9656454,0.2781116,-0.148031,118.4706618,72.36410359999999,6.691026600000001,59.68910250801691,1.0746231697865816,20.83881125232864,1.015741245375376,52.74455559999999,16.138682999999997,70.1193264
4856.677,-56.7740256,3.4345718000000005,8.969730000000002,-0.836767,0.5573912,0.420415,64.7218504,56.052553,-63.195958000000005,-13.441365399999995,14.8434278,-4.6796316,-0.9653312,0.281702,-0.147299,119.14846779999998,72.2983718,7.6869988,57.58074610971719,1.0897764607255196,20.564450018948925,1.0163254094523269,54.4266174,16.2458188,70.88295680000002
4876.663,-55.4555068,-6.548972000000001,10.6191032,-0.8315679999999999,0.561239,0.4507804,63.531912,55.77159279999999,-63.24730460000001,-13.380207999999996,12.997184600000002,-4.1340808,-0.9643946,0.27072,-0.1606042,119.73003839999998,72.24087519999999,8.5783426,56.8416011515675,1.0998625017560877,19.106213589057088,1.0144653626254572,56.1981264,16.4692824,71.8256472
4896.649,-53.6279082,-16.9071784,12.1325712,-0.83041,0.5591634,0.4855814,62.165489,55.3778642,-63.58101280000001,-11.902464399999996,10.485630200000005,-2.4149534,-0.9697124,0.266926,-0.1682,120.15748899999998,72.1770614,9.2758626,57.52394721574766,1.1126696598836152,16.045220453723623,1.0197464725066518,57.992,16.799197200000002,72.8568754
4916.636,-50.6907684,-28.386831600000004,14.1048426,-0.8366896,0.573893,0.5033982,60.6132888,54.82786639999999,-64.2156418,-10.456095199999996,8.167632200000003,-1.260366,-0.9675216,0.2671614,-0.1804612,120.4645904,72.11161799999999,9.815106,59.7855567343817,1.1326130892588164,13.327740432642582,1.019823271367133,59.8513016,17.2837516,74.0307478
4936.622,-48.1791214,-40.2672788,15.8522704,-0.8468233999999999,0.5799494000000001,0.5239244,58.8747268,54.1106194,-65.1513566,-9.510135999999996,6.970650600000002,-0.6898186000000001,-0.9631296,0.2558303999999999,-0.1985494,120.7410736,72.04741820000001,10.2988682,64.76091381124562,1.1523662413761,11.81137190281816,1.0161149955594002,61.8663468,17.9367988,75.4502248
4956.608,-46.5519188,-52.2416642,18.046952,-0.8530488,0.5915272,0.5482659999999999,56.9844864,53.2086692,-66.326774,-7.511281999999996,7.230778200000003,-0.3387136,-0.9569152,0.242539,-0.2122176,121.0885834,71.97541340000001,10.8123414,72.2631655744312,1.1739643479583526,10.43159803500615,1.0097267829773555,64.104097,18.7667442,77.13911540000001
4976.594,-46.5763496,-64.4468506,20.5066468,-0.8671998000000001,0.6043876,0.5722157999999999,54.9239244,52.094754,-67.7228792,-4.8645843999999965,9.109664800000004,-0.3349052,-0.9455398,0.2306734,-0.2204466,121.603575,71.8840834,11.444548,82.11744916459651,1.201977864157007,10.33258610639512,0.9979240623931062,66.6796506,19.7893294,79.16742719999999
4996.581,-48.007667600000005,-77.0936432,23.324136400000004,-0.8814482,0.615364,0.5940944,52.70474800000001,50.7487296,-69.300287,-0.6334529999999965,11.116500200000004,-0.3744108,-0.9438588,0.2168083999999999,-0.224359,122.3140654,71.775801,12.192477,93.766632172894,1.2282393650630972,11.140826847544384,0.9940886668346036,69.60931740000001,21.0270714,81.492764
5016.567,-49.3976662,-90.165126,26.2999864,-0.894378,0.6140863999999999,0.6153709999999999,50.3863984,49.1640624,-71.00432760000001,5.132149200000003,13.398016000000002,-0.246395,-0.947312,0.2112818,-0.2305612,123.2466246,71.63989699999999,13.0528412,106.12053833845115,1.2472752627988577,14.349442450609072,0.9975963569002644,72.86022620000001,22.4758346,84.0571688
5036.554,-50.0652146,-103.6407042,29.429443000000003,-0.9101514,0.6205488,0.629417,48.0391076,47.329267,-72.784128,10.243354600000004,15.1365164,-0.494738,-0.9494784,0.2138482,-0.2251306,124.34293499999998,71.4864456,13.9809458,118.80241325539733,1.268708849181876,18.283468157804588,0.998961496638464,76.3038274,24.1571786,86.76507380000001
5056.54,-50.1930656,-117.2210722,32.5599834,-0.9168484,0.6298758,0.6566508,45.7064966,45.230104,-74.6057038,13.945378200000004,15.9863324,-0.829734,-0.9613598,0.223992,-0.2143066,125.516397,71.3264496,14.9169772,131.6065200552457,1.29172163609225,21.230281563254906,1.010105143004232,79.8099004,26.096345600000006,89.522681
5076.526,-50.2722618,-130.1265014,35.6460644,-0.9127908,0.6304582,0.683384,43.4263078,42.8712532,-76.4263504,15.502106000000005,15.7882334,-1.1713657999999998,-0.9710902,0.2346804,-0.2042802,126.6696854,71.17038740000001,15.8035834,143.98211201500305,1.30294983708809,22.157520216971964,1.019716365854859,83.2433776,28.299134200000005,92.2299338
5096.513,-50.0545738,-141.74354699999998,38.9041282,-0.8961998,0.6330668,0.7123594,41.2434196,40.2630134,-78.1968598,13.932683200000003,15.3218158,-1.8785938,-0.9726878,0.2520718,-0.1905164,127.7298752,71.0249482,16.6309318,155.27467490045788,1.308206241213762,20.79439384127584,1.0227210016876742,86.4864556,30.761934799999995,94.8277916
5116.499,-50.4908332,-151.57010800000003,41.9637122,-0.870105,0.6341682000000001,0.741768,39.173552,37.4324174,-79.87735760000001,8.974900200000004,13.865742200000003,-2.9586348,-0.9729998,0.2539882,-0.1725903999999999,128.61356519999998,70.9165162,17.3809446,165.17801009204078,1.3074676985456428,16.77978427264761,1.0203068473314485,89.4400132,33.4840988,97.2583022
5136.485,-49.4281058,-160.034143,45.1701278,-0.8289709999999999,0.6264136,0.7706763999999999,37.2630234,34.3971394,-81.4398652,3.7528456000000032,12.972892000000002,-3.7594582,-0.9731122,0.2556928,-0.1657268,129.3527086,70.8302078,18.0910688,173.47739049855684,1.2936495006851432,14.018320259526485,1.019701688730052,92.0896852,36.4330684,99.530934
5156.471,-46.806739,-167.05799860000002,48.3000382,-0.780983,0.6123187999999999,0.7880346,35.5519142,31.186332799999995,-82.8676438,-1.207140599999996,12.979958200000002,-4.9159092,-0.9619692,0.2631812,-0.1709902,130.0197144,70.7522872,18.8312482,180.0892539886075,1.2672281917317023,13.932073304593263,1.01187288444652,94.4678002,39.5659544,101.698892
5176.458,-42.5643722,-172.66098000000002,51.6197304,-0.7271993999999999,0.6089991999999999,0.7978776,34.07520340000001,27.8252408,-84.1500566,-6.850688199999996,14.1274492,-6.227999,-0.940287,0.2713682,-0.1763246,130.6545838,70.6671294,19.6586434,185.17056019224336,1.2394787846279418,16.89096566973602,0.9944197840476626,96.5793804,42.8418886,103.8087
5196.444,-38.1249378,-176.9547422,54.9711296,-0.6756239999999999,0.60656,0.8034473999999999,32.81784639999999,24.3325064,-85.29294139999999,-12.378161399999996,16.150961200000005,-6.4463556,-0.937365,0.2913489999999999,-0.1864508,131.248279,70.5448608,20.5620762,189.17800284076984,1.2123986751653764,21.34544278880171,0.9991502809120558,98.4304326,46.2123544,105.8550176
5216.431,-33.4903412,-180.1844144,58.4775964,-0.6094918,0.6112065999999999,0.8204036,31.7739808,20.7311562,-86.3009064,-17.021983199999998,18.9454384,-5.555145,-0.9243814,0.3132674,-0.2010867999999999,131.8101686,70.354628,21.5327618,192.37373892266228,1.1908466857844295,26.067934022478685,0.9965206157942544,100.0361878,49.6234718,107.8336682
5236.417,-30.1058744,-182.1728056,61.4986544,-0.5427814,0.6149956,0.8509902,30.897323,17.0413596,-87.18838500000001,-20.97983,21.426602000000003,-2.7860326,-0.9159886,0.3396334,-0.2161946,132.2636414,70.0727432,22.4753678,194.61597896003968,1.1819541263100528,30.116681718668257,1.0005628749832167,101.3663184,53.031383600000005,109.6637528
5256.403,-27.847326,-183.5898742,63.9124048,-0.4769594,0.6186644,0.8774805999999999,30.1478238,13.2791314,-87.975734,-26.087601599999992,23.2692162,1.3880636000000002,-0.9195176,0.3471112,-0.2189702,132.5150452,69.70247199999999,23.3140046,196.38103513690209,1.1748225876497609,34.98494105126247,1.006949229287773,102.3672214,56.4233406,111.2897386
5276.389,-26.1362172,-185.145462,65.3090624,-0.4137289999999999,0.6083194,0.891561,29.4949208,9.4514068,-88.6954436,-30.6068328,22.6700876,6.0233834,-0.9409216,0.3526886,-0.2198872,132.46792299999998,69.276645,23.9326334,198.05862157524504,1.1559001663544997,38.56153826576716,1.0286267965789924,102.9730022,59.8252382,112.628077
5296.376,-23.2577038,-187.1426788,65.9442248,-0.3451345999999999,0.5998508,0.9055888,28.9534054,5.568512,-89.3752562,-34.0610618,20.6748964,10.2187418,-0.9550358,0.3400878,-0.2128526,132.1277892,68.829567,24.3120062,199.7797382092625,1.1397499502361208,41.13429172927643,1.0358857660559104,103.17438380000002,63.261055,113.68726239999998
5316.362,-18.513938,-189.4054382,65.8671754,-0.2815249999999999,0.5692318,0.8876497999999999,28.546516,1.6277124,-90.0433028,-36.385907,16.750091800000003,13.6970526,-0.9737932,0.3381793999999999,-0.2091322,131.4772886,68.3932418,24.4083966,201.38438548004717,1.0914226198848362,42.33330903022161,1.0518435149904382,102.9307726,66.76552939999999,114.4516994
5336.348,-14.3373988,-190.9261932,66.3270264,-0.2038131999999999,0.5544459999999999,0.8751402,28.265441400000004,-2.349105,-90.6944702,-39.5231194,12.259151000000005,17.4246096,-0.9815746,0.3264154,-0.1876886,130.48220659999998,67.97597499999999,24.202178600000003,202.62686565522412,1.0558506319864944,44.89967449837325,1.0513147574785966,102.2167652,70.32508,114.8966488
5356.335,-10.8955082,-191.2489166,66.9556,-0.1305065999999999,0.5194696000000001,0.8532097999999999,28.0935546,-6.339832199999999,-91.3237748,-40.50374599999999,8.065923800000004,21.709029,-0.9916509999999998,0.332425,-0.1836157999999999,129.20668940000002,67.5491408,23.7133168,202.92341553150047,1.007396446680134,46.65720209038218,1.0618817488005148,101.1131348,73.88897300000001,115.0370916
5376.321,-6.7014428,-190.6072724,68.1477706,-0.0530693999999999,0.4986647999999999,0.8363904,28.0439668,-10.3226408,-91.9227876,-41.7257194,4.604336200000003,24.620208800000004,-0.9888336,0.3423412,-0.1691932,127.7103896,67.1200682,23.0125972,202.53434342135583,0.9752086162393973,48.666109898426896,1.0600074172535965,99.6664228,77.44270900000001,114.9353848
5396.308,-4.748003,-188.2031616,69.3767288,0.0143292,0.4568936,0.7907344000000001,28.0639506,-14.2701802,-92.4820038,-43.8488098,2.168361000000003,26.5740724,-0.9805172,0.3371191999999999,-0.1790446,126.0892546,66.68693520000002,22.2163578,200.6392386042981,0.9133553410567872,51.31862463300569,1.0521978441783846,98.025304,80.9571154,114.6983616
5416.294,-2.9691619999999994,-185.056134,70.73835460000001,0.0848726,0.4388234,0.7686066,28.1490966,-18.1588876,-93.0001694,-45.8494254,1.2564304000000028,27.484625000000005,-0.9651882,0.3385728,-0.1764358,124.4135268,66.2449766,21.4008878,198.13758721031084,0.889114975794402,53.47104859875888,1.0379544276319266,96.2644302,84.40386420000002,114.4010572
5436.28,-2.4319622,-180.6758666,71.1857454,0.1391472,0.3942368,0.7390664,28.264968,-21.980903200000004,-93.4833358,-46.9387046,0.9160252000000028,26.7604692,-0.963372,0.3326888,-0.1975708,122.8045668,65.81197800000001,20.6726686,194.20889155740744,0.8491193916941481,54.03891008798423,1.0381722732967202,94.5395988,87.79288120000001,114.1560044
5456.267,-0.4044307999999999,-176.41885659999997,71.270128,0.1921384,0.3689614,0.7093659999999999,28.4426188,-25.727516400000003,-93.9444746,-47.9100418,2.4220934000000027,23.0020996,-0.9458904,0.3300224,-0.2017444,121.380519,65.4215574,20.1634794,190.27140529638112,0.8223440894178786,53.20089498988144,1.02192183470424,92.9379002,91.1490738,114.107954
5476.253,-0.818541,-170.9233854,70.610666,0.2266554,0.3455127999999999,0.6540298000000001,28.6310702,-29.379064000000007,-94.387631,-49.7180396,4.339539400000002,18.4205818,-0.9334058,0.3175728,-0.2210506,120.1636642,65.0870466,19.9128058,184.93604256317687,0.7736321765548795,53.198053514407945,1.0104267605986297,91.532594,94.4661106,114.3004368
5496.239,0.0246731999999999,-165.3754698,69.39238599999999,0.2758664,0.3266106,0.6333814,28.849260200000003,-32.9091722,-94.819203,-49.6112266,7.569253800000003,13.093590400000002,-0.9190616,0.3164848,-0.2188231999999999,119.2085252,64.813156,19.9466138,179.34422169423385,0.7641653960676837,51.86530167085056,0.9963535748336732,90.359265,97.7223282,114.7658168
5516.244,-0.1804944,-159.2285766,67.54195639999999,0.3182708000000001,0.2972206,0.6060190000000001,29.074333000000003,-36.3168512,-95.2445296,-48.6662278,12.8430378,8.507363800000004,-0.9134146,0.3017832,-0.2333085999999999,118.6058946,64.572325,20.3427456,172.96152190192475,0.7462542566431365,51.04625928546843,0.989864755473878,89.5315616,100.8891762,115.5872752
5536.212,1.1820828,-153.29433899999998,65.529721,0.3623776,0.2902886,0.5672478,29.34936,-39.5887742,-95.6767776,-46.6671624,19.093867600000003,1.9303794000000027,-0.8972286,0.30852,-0.2339636,118.4095568,64.38189379999999,21.1452236,166.71741367814823,0.7330450619686077,50.45915368912015,0.9772117054062136,89.0601968,103.970668,116.8220012
5556.198,0.6673022,-146.0906678,62.8696694,0.4040878,0.2723198,0.5100034,29.643661200000004,-42.7148194,-96.1213882,-47.3877298,24.413683,-4.357199599999997,-0.8838122,0.3017952,-0.2412475999999999,118.5294328,64.24907520000001,22.3127978,159.04566589800987,0.7053711729241846,53.48467108972941,0.9645749074683831,88.88577160000001,106.9638946,118.434186
5576.185,2.6922346,-139.1969818,59.94892660000001,0.4623562,0.241977,0.4748987999999999,30.007685200000004,-45.6989372,-96.5849946,-46.438157,30.932414200000004,-8.528002599999997,-0.8821396,0.3132127999999999,-0.2399826,118.96949920000002,64.1187216,23.8186404,151.58140278366326,0.7055884030005595,56.44504851749725,0.9663664834185632,88.961814,109.8176588,120.40363499999998
5596.171,6.0778008,-132.3096878,56.680928,0.5167484,0.2258994,0.4194627999999999,30.499466,-48.555854,-97.0974306,-46.423121,36.759349,-12.131901999999997,-0.8788204000000001,0.3307828,-0.2417504,119.665512,63.9790808,25.6136956,144.06776442785227,0.7028573741569195,60.44451131758818,0.9696317920386892,89.166046,112.5349348,122.7111262
5616.157,8.7747082,-124.4378188,53.2500504,0.5751254,0.2105086,0.369284,31.100399600000003,-51.2592246,-97.6534668,-47.458069,41.1704604,-15.528563799999995,-0.8623415999999999,0.3384732,-0.2418198,120.53912340000002,63.836742400000006,27.6341188,135.63677273991487,0.7151599604669713,64.71793736242991,0.9574309154611836,89.4387238,115.095967,125.2875856
5636.144,10.746427,-115.7902708,49.5798006,0.6321052,0.190685,0.3170928,31.7879954,-53.788806,-98.2472244,-46.9488114,41.81220020000001,-15.150351399999996,-0.8645204,0.3502914,-0.2457927999999999,121.4096556,63.666335200000006,29.644471,126.41609522817664,0.732438118139601,64.66826211505249,0.964631373873958,89.6216602,117.4551412,127.8916954
5656.13,11.5086462,-105.6194776,45.4383034,0.6783234,0.1769946,0.2611173999999999,32.516460800000004,-56.09538640000001,-98.85656120000002,-43.4893802,39.757195,-13.948133599999997,-0.8588408,0.3619295999999999,-0.2478574,122.2252974,63.480607600000006,31.521713,115.55328814760804,0.7480855699714305,60.55172314122552,0.96438262418791,89.7088366,119.575994,130.3782742
5676.116,11.385192,-94.0433622,40.6266514,0.7238692,0.1583718,0.2069957999999999,33.2602426,-58.14245520000001,-99.4708846,-38.4423984,33.10056780000001,-11.588547199999995,-0.8454520000000001,0.3615328,-0.2557091999999999,122.8561308,63.3141564,33.0807554,103.07425175442398,0.7693604532087154,52.03614137917364,0.9544015112857273,89.59588819999999,121.4566116,132.55164
5696.103,10.9432024,-80.9520598,34.9376218,0.7617156,0.1342564,0.162384,33.987574200000005,-59.8926116,-100.0655562,-31.0383072,23.351009,-7.250951399999996,-0.834769,0.3640788,-0.26126,123.2045684,63.1699502,34.159394199999994,88.84608647357507,0.7903189227649304,39.512307340432734,0.947443636091583,89.2169942,123.0625618,134.22495039999998
5716.089,10.4656916,-66.8362984,28.681102,0.7823474000000001,0.1272988,0.1175732,34.678050400000004,-61.32616499999999,-100.618872,-21.9613098,12.156709800000002,-2.7089525999999973,-0.8389004,0.3748673999999999,-0.2632025999999999,123.2489502,63.0648018,34.6967508,73.47943315251253,0.8013088643753046,25.24724035378993,0.9558007414465004,88.5708998,124.3909668,135.31562279999997
5736.075,8.375197199999999,-51.441224,21.626431,0.7950474000000001,0.123049,0.0815077999999999,35.265816,-62.4186692,-101.097177,-13.1832892,2.4718138000000023,0.2055328000000028,-0.8271114,0.3746564,-0.2645284,123.0858292,63.01266939999999,34.8041254,56.42735128069388,0.8086315267837386,13.414589867923018,0.9457568188902896,87.82001319999999,125.4313386,135.9013024
5756.062,5.391357000000001,-35.8697532,14.283541199999998,0.8205092,0.1100281999999999,0.0810726,35.7129488,-63.1700478,-101.4803176,-2.841290599999998,-8.400321399999997,4.656443600000003,-0.834191,0.3792672,-0.2643862,122.6741792,63.0032456,34.4004144,38.98365650041639,0.83181387254039,10.016027101447325,0.9537391132942384,86.9612304,126.1732934,135.88073200000002
5776.048,3.0301641999999998,-19.6705756,6.475679,0.8198335999999999,0.102521,0.060634,36.0118242,-63.5656884,-101.747949,8.162308800000002,-17.707173199999996,8.731263400000003,-0.8377328,0.3809126,-0.264602,122.0906848,63.02211079999999,33.5557836,20.929592877677244,0.82844080602416,21.363572459715986,0.9575514980608616,86.0788606,126.5877992,135.30373260000002
5796.034,2.7296962,-3.679168600000001,-1.3458848000000003,0.8219526000000001,0.0992769999999999,0.0676601999999999,36.1940706,-63.6095558,-101.8906172,17.7870896,-26.6878824,11.736028400000004,-0.8432028,0.3764266,-0.2653036,121.3442186,63.0810868,32.310067,4.774822386894767,0.8306864041500861,34.15198363258369,0.9607673741798064,85.150148,126.6906426,134.2006842
5816.021,3.8265694,12.251452,-9.2133046,0.8147972000000001,0.0935894,0.0850068,36.280168200000006,-63.3029074,-101.9006148,26.844027000000004,-33.82509259999999,13.673505000000002,-0.8483183999999999,0.3857604,-0.2545594,120.4821916,63.1721566,30.7344554,15.799547181286606,0.8245481241058281,45.29573284494168,0.9660515939198484,84.2020234,126.475064,132.6350702
5836.007,4.5384122,28.435055,-17.172643599999997,0.8118866,0.1017528,0.106759,36.2657882,-62.64450059999999,-101.7793914,34.31486500000001,-38.2929226,14.8765958,-0.8498576,0.384396,-0.2412637999999999,119.5809784,63.2835138,28.9495238,33.52684337009308,0.8251732955254915,53.52729195293177,0.963445092511348,83.31519019999999,125.9280144,130.7289152
5855.993,5.3805104,44.673796800000005,-25.2663542,0.7919486,0.1136544,0.1238821999999999,36.1624724,-61.6280998,-101.5365952,39.3911926,-40.5608842,15.925127800000002,-0.8547878000000001,0.374229,-0.2300418,118.6756454,63.395546,27.047146,51.6051031125029,0.8095966323782233,58.740625439149326,0.9610560635140284,82.51317300000001,125.0236458,128.58374120000002
5875.98,6.776664800000001,59.8545676,-33.0263772,0.7788752000000001,0.12652,0.1569307999999999,36.0096998,-60.2743438,-101.2020662,43.5600838,-41.3707428,15.806387400000002,-0.8693826,0.3735538,-0.2104246,117.80269760000002,63.5121506,25.0926034,68.69668142895411,0.804537857135188,62.119732316918856,0.9693539389523108,81.7929978,123.7864944,126.2946696
5895.966,6.7798110000000005,74.417981,-39.575222,0.7548610000000001,0.1507127999999999,0.1803136,35.774301,-58.6070428,-100.7662004,47.540274800000006,-39.3342476,14.224754800000005,-0.8755364,0.3754132,-0.1855956,117.075975,63.6309006,23.2196138,84.55885482704555,0.7905962760788848,63.32143721866825,0.9705383996517396,81.301674,122.2379434,123.9858142
5915.952,5.472562600000001,88.854155,-45.543485200000006,0.7360332,0.1798052,0.2064967999999999,35.44962,-56.6469264,-100.2426958,48.8368286,-37.7678902,13.517362200000004,-0.8803333999999999,0.3699872,-0.1619792,116.4150406,63.7462624,21.3968188,99.99609415540972,0.78531249185246,63.19943384802608,0.9685632062762036,80.9654206,120.3931888,121.63951459999998
5935.939,4.972998800000001,102.1715056,-50.4796522,0.7084892,0.1834226,0.2257478,35.0589806,-54.413246400000006,-99.6380906,48.4094094,-36.0767334,14.152035400000004,-0.8888467999999999,0.3851826,-0.1415942,115.762758,63.82604819999999,19.6002078,114.0699020770536,0.7658739229874849,62.01033556782561,0.9790113312350578,80.7037774,118.23929460000002,119.2382984
5955.925,5.8506296,114.1335724,-53.6734182,0.679507,0.2122776,0.2425945999999999,34.640095599999995,-51.9440912,-98.9557816,44.9311642,-33.6788726,13.483417800000003,-0.8916876,0.4155812,-0.1327421999999999,115.1149506,63.8766616,17.891683399999998,126.25980372539208,0.7520928682416287,57.748407177546895,0.992690788437185,80.474855,115.8207528,116.847465
5975.911,4.4052352,125.85080560000002,-56.18082939999999,0.6493806,0.2429793999999999,0.2759288,34.1550554,-49.2541628,-98.1996552,39.5271756,-29.1542548,14.083380000000002,-0.8934094,0.4492295999999999,-0.1331528,114.5045304,63.8550948,16.348121,137.8916856065231,0.746237800670912,51.09510520667276,1.008819734973677,80.34947500000001,113.1092576,114.5477762
5995.898,-0.5988171999999998,137.0724912,-57.7518188,0.6281628,0.2818362,0.3487135999999999,33.5414392,-46.3542016,-97.3735306,31.721519200000007,-24.1224832,14.385569200000004,-0.8947678,0.4569873999999999,-0.14251,113.9331802,63.775665200000006,15.0192796,148.74306370557628,0.771765069019867,42.368544668164375,1.014768939106632,80.391741,110.12986680000002,112.3928102
6015.884,-12.2786076,148.63727400000002,-59.060923,0.590797,0.318555,0.40958,32.6894498,-43.2186706,-96.4958618,26.767082,-19.676997,13.021016000000005,-0.9031732,0.4737106,-0.1457696,113.454312,63.674308,13.903079,160.41195732350437,0.7863041139622761,35.68203676088276,1.0302292647924345,80.76486220000001,106.8929786,110.3989408
6035.87,-20.293943,157.9714934,-61.100319,0.528906,0.3170126,0.4163294,31.7238492,-39.8937744,-95.6399948,24.0799134,-14.845846999999996,8.960134600000002,-0.9053212,0.4865336,-0.1582657999999999,113.1824202,63.5992966,13.074546800000002,170.58747266846785,0.7440219853600565,29.673648487319955,1.039889168396344,81.45857099999999,103.493071,108.7145416
6055.856,-22.4707638,164.095593,-62.302231000000006,0.4758032,0.3423868,0.5090244,30.781938000000004,-36.433750200000006,-94.8355224,18.9790704,-9.361453799999996,5.651157600000003,-0.9006272,0.4542386,-0.1622254,113.0907088,63.553547,12.5555184,176.9572458402153,0.7763525267169806,21.90382415738696,1.0216550981201826,82.3087708,99.9872972,107.3910408
6075.843,-25.4721046,169.0093198,-63.1181298,0.4148206000000001,0.3752792,0.6108306000000001,29.846187800000003,-32.8677048,-94.0860962,15.318558200000002,-8.017889199999997,1.3632752000000028,-0.9171816,0.399337,-0.1481658,113.05756979999998,63.5903482,12.1806972,182.20010044306144,0.8282660381986939,17.343681610926758,1.0112592304830643,83.211382,96.458053,106.2667934
6095.829,-26.1490794,172.55339640000005,-64.4208694,0.3227074,0.3737608,0.6029902,28.9795576,-29.219494200000003,-93.4182404,17.731948600000003,-7.846953999999997,-2.909514199999997,-0.9340554,0.4057638,-0.1322438,113.124469,63.70798500000001,11.8684762,186.03359206577423,0.7793807688976165,19.607701576451017,1.0269333835736572,84.1449114,92.9274792,105.2867166
6115.816,-14.420621,172.49987460000003,-64.9895736,0.234078,0.3524698,0.5986102000000001,28.421004600000003,-25.5667164,-92.8352692,18.3361844,-7.105980999999997,-5.0167949999999975,-0.927715,0.3986074,-0.1416668,113.2754074,63.85749439999999,11.6342096,184.8994476026124,0.7330495491711868,20.294798752271216,1.0196138792611644,84.8544028,89.4242108,104.4694788
6135.802,-1.8547938,171.80451340000002,-62.998786800000005,0.1852348,0.4127714,0.7737168000000001,28.1543824,-21.9340438,-92.2667328,14.433847000000004,-9.129851399999996,-5.190741799999998,-0.924167,0.3737854,-0.1299214,113.2705002,64.0375016,11.3142278,183.00021372370895,0.8962866987695624,17.850320059868906,1.00532568818275,85.11611780000001,85.97154540000001,103.5809606
6155.788,-2.0233744,174.0616698,-61.371475800000006,0.1257058,0.4315982,0.8262560000000001,27.9147968,-18.2747154,-91.677266,12.918907800000005,-11.086605599999997,-5.718528199999996,-0.9331848,0.3717416,-0.1353706,113.1767854,64.2426736,10.9276668,184.57523392751477,0.9406263508603616,17.958634893806586,1.0135831921781062,85.26198860000001,82.51738900000001,102.6049328
6175.775,-0.272258,175.1287078,-59.128659000000006,0.0295506,0.4204161999999999,0.7684482,27.74137,-14.6154122,-91.0632888,15.595085400000002,-8.925572799999996,-6.710447199999997,-0.9188628,0.3816482,-0.1681458,113.2606264,64.449495,10.6736348,184.8413826372618,0.8764334859337815,19.1807883066724,1.0090774023060471,85.5192564,79.06490720000001,101.7369236
6195.761,9.5144794,174.096646,-56.8663284,-0.0538255999999999,0.437772,0.7918132,27.7943152,-10.99481,-90.4317306,17.386491600000006,-4.715484399999998,-8.078617199999997,-0.8979628,0.3855112,-0.1862208,113.58371900000002,64.63507999999999,10.6416466,183.39560183493765,0.9063717023901398,19.743098519423185,0.9948036297993288,85.7894038,75.62989,101.0733772
6215.747,11.3785976,174.1821196,-54.08545300000001,-0.0978149999999999,0.5138556,0.9338852,27.9142002,-7.390389600000001,-89.74909519999999,14.2357184,-1.6209273999999971,-9.298497199999996,-0.8913654,0.3807124,-0.1886606,113.9885286,64.81541899999999,10.769522,182.74057977884013,1.070400354379332,17.080548415626975,0.9874548241936336,86.0743284,72.2058086,100.5186172
6235.734,2.7436386000000006,176.4300108,-52.64059,-0.1651909999999999,0.5124396,0.9114828,27.9005906,-3.759865,-89.021956,11.675322400000002,1.3699752000000025,-7.903139999999996,-0.907486,0.3503993999999999,-0.2169958,114.4620744,64.9480042,11.0245984,184.1361126428046,1.0586233063866484,14.16508408207155,0.9966934117039202,86.56148379999999,68.70786919999999,100.0465544
6255.72,6.9994456,174.2856596,-51.5372888,-0.2771688,0.4714502,0.8182582,28.01866,-0.1866191999999998,-88.2974016,19.143395400000003,3.369345200000003,-7.041478599999996,-0.9274174,0.341022,-0.2316014,115.151445,65.0452806,11.3528426,181.8806628472885,0.9841922152916676,20.67376345496297,1.014907999174664,87.132785,65.2318998,99.6502442
6275.706,21.53639,168.932968,-50.718090800000006,-0.3303155999999999,0.518385,0.8603474,28.4691574,3.2829718,-87.5922732,25.076156800000003,2.8476112000000025,-8.592513199999997,-0.913159,0.3715804,-0.2071962,115.9230772,65.1615298,11.650942,177.69211717439288,1.0573689292366786,26.65996647591152,1.0074034039249615,87.4539198,61.878558,99.24321519999998
6295.693,23.0133664,166.84147339999998,-49.729074,-0.3492502,0.5700096,0.9743652,28.9914334,6.7057204,-86.8572558,18.520943400000004,0.3423246000000031,-6.935003399999997,-0.9050232,0.346637,-0.20013,116.43846720000002,65.2778002,11.8111594,175.60943334639236,1.1816404653122032,19.77970684099692,0.9895838616343944,87.4470338,58.5720798,98.6684152
6315.679,20.9792228,164.77883319999998,-49.020443,-0.4031102,0.5356018,0.8859994,29.5247346,10.077071800000002,-86.0936876,18.285874600000003,-2.009074399999997,-3.708530799999997,-0.9393944,0.325799,-0.2071652,116.8129804,65.37093380000002,11.8182546,173.19121078149925,1.111018477932586,18.7660009199139,1.0156398216116775,87.2882458,55.293862,97.9119422
6335.665,30.1617262,159.2803132,-47.8320984,-0.4818816,0.535443,0.7928673999999999,30.293919800000005,13.328921400000002,-85.3178132,22.374368600000004,-5.760350399999997,-4.840813799999997,-0.9417248,0.3696476000000001,-0.1906262,117.11532259999998,65.50953080000001,11.6615884,169.0202873556933,1.07123657361496,23.60566637961565,1.0294771951079054,86.82140279999999,52.1806094,96.9794016
6355.652,39.4821508,154.7997926,-46.67454,-0.4860097999999999,0.5902678,0.8289363999999999,31.3058794,16.4837298,-84.5036652,18.616998200000005,-7.826367799999997,-6.809927799999997,-0.888363,0.4017248,-0.1724975999999999,117.27109500000002,65.6834596,11.432095999999998,166.43415726649548,1.12772210967855,21.31243232390177,0.9901146684651227,85.9652156,49.1997298,95.9357612
6375.638,36.8828214,154.75876480000002,-45.401941,-0.4925421999999999,0.6137746,0.8934875999999999,32.3360098,19.6032494,-83.59494020000001,5.526775800000003,-8.733625399999998,-5.891783399999997,-0.8884532,0.367002,-0.1765716,117.13504,65.860347,11.1650526,165.44471597308117,1.190645694461522,11.89683046040021,0.9773520790998504,84.7990302,46.2570976,94.7599928
6395.624,34.4232912,153.4648622,-43.8256364,-0.5405503999999999,0.5877350000000001,0.8042298000000001,33.3993654,22.6692854,-82.59373620000001,1.550534600000003,-11.554301199999996,-5.9262973999999975,-0.9294282,0.3358846,-0.1838968,116.8116818,66.066089,10.778705,163.27006251291138,1.1333193443920386,13.07773048504079,1.0052229984051495,83.4123164,43.396803600000005,93.3724412
6415.611,39.4795318,149.6031404,-41.5644372,-0.6062491999999999,0.5907905999999999,0.7575529999999999,34.6474488,25.6176664,-81.5091766,0.6833662000000029,-15.225120399999998,-8.237906999999996,-0.927274,0.3475229999999999,-0.1761106,116.3475126,66.3382234,10.2605126,160.21028521428352,1.135983350827819,17.324387212783243,1.0057953320817112,81.7000638,40.72055700000001,91.7696892
6435.597,45.424619,145.0758302,-39.200122,-0.6384896,0.6029752,0.7485204000000001,36.102576600000006,28.4432898,-80.33809360000001,-1.529291799999997,-15.258315599999998,-10.286287799999997,-0.903936,0.3448962,-0.1924304,115.8906798,66.63697219999999,9.7954842,156.99376447594753,1.1539197763880122,18.465173843296988,0.9864497654288332,79.7881032,38.1936824,90.1335778
6455.583,47.4342534,141.7690492,-36.7632296,-0.6757365999999999,0.6309486,0.7634164,37.7029336,31.153808400000003,-79.05273279999999,-8.653077199999997,-16.0751648,-12.243084999999995,-0.9197314,0.3359652,-0.1896668,115.2945312,66.9838974,9.332695,153.94806513012676,1.198966508377311,21.981351157140995,0.9973725275839715,77.5915976,35.830089,88.3854278
6475.57,45.6409292,138.3442994,-34.221001,-0.7182225999999999,0.6198184,0.7174978000000001,39.378981,33.7438978,-77.64567259999998,-10.315538399999998,-15.981678999999996,-13.895967999999996,-0.9393412,0.31716,-0.1935676,114.7040498,67.3617188,8.910628800000001,149.64396581271913,1.1894627548326848,23.556789314291947,1.010158785234876,75.32506880000001,33.617821000000006,86.5563014
6495.556,46.670844,133.6065734,-32.0358678,-0.7651673999999999,0.6199779999999999,0.6658076,41.1924332,36.197186,-76.12917939999998,-8.403003599999996,-16.620949799999998,-15.319846999999996,-0.9380746,0.3347737999999999,-0.1809296,114.130852,67.7731612,8.467940800000001,145.1040349578915,1.1887613851082648,24.11564126991322,1.0123205878019867,72.9384188,31.5759752,84.59712019999999
6515.542,49.5415166,127.98327,-30.5400032,-0.788176,0.6216986,0.6337314000000001,43.1644326,38.5145524,-74.53150480000001,-9.100564799999995,-17.772779399999997,-15.804431399999997,-0.93372,0.3376846,-0.1646274,113.4528384,68.1951232,7.932764000000001,140.59434932591347,1.187158811433382,25.465113766825567,1.006462174305582,70.2884058,29.6805708,82.4642688
6535.529,51.067172,122.916899,-29.58929,-0.8029845999999999,0.6314808,0.6195522,45.2631614,40.7088356,-72.85713200000001,-12.103450799999996,-20.0424556,-14.967547999999995,-0.9484924,0.3346724,-0.1483146,112.5550218,68.617282,7.229195200000001,136.3522871042429,1.1947372920984094,27.78886541185688,1.0166812031077783,67.2918604,27.908446400000003,80.0863272
6555.515,50.95545940000001,118.2574798,-28.8995134,-0.8251448,0.6165106,0.5827752,47.4458442,42.7774406,-71.1105684,-11.550706199999995,-21.7639742,-14.215943999999997,-0.9593256,0.3310452,-0.1459299999999999,111.5510224,69.03633579999999,6.399631600000001,131.97148270012443,1.1834594182372458,28.446132434974704,1.0252765949529912,64.1051782,26.2588952,77.51020000000001
6575.501,52.5177686,113.3021866,-28.185698,-0.8459437999999999,0.609316,0.5356814,49.7583046,44.7120688,-69.285808,-11.825220999999996,-23.238857,-13.883731599999996,-0.9512762,0.3439127999999999,-0.1427944,110.4519104,69.4567628,5.473044,128.0231818024047,1.1721098339833174,29.540452425549077,1.0215638322501637,60.6936058,24.744694000000003,74.758852
6595.488,52.934991,109.1136674,-27.5765152,-0.8508089999999999,0.6163458,0.5170882000000001,52.18843919999999,46.5149642,-67.3662364,-12.962848599999996,-21.704517,-14.065746599999995,-0.9371746,0.3353089999999999,-0.1589688,109.4236312,69.8640368,4.6423844,124.3719014738608,1.1709561504334312,28.93037727796204,1.0079679735684066,57.235192000000005,23.3490726,72.00862079999999
6615.474,49.2233462,106.1828188,-27.1526066,-0.8595758,0.624526,0.4968054,54.666703000000005,48.2138312,-65.3340334,-14.458241599999996,-16.034461399999998,-16.080590799999996,-0.9188014,0.3025984,-0.1926968,108.6929686,70.2689546,4.158757199999999,120.14571513213882,1.172910433959388,26.92081170821387,0.9863538214326338,54.0262656,22.055123400000003,69.4927906
6635.46,42.4304018,103.0488816,-25.8993366,-0.8753475999999999,0.616273,0.472997,57.1136162,49.7960844,-63.19714220000001,-12.631469,-9.000384599999997,-17.639494799999998,-0.9158476,0.2811697999999999,-0.2095794,108.4233244,70.65887000000001,4.1226016,114.41235349489304,1.1703640430924729,23.48856549142806,0.980692004536674,51.3097082,20.8627856,67.3197438
6655.447,34.3326264,98.2402206,-23.907082,-0.8855858,0.6158214,0.437318,59.4761346,51.2332014,-60.9944802,-8.263516599999997,-1.7792507999999974,-17.770300199999998,-0.9264506,0.2736768,-0.2175078,108.648677,71.0035782,4.517057599999999,106.77742621365888,1.163935238311651,19.67828776102982,0.9902117693500924,49.1725424,19.7703768,65.51153780000001
6675.433,28.359713,91.1819334,-22.7344438,-0.8940914,0.617478,0.3801736,61.742117400000005,52.524678,-58.7955254,-2.640684199999997,5.061933400000003,-18.3158266,-0.9339766,0.280781,-0.2164408,109.3740478,71.3053832,5.3226672,98.1594276414638,1.1511778655685314,19.18504331064782,0.9989979375420152,47.6319304,18.780705200000003,64.1181926
6695.419,25.2266304,82.800656,-21.361409,-0.8966063999999999,0.6223194000000001,0.351937,63.904435,53.65487900000001,-56.6717978,1.598926400000003,13.208013600000005,-19.649083,-0.927027,0.2782748,-0.215008,110.6827118,71.5663604,6.6550108,89.15515301895803,1.1467537329812012,23.7296154969121,0.991485936918946,46.7782768,17.911481400000003,63.32680860000001
6715.406,21.655847,74.6174566,-19.972215,-0.8798093999999999,0.6255346,0.368737,65.92031180000001,54.6344392,-54.6591858,5.827613600000003,19.954524,-19.7954446,-0.9288558,0.279114,-0.1962818,112.502948,71.769101,8.4353734,80.2223778676905,1.1407563680709916,28.7054652505259,0.9895475062880408,46.5826362,17.1346618,63.094559200000006
6735.392,16.0604908,66.99988,-18.8038048,-0.8533524,0.6357062000000001,0.3943283999999999,67.748523,55.4869638,-52.769809,10.387974800000004,23.5152208,-19.2799402,-0.9446278,0.2862396,-0.1679946,114.5644562,71.92216820000002,10.3797294,71.41782942450567,1.1348249108786608,32.13396526782469,1.001237721407938,46.8159332,16.4352044,63.1495384
