Timestamp (ms),Wrist Gyroscope X (deg/s),Wrist Gyroscope Y (deg/s),Wrist Gyroscope Z (deg/s),Wrist Accelerometer X (g),Wrist Accelerometer Y (g),Wrist Accelerometer Z (g),Wrist Roll (deg),Wrist Pitch (deg),Wrist Yaw (deg),Arm Gyroscope X (deg/s),Arm Gyroscope Y (deg/s),Arm Gyroscope Z (deg/s),Arm Accelerometer X (g),Arm Accelerometer Y (g),Arm Accelerometer Z (g),Arm Roll (deg),Arm Pitch (deg),Arm Yaw (deg),Wrist Gyroscope Magnitude (deg/s),Wrist Accelerometer Magnitude (g),Arm Gyroscope Magnitude (deg/s),Arm Accelerometer Magnitude (g),Difference Roll (deg),Difference Pitch (deg),Difference Yaw (deg)
0.0,0.732789,0.621813,0.001021,-0.948607,-0.270064,0.154053,-61.401131,71.841652,160.549988,-0.462144,0.359739,-0.109364,-0.988868,-0.117973,0.070089,-60.641758,81.986725,-174.86261,0.9610578379738652,0.998259551095806,0.595776559922426,0.9983436372682504,0.7593729999999965,10.14507300000001,-335.412598
19.986,0.8433189999999999,0.6450585,0.019139,-0.9477725,-0.2717905,0.1513979999999999,-61.409361,71.845238,160.531319,-0.572792,0.389819,-0.1052505,-0.9902475,-0.121719,0.0683695,-60.6853945,81.9877435,-174.8995135,1.0619104037084532,0.9975290181495974,0.7008046773354542,1.000040006573487,0.7239664999999995,10.142505500000006,-335.4308325
39.971,1.0147243333333331,0.6938943333333333,0.031722,-0.94614,-0.272141,0.148155,-61.420489,71.84977500000001,160.507055,-0.3623673333333333,0.237959,-0.010906,-0.9887063333333334,-0.1256913333333333,0.0687633333333333,-60.69973133333334,81.986997,-174.91186033333335,1.2296995989976125,0.9955860221527822,0.433651370093663,0.9990329928784468,0.7207576666666663,10.137222000000005,-335.41891533333336
59.957,1.266424,0.7075045,0.0861375,-0.9465635,-0.2726035,0.14793625,-61.42496675,71.8549865,160.4849895,0.148424,0.3128952499999999,-0.02217225,-0.9887565,-0.1277755,0.067129,-60.72770425,81.986805,-174.94723525,1.4532074986740535,0.9960824573340114,0.3470226648486017,0.9992358567092656,0.6972625000000008,10.1318185,-335.43222475
79.942,1.6142268000000002,0.6859033999999999,0.1447764,-0.9463468,-0.2718216,0.148397,-61.4186684,71.8608844,160.465375,0.7238036,0.3132916,0.0673435999999999,-0.9889428,-0.1269928,0.0669052,-60.7369104,81.98893580000001,-174.9729372,1.7598726777715372,0.9957313481586284,0.7915670776784998,0.999305428140326,0.6817580000000006,10.1280514,-335.43831220000004
99.928,2.2347868,0.6865626,0.2071584,-0.9459314,-0.2726022,0.146334,-61.4086196,71.87188139999999,160.4229738,1.4686385999999998,0.3030179999999999,0.1893154,-0.9888376,-0.1265266,0.0675344,-60.7452364,81.9938918,-175.0106324,2.347031070919931,0.9952445993356608,1.51147595627953,0.999184504916224,0.6633832000000013,10.1220104,-335.43360620000004
119.913,3.2134232,0.7006252,0.2655198,-0.9459398,-0.2729122,0.145171,-61.3803984,71.8840808,160.3787172,2.2910286,0.3190449999999999,0.259413,-0.9886502,-0.125918,0.068945,-60.72808619999999,82.0000822,-175.0393646,3.2996159014899478,0.9951672187998758,2.327637614108339,0.9990185051884876,0.6523122000000015,10.116001399999998,-335.41808180000004
139.899,4.7829514,0.7562447999999999,0.263637,-0.9462368,-0.2754582,0.1467379999999999,-61.3239332,71.8951006,160.33214420000002,3.2102788,0.6152865999999999,0.2999692,-0.9882962,-0.1263275999999999,0.0695052,-60.72517259999999,82.009471,-175.1009766,4.849539644137162,0.9963801193648336,3.2824455966272525,0.9987587367744224,0.5987606000000014,10.1143704,-335.4331208
159.885,7.1528030000000005,0.927421,0.3589702,-0.9460848,-0.2741228,0.1485442,-61.2230544,71.9094804,160.283899,4.2434702,1.1827162000000002,0.392865,-0.9887314,-0.1263546,0.0706462,-60.76137239999999,82.0256972,-175.2228332,7.221603705032425,0.9961351000865896,4.422691471972184,0.999272811529244,0.4616820000000004,10.116216799999998,-335.50673220000004
179.87,8.9902658,1.1073376,0.3534099999999999,-0.948356,-0.2729972,0.1511808,-61.0910704,71.92561800000001,160.23203440000003,4.69153,2.0379348,0.4205206,-0.9899188,-0.1232945999999999,0.0713842,-60.88413860000001,82.0519836,-175.4410308,9.06509648835154,0.9983797915785756,5.132296714432575,1.0001182395058297,0.2069318000000009,10.126365599999996,-335.6730652
199.855,10.5796316,1.249896,0.3920808,-0.9507988,-0.2737888,0.1519102,-60.9346458,71.94355780000001,160.1759034,4.4953856000000005,2.8870448000000004,0.301623,-0.9912326,-0.1223168,0.0706338,-61.1254692,82.0849014,-175.7746002,10.660420824538928,1.001027159447195,5.351120985739661,1.001245524617933,-0.1908233999999979,10.1413436,-335.9505036
219.841,12.428307,1.3583380000000005,0.4638964,-0.9521622,-0.2736232,0.1580208,-60.736573,71.9623656,160.1226592,4.0855856,4.487471,0.2278734,-0.9893296,-0.1253262,0.068267,-61.5967888,82.130092,-176.331134,12.510919106061952,1.003221353400993,6.073000243470761,0.9995699560969206,-0.8602157999999989,10.167726399999998,-336.4537932
239.826,14.3403362,1.2721102,0.6266742,-0.955981,-0.2669538,0.1674146,-60.4719934,71.98430019999999,160.0939758,3.2074548,7.666499,-0.09994,-0.9896364,-0.125141,0.0612486,-62.547364,82.1984804,-105.3518066,14.41028199734204,1.006574215837362,8.311014451596389,0.9993957499849196,-2.075370599999998,10.214180199999998,-265.4457824
259.812,15.2814864,0.717736,0.573088,-0.9579484,-0.2648288,0.1670844,-60.16192639999999,72.0010284,160.0914488,1.5971436,9.7812362,-0.2706074,-0.9938844,-0.1189815999999999,0.0567412,-63.8325906,82.28362299999999,-34.67665720000001,15.309062721630772,1.0078276772818655,9.914468096884782,1.0025878442706952,-3.670664199999999,10.2825946,-194.768106
279.797,16.1810334,0.0899751999999999,0.400276,-0.9555866,-0.2677412,0.1617574,-59.8203316,72.0080062,160.10557239999997,0.3307843999999999,10.6684696,-0.1842672,-0.9941128,-0.1167116,0.054852,-65.2678764,82.3762576,35.87312,16.186233604662533,1.0054832453759537,10.67518694573558,1.002442316845413,-5.4475448,10.3682514,-124.2324524
299.783,17.133815,-0.4157088,0.2570926,-0.952076,-0.2663694,0.1655753999999999,-59.433576200000005,72.0063308,160.1481506,-0.4094516,11.2612676,-0.3419755999999999,-0.9925134,-0.1234472,0.0522298,-66.8310426,82.4641208,106.3093474,17.140785479831347,1.0024053970911768,11.273896659210058,1.0015238451357211,-7.397466400000001,10.457789999999996,-53.83880320000001
319.768,17.443628,-0.9845176,0.1139606,-0.9486104,-0.2651228,0.1800858,-58.9953514,71.9921966,160.24016120000002,-0.5481444,12.865883000000002,-0.53344,-0.9868012,-0.1317518,0.0467353999999999,-68.6824326,82.54932579999999,176.4588834,17.471760636107803,1.0012905100067813,12.888598290215286,0.9966540737577106,-9.6870812,10.557129199999997,16.218722200000002
339.754,17.3518136,-2.0479994,0.2021204,-0.9463148,-0.258762,0.1858936,-58.490070200000005,71.9690092,160.40939039999998,0.2770126,14.303864,-0.4532348,-0.9851114,-0.1303914,0.0385948,-70.7948334,82.6333314,174.3299284,17.47342523398436,0.9985118446287956,14.313723592936457,0.9944525861955208,-12.3047632,10.664322199999996,13.920538
359.739,17.0242246,-3.1582296,0.0586904,-0.946171,-0.2614052,0.1829614,-57.9517218,71.9310056,160.62589440000002,0.8408550000000001,15.9134144,-0.3921376,-0.9829302,-0.1171349999999999,0.038537,-73.1559584,82.721782,171.9394378,17.31479373254598,0.998522465304612,15.940438102338533,0.9906348906968904,-15.204236599999998,10.790776399999997,11.313543399999997
379.725,17.707303399999997,-4.168940399999999,0.014095,-0.9455222,-0.2641951999999999,0.195983,-57.3396208,71.876129,160.9040682,-1.8593916,18.3377714,-1.0284546,-0.9818196,-0.1111622,0.03448,-75.9982132,82.801268,169.1194152,18.191450091387125,1.0011097196036407,18.46046900555535,0.9886939021016564,-18.6585924,10.925138999999996,8.215347000000003
399.71,19.0582444,-5.6905518,0.1328434,-0.9464288,-0.2609152,0.2168486,-56.594502,71.8016278,161.29164140000003,-5.526994,21.9731488,-1.7922699999999998,-0.9764288,-0.119666,0.0200632,-79.5498778,82.8584594,165.65978679999998,19.890115805785,1.0053991895672283,22.728377914314024,0.9839388624399792,-22.955375799999995,11.056831599999995,4.368145399999998
419.696,18.692823,-8.273575,0.3342932,-0.9508876,-0.257196,0.22741,-55.717096600000005,71.699478,161.82478659999998,-7.705699,25.4210294,-2.6532534,-0.9820824,-0.1228095999999999,0.0024529999999999,-83.7371062,82.873886,161.6038268,20.44469190116398,1.0109660322432994,26.695435685503934,0.9897343357946716,-28.0200096,11.174407999999996,-0.2209598000000028
439.681,18.089389,-11.3222746,0.2915866,-0.95334,-0.2775412,0.228579,-54.7426734,71.5507202,162.4753694,-10.1790828,26.5726964,-3.4022910000000004,-0.9863964,-0.1133072,-0.0099716,-88.1643462,82.8392104,157.35452560000002,21.342561215946542,1.0188889206083458,28.658288585756647,0.9929329344479212,-33.4216728,11.288490199999998,-5.120843800000006
459.667,20.6618638,-15.0056596,0.5906794,-0.9582268,-0.2696618,0.2596702,-53.5065794,71.35459599999999,163.3447876,-13.3561814,27.7730542,-4.2659044,-0.9787514,-0.1231246,-0.0342132,-92.8686158,82.7415662,152.8891386,25.54273552058211,1.0287588149734224,31.111542255821764,0.987058515581199,-39.3620364,11.3869702,-10.455649
479.652,21.0264234,-20.590799800000003,0.1673702,-0.969967,-0.2522346,0.2820854,-52.0163596,71.0809692,164.47619020000002,-13.9485404,30.4582134,-4.337561600000001,-0.9666192,-0.1376536,-0.0778977999999999,-98.0061218,82.57888919999999,147.9982604,29.42990876954252,1.041167828651712,33.77986061907548,0.9794739703771816,-45.9897622,11.49792,-16.477929800000005
499.638,18.862728,-28.1931498,-1.0864462,-0.9841884,-0.248534,0.2803016,-50.3412246,70.6891816,165.85876159999998,-12.825002799999998,33.1924358,-4.4255442,-0.9686916,-0.1265218,-0.1151196,-103.3512924,82.3498944,142.8723968,33.9387178395519,1.053074044316505,35.85810832466324,0.98367865895828,-53.0100678,11.660712800000002,-22.9863648
519.623,17.740876800000002,-37.1596192,-2.1061398,-1.0047994,-0.25966,0.2896074,-48.44765460000001,70.150122,167.5046386,-14.3147558,33.8432642,-4.2577272,-0.9780026,-0.1048888,-0.133515,-108.5174226,82.06928979999999,137.9524718,41.23119975915,1.0774588604559896,36.99198570277426,0.9926313521127568,-60.069768,11.919167800000002,-29.5521668
539.609,18.3688168,-47.1618082,-2.8913634,-1.017879,-0.260775,0.3447409999999999,-46.27660519999999,69.4436628,169.4405426,-18.7795644,34.3033518,-3.9327070000000006,-0.9859908,-0.1218664,-0.1412624,-113.4841676,81.7327894,133.31815319999998,50.695261767115966,1.1058605772641503,39.30468379361625,1.003486094964629,-67.2075624,12.289126600000005,-36.1223894
559.594,17.5749862,-57.86953900000001,-3.6543912,-1.0240732,-0.2782824,0.3963025999999999,-43.9283898,68.551457,171.6014466,-20.729561800000003,34.1524554,-3.7501022,-1.0027316,-0.1516986,-0.1403945999999999,-118.08051,81.3505294,129.0909666,60.58975374636664,1.13279422839047,40.12690131046071,1.023813347534442,-74.1521202,12.799072400000004,-42.51048000000001
579.58,19.533745,-68.5272346,-3.4335078,-1.0280392,-0.2843684,0.4474465999999999,-41.379187,67.46854379999999,173.9570954,-19.190509,31.8076466,-4.0567664,-1.0186396,-0.1501964,-0.1276518,-121.951973,80.95388940000001,125.5595076,71.33959665894616,1.1566928907479117,37.36923027751229,1.037535818805481,-80.572786,13.485345600000002,-48.39758780000001
599.565,22.457625,-79.0827994,-3.3771198,-1.0277296,-0.2919702,0.508701,-38.67296,66.1746816,104.433957,-17.794759600000003,28.19049900000001,-3.8832596,-1.0226001999999998,-0.1449638,-0.1117799999999999,-125.0408586,80.5759582,122.7869018,82.27903147050782,1.1833222028700383,33.562440438856434,1.0388553512161738,-86.3678986,14.4012766,18.3529448
619.551,26.0300164,-89.3458496,-3.9304942,-1.0187976,-0.291174,0.562037,-35.9082436,64.6615462,34.92425540000001,-17.0110682,24.700135000000003,-4.1767122,-1.0195842,-0.1580155999999999,-0.1029438,-127.4461198,80.2110626,120.686879,93.14339149497576,1.1994233770486382,30.2806544698906,1.036879113827374,-91.5378762,15.549516399999998,85.7626236
639.536,27.7961482,-99.676419,-4.886385,-1.0206072,-0.2842527999999999,0.6015734,-33.1851466,62.9153374,-34.647302399999994,-14.3766596,21.9392448,-5.1812228,-1.0103616,-0.1520814,-0.1131022,-129.3236222,79.851419,119.0674684,103.59484117362288,1.2183305243599702,26.73693836907732,1.027984154851309,-96.1384756,16.9360816,153.7147708
659.522,28.4408168,-110.5456924,-6.031665199999999,-1.0275942,-0.2779078,0.6313844,-30.5661922,60.9192802,-104.3253084,-12.9647774,20.2615092,-6.0816102,-1.001886,-0.1413863999999999,-0.1270482,-130.8808716,79.49328600000001,117.7443178,114.30490432842971,1.2376707339748485,24.811291597133337,1.019758263621433,-100.3146794,18.5740058,222.0696262
679.508,27.4945544,-121.772728,-7.6090058,-1.034009,-0.2876224,0.6689421999999999,-28.1375104,58.6682908,-174.1636202,-13.5170416,19.8130358,-7.3034734,-0.9968978,-0.1499845999999999,-0.1400674,-132.22564400000002,79.1109786,116.6469636,125.06975963629648,1.2646679105613456,25.072046684160423,1.0178012971227537,-104.0881336,20.442687800000005,290.8105838
699.493,28.3425306,-132.5235154,-8.2862876,-1.0366968,-0.2873502,0.70636,-25.868892,56.1898034,-172.1626254,-14.4024194,20.2758524,-8.5088492,-0.9979996,-0.1569915999999999,-0.1456388,-133.4335084,78.6980774,115.704953,135.7735016009232,1.2869556488746146,26.285744992836378,1.0207155451623924,-107.5646164,22.508274000000007,287.8675784
719.479,28.890274999999995,-142.8912948,-8.810944799999998,-1.0312515999999998,-0.2702634,0.7413095999999999,-23.7617636,53.4957664,-170.3209902,-14.8238394,22.0928542,-9.153305,-0.9910206,-0.1560174,-0.1551104,-134.6550934,78.2460328,114.7560242,146.04863185755892,1.2984845362707558,28.135803057358697,1.0151465386412348,-110.8933298,24.750266400000008,285.0770144
739.464,27.9660522,-153.1604308,-9.2650836,-1.0200694,-0.255426,0.7714386,-21.8484176,50.5913344,-168.6348116,-15.124294799999998,25.376519,-9.9853308,-0.9781568,-0.1577844,-0.1600654,-135.939505,77.7307068,113.7465606,155.96813588874397,1.3041861584384034,31.18363097748716,1.0036471364711603,-114.0910874,27.139372400000003,282.38137220000004
759.449,23.8111416,-163.36133420000002,-9.680427,-1.0024194000000002,-0.2452994,0.8088708,-20.1836436,47.4776398,-167.0935,-14.9517282,29.6449342,-11.4286736,-0.9716492,-0.1579133999999999,-0.1677554,-137.28642580000002,77.1299516,112.6669722,165.37111792208964,1.3112163895518392,35.1139698716101,0.9985893470237704,-117.1027822,29.6523118,279.7604722
779.435,19.7667398,-172.3328156,-10.334478,-0.9675836,-0.2433672,0.8299654000000001,-18.764594,44.1813644,-165.6978824,-15.0970748,34.5730264,-12.1543128,-0.9749882,-0.1615387999999999,-0.1689154,-138.7353272,76.44542700000001,111.48150919999998,173.7703218920797,1.2978012876484444,39.63512509898431,1.0026111840598229,-119.9707332,32.2640626,277.17939160000003
799.421,13.710389799999998,-180.2822998,-11.831765,-0.926141,-0.239311,0.8541755999999999,-17.625750999999998,40.7188072,-164.45077840000002,-13.3665874,39.2773848,-12.7067752,-0.9726916,-0.1712808,-0.1751974,-140.2161376,75.6764496,110.2225706,181.18960531073583,1.2824285018032622,43.39171293498846,1.0030753661245797,-122.59038660000002,34.9576424,274.673349
819.406,6.593030599999999,-187.2714418,-13.6014204,-0.8706744000000001,-0.2414242,0.8788541999999999,-16.7738804,37.1062268,-163.3390536,-9.2848728,42.0985948,-12.6073722,-0.9766016,-0.1869624,-0.1799046,-141.5994414,74.85910040000002,108.9735868,187.88043965043528,1.260453989647635,44.915992484148674,1.0104807218534553,-124.82556100000002,37.7528736,272.3126404
839.392,-1.2175580000000004,-192.8642488,-15.0682884,-0.8013854,-0.249253,0.8965664,-16.204722999999998,33.3741436,-162.337494,-4.1287948000000005,43.041157600000005,-12.3298084,-0.9957522,-0.1921524,-0.1707696,-142.788089,74.0372942,107.81338019999998,193.4558198348585,1.2280785508065517,44.962343902751066,1.0284003330001212,-126.58336600000004,40.66315060000001,270.1508742
859.377,-6.1353086,-195.9890626,-18.4265004,-0.7273250000000001,-0.2560166,0.8994712,-15.864076,29.5663596,-161.47273560000002,-0.5867806000000002,41.0397472,-11.473841,-1.0072228,-0.1986397999999999,-0.1593962,-143.753418,73.26440740000001,106.80685859999998,196.94895426844784,1.1847339763550295,42.61753382125397,1.0389238122010294,-127.889342,43.6980478,268.2795942
879.362,-11.6804704,-198.2216766,-21.6311112,-0.6550316,-0.2501324,0.9025654,-15.732474,25.6959898,-160.71436160000002,1.2393794,34.8785362,-11.651621600000002,-1.0079694,-0.1960259999999999,-0.1536534,-144.36199340000002,72.5974062,106.1325606,199.74025992430023,1.1429159705794123,36.79413859110499,1.0382860257866904,-128.6295194,46.9014164,266.8469222
899.348,-18.552836000000003,-199.7471008,-24.5192482,-0.5817858,-0.250236,0.9119826,-15.813905,21.7755812,-160.0341156,-0.2665873999999998,26.2301424,-13.298665,-1.0177202,-0.1989494,-0.1457136,-144.54798580000002,72.060042,105.9310622,202.0997415484281,1.1103175381306016,29.40996310688508,1.047171295669128,-128.7340808,50.2844608,265.96517780000005
919.334,-25.865887200000003,-199.6346252,-27.090282,-0.5217107999999999,-0.2506872,0.9005151999999998,-16.1108,17.8366376,-159.4154938,-5.305885999999999,16.211257600000003,-16.490237,-1.0304102,-0.2003816,-0.1504854,-144.3111024,71.65032060000001,106.2807768,203.1179733017911,1.0704923430419853,23.725202117889804,1.0604451053664965,-128.2003024,53.81368299999999,265.6962706
939.319,-31.3056504,-198.0759124,-30.7854694,-0.4520556,-0.2603038,0.8720826,-16.584065,13.9049926,-158.8687256,-10.7405266,5.2867416,-19.9401682,-1.0350538,-0.200001,-0.1579385999999999,-143.646344,71.37440039999998,107.1978652,202.8838484114441,1.0161891531641931,23.25766231233847,1.0659649948593055,-127.062279,57.4694078,266.0665908
959.305,-38.3616372,-196.0455198,-32.669161200000005,-0.3818882,-0.2609693999999999,0.8647217999999999,-17.2391056,9.9999976,-158.3409364,-16.814048399999997,-3.6318924,-23.7079284,-1.0278034,-0.2049745999999999,-0.1711978,-142.6360198,71.187552,108.6096664,202.41723033335924,0.9806566251399312,29.29110334252103,1.0619336619683737,-125.3969142,61.1875544,266.9506028
979.29,-43.3285112,-193.236917,-34.2752914,-0.3149616,-0.2767795999999999,0.8518011999999999,-18.031964,6.134822399999999,-157.8182678,-20.8327578,-9.3548262,-27.4611866,-1.0182038,-0.222032,-0.1880138,-141.3593046,71.0242172,110.389563,200.97925657895223,0.9494066782850012,35.716009579258525,1.0589553231127742,-123.3273406,64.8893948,268.2078308
999.276,-43.54140700000001,-189.267752,-35.5459434,-0.2491423999999999,-0.2950126,0.8241072,-18.8683172,2.3365194,-157.29438480000002,-21.7245916,-12.852947599999998,-29.7289642,-1.0022296,-0.226798,-0.1969194,-139.9153624,70.86850580000001,112.3680864,197.43771210908304,0.9100862853204414,38.99958274905025,1.0462689682947306,-121.0470452,68.53198640000001,269.6624712
1019.261,-40.1843296,-185.0573058,-36.241839600000006,-0.1796597999999999,-0.3022566,0.8114000000000001,-19.6746882,-1.3807752,-156.758313,-20.9223158,-12.7031948,-32.321532000000005,-0.9787776,-0.2341702,-0.2098805999999999,-138.4046262,70.6521758,114.404114,192.80678855514472,0.884311402154015,40.543752754138346,1.028052109129766,-118.72993800000002,72.032951,271.16242700000004
1039.247,-38.2730624,-180.9833434,-36.0213464,-0.1311222,-0.3022626,0.8205805999999999,-20.4769436,-5.016496399999999,-156.1924866,-18.6395038,-9.150563600000002,-34.523278399999995,-0.9697374,-0.2535384,-0.2218506,-136.93987700000002,70.32793560000002,116.34541339999998,188.46043428312856,0.8842557502148118,40.286730663976265,1.0265914639980598,-116.4629334,75.34443200000001,272.53790000000004
1059.232,-34.8642864,-177.0826904,-35.9728754,-0.0819636,-0.3138126,0.8185214000000001,-21.2476422,-8.5804296,-155.5992248,-15.1384006,-3.2915948,-37.0569678,-0.9537594,-0.2405386,-0.2439222,-135.6304624,69.867842,118.0558626,184.0321859622045,0.8804394708903504,40.16496771545701,1.0134169185637074,-114.3828202,78.4482716,273.65508740000007
1079.218,-29.0558036,-172.9986938,-35.945975600000004,-0.0398395999999999,-0.3148863999999999,0.810087,-21.941324,-12.0606476,-154.98395999999997,-12.0191476,4.8377328,-37.7205062,-0.9517878,-0.2381829999999999,-0.2547553999999999,-134.62341299999997,69.27409200000001,119.3842042,179.0667499598508,0.8700468873584457,39.88358253290469,1.0136722702861116,-112.682089,81.3347396,274.3681642
1099.203,-23.912278200000003,-168.8363036,-35.9889254,0.0067698,-0.309147,0.8006027999999998,-22.569847600000003,-15.457429,-154.3533508,-9.8418632,15.2531742,-38.3720618,-0.942856,-0.2444983999999999,-0.2759542,-134.0082794,68.5108458,120.2533416,174.27764404384268,0.8582438704522624,42.44922521326012,1.0123772146962813,-111.4384318,83.9682748,274.60669240000004
1119.189,-22.633193800000004,-165.9470458,-36.2019984,0.0518035999999999,-0.3120784,0.796739,-23.2163152,-18.795439,-153.69992059999998,-6.141662800000001,24.8150912,-34.99338899999999,-0.9388942,-0.2496995999999999,-0.2850169999999999,-133.8150116,67.6614362,120.5916884,171.35130043127558,0.8572453411016708,43.33642863594717,1.0124756290019037,-110.5986964,86.4568752,274.291609
1139.174,-19.991056800000003,-163.9612732,-36.6555392,0.1109526,-0.3207252,0.7817527999999999,-23.8593198,-22.088509800000004,-153.0165802,-3.1375366000000007,35.965928,-31.1049362,-0.8857048000000001,-0.244589,-0.303605,-134.0976898,66.70189339999999,120.35278759999998,169.1938829136225,0.8522397395508143,47.6540572126193,0.9677152306794804,-110.23837,88.79040320000001,273.3693678
1159.16,-13.2068106,-161.7720704,-36.7184854,0.1684736,-0.3274663999999999,0.7473424,-24.4198704,-25.32988,-152.2981324,1.1335724000000005,46.7716012,-22.737069,-0.8859592,-0.2613368,-0.310783,-134.8674072,65.703529,119.4846296,166.41174771570917,0.8331496023306257,52.01770825313861,0.9745802687248908,-110.4475368,91.033409,271.782762
1179.145,-9.8794084,-159.5121736,-36.5638064,0.2326634,-0.318284,0.7035259999999999,-24.9694782,-28.515335400000005,-151.542035,5.0486144,55.6505052,-10.99274,-0.8801209999999999,-0.2698364,-0.3203864,-136.111737,64.73168539999999,117.9979902,163.94708956058724,0.8064649992600794,56.95004450465965,0.9747164216893648,-111.1422588,93.2470208,269.5400252
1199.131,-9.5729014,-157.77561659999998,-36.1157442,0.3050348,-0.3159084,0.6731955999999999,-25.5760534,-31.6575092,-150.733127,8.5014792,63.084244,2.8745756,-0.8591384,-0.274621,-0.336716,-137.80625,63.818848200000005,115.9207946,162.13923835347245,0.80376405882632,63.71938617500708,0.96276328796416,-112.2301966,95.4763574,266.6539216
1219.117,-5.383559,-154.6104006,-35.4132288,0.3731538,-0.3237176,0.61538,-26.176225,-34.7333778,-149.8667574,12.314794,71.35661560000001,12.1107866,-0.8410368,-0.2676672,-0.3550434,-139.8012268,62.878919,113.4091446,158.70556214336065,0.7891320468744126,73.41724520314925,0.9513382389001508,-113.6250018,97.6122968,263.275902
1239.102,-0.0095030000000001,-149.9417604,-34.2757046,0.4373556,-0.320377,0.5501232,-26.7456386,-37.71899560000001,-148.9469576,16.3566792,75.43655880000001,25.5030406,-0.8843444,-0.2756016,-0.3746444,-142.0595826,62.0149794,110.4894578,153.8094780173981,0.7723709459570577,81.2934218610757,0.9991895146493882,-115.313944,99.73397500000002,259.43641540000004
1259.088,3.4146092,-143.7986574,-32.6996396,0.4975025999999999,-0.308207,0.4795018,-27.3048146,-40.5809944,-147.9904878,20.8912382,77.71279480000001,31.403191000000003,-0.8630317999999999,-0.2772605999999999,-0.3889943999999999,-144.286081,61.14450359999999,107.4792314,147.50925345889723,0.7565859951512451,86.38218979707871,0.9864147055650376,-116.9812664,101.725498,255.4697192
1279.073,7.628188199999999,-135.8978838,-30.9895088,0.5582992,-0.3133166,0.4195108,-27.8179766,-43.28797,-147.02130440000002,24.5411858,77.6906786,30.848105999999994,-0.8377545999999999,-0.2609956,-0.4026332,-146.28678599999998,60.2275312,104.6233872,139.59503476914284,0.7654113925679705,87.11898177541939,0.9654351178524426,-118.4688094,103.5155012,251.6446916
1299.059,14.418249,-125.64673340000002,-29.013683200000003,0.6079904,-0.3008836,0.3507072,-28.208104,-45.7916038,-146.0726686,24.9271776,71.41961760000001,29.6466054,-0.8443590000000001,-0.2567622,-0.4179337999999999,-148.0100678,59.3646986,102.0576462,129.75662345771272,0.7636614481384798,81.24682869488188,0.9764925035105392,-119.8019638,105.1563024,248.1303148
1319.044,18.7785432,-113.2576906,-27.179499000000003,0.655302,-0.2893844,0.2934,-28.4744308,-48.0516074,-145.1989014,22.7764708,59.8004784,27.872394199999995,-0.8362344,-0.2550652,-0.427949,-149.4240632,58.6512832,99.8840668,117.97738482713794,0.7741108461760241,69.79781656622443,0.9733892205050352,-120.9496324,106.7028906,245.0829682
1339.03,22.835099000000003,-98.4729174,-24.759849600000003,0.6954248,-0.2718412,0.2365872,-28.5876686,-50.0202314,-144.43844,18.610218,46.0559114,20.4732446,-0.8035582,-0.2584316,-0.4318202,-150.3991944,58.070336,98.3021104,104.07404748457536,0.7832539777596537,53.72746907628912,0.948135727516815,-121.8115258,108.09056739999998,242.7405504
1359.015,25.0495178,-82.0914804,-21.928471,0.7403398,-0.2517239999999999,0.1927671999999999,-28.5650912,-51.671536,-143.815329,12.6410072,29.1061064,14.8823574,-0.8000876,-0.2650972,-0.4337232,-151.00976580000005,57.713874,97.27697,88.58525462329462,0.8053739411204461,35.04918051224461,0.947909545969361,-122.4446746,109.38541,241.092299
1379.001,24.8825038,-64.0032998,-18.0107006,0.7607156,-0.2390305999999999,0.1605566,-28.4389562,-52.9677236,-143.34113159999998,7.1771496,12.928227799999998,9.9562456,-0.7986538,-0.2804303999999999,-0.441997,-151.3074372,57.579325,96.7427598,70.99258212481452,0.8133893739306409,17.826311364861557,0.9549086079346022,-122.868481,110.5470486,240.0838914
1398.987,23.7416026,-44.080571,-13.3635478,0.7844412000000001,-0.2273634,0.1445494,-28.2065596,-53.8696226,-143.03594660000002,2.6997258000000004,-0.0172568000000005,3.558281,-0.7954646000000001,-0.2869974,-0.4418856,-151.3045716,57.6050582,96.6662476,51.82031303943708,0.8294194601993373,4.466562533682125,0.9541458593670468,-123.098012,111.4746808,239.70219420000004
1418.972,22.7128026,-22.997236999999995,-7.779175,0.790639,-0.2122696,0.1405502,-27.8640224,-54.3474334,-142.896408,-2.7151828,-11.0147456,-1.3070824,-0.795411,-0.2926486,-0.4428423999999999,-151.1016358,57.77130580000001,96.9535064,33.24544894058975,0.8306158980691376,11.419514117094694,0.9562589885803532,-123.2376134,112.1187392,239.84991440000005
1438.958,20.0321986,-1.3385654000000002,-1.6348455999999998,0.7860244000000001,-0.2023538,0.1529685999999999,-27.4495968,-54.3848976,-142.9132476,-8.6772578,-20.8312558,-6.1146756,-0.7970054,-0.2934647999999999,-0.4470376,-150.730246,58.057663000000005,97.5808988,20.143322918916788,0.8259423771400521,23.380018794387865,0.9597821691831744,-123.2806492,112.4425606,240.4941464
1458.943,16.771233000000002,20.3370976,5.1619364,0.7644588000000001,-0.2019638,0.1781444,-26.99686860000001,-53.9747064,-143.0587462,-14.4257308,-28.5195056,-10.326733,-0.7977133999999999,-0.2907658,-0.4565354,-150.2326996,58.4268906,98.4933332,26.861075602623583,0.8105072860000953,33.58727918774888,0.9640103684309416,-123.235831,112.401597,241.5520794
1478.929,13.8279948,40.6656148,11.8538546,0.7548568,-0.179952,0.2264972,-26.5238724,-53.1433328,-143.303549,-20.3513832,-35.9225352,-14.409659,-0.8020442000000001,-0.2823512,-0.4574128,-149.61089180000002,58.8770128,99.6904432,44.55804681680681,0.8083888250205342,43.729230565432566,0.965517254376596,-123.0870194,112.0203456,242.9939922
1498.914,9.7859814,58.7648268,18.52715,0.7222906,-0.1825222,0.273692,-26.0923798,-51.9411196,-143.6010924,-26.2845234,-42.2982566,-18.6320776,-0.8013680000000001,-0.269049,-0.4568207999999999,-148.869223,59.3847292,101.166052,62.38850525471535,0.7936783827251439,53.17116697475252,0.9608659007050048,-122.7768432,111.3258488,244.7671444
1518.9,7.4720342,74.4632752,23.9097038,0.6959672,-0.173061,0.3244148,-25.6657918,-50.4222368,-143.9507416,-30.781588,-48.042721,-21.7738534,-0.8077437999999999,-0.2561574,-0.4450039999999999,-147.9977538,59.9529,102.8930922,78.56388855193357,0.7871247776914916,61.07135083466122,0.9571286329586008,-122.331962,110.37513680000002,246.8438338
1538.885,5.3475622000000005,87.82472700000001,28.4392518,0.6681351999999999,-0.1756584,0.3681846,-25.2713186,-48.6325098,-144.3232604,-33.6518694,-52.15873739999999,-22.690088,-0.8155718000000001,-0.2418996,-0.4301424,-147.0435242,60.5752342,104.7766006,92.46929294123106,0.7828284733239842,66.08950215219176,0.9532550874310404,-121.7722056,109.207744,249.099861
1558.871,3.963766,99.0624802,31.814478599999997,0.639629,-0.1727242,0.4087066,-24.8961572,-46.622249,-144.7168824,-36.50511,-56.1763406,-21.2352628,-0.8262142000000001,-0.2249398,-0.4035634,-146.0585448,61.2795662,106.7522368,104.12131132898784,0.7784600129680393,70.28044312256698,0.9466209567325458,-121.16238760000002,107.90181520000002,251.4691192
1578.856,4.2715022,109.14074560000002,33.81730259999999,0.6087428000000001,-0.1988622,0.4447098,-24.5084932,-44.4134316,-145.1395968,-40.8770292,-59.6147744,-17.4186702,-0.8408544000000001,-0.2159274,-0.383673,-145.1391936,62.077018,108.7409438,114.33966081945712,0.7796670939296594,74.35228923521397,0.9491394707834672,-120.6307004,106.4904496,253.88054060000005
1598.842,7.0531846,118.438742,34.7262192,0.5738774,-0.2070076,0.4652504,-24.0463704,-42.015286200000006,-145.606592,-43.93474260000001,-62.8768334,-12.7889182,-0.8426982000000001,-0.2135266,-0.351761,-144.2558104,62.9738906,110.7399764,123.62602201587936,0.767232266910536,77.76447913067959,0.9378004405585444,-120.20944,104.9891768,256.3465684
1618.827,9.109765,126.7401306,36.17901619999999,0.5389573999999999,-0.2316666,0.4689252,-23.57094,-39.4466628,-146.07006840000005,-46.2685904,-64.893152,-7.0558174000000005,-0.8627238,-0.2331134,-0.330326,-143.4276274,63.9560158,112.7064574,132.11725752550325,0.7510228596822869,80.01055051229318,0.9527588774826504,-119.85668739999998,103.4026786,258.77652580000006
1638.813,10.139403,134.28065020000005,37.3589966,0.508873,-0.238556,0.507021,-23.0838286,-36.7205786,-146.54023139999998,-48.2406866,-65.7431512,-1.783732,-0.8876494000000001,-0.2524068,-0.3039472,-142.6568174,65.0041894,114.630316,139.7490434253129,0.7569220499536264,81.56290500707601,0.9716041119686764,-119.5729888,101.724768,261.17054740000003
1658.799,13.178598,141.9879334,38.506505,0.475904,-0.2805728,0.541522,-22.5572558,-33.8236276,-147.0097748,-49.1919394,-62.912137,2.575568,-0.8978221999999999,-0.2583938,-0.292382,-142.024182,66.04658739999999,116.406694,147.70578730626457,0.773596658343248,79.90254961115237,0.9789480540944344,-119.4669262,99.870215,263.4164688
1678.784,17.2392398,148.6555084,39.9056414,0.4263444,-0.282232,0.5576586,-21.9763304,-30.7795184,-147.4619994,-48.3494568,-60.8318116,6.3778118,-0.9034172,-0.2735602,-0.2605296,-141.4282408,67.094873,118.1036956,154.88096003734535,0.7565762112235093,77.96701712101842,0.9792208600494784,-119.4519104,97.8743914,265.565695
1698.769,17.0776994,154.4926056,41.6875306,0.3788174,-0.2890654,0.5697019999999999,-21.437118,-27.6021316,-147.8768614,-46.0946434,-59.038485,12.154146999999998,-0.925132,-0.2944562,-0.2461032,-140.919992,68.174617,119.639177,160.9268877764056,0.7427124590471873,75.88136892917785,1.0015689972202015,-119.482874,95.7767486,267.5160384
1718.755,11.8730112,159.2636018,42.6508478,0.3408244,-0.2907472,0.650349,-21.0180834,-24.3118282,-148.2759918,-41.4080918,-56.82746039999999,16.0679834,-0.9350012,-0.2868874,-0.223579,-140.4243806,69.2667876,121.0479936,165.30262572422453,0.7897145229411702,72.12607304278717,1.003254301521404,-119.4062972,93.5786158,269.3239854
1738.741,13.9262848,164.1202028,43.5426378,0.281219,-0.3476278,0.6922577999999999,-20.589733400000004,-20.9170004,-148.65784920000002,-34.8549076,-53.0139336,19.1769244,-0.9550498,-0.2686708,-0.2205118,-139.987143,70.3361282,122.2488572,170.36825902152614,0.8241056212371567,66.28043579362662,1.0163314288124323,-119.3974096,91.2531286,270.9067064
1758.726,18.2120424,168.0206392,43.4335396,0.2026656,-0.3282304,0.7250662,-20.1004084,-17.446095200000002,-149.0329164,-26.5705618,-48.702613,19.4652176,-0.9770982,-0.2607454,-0.1932843999999999,-139.4654542,71.3477722,123.3552688,174.4966648613685,0.8212974706462696,58.79484640349644,1.0295959961789674,-119.3650458,88.7938674,272.3881852
1778.712,17.9319782,171.3217958,43.0589798,0.1343414,-0.3251984,0.7579016000000001,-19.6388648,-13.9168836,-149.4025668,-16.680119599999998,-37.7061614,20.7734114,-1.0032492,-0.2583888,-0.1948816,-139.1987276,72.2030028,123.9820588,177.5578477559327,0.8355934695766118,46.168340002503925,1.0541596498086236,-119.5598628,86.1198864,273.38462560000005
1798.697,12.8402242,173.06931479999997,41.036683,0.0684754,-0.3252784,0.8532828,-19.2991702,-10.3656624,-149.79190999999997,-3.649412,-29.6982992,20.306577,-1.034188,-0.2346444,-0.1982678,-138.97157,72.9329254,124.2948822,178.33078375448878,0.9157436621061376,36.161640626157904,1.078847966264107,-119.6723998,83.29858779999999,274.0867922
1818.686,19.516998,175.44842540000002,39.4073242,-0.0305515999999999,-0.382817,0.8953662,-18.853109,-6.7823458,-150.1994752,6.6661138,-20.6995304,16.5232466,-1.0313582,-0.1904564,-0.18934,-138.72796340000002,73.47874759999999,124.4090606,180.87564896048136,0.9742499103689976,27.31163323896039,1.065749976593103,-119.8748544,80.26109340000001,274.6085358
1838.668,23.169791799999995,176.08101820000002,36.67292440000001,-0.1273238,-0.3194198,0.8774428000000001,-18.355988,-3.2026134,-150.629657,11.384068200000002,-16.259448600000002,14.6687624,-1.0055036,-0.2108228,-0.1953508,-138.4615816,73.92486880000001,124.4467392,181.34571295305605,0.942415102781317,24.68074690737594,1.0457751563665298,-120.1055936,77.1274822,275.0763962
1858.653,10.434962,173.9449494,34.1540658,-0.2082713999999999,-0.3038038,0.9142556,-18.137615,0.3186870000000003,-151.0705902,17.3695794,-17.9728954,15.6695238,-1.0227026,-0.2029152,-0.2117274,-138.0428224,74.402501,124.5194184,177.57317946238598,0.9856657785901668,29.500190401267105,1.0639190186985852,-119.9052074,74.083814,275.59000860000003
1878.639,2.0731716,171.40521260000003,31.9378582,-0.2594064,-0.3395602,0.9916566,-18.1170478,3.7851454,-151.5324828,16.245969600000002,-27.92618,12.968680799999998,-1.03723,-0.1558429999999999,-0.1844814,-136.9816896,74.9902864,125.2826294,174.36763384681677,1.079803510879901,34.813643005707014,1.0649725350895016,-118.8646418,71.205141,276.81511220000004
1898.625,7.204248799999999,169.76553660000002,30.6717112,-0.3466407999999999,-0.3659255999999999,0.9697646,-18.0250828,7.210168,-152.0075652,5.2988004,-33.6729848,9.1653908,-1.0005864,-0.1631366,-0.183204,-135.53053300000002,75.5876878,126.6733582,172.66439264015744,1.092934018307217,35.29803931575798,1.0302186174499663,-117.5054502,68.3775198,278.68092340000004
1918.61,2.9941047999999992,166.3397096,28.479077,-0.4045764,-0.30696,0.9146634,-18.0490684,10.5568552,-152.5026274,0.0117040000000003,-40.8935408,9.4918882,-0.9978017999999998,-0.1984754,-0.2035166,-133.6786318,76.2626618,128.58362119999998,168.78661522803768,1.046191015224524,41.98068315006533,1.0375065893592963,-115.62956339999998,65.70580659999999,281.0862486
1938.596,-8.670589000000001,162.7752106,27.2291632,-0.4428093999999999,-0.3303108,0.9472492,-18.3382014,13.832925799999998,-153.0146758,-0.7257193999999997,-47.9103232,5.7812722,-1.0207138,-0.1692402,-0.1615752,-130.9723132,76.9670776,131.38134459999998,165.26456252945914,1.0965703061024588,48.26332816980703,1.047189310517215,-112.6341118,63.1341518,284.3960204
1958.581,-3.9482278000000006,160.9609864,26.428401,-0.4775886,-0.3826378,1.0080448,-18.572375,17.0694036,-153.55681140000002,-8.697739,-48.741008,4.6723152,-0.9829232,-0.1861782,-0.1500308,-128.0355212,77.64122459999999,134.57265619999998,163.16399120222107,1.1792611566764335,49.730946641868144,1.0115876532471717,-109.4631462,60.571821,288.1294676
1978.567,4.7428154,158.46087640000002,25.4171218,-0.5538466,-0.337495,0.9218162,-18.6628072,20.2478792,-154.11904280000002,-5.487961,-45.6122794,4.2659106,-0.9383593999999998,-0.2020416,-0.1722698,-125.0034548,78.2363648,137.79043259999997,160.55645028453574,1.127117579464982,46.138874512154906,0.9752005207601973,-106.3406476,57.9884856,291.9094754
1998.552,-2.6596240000000018,153.5341216,22.979087,-0.6099308,-0.3099416,0.8728659999999999,-18.9456532,23.3159336,-154.718814,2.9419766,-42.6047196,4.2961508,-0.9705952,-0.152323,-0.1595518,-121.7726472,78.7820282,141.0334104,155.26699113030602,1.10904212280472,42.9217225913163,0.9953462289451244,-102.826994,55.4660946,295.7522244
2018.538,-9.490887000000004,149.487686,21.436415,-0.641976,-0.3366737999999999,0.9278742,-19.4132034,26.2945522,-155.3591034,0.0233283999999997,-41.4596292,3.586513,-1.0014026,-0.1476748,-0.1181898,-118.2737014,79.27257540000001,144.600369,151.31478807351775,1.1774688799318986,41.614474322222414,1.0191093379347675,-98.860498,52.97802320000001,299.9594724
2038.524,-2.8146172000000016,145.99499500000002,20.2930554,-0.6869438,-0.35772,0.9417322,-19.8010178,29.192864000000004,-156.0428222,-3.725285200000001,-34.197760800000005,6.6197096,-0.9579312,-0.1791572,-0.1469694,-115.4271666,79.7049408,147.5751554,147.42546839844204,1.2193091975685575,35.03120250210786,0.9855604957493171,-95.6261488,50.5120768,303.6179776
2058.509,-2.116878000000002,140.5952178,18.3472722,-0.7479972,-0.3025145999999999,0.810041,-20.2202904,31.9701646,-156.7646666,4.184644199999999,-29.1597056,5.872008,-0.9584016,-0.159422,-0.1547028,-112.7373366,80.060501,150.22780740000002,141.8030988303049,1.1433203033717192,30.03797855567729,0.98380991929051,-92.5170462,48.0903364,306.992474
2078.494,-13.662612800000002,134.3117798,15.4124604,-0.7743665999999999,-0.3234834,0.7997555999999999,-20.9367506,34.6058442,-157.5544494,7.332966399999999,-26.234475600000003,7.423177000000001,-0.9975002,-0.1464936,-0.1322466,-110.186804,80.41571180000001,152.67247300000002,135.88180568842904,1.159264491392055,28.233378526202877,1.0168363619838543,-89.2500534,45.8098676,310.22692240000003
2098.48,-15.802223200000004,130.17671520000002,14.3224786,-0.7720926,-0.3373334,0.8481567999999999,-21.752701,37.140664,-158.39371640000002,6.9008296,-24.5919528,8.428112,-1.0085808,-0.1745514,-0.0876497999999999,-107.5918334,80.75743080000001,155.1654662,131.9121709000803,1.1955294906929566,26.89644332565568,1.0273197695024856,-85.8391324,43.6167668,313.55918260000004
2118.466,-9.629865400000002,127.1441652,13.4662896,-0.7881452,-0.343059,0.7950248,-22.5240436,39.5958404,-159.30150759999998,10.5037542,-20.3975296,9.5314688,-0.9777544,-0.1889636,-0.0915766,-105.2583054,81.05626199999999,157.3174072,128.21744814032948,1.1708658191180918,24.844254135760792,1.000048590075442,-82.7342618,41.4604216,316.6189148
2138.451,-8.9430984,123.97016,11.772557,-0.8181904,-0.322364,0.7075509999999999,-23.367066,41.9693168,-160.30625619999998,17.303590199999995,-18.668177,9.2821436,-0.98927,-0.1532834,-0.0816012,-102.9256394,81.328665,159.33068540000002,124.84859902191909,1.1287083311241926,27.09378630099318,1.0043951858989566,-79.5585734,39.3593482,319.63694160000006
2158.437,-11.364252400000002,120.8741302,10.2879614,-0.8278734,-0.3317009999999999,0.6962956,-24.3514706,44.272258,-161.395694,18.964678,-17.5503446,9.59066,-0.9923534,-0.153955,-0.0697636,-100.6976502,81.5906584,161.20504160000002,121.84229041669133,1.131471379402908,27.561828068145864,1.006645107474089,-76.3461796,37.3184004,322.6007356
2178.422,-9.9537442,118.1640654,9.9486808,-0.851733,-0.3317072,0.6828074000000001,-25.389342,46.5115906,-162.5687348,19.183056,-16.3051034,7.4065572,-0.9843164,-0.1619858,-0.0617911999999999,-98.4707658,81.78678260000001,163.0715272,118.9991580857394,1.1409227473039532,26.24315384896982,0.9994680220537524,-73.08142380000001,35.275192,325.640262
2198.408,-6.8747028000000014,115.01344880000002,9.6929324,-0.875732,-0.3320372,0.6450392,-26.445825000000003,48.6743988,-163.81944879999998,19.8435084,-12.962397,6.1434642,-0.9623088,-0.163048,-0.0786005999999999,-96.6323594,81.930966,164.5322908,115.62572327111955,1.1372030634607349,24.485316293304464,0.9791838086803724,-70.1865344,33.256567200000006,328.35173960000003
2218.393,-6.845752,110.79802220000002,9.1654608,-0.9095874,-0.3111746,0.5906651999999999,-27.580864,50.75359039999999,-165.1436462,22.0771232,-9.4689928,4.6792818,-0.9732884,-0.1252798,-0.0745956,-95.1789628,82.0493438,165.55914320000002,111.38703567091432,1.1283014882623172,24.47359539581876,0.9841492983292526,-67.5980988,31.2957534,330.7027894
2238.379,-11.1947704,106.0980254,8.2012434,-0.924544,-0.2966972,0.5690066,-28.898344599999994,52.731105,-166.543219,20.073408,-8.2712412,3.4719836,-0.9947366,-0.1064638,-0.0536648,-93.8530946,82.147731,166.4966462,107.00174891745372,1.1254240744125743,21.98658249573385,1.0018559551397794,-64.95475000000002,29.416626,333.0398652
2258.364,-12.2547908,102.684555,7.530784200000001,-0.9296132,-0.310217,0.563582,-30.3510486,54.60979679999999,-168.0564546,15.523766199999995,-7.3872272,2.925854,-1.005213,-0.1096357999999999,-0.0352074,-92.6412888,82.2310396,167.4091034,103.687079444677,1.1305042942984516,17.43900984477038,1.0117869069252674,-62.29024020000001,27.621242800000005,335.465558
2278.35,-9.3649088,99.99927060000002,7.1297144,-0.9316268,-0.3049579999999999,0.5578038,-31.8510192,56.4009124,-169.65971380000002,9.063335,-4.3879282,2.6621444000000003,-0.9916652,-0.1165221999999999,-0.0291221999999999,-91.95439,82.3006488,167.92181999999997,100.6895648257053,1.1278621172540018,10.415611744733557,0.9989121055011398,-60.10337080000001,25.8997364,337.5815338
2298.335,-6.6266104000000015,96.7509828,6.3598936,-0.9409113999999998,-0.2964264,0.5112742000000001,-33.4187766,58.1082526,-171.3717622,1.893732799999998,-0.7293725999999999,1.113311,-0.9849238,-0.0937726,-0.0336024,-91.955417,82.3470936,167.88596479999998,97.18597061697024,1.111118436915057,2.314664055569964,0.9899481368248338,-58.53664040000001,24.238841,339.257727
2318.321,-7.091523800000002,92.484453,5.195046400000001,-0.9475432,-0.2873607999999999,0.4882499999999999,-35.1074962,59.7021308,-173.1857086,-7.067382000000002,1.8507224,-0.4948587999999999,-0.974279,-0.095278,-0.044496,-92.5396744,82.35517300000001,167.44324619999998,92.9013038854317,1.1039938440692865,7.322427668999075,0.9799374271559382,-57.4321782,22.6530422,340.6289548
2338.307,-6.362213200000001,86.6735962,4.783424,-0.9517502,-0.3022918,0.5086912,-36.8267546,61.1448836,-175.0294464,-12.854115000000002,7.408607399999999,-1.8142624,-0.9586398,-0.131558,-0.078156,-93.99551540000002,82.3162584,166.2373228,87.03833167177945,1.12070313308419,14.946815182392989,0.9707760472137948,-57.16876080000001,21.1713748,341.2667692
2358.292,-1.983906600000001,79.0188964,4.946714,-0.961891,-0.2971488,0.5001864,-38.421575,62.4362746,-104.8128722,-14.3156784,13.1584192,-1.9132104,-0.964919,-0.130134,-0.086839,-96.3264924,82.2571366,164.17845440000002,79.19843340034734,1.1241521871914852,19.53824500639255,0.9775195887745678,-57.9049174,19.820862,268.9913266
2378.278,0.3120463999999986,69.470613,4.5079276,-0.975565,-0.297533,0.4865574,-39.8801208,63.548512800000005,-34.47805779999999,-14.972564600000002,17.516838,-0.9614611999999998,-0.9814424,-0.108943,-0.0929552,-99.3147766,82.2047638,161.4703154,69.61741775445542,1.1300402907900051,23.063861599015084,0.991835889133782,-59.4346558,18.656251,195.9483732
2398.263,2.2499943999999985,59.0268858,4.0253812,-0.9761704,-0.2973215999999999,0.5029848,-41.1740952,64.48011460000001,36.01457220000001,-14.069877200000002,19.4247722,-0.633371,-0.9871474,-0.1431114,-0.0903174,-102.441275,82.1187224,158.6022522,59.20675143808843,1.1376741592801345,23.993423646253856,1.0015478495206709,-61.26717980000001,17.638607799999996,122.58767999999998
2418.249,4.181654599999998,47.754695600000005,3.7631468,-0.9720924,-0.3043396,0.537951,-42.2265442,65.221958,106.7441802,-7.9750256,21.3328938,0.9490104,-1.003212,-0.1598614,-0.0766179999999999,-105.5988328,82.036743,155.5773224,48.08490886838314,1.151945096203339,22.79460488672796,1.018754289354386,-63.372288600000005,16.814784999999997,48.83314219999998
2438.234,7.156920799999999,36.98555040000001,3.3515326,-0.9555672,-0.2959105999999999,0.5510568,-43.0029182,65.8001662,177.7234008,-4.065967800000001,19.548718,1.7867754000000002,-1.0257456,-0.1345442,-0.0245396,-108.3288392,81.969821,152.9028382,37.82043395437546,1.1420750210622943,20.04687097589561,1.034822868727378,-65.325921,16.169654799999996,-24.82056260000001
2458.22,7.969542999999999,26.825558600000004,2.5578556000000003,-0.937743,-0.3036454,0.5776854,-43.5419012,66.21986840000001,176.95322860000002,-6.004595200000002,16.026992999999997,0.7300958000000001,-1.024646,-0.1418761999999999,-0.010516,-110.4603394,81.8886732,150.8687256,28.10101128253812,1.1424897742926716,17.130461406952517,1.0344751653367228,-66.9184382,15.668804799999998,-26.084503000000005
2478.205,10.805785999999998,16.727614800000005,2.0546018,-0.9241496,-0.3080418,0.5979716,-43.7745366,66.491565,176.4627958,-5.495056800000001,12.273503,-0.0687999999999999,-1.008072,-0.1668876,-0.0231646,-112.0186952,81.7910138,149.401999,20.01997743583989,1.1430276760139977,13.447648811827117,1.0220553932693277,-68.2441586,15.299448800000002,-27.0607968
2498.19,13.679324,5.504059400000006,1.5311964,-0.9274052000000002,-0.3122218,0.6006937999999999,-43.624094,66.5915406,176.328314,-2.1771248000000014,9.5042736,-0.1455504,-1.0089606,-0.1522876,-0.0317088,-113.1505234,81.713722,148.2996276,14.8244101869544,1.1482142216244842,9.751526751097602,1.0208812141789856,-69.52642940000001,15.1221814,-28.0286864
2518.176,15.532897,-6.752948199999994,0.7962192,-0.935851,-0.3080556,0.6086992,-43.0859304,66.5007418,176.5766418,-3.0783144000000013,6.699841999999999,-1.1019758000000002,-1.0095396,-0.1448302,-0.0491136,-113.9391434,81.63816059999999,147.56315920000003,16.95603620009526,1.15811487468774,7.455082362656834,1.0210573620052696,-70.853213,15.137418799999995,-29.0134826
2538.161,16.8891092,-19.925511199999995,0.1745562,-0.9502856,-0.3137306,0.6141142,-42.15529,66.20344100000001,177.2250152,-4.3328212000000015,3.7776774,-1.9721148,-1.0096756,-0.1512626,-0.0748372,-114.410611,81.5609908,147.1738312,26.120843708000866,1.1741404777901832,6.077287460209468,1.0236824692735342,-72.25532100000001,15.357549799999996,-30.051184
2558.147,18.849874,-33.793760199999994,-0.5207414,-0.9627634,-0.3164486,0.6212603999999999,-40.835185800000005,65.6817994,106.2549194,-3.6175998000000016,1.1781967999999998,-2.4896248,-1.013095,-0.1492136,-0.0853828,-114.558133,81.4952544,147.098398,38.69892957016581,1.188704153870794,4.546801915331844,1.0275779289113796,-73.7229472,15.813454999999996,40.84347859999999
2578.133,20.8308452,-47.80847359999999,-1.4961146,-0.9719108,-0.3131888,0.630128,-39.180921,64.9207246,35.6005036,-1.9865454000000011,-1.5255934,-2.9053134,-1.0199544,-0.1513414,-0.0815844,-114.30551599999998,81.4445328,147.3942384,52.170994035043954,1.1998996307967096,3.835967127153762,1.034343855667292,-75.124595,16.523808199999998,111.7937348
2598.118,22.3963058,-61.19725639999999,-2.7095906,-0.9767942,-0.3136394,0.6416226,-37.2793586,63.90838180000001,-34.8105286,-0.8234348000000015,-4.6548156,-3.0670188000000005,-1.0216524,-0.1461014,-0.076657,-113.6378982,81.4195206,148.0862612,65.22300656665608,1.21003146373008,5.634887528549958,1.0348891443805563,-76.3585396,17.511138799999998,182.8967898
2618.104,25.4884018,-73.96401819999998,-4.035171,-0.982465,-0.3161794,0.6568606,-35.1777808,62.6362076,-105.0697664,-0.6621404000000016,-7.6924972,-3.5031964,-1.0123846,-0.138177,-0.0792451999999999,-112.6110548,81.411711,149.13906579999997,78.33656374648695,1.2233857678760696,8.478521575032582,1.0248391402406527,-77.433274,18.7755034,254.2088322
2638.089,29.1858398,-86.94352119999999,-5.3810612,-0.9955058,-0.3183984,0.6622774,-32.943843,61.0966522,-175.24197999999998,-0.9378698000000016,-9.4816858,-4.1885202,-1.000435,-0.1384583999999999,-0.0927294,-111.40679459999998,81.398001,150.3780946,91.86917297507505,1.2373442097924732,10.407961704266675,1.014218743358611,-78.4629516,20.301348800000003,325.62007459999995
2658.075,31.6907456,-100.34451,-6.7600832,-1.0114632,-0.3099496,0.6715662,-30.6577144,59.276709,-173.3885896,-1.2863204000000017,-9.3537736,-4.7382714,-0.9887414,-0.1323926,-0.1033077999999999,-110.2677412,81.3702422,151.5594848,105.44677694787516,1.2530473735964016,10.56403883898441,1.002900721980775,-79.6100268,22.093533200000003,324.9480744
2678.06,33.7601448,-113.7408204,-8.0709588,-1.0225504,-0.3134994,0.6908932,-28.382391,57.171694200000005,-171.5411164,-3.6807228000000016,-8.5923236,-6.3017064,-0.986966,-0.1289197999999999,-0.1040986,-109.23070520000002,81.30668320000001,152.68616939999998,118.91956095669592,1.2732731867697364,11.273298041361176,1.0007790557910372,-80.8483142,24.134989,324.2272858
2698.046,36.1666924,-126.744249,-9.151816,-1.0309582000000002,-0.307999,0.7090774000000001,-26.1562302,54.8003142,-169.757901,-6.159169200000002,-7.341737399999999,-7.569722199999999,-0.9862586,-0.1289932,-0.1038132,-108.3625152,81.20850060000001,153.6920806,132.12074034695718,1.2886151300287454,12.212172921718732,1.0000612242330165,-82.20628500000001,26.4081864,323.44998160000006
2718.031,37.1371338,-138.91940599999998,-10.3021184,-1.0262352,-0.3033394,0.7284598,-24.0519192,52.18246839999999,-168.0805358,-8.868143200000002,-5.593891000000001,-8.995467999999999,-0.9903912,-0.1380206,-0.0845368,-107.6558518,81.0691726,154.5875274,144.16622944989422,1.2945374299445498,13.814992756951098,1.003529215128309,-83.60393260000001,28.8867042,322.66806320000006
2738.017,37.7021446,-149.8088468,-11.5361924,-1.007814,-0.299085,0.7683252,-22.0946248,49.33326580000001,-166.5462342,-10.978226400000002,-3.4529768,-9.8760594,-0.984437,-0.1403062,-0.0684488,-107.1837846,80.90077959999999,155.2872222,154.91038061432485,1.3021000379295131,15.165126209277773,0.9967383181903264,-85.08915979999999,31.5675138,321.83345640000005
2758.002,38.314946,-159.50202,-12.4736056,-0.9865712,-0.2888246,0.792336,-20.2897172,46.2840868,-165.1548278,-12.4059366,-1.6518982000000002,-11.2848494,-0.986599,-0.1518113999999999,-0.0521498,-106.8512406,80.6925032,155.87280579999998,164.51297914671554,1.2978978076607572,16.851820571293274,0.9995718531506378,-86.5615234,34.4084164,321.02763360000006
2777.988,37.1744088,-167.9489682,-13.3596288,-0.9573914,-0.2786229999999999,0.8140932,-18.6699384,43.0608284,-163.92195120000002,-13.7616738,0.128537,-12.1810604,-0.9864348,-0.1521558,-0.0441107999999999,-106.7074402,80.4595182,156.2941192,172.53194565282084,1.2872361116785065,18.37874914150644,0.999074954546114,-88.0375018,37.3986898,320.21607040000004
2797.974,35.2723926,-175.38561380000002,-14.3338484,-0.9179056,-0.2702346,0.8514773999999999,-17.2370648,39.6784898,-162.8378234,-15.395736800000003,1.9396596,-13.2614896,-0.9816692,-0.1687487999999999,-0.0388342,-106.7403626,80.1890226,156.5684906,179.47065057464263,1.2808556484863078,20.41220461855247,0.9968242928519148,-89.5032978,40.5105328,319.406314
2817.959,33.439176200000006,-181.988687,-15.2227618,-0.8787784000000001,-0.2578439999999999,0.8704980000000001,-15.9715756,36.1588756,-161.883313,-14.256274800000003,4.2132556,-13.9177894,-0.9817674,-0.1766756,-0.0436246,-106.9871048,79.8906172,156.6031036,185.66042437131867,1.2635275116302611,20.36412914187098,0.9984911622359408,-91.0155292,43.7317416,318.4864166
2837.944,30.1517612,-187.9448578,-16.2169028,-0.8383528,-0.2526292,0.8932549999999999,-14.8855796,32.516584,-161.0444426,-12.5885156,6.7616944000000005,-14.2348634,-0.9855682,-0.1880378,-0.0440496,-107.4290892,79.5678572,156.40482179999998,191.03765653228865,1.2508242982071782,20.16984313739436,1.0043123310704891,-92.5435096,47.0512732,317.44926440000006
2857.93,27.9088916,-192.7851624,-16.9271212,-0.7885374,-0.2432888,0.9213944,-13.9437792,28.7555302,-160.30585019999998,-9.966233000000004,10.1634508,-14.070807000000002,-0.9851496,-0.1945832,-0.0538492,-108.1480818,79.22390899999999,155.87142020000002,195.52890452323004,1.2369107937743773,20.01522275683083,1.0056252246453647,-94.2043026,50.4683788,316.1772704
2877.916,25.3406734,-197.0647064,-17.8531734,-0.7340012,-0.2319938,0.9464436,-13.1375874,24.8840338,-159.657306,-6.244660800000001,13.9024324,-13.3798488,-0.9858106,-0.2067941999999999,-0.0534802,-109.109651,78.8636094,155.013562,199.4878042320736,1.21997310331861,20.28037891792182,1.008685536734834,-95.9720636,53.9795756,314.67086800000004
2897.901,21.5419048,-200.874652,-18.7310044,-0.6735291999999999,-0.2268283999999999,0.9454968,-12.4792728,20.9154334,-159.0852052,-1.0799020000000012,17.8400194,-13.3948218,-0.989315,-0.2103606,-0.0544982,-110.2689162,78.47561499999999,153.84747,202.89290279446985,1.1828173591512088,22.33503372676512,1.012899701382422,-97.7896434,57.5601816,312.93267520000006
2917.886,16.504517,-204.365988,-19.7101792,-0.6072758,-0.224671,0.9600472,-11.97956,16.855218200000003,-158.5758576,2.8357553999999987,20.5828822,-12.8426608,-0.9802424,-0.2208364,-0.0615714,-111.5474746,78.0712128,152.4782806,205.97656977606832,1.1579946380421977,24.426020649536078,1.0066950459899364,-99.5679146,61.2159946,311.0541382
2937.872,10.477415,-207.1342374,-20.825253,-0.5286476,-0.2145292,0.9573547999999998,-11.645362,12.7196474,-158.11813060000003,7.9105842,22.3713824,-13.433824,-0.991635,-0.2209594,-0.0463042,-112.741121,77.64737399999999,151.08837880000002,208.4419815941016,1.1144591853098254,27.267631362758586,1.017008902916292,-101.095759,64.9277266,309.2065094
2957.857,4.842575600000001,-208.7245786,-22.8293388,-0.4426196,-0.2136418,0.9456622,-11.4672802,8.540426,-157.7202972,10.4737344,20.3553168,-13.795901,-1.0039468,-0.2215767999999999,-0.0281277999999999,-113.59137440000002,77.2384796,149.9937256,210.025186490179,1.065754158106005,26.727605929299145,1.0284924057382825,-102.1240942,68.69805360000001,307.7140228
2977.843,0.8936712000000003,-208.9765562,-25.0908566,-0.3507902,-0.2228948,0.9246344,-11.4028904,4.3463858,-157.3795012,11.8009528,16.359253000000002,-14.742781400000002,-1.0142914,-0.2292516,-0.025379,-114.0021594,76.8434052,149.320456,210.47933574188997,1.013747813781337,24.984740325126914,1.0401862496002916,-102.599269,72.4970194,306.69995720000003
2997.829,-2.1832906,-207.8179992,-27.3240636,-0.2677872,-0.2180894,0.9079558,-11.4271374,0.1659847999999996,-157.0914092,11.5878032,9.4372704,-15.850362,-1.0235744,-0.2322342,-0.0183412,-113.8119128,76.48594519999999,149.2676484,209.61796678947172,0.9714199429854422,21.784701768344004,1.0497493394151003,-102.3847754,76.3199604,306.3590576
3017.814,-3.5904039999999995,-205.1183106,-29.5999496,-0.1866482,-0.218859,0.8902066,-11.4987156,-3.970353,-156.8558592,10.3290266,2.2380558,-19.1448332,-1.0395378000000002,-0.22529,-0.0156706,-113.018413,76.13093119999999,149.8618194,207.27414059791403,0.9355237052730412,21.86829491577346,1.0637856877365857,-101.5196974,80.1012842,306.7176786
3037.8,-2.9860258,-201.0981294,-31.3581912,-0.1200764,-0.2061362,0.8494864,-11.571855,-8.0346796,-156.6655516,6.893298999999997,-6.137631600000001,-22.424413800000004,-1.0366803999999998,-0.2256343999999999,-0.0249052,-111.6507066,75.77422659999999,151.12091679999995,203.55026443999813,0.8823477877641899,24.24958612088772,1.0612433289281773,-100.0788516,83.8089062,307.7864684
3057.785,-4.0198938,-196.795511,-33.0043194,-0.0479338,-0.2103466,0.8272796,-11.6726614,-12.014771800000002,-156.5176696,4.050273199999998,-12.4244442,-24.9018024,-1.0352178,-0.23814,-0.0334554,-109.9010316,75.40338,152.83581859999998,199.58436260131103,0.8549472953873589,28.12243391746521,1.0627821116418923,-98.2283702,87.4181518,309.3534882
3077.771,-3.7965824,-191.668097,-33.7324078,0.013283,-0.1985716,0.8017223999999998,-11.7740666,-15.897206399999998,-156.396881,1.3032831999999983,-16.6367098,-28.189561000000005,-1.025903,-0.2350731999999999,-0.0469764,-107.948143,74.9907106,154.8223756,194.65083812176843,0.826054432272668,32.75866312048676,1.053538398409949,-96.1740764,90.887917,311.2192566
3097.756,-2.3586258,-186.3201264,-34.3573152,0.0693169999999999,-0.1926349999999999,0.7862956000000001,-11.847386,-19.6773284,-156.3031798,-0.6561308000000015,-16.368499800000002,-31.3573174,-1.0116004,-0.250774,-0.0610349999999999,-106.1155196,74.4961792,156.7297488,189.47606108722167,0.8125108370313346,35.37851958256099,1.0440058618519152,-94.2681336,94.1735076,313.0329286
3117.742,-0.2656547999999999,-181.849878,-34.50119719999999,0.1292006,-0.1888318,0.7659499999999999,-11.8820898,-23.3645778,-156.2246216,0.4883269999999986,-12.3082466,-34.663543600000004,-0.9871248,-0.265245,-0.0733606,-104.6067564,73.8988252,158.28203760000002,185.09397966795387,0.7993932988408146,36.78712617933673,1.024769270827536,-92.7246666,97.263403,314.5066592
3137.728,1.4266716000000002,-177.9301636,-33.9469842,0.180687,-0.1820794,0.7439410000000001,-11.889416,-26.9728856,-156.14704279999998,2.1768607999999987,-4.4883096,-35.5115814,-0.963866,-0.271759,-0.0835568,-103.6672254,73.235933,159.2107882,181.14518002655237,0.7869237011009137,35.86022949643316,1.004924056266562,-91.7778094,100.2088186,315.357831
3157.713,2.765127,-174.105896,-33.1961476,0.229919,-0.1602808,0.716989,-11.8743898,-30.502677,-156.0690338,4.622442599999999,4.9208712,-34.2373646,-0.947021,-0.268499,-0.0921958,-103.3555036,72.55039839999999,159.43599260000002,177.2639082407074,0.7698219973023893,34.8966915868914,0.9886559325567414,-91.4811138,103.05307539999998,315.5050264
3177.699,2.3889104,-170.70204479999998,-32.6642364,0.2864786,-0.1527246,0.6925318,-11.8756908,-33.954022200000004,-155.989505,7.225647199999999,14.0409278,-26.7794806,-0.916081,-0.2840454,-0.11232,-103.68108200000002,71.96139539999999,158.9398102,173.81555549315922,0.7648497144631486,31.08855435927276,0.9656614159332244,-91.8053912,105.9154176,314.9293152
3197.684,2.0243532,-167.41986400000002,-31.9881582,0.3463764,-0.1452882,0.6545992,-11.8899376,-37.3312916,-155.9067412,13.4797682,21.265727,-12.872522600000002,-0.9055056,-0.289914,-0.118136,-104.5346634,71.5995042,157.75882259999997,170.46040928228783,0.7547088075389343,28.277855888517628,0.9580953154688524,-92.6447258,108.93079579999998,313.66556380000003
3217.669,-0.9009225999999998,-163.83106379999998,-31.2860854,0.4119598,-0.1240308,0.6027554,-11.959554399999998,-40.64706,-155.8252714,19.3334324,29.427839800000005,1.4485923999999997,-0.9089332,-0.2755254,-0.1142978,-105.9458298,71.4700546,155.8672822,166.79402947056272,0.7405461419748537,35.24028637229232,0.9566283474747336,-93.9862754,112.1171146,311.6925536
3237.655,-2.6230696,-159.2160644,-30.6161128,0.480157,-0.1366972,0.5598827999999999,-12.084481,-43.8720942,-155.72914120000002,22.7163342,36.3836352,12.8181214,-0.9207116,-0.2869436,-0.120197,-107.8459566,71.4944382,153.38883679999998,162.1541921139682,0.7501370667235955,44.76723116385362,0.9718507080640112,-95.7614756,115.3665324,309.117978
3257.641,-2.0556518,-153.9137542,-29.8439772,0.5395578000000001,-0.1305902,0.504486,-12.2049138,-47.009934400000006,-155.6286528,27.4044554,45.1937308,20.419793,-0.9153844,-0.280061,-0.1222598,-110.2552766,71.57464900000001,150.27464619999998,156.79391701011548,0.750121686176903,56.66079266614884,0.9650441555599412,-98.0503628,118.5845834,305.903299
3277.626,-2.2744706,-148.5714324,-29.0331816,0.5939848,-0.1218728,0.4540233999999999,-12.3396636,-50.063762,-155.51987,32.4432692,54.3351114,23.7537054,-0.9308866,-0.2720767999999999,-0.1165086,-113.1212342,71.59954680000001,146.57229940000002,151.3987099539379,0.7575012671662272,67.59518154028486,0.9768059689783636,-100.7815706,121.6633088,302.09216940000005
3297.612,-1.5596852,-142.1790878,-27.905714,0.6431404,-0.1164654,0.3929812,-12.468983,-52.99729239999999,-155.40295120000002,34.5219168,64.2710058,22.4750692,-0.9266246,-0.2558388,-0.1269558,-116.4503998,71.4642564,142.33467720000002,144.9001535520684,0.7626453874919588,76.33907034824661,0.96964138528852,-103.9814168,124.4615488,297.7376284
3317.597,0.8984432000000002,-134.20293439999998,-27.033662,0.6846394,-0.1047298,0.3340652,-12.539987,-55.7659036,-155.30127280000002,34.81007219999999,68.0426406,22.3701514,-0.9122116,-0.2573788,-0.1439811999999999,-119.9206314,71.2150698,137.937268,136.90162045383016,0.768959684828431,79.63645986637592,0.9586993458939252,-107.3806444,126.9809734,293.2385408
3337.583,2.2157548,-125.665471,-26.1112084,0.727962,-0.0805158,0.285548,-12.5559232,-58.3616716,-155.2323946,37.9541366,67.9254028,24.136537,-0.9189788,-0.2546564,-0.1604002,-123.29628739999998,70.9279436,133.56627039999998,128.3686697566575,0.7860974035052145,81.46747356427642,0.9670057606190564,-110.7403642,129.2896152,288.798665
3357.568,2.2988492000000003,-116.2845476,-24.5141718,0.7741436,-0.0707608,0.2436146,-12.5622848,-60.755005,-155.1750094,38.1477836,62.8031128,24.5785922,-0.9166184,-0.2612509999999999,-0.1831508,-126.332643,70.6323488,129.54362020000002,118.8626322155997,0.8146492972873419,77.4828469114026,0.9705594220655426,-113.7703582,131.3873538,284.7186296
3377.554,4.050826000000001,-105.3187638,-21.9402134,0.8102872,-0.0587866,0.1886602,-12.541679,-62.9093392,-155.1089602,36.0039994,53.6687124,22.9813646,-0.9089166,-0.264492,-0.1976406,-128.83435960000003,70.35922860000001,126.1259476,107.65604564389314,0.8340347006494634,68.59126607919734,0.9670300980775728,-116.2926806,133.2685678,281.2349078
3397.539,5.3227336,-92.9373398,-18.7952882,0.8504716,-0.0452517999999999,0.1391696,-12.5195968,-64.806382,-155.01856700000002,30.2227272,40.1742604,19.8730242,-0.9049492,-0.2723406,-0.214405,-130.677954,70.1569886,123.5246766,94.96811823237464,0.8629703618166501,54.05850098686064,0.9690572537337514,-118.1583572,134.96337060000002,278.5432436
3417.525,6.1133136,-78.96859959999999,-14.0646622,0.8771226000000001,-0.0411182,0.1000872,-12.5600276,-66.4102202,-154.8437348,22.7612846,25.2737042,15.5842964,-0.911433,-0.2920972,-0.223219,-131.82415759999998,70.05115359999999,121.8178698,80.4439373026779,0.8837715821443005,37.41265153546789,0.9827805501218672,-119.26413,136.4613738,276.66160460000003
3437.511,6.3206294,-63.8493392,-8.4889612,0.91069,-0.0266354,0.0734146,-12.7148352,-67.6942808,-154.5425476,13.032563999999995,12.195889,9.2811412,-0.8988569999999999,-0.2883556,-0.2289473999999999,-132.37636400000002,70.0098572,120.9484742,64.720560369514,0.9140325071496748,20.11782828460255,0.9713443109768648,-119.6615288,137.704138,275.4910218
3457.496,6.0528632,-47.1037214,-1.8777042,0.9177602,-0.0263187999999999,0.047281,-13.031522,-68.621321,-154.0746948,1.544983999999998,0.4180896000000008,3.854259,-0.8966541999999998,-0.2782116,-0.235477,-132.4790832,70.0405258,120.8028534,47.52813372845003,0.9193540976677484,4.173378357274255,0.9679048849350848,-119.4475612,138.66184679999998,274.8775482
3477.482,6.182669,-28.958420399999994,4.6742548,0.9236326,-0.020601,0.0429991999999999,-13.479999799999998,-69.1632568,-153.4642272,-9.7287886,-8.8967374,-1.1307926,-0.8967002,-0.2738804,-0.2359858,-132.248407,70.122406,121.2528366,29.977727831875782,0.9248624287884116,13.231778258883551,0.96683557029406,-118.7684072,139.28566279999998,274.7170638
3497.468,5.5004136,-11.016698599999994,11.4793026,0.9177334,-0.020606,0.0643625999999999,-14.0761242,-69.32859640000001,-152.7106994,-19.6843046,-15.4230428,-6.3213612,-0.9014202,-0.2735238,-0.2349368,-131.7577392,70.213832,122.1913528,16.834387009828234,0.920218313765989,25.793443046966,0.9708599003608708,-117.681615,139.5424284,274.9020522
3517.453,6.053348000000001,6.089704800000005,18.1006534,0.9088122,-0.0282993999999999,0.0911314,-14.7745534,-69.13354039999999,-151.8351836,-28.2474202,-17.8981268,-10.5740606,-0.8988258,-0.2619264,-0.2342258,-131.19215400000002,70.2750456,123.3933958,20.034000600658334,0.913808187189828,35.07236017830449,0.96506734643145,-116.4176006,139.408586,275.2285794
3537.438,7.391483200000001,22.381709200000007,24.1655996,0.8863213999999999,-0.0310474,0.1148834,-15.507949200000002,-68.58809520000001,-150.8907134,-36.8475876,-20.7777664,-13.8991044,-0.8911158,-0.2507412,-0.230023,-130.56387640000003,70.323384,124.8460936,33.75723825547297,0.8942749916777724,44.52690637844428,0.9538705881387056,-115.0559272,138.9114792,275.736807
3557.424,8.292376,36.883122,29.5259454,0.8759458,-0.028247,0.1463655999999999,-16.2371294,-67.72963100000001,-149.9263306,-44.7299408,-25.1057782,-16.1882562,-0.892898,-0.250699,-0.2208566,-129.81154780000003,70.389531,126.5968046,47.96779794774866,0.8885391529977731,53.78779919085683,0.9533595674081002,-113.5744184,138.11916200000002,276.5231352
3577.41,7.6886786,49.02237600000001,34.4283768,0.8628394,-0.031275,0.1839766,-16.9609712,-66.62242499999999,-148.9717988,-51.5467834,-30.3386408,-18.4295568,-0.8983808,-0.249137,-0.2110318,-128.87097160000002,70.4817628,128.6906172,60.39554831593346,0.88278952483869,62.58715977197213,0.9558722337158246,-111.91000040000002,137.1041878,277.662416
3597.395,7.8861946,59.2432092,39.0710144,0.8550018000000001,-0.0343872,0.21921,-17.6513278,-65.294442,-148.03769540000002,-57.12851479999999,-35.382042,-20.227634,-0.9088732,-0.2540194,-0.1980196,-127.7232436,70.5968492,131.11957999999998,71.40373987284589,0.8833252977397852,70.17630138858514,0.9642552106360432,-110.0719158,135.8912912,279.1572754
3617.381,8.415665,68.1594048,43.4282792,0.8422498,-0.0441652,0.2470202,-18.2994322,-63.77094099999999,-147.1266938,-60.978717,-38.7446136,-21.6939522,-0.9165066,-0.2566842,-0.1871394,-126.429605,70.7166812,133.78253180000002,81.25603555647814,0.8788368845804778,75.43325905749583,0.9699960213349124,-108.1301728,134.48762219999998,280.9092256
3637.366,8.6306158,75.9439454,47.5072282,0.8317396,-0.0456802,0.2657032,-18.907412200000003,-62.06963939999999,-146.2426056,-63.3068078,-42.5218086,-22.6245864,-0.9225012,-0.2504908,-0.1714096,-124.9503722,70.85407280000001,136.6890474,89.99392814658256,0.874342972391521,79.54701773298757,0.971151561733924,-106.04296000000002,132.9237122,282.931653
3657.352,8.03121,83.03860180000001,51.4905038,0.812726,-0.065276,0.2890402,-19.4909986,-60.2129492,-145.38562299999998,-65.6667902,-46.329332,-23.0893168,-0.9390558,-0.2579622,-0.1572172,-123.271579,71.0026094,139.8525606,98.03663450231691,0.8650599658220463,83.6160922850847,0.9864519958509486,-103.7805804,131.21555859999998,285.2381836
3677.337,10.381396,89.981627,55.2659212,0.7972705999999999,-0.0878946,0.318962,-19.9956972,-58.1907072,-144.55278600000003,-67.7992692,-48.3615088,-22.7062144,-0.9448138,-0.267957,-0.1371446,-121.4845246,71.147641,143.17010820000002,106.10743907267084,0.8631932737096136,86.3200359699028,0.9916061273653972,-101.4888274,129.3383482,287.7228942
3697.323,14.248005,96.781392,58.4085,0.773636,-0.1130586,0.3546216,-20.376665,-56.0065504,-143.7606046,-68.6989076,-47.058634,-21.2592968,-0.9377294,-0.265406,-0.1273476,-119.79616099999998,71.2750596,146.40030840000003,113.93505323730572,0.8585169693818054,85.94191433642716,0.9828500311268856,-99.419496,127.28161,290.16091300000005
3717.308,19.8025482,103.4404938,61.37917480000001,0.7436222,-0.1218453999999999,0.3803772,-20.586924,-53.6736944,-143.018292,-69.95858319999999,-48.212863000000006,-17.961372400000002,-0.9408382,-0.2636718,-0.1133751999999999,-118.1330628,71.4494202,149.62754220000002,121.8994658393962,0.8441013518019267,86.84062655519922,0.9836428582923376,-97.5461388,125.1231146,292.6458342
3737.294,22.8376038,109.76631,64.1317154,0.7079449999999999,-0.1410047999999999,0.4054336,-20.6823994,-51.20846240000001,-142.3182768,-72.9062562,-49.0262006,-12.9121848,-0.9386608,-0.2683183999999999,-0.0989897999999999,-116.5570298,71.6929794,152.8199646,129.1629818426645,0.8279159864726613,88.80098566277759,0.981263390603787,-95.8746304,122.9014418,295.1382414
3757.279,25.076533,115.24957880000002,66.41762539999999,0.6737614,-0.1469278,0.4532972,-20.6719892,-48.61856,-141.66349780000002,-73.3543306,-47.7216748,-8.332386600000001,-0.9356808,-0.2721246,-0.0840085999999999,-115.0995346,71.977388,155.890796,135.3609946943809,0.8252396949193852,87.90702321170312,0.9780632915551836,-94.4275454,120.595948,297.5542938
3777.265,25.2475828,119.12629080000002,68.66427680000001,0.6438284000000001,-0.1524494,0.5226632,-20.6239586,-45.9288452,-141.0235442,-72.18875600000001,-43.7800244,-3.7737722000000007,-0.941493,-0.27396,-0.0805278,-113.90074,72.28718260000001,158.6611572,139.79734083835802,0.8431682209625551,84.51123230618298,0.9838434210898808,-93.2767814,118.2160278,299.6847014
3797.251,27.9328478,123.31542199999998,71.57915640000002,0.5889369999999999,-0.1726218,0.5360376,-20.519253400000004,-43.1314284,-140.36671440000003,-70.1044114,-42.1629354,2.435752,-0.9370226,-0.2662032,-0.0793446,-112.8637024,72.6835388,161.2153624,145.29457292064183,0.8148505288812176,81.84298691452143,0.97732853337563,-92.344449,115.8149672,301.5820768
3817.236,27.369173,126.8189514,73.3393904,0.5461805999999999,-0.1703988,0.5563786000000001,-20.3926566,-40.2533454,-139.7205748,-67.84305739999999,-39.74795279999999,7.434417999999999,-0.9451824,-0.2626706,-0.0659056,-111.9614594,73.1431458,163.57497859999998,149.03282943413203,0.7980639983082559,78.98006558726983,0.9832136906519762,-91.5688028,113.3964912,303.2955534
3837.222,24.9499688,129.28366699999998,75.3938382,0.506341,-0.1777359999999999,0.6418492,-20.2928542,-37.30550000000001,-139.0669676,-64.6804338,-33.2594244,6.273937600000001,-0.9732945999999998,-0.2702128,-0.0542562,-111.2767198,73.5199342,165.634668,151.72672254621344,0.8366251786299764,73.00075424941986,1.0115636761526383,-90.9838656,110.8254342,304.70163560000003
3857.207,27.8311366,131.8335464,77.5069424,0.4687554,-0.20429,0.6972236,-20.1208948,-34.2831546,-138.3982206,-62.4036058,-25.3837886,6.6527536,-0.9670776,-0.2621204,-0.0606636,-111.0212052,73.83860179999999,167.1975434,155.4412501270037,0.8646310065722372,67.69642435899844,1.003805888049517,-90.9003104,108.1217564,305.59576400000003
3877.193,33.5328174,135.2472992,79.31961340000001,0.3929555999999999,-0.2114541999999999,0.7094666000000001,-19.8118082,-31.1878448,-137.7225218,-59.6351298,-19.2219416,8.209673800000001,-0.9841828,-0.2327459999999999,-0.0683595999999999,-111.1519028,74.1517702,168.3015046,160.33677947870078,0.8381347378462248,63.192012857948,1.013636778754599,-91.3400946,105.339615,306.0240264
3897.178,32.7818386,137.8443572,80.1425094,0.3456298,-0.1899828,0.7335296,-19.465336800000003,-28.0361912,-137.06024159999998,-58.7544444,-12.9904582,6.441103799999999,-1.0108928,-0.2126526,-0.0751014,-111.6353546,74.3956972,169.0206178,162.78371407117706,0.8328379776523402,60.5171426883409,1.035743984612298,-92.1700178,102.4318884,306.0808594
3917.164,26.140316,139.7461516,82.0669128,0.2920686,-0.1769538,0.8155308,-19.239341000000003,-24.8314076,-136.3672088,-56.7240268,-7.5417462,5.791019799999999,-1.0231532,-0.2277713999999999,-0.067768,-112.4228972,74.5843828,169.38089000000002,164.15627062074978,0.8841420701386401,57.51546802796901,1.0503879203190598,-93.1835562,99.4157904,305.74809880000004
3937.149,22.551696,140.16009200000002,83.17701260000001,0.247249,-0.2299184,0.8839098,-19.0569996,-21.614003200000003,-135.6603058,-52.9613634,-2.7446956,6.295251,-1.0040546,-0.2253725999999999,-0.0748616,-113.4683562,74.7434388,169.39563,164.53524183890042,0.9461982208795364,53.40477087561111,1.03175709726974,-94.4113566,96.357442,305.05593580000004
3957.135,26.630566,140.66888720000003,84.4369782,0.1732362,-0.2255322,0.8787606,-18.7641698,-18.3918542,-134.932184,-47.271859000000006,0.5787457999999999,5.857668199999999,-0.996359,-0.1917948,-0.0655856,-114.6163528,74.8739914,169.18627020000002,166.21229244286948,0.9236318240184452,47.63691716261864,1.0167683969889112,-95.852183,93.2658456,304.1184542
3977.121,24.5921062,139.77904640000003,83.5896454,0.1177781999999999,-0.2185118,0.8611599999999999,-18.475293200000003,-15.191145799999996,-134.2102814,-45.8123878,2.368356,6.108242,-0.9883414,-0.1645148,-0.0559018,-115.8621552,74.98101360000001,168.84413160000005,164.71242308321246,0.8962229949819854,46.278446456324446,1.0034983077296344,-97.386862,90.1721594,303.054413
3997.106,20.105267000000005,138.9958464,82.00742480000001,0.0913792,-0.2057502,0.9214468,-18.2413592,-12.0270372,-133.506366,-44.5092544,-1.0223086,7.009948199999999,-1.0176954,-0.1640276,-0.0113,-116.868367,75.1260804,168.72079480000002,162.63236086314845,0.94855021386478,45.06948209025967,1.0308912021852357,-98.6270078,87.1531176,302.2271608
4017.091,17.342747000000003,136.6773344,79.3504928,0.066438,-0.2489728,1.013882,-18.020940000000003,-8.924479,-132.8358552,-47.2363662,-3.1905636,3.3687654,-1.0011906,-0.1814935999999999,-0.0095393999999999,-117.6891846,75.2260682,168.84667059999998,158.99045669409935,1.0461157550232385,47.46369737163745,1.0175527232147137,-99.6682446,84.1505472,301.6825258
4037.077,26.599220000000003,136.8670562,77.658838,0.0126815999999999,-0.2323968,0.9343112,-17.573267800000004,-5.8366782,-132.1870636,-46.359053800000005,-7.034118600000001,0.7710045999999998,-0.9972172,-0.1701578,-0.0235313999999999,-118.1623032,75.3137574,169.3153442,159.59638058857288,0.9628637048275523,46.89600347367974,1.011903922150043,-100.5890354,81.15043560000001,301.5024078
4057.062,18.4715874,135.78485400000002,74.4449142,-0.0440085999999999,-0.2050898,0.9290886,-17.2472832,-2.7922176,-131.57526539999998,-48.5503006,-11.477819,-0.7492906000000004,-1.0482272,-0.1500456,-0.0298821999999999,-118.3241272,75.4092362,170.1509826,155.95118264098713,0.9524726818066542,49.8942226490239,1.059333229336284,-101.076844,78.2014538,301.72624800000006
4077.048,10.4306328,135.9072052,73.471315,-0.0648755999999999,-0.2258195999999999,1.012808,-17.042358,0.2463449999999999,-130.97074279999998,-55.077735200000006,-18.9231582,-6.424671000000001,-1.0917528,-0.1996608,-0.0210613999999999,-117.8763122,75.4749618,171.7489592,154.84702339313006,1.039703505853241,58.59111902397656,1.1100595452201834,-100.8339542,75.2286168,302.71970200000004
4097.033,5.1111798,135.58013599999998,73.7543122,-0.108928,-0.2295866,1.0705142,-16.910129599999998,3.2766742,-130.3483764,-61.3656968,-23.913108,-13.522833,-1.069117,-0.2458654,-0.043922,-116.9078964,75.4438674,102.0107146,154.42731625208503,1.100261772709204,67.23431036543086,1.097902589800279,-99.9977668,72.16719320000001,232.35909100000003
4117.019,7.529203399999998,136.7901122,75.0497376,-0.1952482,-0.2797286,0.9730584,-16.694806,6.3357618,-129.69794919999998,-64.5888756,-28.5773824,-17.201319,-1.0580036,-0.206972,-0.058955,-115.5609344,75.37648899999999,32.729940600000006,156.20719193864286,1.03112200978922,72.69301900078071,1.079668800337381,-98.8661284,69.0407272,162.42788980000003
4137.005,4.057,136.830197,73.7432906,-0.2720048,-0.2466243999999999,0.9746316,-16.5170594,9.3858382,-129.0579834,-72.246788,-33.6838276,-15.515251799999998,-1.0447913999999998,-0.1786808,-0.0604095999999999,-114.0912262,75.3730422,-36.26382759999999,155.48966193472432,1.0414974611668335,81.20912298825095,1.061680374488838,-97.5741668,65.98720399999999,92.7941558
4156.99,0.5319578,136.0603546,71.6089402,-0.3047882,-0.2561356,0.9932846000000002,-16.3805924,12.4123254,-128.44167339999998,-78.5447174,-40.467102,-15.1845384,-1.0105872,-0.1895076,-0.0509943999999999,-112.253885,75.41656499999999,-104.7483734,153.7548158255406,1.0701007378017082,89.65171042509641,1.0294659042887044,-95.8732926,63.004239600000005,23.69330000000001
4176.976,-4.6119724,133.1263396,67.90635300000001,-0.3516524,-0.2352313999999999,1.0182376,-16.335471,15.3542964,-127.8709398,-77.3585234,-45.2381364,-11.523883199999998,-0.9380746,-0.1940643999999999,-0.0521355999999999,-110.1180374,75.527147,-172.9500884,149.51643843562317,1.1026336798889649,90.35280854284828,0.9593555479069686,-93.7825664,60.1728506,-45.0791486
4196.961,-1.9965686,129.32990420000002,63.4478264,-0.4257166,-0.2929346,0.939019,-16.2367158,18.199525,-127.3594744,-72.2143668,-45.9241334,-7.8365184,-0.8947552,-0.1844476,-0.080454,-107.94149480000002,75.681949,-169.2147978,144.06886228967113,1.0718218069034238,85.93806968683597,0.9171044821550052,-91.704779,57.482424,-41.8553234
4216.947,-2.4818998,125.1590256,57.7389092,-0.4943609999999999,-0.2387582,0.8912998,-16.145585,20.930281,-126.9237856,-64.0832656,-46.5892288,-4.515517,-0.933285,-0.1714634,-0.1008496,-105.6183854,75.8734576,-165.497244,137.85761912699834,1.0468111624683225,79.35748902224782,0.9542490401277436,-89.47280040000001,54.9431766,-38.57345840000001
4236.932,-15.199515600000002,121.4335724,53.1724038,-0.5306134,-0.2522852,0.8946448,-16.3104142,23.5676596,-126.5527818,-59.22531360000001,-50.12687519999999,-4.861729599999999,-1.0082534,-0.203259,-0.0737616,-102.81341240000002,76.03821280000001,-161.3886778,133.43328784891324,1.0703213165053007,77.74302414389497,1.0311788949193637,-86.50299820000001,52.4705532,-34.835896000000005
4256.918,-25.8634072,119.474031,51.0054748,-0.5616215999999999,-0.2755268,0.9431004,-16.6865472,26.1441458,-126.2203462,-56.490493,-52.91455080000001,-3.7349808,-1.0210762,-0.296466,-0.0543031999999999,-99.6652144,76.17288679999999,-156.9861052,132.45572231865034,1.131712067438074,77.49242264457344,1.0646302329413155,-82.97866719999999,50.028741,-30.765759000000003
4276.904,-22.4747578,119.7317214,50.4011292,-0.6302945999999999,-0.334132,0.8773356,-17.0041886,28.7247878,-125.9202516,-51.6408142,-49.1855316,-2.8049748,-1.0022634,-0.2685654,-0.0792054,-96.6860518,76.26313640000001,-152.85715940000003,131.83730000349283,1.1307666564064045,71.37126938511152,1.0406405683260094,-79.68186320000001,47.5383486,-26.936907800000007
4296.891,-23.5646176,119.444757,49.0457284,-0.6974549999999999,-0.277655,0.7938962,-17.345999799999998,31.2912666,-125.6547806,-46.695105600000005,-45.7693542,0.1141021999999999,-1.003758,-0.2133254,-0.0753968,-93.868266,76.3637054,-148.9973816,131.25480810892165,1.0926147319272426,65.38562296248506,1.028942430993785,-76.5222662,45.0724388,-23.342601
4316.874,-35.5428982,117.5701676,46.467958200000005,-0.7308362,-0.2880078,0.7748256,-17.9533964,33.807888000000005,-125.4528748,-48.314601800000005,-44.1411956,3.1604474,-0.9928054,-0.1920812,-0.0584608,-91.1758878,76.484404,-145.23569940000002,131.3214112824889,1.1033697270211107,65.51896155967515,1.0129044450486135,-73.2224914,42.67651600000001,-19.7828246
4336.86,-42.226299,115.563556,44.573675,-0.7460348,-0.2963454,0.7812198,-18.7241244,36.2719058,-125.3114808,-48.4830588,-43.6911956,2.8326638,-0.9608538,-0.2403384,-0.0515312,-88.53729080000001,76.53366079999999,-141.5267638,130.86179085435197,1.1201307489861352,65.32649958298353,0.9917953599722272,-69.8131664,40.261755,-16.215283000000003
4356.846,-44.1706038,113.4438202,42.8636318,-0.7716608,-0.3134775999999999,0.7315334,-19.5765326,38.6822068,-125.238649,-41.3890778,-41.6901634,2.251255,-0.9436234,-0.2402834,-0.0542172,-85.9280576,76.5188034,-137.99409780000002,129.06522968139976,1.1085439600096878,58.78940069883497,0.9752439377504276,-66.35152500000001,37.83659659999999,-12.755448800000009
4376.831,-48.6754472,111.6944306,40.9430552,-0.7924680000000001,-0.300903,0.6605526,-20.5611002,41.048188800000005,-125.2352966,-33.1702122,-42.6242752,3.3968026,-0.969821,-0.2240089999999999,-0.0292102,-83.0572614,76.49419259999999,-134.361247,128.53512654635873,1.0746524479103745,54.116818842405465,0.9957841331865254,-62.4961612,35.4460038,-9.125950400000004
4396.817,-56.2773444,110.7737716,38.9811648,-0.8047232000000001,-0.3262484,0.649597,-21.7693378,43.3822928,-125.33378,-31.0348222,-45.232592,2.8807092000000005,-0.9836252,-0.233076,0.002245,-79.9523374,76.4208696,-130.5305296,130.2209628914252,1.0844324365905882,54.931284834045535,1.0108649741068487,-58.1829996,33.0385768,-5.196749600000001
4416.802,-57.91727519999999,111.1021468,37.8901354,-0.820092,-0.3322326,0.6303022,-23.0996994,45.7143638,-125.5464372,-29.8047188,-47.078728600000005,0.8979356000000005,-0.9585674,-0.2691272,0.0086532,-76.76331760000001,76.2568802,-126.6359084,130.89598981936618,1.0863748212710014,55.7273203884888,0.9956685131070682,-53.6636182,30.5425164,-1.0894712000000026
4436.788,-56.06977379999999,110.3849334,36.5034208,-0.8626238,-0.3581976,0.5946768,-24.5006752,48.01643,-125.8954928,-24.6831162,-41.1476804,4.3590242,-0.9178578,-0.2359632,-0.023195,-73.9713544,76.1529756,-123.25189500000002,129.07808793829986,1.1072785726412482,48.18079409494443,0.9479871205876584,-49.47067919999999,28.136545600000005,2.6435978000000007
4456.773,-51.612599,107.902884,34.533435600000004,-0.9175996,-0.3536438,0.5220218,-25.913976,50.272303,-126.374283,-25.6581218,-32.0055006,6.5945714,-0.9114018,-0.1605912,-0.0507223999999999,-71.9013456,76.1150574,-120.5894224,124.49679082366583,1.1133551647492546,41.547318263757205,0.926830910372782,-45.9873696,25.8427544,5.7848606000000045
4476.759,-56.07576059999999,102.3143236,32.0464754,-0.9535544,-0.3385969999999999,0.49378,-27.5083434,52.4112122,-126.9654374,-34.4235864,-24.0400536,6.156908,-0.9231024,-0.172504,-0.0559184,-70.64899439999999,76.1026488,-118.5866026,120.99457973875042,1.125936326160747,42.4360105788657,0.94074573523366,-43.140651000000005,23.691436600000003,8.378834800000002
4496.745,-60.6085038,95.376987,30.599760600000003,-0.9631342,-0.359599,0.5075316,-29.259120400000008,54.4075394,-127.6258148,-43.2706358,-15.624248599999998,7.151031999999999,-0.9266742,-0.2103056,-0.0637877999999999,-70.2578584,76.1424086,-117.28446019999998,117.074786913537,1.1465283481053576,46.55751631601355,0.9523772371102956,-40.998738,21.7348692,10.341354600000004
4516.73,-59.0101006,87.89010640000001,29.8909022,-0.9537656,-0.3680626,0.515639,-31.0074972,56.24432900000001,-128.31012099999998,-45.8570066,-6.6872756,10.4207698,-0.9305748,-0.2151015999999999,-0.0550275999999999,-70.54341439999999,76.29911639999999,-116.6243956,110.00149458146196,1.1449988976340195,47.49923317788816,0.9566954549277216,-39.5359172,20.0547874,11.685725400000004
4536.716,-56.1192688,79.9181566,28.7122192,-0.951457,-0.3624893999999999,0.4785663999999999,-32.7178106,57.9163016,-128.9992354,-50.7984776,0.0930060000000001,12.6757354,-0.939434,-0.1913824,-0.0469132,-71.4462968,76.55166,-116.4954254,101.7874040163007,1.1250310160925874,52.35616720620934,0.959877237838256,-38.728486200000006,18.6353584,12.503810000000003
4556.701,-56.1924408,71.4133882,27.3265468,-0.9406892,-0.3557898,0.4578198,-34.4175268,59.41080000000001,-129.6601592,-55.4902146,4.3255556,14.8242686,-0.9343118,-0.2065884,-0.0455743999999999,-72.81559,76.87447039999999,-116.7458146,94.8904767470266,1.1050255752934952,57.598900051369824,0.9579636384378898,-38.3980632,17.463670399999998,12.914344600000002
4576.687,-54.847074,62.9429962,26.502212,-0.9246,-0.3614462,0.4570656,-36.0354944,60.7282324,-130.25338440000002,-55.35131600000001,8.6002554,17.3619458,-0.9232812,-0.2250309999999999,-0.048739,-74.5661408,77.25989380000001,-117.3876772,87.5921773783917,1.0929032336843918,58.64443484116138,0.9515579936900536,-38.5306464,16.5316614,12.8657072
4596.672,-52.1427352,53.8986908,25.9653982,-0.9146972,-0.3624652,0.4734417999999999,-37.4853174,61.8788558,-130.7162048,-52.9181388,12.7595778,19.3991878,-0.9265226,-0.2130076,-0.0467607999999999,-76.6230544,77.70350040000001,-118.3938952,79.36079389582672,1.0918787143662616,57.78810195005531,0.951841866270422,-39.137737,15.8246446,12.322309599999995
4616.658,-49.9606788,43.7393106,25.6531792,-0.9166268,-0.3660878,0.490056,-38.7234704,62.8684104,-130.98749080000002,-53.2374954,15.4918642,19.3478062,-0.9463852,-0.2142602,-0.0487333999999999,-78.99242699999999,78.15066540000001,-119.7133378,71.18484614710742,1.1019890430140764,58.72449555006004,0.9715592232893678,-40.2689566,15.282255,11.274152999999998
4636.643,-48.6517998,32.6830276,25.5780342,-0.9242478,-0.375398,0.528651,-39.7006486,63.688253,-130.9962646,-52.4833886,15.1699666,17.953071599999998,-0.9788606,-0.2448961999999999,-0.0332337999999999,-81.37559200000001,78.5445816,-121.0641174,63.948524223925695,1.128994922047854,57.50605833700004,1.0095774900765369,-41.6749434,14.8563286,9.9321472
4656.629,-45.558365,21.58528,25.1937038,-0.9361446,-0.4022106,0.578311,-40.3634002,64.33148659999999,-130.7242768,-50.6293336,12.953774,16.1781364,-1.0116548,-0.2645922,-0.0194027999999999,-83.56107940000001,78.87905579999999,-122.2530914,56.357888935922354,1.1715731695385143,54.70705419779217,1.0458637269318216,-43.1976792,14.547569200000002,8.471185400000001
4676.614,-41.494369600000006,10.121693,24.3263196,-0.9483094,-0.4136242,0.6145456,-40.671694,64.79685520000001,-130.150824,-49.8498452,9.4462942,13.7546878,-1.0377962,-0.2711333999999999,-0.0111667999999999,-85.4500426,79.1452622,-123.1571228,49.15283514680509,1.2033461644237538,52.5683457705527,1.072687732171968,-44.7783486,14.348407000000003,6.993701200000007
4696.6,-37.7346978,-1.5171998000000002,22.8826856,-0.9651342,-0.4159488,0.6148266,-40.625933,65.06171119999999,-129.2714432,-48.8147644,5.4012984,10.7622442,-1.0555946,-0.2788548,-0.0175987999999999,-86.9929244,79.3341676,-123.7295364,44.15684107314394,1.2175833344369658,50.27803842686967,1.0919476529548655,-46.3669914,14.2724564,5.541906800000009
4716.585,-35.0165398,-12.806225800000002,21.45142,-0.9785484,-0.395544,0.5977868,-40.2364868,65.1217668,-128.07793580000003,-47.0396584,1.9460324,8.684388600000002,-1.0575148,-0.2681456,-0.0294287999999999,-88.2086166,79.4776978,-124.0043748,43.01535654649359,1.212996737560658,47.87415910328191,1.091377876488176,-47.9721298,14.355931000000002,4.0735610000000095
4736.571,-33.9303802,-23.8581666,20.441432,-0.9876086,-0.3624362,0.5689522,-39.5389136,64.9849182,-126.5722472,-46.6476258,-0.717198,6.8435866,-1.0465324,-0.2304186,-0.049119,-89.2031874,79.598729,-124.0608874,46.24213399315101,1.1960089262832614,47.15241291068496,1.0727233900855897,-49.6642738,14.6138108,2.511359800000005
4756.556,-35.1173804,-35.144503400000005,19.7416662,-0.9890504,-0.3188054,0.539562,-38.5848182,64.6486854,-124.7586652,-48.3043366,-2.479887,5.140223199999999,-1.0354346,-0.1973182,-0.0640873999999999,-90.090222,79.7003556,-123.9734592,53.46120004024544,1.1708905707423387,48.64031937029903,1.0560144306623658,-51.5054038,15.051670199999998,0.7852060000000052
4776.542,-36.346261600000005,-45.929436200000005,19.4000204,-0.9888906,-0.2797148,0.5175942,-37.4114372,64.118624,-122.673393,-49.5625406,-4.6242868,3.728897,-1.0311976,-0.1819443999999999,-0.0856233999999999,-90.8008788,79.7811614,-123.6805804,61.70028065953933,1.1506731699231716,49.91727288195852,1.0506205887782136,-53.3894416,15.6625374,-1.007187399999998
4796.528,-36.6379898,-56.7437662,19.926228,-0.9942516,-0.2619586,0.5218398000000001,-36.0358314,63.40265860000001,-120.3462874,-49.1009112,-7.465201,2.9349304,-1.0080198,-0.1879095999999999,-0.1265109999999999,-91.1514006,79.85435319999999,-123.0326906,70.42195581956774,1.15302876333618,49.75180924442377,1.0331597011523437,-55.1155692,16.4516946,-2.686403200000001
4816.513,-33.739241,-68.3720658,21.1854982,-0.9952744,-0.2555126,0.51155,-34.4285358,62.4964438,-117.814154,-45.7227282,-7.690948199999999,3.5036947999999994,-0.9724001999999998,-0.1407212,-0.1491678,-91.3652388,79.93995199999999,-122.3161928,79.13217486583959,1.1478419850110553,46.497251913609965,0.9937885276286498,-56.936703,17.4435082,-4.502038800000003
4836.499,-31.4241314,-80.94079359999999,22.3647992,-0.999577,-0.216104,0.5069086,-32.6494248,61.36847,-115.1241364,-45.4642922,-6.8171994,2.9599932,-0.9581284,-0.121512,-0.1333952,-91.6136596,80.01345979999999,-121.6419114,89.66087410960584,1.1414076600842311,46.06775046223103,0.9749715259501684,-58.9642348,18.6449898,-6.517775
4856.484,-29.0263874,-93.1379532,23.1668344,-0.9951134,-0.2189776,0.5373294,-30.761706200000003,60.000304400000005,-112.3352952,-46.2881906,-5.5768198,2.4284282,-0.9628166,-0.1410756,-0.1205738,-91.9688644,80.0650878,-121.0608306,100.26919620649848,1.1519221988770247,46.68613039893278,0.980538714889606,-61.2071582,20.064783400000003,-8.725535400000002
4876.47,-24.4578242,-104.16935119999998,24.587319200000003,-0.9974856,-0.2280262,0.5640906,-28.7808704,58.4143456,-109.4961,-46.6648308,-4.467805,1.4525823999999998,-0.9665066,-0.1495098,-0.0943476,-92.3943664,80.0923844,-120.5452636,109.7905968627083,1.1684056124061368,46.90072185733865,0.9825424457830612,-63.613496,21.678038800000003,-11.0491636
4896.455,-19.9659104,-113.5150284,25.713179200000003,-0.9976252,-0.2119327999999999,0.5743374,-26.7717292,56.6419268,-106.6743958,-48.647724,-2.7702056,-0.0103704000000002,-0.986517,-0.1184548,-0.0456262,-93.0422622,80.0955522,-120.2151138,118.09092613458895,1.170484942419013,48.72653483464264,0.9946502305124548,-66.270533,23.4536254,-13.540717999999998
4916.441,-18.0648834,-121.229866,25.9770536,-1.0036574,-0.1965912,0.6205907999999999,-24.8508452,54.68913739999999,-103.9285432,-54.2056364,-2.9823164,-2.2007384,-1.0105856,-0.1503556,-0.0303717999999999,-93.8356596,80.060759,-119.9177336,125.2909722859984,1.196289771559065,54.33220479737546,1.022160705375608,-68.9848144,25.371621600000005,-15.989190399999998
4936.426,-13.5868548,-127.6701264,26.1699324,-1.0112126,-0.2331454,0.6658172,-23.012667,52.5802918,-101.3068512,-55.8825416,-3.0263832,-3.7122862,-1.0157296,-0.1719862,-0.0616306,-94.739961,79.9926284,-119.6958236,131.03102365534977,1.2329721179960884,56.08741855157611,1.0320291682714011,-71.727294,27.412336600000003,-18.3889724
4956.412,-6.894667200000001,-134.3414856,26.840537,-1.0333344,-0.2275852,0.6846688000000001,-21.2173892,50.327240800000006,-98.827411,-54.11272799999999,-1.8559198,-5.0260012000000005,-0.995182,-0.15248,-0.0990782,-95.7545194,79.901477,-119.620752,137.16991512522756,1.2602961442358855,54.37731565614854,1.011658960934583,-74.53713020000001,29.5742362,-20.793341
4976.397,-2.4392141999999994,-142.74367060000003,27.18245,-1.0463548,-0.2200879999999999,0.7038238,-19.5016728,47.8892434,-96.4873856,-51.1993354,1.3516728,-6.402500399999999,-0.9685804,-0.145211,-0.1387658,-97.071359,79.7759094,-119.9106796,145.32924980979325,1.280103525764022,51.61580161280025,0.9891866219449188,-77.5696862,31.886666,-23.423294
4996.383,1.8267912,-153.0445068,27.550146,-1.0462806,-0.2239388,0.7490006,-17.8613872,45.2240714,-94.2744004,-45.905368,5.992713999999999,-6.952923,-0.9465636,-0.1609941999999999,-0.1647574,-98.7737746,79.61379539999999,-120.6992966,155.51517216131987,1.3060832970688203,46.814085172575446,0.97419032130963,-80.91238739999999,34.389723999999994,-26.4248962
5016.369,5.2782216,-164.36686100000003,28.2396754,-1.0274496000000002,-0.2224856,0.8022132,-16.3022052,42.3105834,-92.1790084,-38.6345532,10.3436454,-8.6138886,-0.9517012,-0.1804756,-0.1455174,-100.6348664,79.393991,-121.800525,166.85863443331127,1.3223836587774973,40.91233038996656,0.9795314849353032,-84.33266119999999,37.0834076,-29.6215166
5036.354,7.2187826,-175.1644928,28.718614,-0.9912334,-0.2099803999999999,0.8493648,-14.8526576,39.1600746,-90.1994766,-31.7729404,14.6103842,-10.0033434,-0.9611540000000002,-0.1849156,-0.121137,-102.611812,79.1278106,-123.1633422,177.6498498456678,1.322140682809042,36.37375354994155,0.9862479219792356,-87.75915439999999,39.967736,-32.9638656
5056.34,6.761901800000001,-185.2882598,28.819977800000004,-0.9443144,-0.2055276,0.8940708,-13.5675716,35.771906200000004,-88.3368498,-25.0957146,18.0356652,-11.0299228,-0.9759754,-0.2041662,-0.0968797999999999,-104.665111,78.81321399999999,-124.7424316,187.63809223091567,1.31656138323352,32.81370609158777,1.0017971422776368,-91.0975394,43.041307800000006,-36.4055818
5076.325,6.198473399999999,-193.827188,28.401418,-0.8894464,-0.2044734,0.9415908,-12.4526852,32.1731028,-86.59971900000001,-19.4277544,21.5314578,-11.8484762,-0.9890744,-0.2173942,-0.0704626,-106.7645724,78.44917740000001,-126.4880828,195.99500102014997,1.3113037422447782,31.327746556078157,1.015132200714646,-94.3118872,46.2760746,-39.8883638
5096.311,5.2622864,-200.806787,27.248168600000003,-0.8233824000000001,-0.1914824,0.9832148,-11.5153118,28.4044434,-84.9971372,-13.8540492,25.0131318,-12.5832588,-0.9973384,-0.2229268,-0.0580036,-108.8819934,78.0364378,-128.37040240000002,202.7153670925641,1.2966631902998405,31.23987585935593,1.0235939917202328,-97.3666816,49.6319944,-43.373265200000006
5116.296,2.5571154,-206.7920654,25.6667446,-0.7611784,-0.1844549999999999,0.9803278,-10.7906368,24.4811952,-83.52697739999999,-9.8219314,28.1051026,-13.861621,-1.0030946,-0.2081392,-0.0517332,-111.0111436,77.57594739999999,-130.3502654,208.3945271112666,1.25477440167721,32.84070135259711,1.025766555853738,-100.2205068,53.0947522,-46.823288000000005
5136.282,-1.095611,-212.1725006,22.9085126,-0.6902336,-0.1981358,1.0029651999999998,-10.2825452,20.4153076,-82.1871672,-7.696563,30.300692200000004,-14.4254702,-1.0063838,-0.2148514,-0.0545768,-113.1054886,77.077095,-132.3420196,213.4084588854544,1.2335393833281691,34.43055649133772,1.0305086627887414,-102.8229434,56.6617874,-50.1548524
5156.267,-4.2269204,-216.6038452,19.986716,-0.6185436,-0.1792626,1.0042694,-9.9657488,16.23701,-80.9606094,-5.7816236000000005,30.806002,-16.582234399999997,-1.0108488,-0.2102336,-0.0520094,-114.9800536,76.53244179999999,-134.15157760000002,217.56507400765904,1.1930164678813449,35.45994117835821,1.0337883926214106,-105.0143048,60.2954318,-53.1909682
5176.253,-9.8961138,-220.5666962,15.9615532,-0.541516,-0.1734374,1.0137360000000002,-9.8749458,11.962311,-79.8437028,-3.92534,27.5255912,-18.4421402,-1.031519,-0.2007986,-0.0478604,-116.3902358,75.9874344,-135.5250334,221.36479331971933,1.1623169910445086,33.36433725074685,1.0519705998796356,-106.51529,64.0251234,-55.6813306
5196.238,-15.6276364,-223.4059936,11.5309594,-0.4689626,-0.1818514,1.0002636,-10.0000254,7.6048269999999984,-78.8235018,-6.199626,20.0720996,-20.4585348,-1.0542358,-0.1954596,-0.0380324,-117.1552564,75.4795594,-136.1897154,224.248576406938,1.1196084678876272,29.323645596259126,1.0728765262990705,-107.155231,67.8747324,-57.3662136
5216.224,-18.8533622,-224.8026672,6.2870086,-0.3951972,-0.1878651999999999,0.9843802,-10.2780396,3.2045804,-77.8985232,-9.3089558,9.3575466,-21.3585402,-1.0567858,-0.1972212,-0.0506345999999999,-117.19727,75.0532396,-136.0431334,225.67945170886696,1.0772550944000776,25.107918590208573,1.0762231606540718,-106.9192304,71.8486592,-58.1446102
5236.209,-23.434998,-225.21026,1.5226580000000003,-0.3244858,-0.163239,0.9507574,-10.7202892,-1.2182278000000004,-77.0441074,-12.9044856,-3.459234400000001,-23.150578,-1.067846,-0.1788563999999999,-0.0398036,-116.41255780000002,74.7027238,-134.96533499999998,226.43139982765769,1.0177807421922465,26.72903501753916,1.0834523607939204,-105.6922686,75.9209516,-57.92122760000001
5256.195,-28.2331406,-224.7195344,-4.3848916,-0.2404556,-0.1879334,0.9320354,-11.3206894,-5.646439,-76.2669238,-19.7233766,-17.8657138,-25.2104366,-1.073986,-0.1640024,-0.0472321999999999,-114.8303314,74.43541259999999,-132.91549819999997,226.52860005623108,0.9807282219147564,36.65735161808007,1.0874619975514548,-103.509642,80.08185160000001,-56.64857440000001
5276.18,-27.3264656,-222.5986878,-9.7844034,-0.1730246,-0.1984498,0.888519,-11.9537956,-10.0466976,-75.5523654,-26.5982048,-30.7715148,-27.8669544,-1.0635082,-0.1575205999999999,-0.0566908,-112.57596119999998,74.2041398,-130.0203994,224.48306413260616,0.9267069918189892,49.3043382391554,1.076604048708828,-100.6221656,84.2508374,-54.468034
5296.166,-23.1967908,-219.3105072,-15.030311,-0.1119121999999999,-0.2017236,0.8501056,-12.545054,-14.397164,-74.9008776,-29.231345600000004,-40.9548678,-30.5488578,-1.042982,-0.1604207999999999,-0.081387,-109.799237,73.9583756,-126.51931599999998,221.0454702555493,0.8808497502168914,58.86429711622095,1.0583808998492177,-97.25418299999998,88.3555396,-51.6184384
5316.152,-20.0389664,-215.7993712,-19.5079456,-0.0503394,-0.188824,0.8395146,-13.1086862,-18.6918782,-74.2992922,-25.886982600000003,-47.1434664,-33.2909636,-1.0309488,-0.1754848,-0.0973144,-106.647345,73.6472672,-122.68959180000002,217.6039722207025,0.861959002378605,63.2529094173316,1.050295404017289,-93.5386588,92.3391454,-48.3902996
5336.137,-17.5665506,-212.6544126,-23.7662896,-0.0017176,-0.198449,0.8237184,-13.65266,-22.9386626,-73.7413912,-18.8914956,-48.26667260000001,-37.6239944,-1.0174334,-0.167095,-0.121204,-103.373378,73.2086822,-118.8720808,214.6982054409968,0.8472880019505291,64.04783559568304,1.0381627387247918,-89.72071799999999,96.1473448,-45.1306896
5356.123,-11.616043,-207.5925474,-27.151945,0.0321754,-0.1838172,0.769809,-14.0972862,-27.098796400000005,-73.2261508,-8.9233052,-45.4076256,-37.06001860000001,-0.9794686,-0.1681254,-0.1203812,-100.2504332,72.70777439999999,-115.4130522,209.6826800388676,0.7921047379368463,59.28678450510257,1.0010577015459998,-86.153147,99.8065708,-42.1869014
5376.108,-11.9287444,-202.7992156,-30.911877200000003,0.0875508,-0.1543472,0.7278034,-14.550845,-31.1814442,-72.76852740000001,2.5965124000000004,-40.1411364,-31.1794746,-0.9609774,-0.1793684,-0.1224689999999999,-97.4437744,72.25692740000001,-112.5168074,205.4881041397864,0.7491234809963174,50.894128781803545,0.9852153278295664,-82.8929294,103.4383716,-39.74828
5396.094,-15.5356562,-197.9831634,-34.2597312,0.1527384,-0.1536002,0.7019872,-15.077268800000002,-35.184972800000004,-72.3585084,9.9262256,-30.5568486,-26.2743966,-0.9568536,-0.168544,-0.1109762,-95.212854,71.8447616,-110.3754654,201.52523113826703,0.7346482622578236,41.5041548247824,0.977901635511159,-80.1355852,107.0297344,-38.016957000000005
5416.079,-15.438710600000002,-191.536203,-37.1054348,0.2206077999999999,-0.1621739999999999,0.6492153999999999,-15.599709,-39.0703152,-71.993544,10.2280372,-19.9153626,-18.9749646,-0.9526534,-0.1858392,-0.1144696,-93.7547194,71.5280426,-109.0478882,195.70713869541092,0.7045912597343228,29.347635237363093,0.9773371977533446,-78.1550104,110.5983578,-37.0543442
5436.065,-14.2716412,-182.8056916,-38.958206,0.2996022,-0.167549,0.590532,-16.0930532,-42.7900452,-71.671321,9.383809,-5.7536348,-10.267367,-0.9370186,-0.2407753999999999,-0.1217634,-93.2740188,71.34797520000001,-108.728563,187.45490774752813,0.6830535767198939,15.05254164162787,0.975091265251966,-77.1809656,114.1380204,-37.057242
5456.05,-15.3119782,-174.0239472,-38.554945200000006,0.3775976,-0.1650736,0.5411322000000001,-16.638293400000002,-46.33432319999999,-71.33507820000001,10.299807,9.2452574,-1.0038896000000002,-0.9310904,-0.284999,-0.1345798,-93.730919,71.311914,-109.4160844,178.90018075686976,0.6801862236325873,13.87690898429805,0.9829880393683332,-77.09262559999999,117.6462372,-38.0810062
5476.036,-14.4844358,-164.6826722,-36.5265814,0.457094,-0.1875182,0.5031998,-17.245975400000003,-49.6829606,-70.9261884,12.5648236,26.5949732,5.5983766,-0.9224713999999998,-0.3018126,-0.136486,-95.2152696,71.3521516,-111.2353838,169.30555972013383,0.7052007082294232,29.94176367823483,0.9801391521272476,-77.96929420000001,121.0351122,-40.3091954
5496.022,-10.871004,-154.9362184,-33.41391420000001,0.5138356,-0.1819916,0.4268887999999999,-17.8847922,-52.8260422,-70.41328419999999,16.425621,42.1666334,12.8153952,-0.8922556,-0.3109852,-0.1376536,-97.6349978,71.4729004,-114.1187684,158.87070265541558,0.6923741863063353,47.03254566422936,0.9548719097048358,-79.7502056,124.2989426,-43.7054842
5516.007,-9.1381366,-145.9417238,-30.9106202,0.5734201999999999,-0.1834848,0.3660074,-18.5829474,-55.7953912,-69.8071914,22.9523818,54.9093568,17.9507422,-0.8730422000000001,-0.3059134,-0.1295794,-100.7392262,71.6186844,-117.8616654,149.45888641156267,0.7045841429196658,62.16171200999485,0.9341180397491315,-82.15627880000001,127.4140756,-48.054474000000006
5535.993,-5.738634,-136.799605,-28.1570784,0.6227392,-0.173924,0.3008728,-19.3030226,-58.57541199999999,-69.109996,31.1578146,62.5398188,21.990963,-0.8709186000000001,-0.2959384,-0.1302439999999999,-104.1789752,71.7539094,-122.128769,139.7851383816095,0.7131466264187751,73.25053446803085,0.929000669513494,-84.8759526,130.3293214,-53.01877300000001
5555.978,-4.2793064,-127.3822756,-26.819635,0.6824638000000001,-0.1792344,0.258532,-20.0417182,-61.1668274,-68.3738602,36.77718539999999,68.19790900000001,21.8430968,-0.8851842,-0.2793014,-0.1403648,-107.8523256,71.78705620000001,-126.7586762,130.24534318674375,0.7514789441346976,80.50240391275545,0.9387558878913304,-87.81060740000001,132.9538836,-58.384816
5575.964,0.8257410000000001,-115.9731112,-24.8775166,0.7295876,-0.171117,0.198482,-20.692911200000005,-63.5292084,-67.629924,37.9799396,68.640738,20.1393448,-0.8937136000000001,-0.2877003999999999,-0.1648657999999999,-111.48967439999998,71.6918154,-131.37754660000002,118.61422849637356,0.7752252563524745,80.99148062714731,0.9532451159039632,-90.7967632,135.2210238,-63.747622600000014
5595.949,3.2573938,-102.7355746,-22.5685156,0.7896373999999999,-0.1568776,0.1470759999999999,-21.2883232,-65.6218018,-66.9041182,38.8389144,64.7860054,17.078939,-0.9116566,-0.3151286,-0.1818544,-114.749881,71.4758502,-135.62323,105.23567265498846,0.8183942537900177,77.44273965211379,0.9815777165669972,-93.4615578,137.097652,-68.71911180000001
5615.935,2.5435330000000005,-87.8634944,-18.7222092,0.833804,-0.1487358,0.1024598,-21.909208,-67.39556200000001,-66.1745086,37.5250258,59.702303400000005,13.408432,-0.9132234,-0.3276318,-0.1987171999999999,-117.5938826,71.1676394,-139.408844,89.87204418299099,0.8531409374972462,71.77937476221803,0.9903575618202952,-95.6846746,138.5632014,-73.2343354
5635.921,3.757166,-71.66820019999999,-14.392535,0.8827375999999999,-0.1518818,0.0617034,-22.5018078,-68.83329020000001,-65.45777739999998,32.081555800000004,49.4589932,10.9694806,-0.9084456,-0.3380646,-0.2012508,-119.8409622,70.861748,-142.4576934,73.19557554924381,0.8978313099889977,59.96455399267084,0.989981296001677,-97.3391544,139.6950382,-76.99991600000001
5655.906,7.649135799999999,-54.5870138,-9.251754,0.9104096,-0.1420378,0.0324362,-22.9953442,-69.9134782,-64.769004,26.3493758,38.447054,6.988143000000001,-0.9026226,-0.3381485999999999,-0.1903263999999999,-121.4260956,70.565845,-144.6937286,55.89137953356267,0.921993754572904,47.13066633219809,0.9824948713604972,-98.4307514,140.4793232,-79.9247246
5675.892,8.6512674,-37.4825706,-4.4880566,0.9287826,-0.1213886,0.010097,-23.3922012,-70.6395844,-64.16462179999999,19.9033956,27.267439000000003,2.0247780000000004,-0.901173,-0.3226772,-0.1722704,-122.3727494,70.2949236,-146.1234254,38.728932059315696,0.9367359604935216,33.81949307689435,0.9725792728847352,-98.9805482,140.934508,-81.9588036
5695.877,8.2939866,-20.6958202,-0.4611507999999998,0.9336194,-0.1100781999999999,0.0102791999999999,-23.6606452,-71.0239074,-63.70510879999999,11.439533,16.134141800000002,-0.6169024,-0.8959062000000001,-0.3064572,-0.1690282,-122.8552002,70.0988328,-146.88257140000002,22.300669217134452,0.9401425722326586,19.787723857273782,0.9618391066210192,-99.194555,141.1227402,-83.17746260000001
5715.863,9.7077812,-3.8091204,3.062366,0.9351108,-0.0985322,0.0169292,-23.7167532,-71.0692168,-63.4406182,2.31579,5.469573800000001,-2.3088826,-0.9014638,-0.2920674,-0.1669886,-122.96734940000002,69.9963928,-147.0542878,10.86869355381435,0.9404400036823828,6.372602273665697,0.9621982858970182,-99.2505962,141.06560960000002,-83.61366960000001
5735.849,9.4677416,12.646678,6.3392904,0.921681,-0.0829156,0.0347528,-23.5809764,-70.78589780000001,-63.3839484,-5.885756,-2.4658951999999994,-3.643661,-0.9028328,-0.2826018,-0.1675144,-122.841832,69.9618758,-146.79790359999998,17.02243220622678,0.9260554084892544,7.348403113047081,0.9607455002894576,-99.2608556,140.74777360000002,-83.4139552
5755.834,8.534492799999999,28.5469522,9.4254268,0.9101292,-0.0790588,0.0545282,-23.2779754,-70.18562320000001,-63.5240906,-14.5572004,-11.301185,-3.3962974000000004,-0.905879,-0.2906594,-0.1703082,-122.4819886,70.02159700000001,-146.1082246,31.25067547469166,0.9151823748004112,18.73936236693319,0.9664908341192896,-99.2040132,140.2072202,-82.58413399999999
5775.82,8.5228834,43.200079,12.829555,0.8929389999999999,-0.0816308,0.092191,-22.8541652,-69.3057052,-63.7935806,-21.7445198,-19.666581,-3.2940508,-0.8943418,-0.2950228,-0.1802188,-121.8855164,70.161018,-145.0129028,45.86375310148812,0.9013893862868808,29.503378115652005,0.9588349824764008,-99.0313512,139.4667232,-81.2193222
5795.805,9.3212138,56.7141008,16.805206,0.8763615999999999,-0.0820652,0.1214552,-22.3630566,-68.14505460000001,-64.11880099999999,-27.061542600000003,-28.0456106,-4.04448,-0.8948674000000001,-0.2966053999999999,-0.1788104,-120.960646,70.36626100000001,-143.45675039999998,59.88145960946767,0.8885357148773705,39.18215384953776,0.959549678776498,-98.5975894,138.51131560000002,-79.3379494
5815.791,8.948170999999999,69.26750799999999,20.7913608,0.8581942,-0.0805802,0.1448326,-21.8667196,-66.7209862,-64.4596588,-30.863854600000003,-35.8463464,-5.2877008000000005,-0.9054632,-0.2942406,-0.1737964,-119.6667876,70.61880620000001,-141.4303282,72.87206675188429,0.8740520210882416,47.59724625174292,0.967804900739586,-97.800068,137.3397924,-76.97066939999999
5835.79,8.534791799999999,81.0513458,24.6221542,0.8388524,-0.0930098,0.1694442,-21.3910692,-65.0482918,-64.7907654,-33.3800598,-42.5572736,-6.6095162,-0.9013346,-0.2871446,-0.1651762,-118.0107834,70.8968916,-138.9694882,85.13761685946527,0.8608341935561343,54.48885787860575,0.96028082325576,-96.6197142,135.9451834,-74.1787228
5855.762,8.9212916,92.295662,28.494239,0.8145313999999999,-0.0951332,0.2048218,-20.9371546,-63.1400138,-65.0931686,-35.242564,-49.5533932,-8.7765912,-0.9192274,-0.2906608,-0.1465342,-115.89871680000002,71.1735838,-135.99259320000002,97.00515617233756,0.8452595442131605,61.43781936250521,0.9751589538824118,-94.9615622,134.3135976,-70.8994246
5875.747,8.3936532,103.0385742,32.205713,0.7985787999999999,-0.0969096,0.2268161999999999,-20.5242792,-60.990651,-65.3648376,-37.1614432,-54.311192000000005,-8.930411000000001,-0.9204656,-0.2892458,-0.1251526,-113.487642,71.45629260000001,-132.6648284,108.28023428608356,0.8358021051445371,66.41107345764419,0.9729250880143652,-92.9633628,132.4469436,-67.2999908
5895.733,7.20112,113.6507904,35.476648,0.7633762,-0.1112222,0.2438876,-20.1592402,-58.621277,-65.6148086,-38.8469664,-59.109654,-6.0036722000000005,-0.9182556,-0.2771034,-0.1061058,-110.8017672,71.79083080000001,-129.01754920000002,119.27678248978314,0.8090703071631291,70.98649219652636,0.965006778223117,-90.642527,130.4121078,-63.4027406
5915.719,8.0376862,125.0429916,38.0194878,0.7291188,-0.1368831999999999,0.25596,-19.7794478,-56.0223786,-65.8712188,-40.12265,-62.5677496,-2.2927998,-0.9393018,-0.2966358,-0.0833768,-107.8598986,72.157733,-125.0838318,130.9421078198365,0.784771786289288,74.3626738623194,0.9885506360845256,-88.08045080000001,128.18011159999998,-59.212613
5935.704,8.217425,135.14920360000002,40.9291918,0.6930994,-0.1339004,0.321583,-19.4149854,-53.212101800000006,-66.10948479999999,-41.805552600000006,-60.317047,-0.4046924,-0.935271,-0.3019408,-0.0577884,-105.0019914,72.495767,-121.2110794,141.4497509674233,0.7757136851245567,73.38946901926866,0.9844996644591608,-85.587006,125.7078688,-55.1015946
5955.69,7.422168999999999,144.2713592,44.0965906,0.6515478,-0.1411004,0.362642,-19.1037674,-50.2081246,-66.3075302,-41.5467094,-55.857618,4.7690802,-0.9337004,-0.2918447999999999,-0.0510718,-102.4079408,72.8632568,-117.6248108,151.04245423265604,0.7589025489013724,69.77783800431197,0.979580600564568,-83.3041734,123.0713814,-51.3172806
5975.675,7.254568600000001,153.1758454,46.8374734,0.5819715999999999,-0.1696144,0.3759586,-18.8277154,-47.0126518,-66.47583460000001,-40.1939614,-49.5523526,9.941188,-0.9426846,-0.2732134,-0.0369372,-100.156189,73.27901299999999,-114.430603,160.34094079202765,0.7133055844502271,64.57412330082973,0.9821731892902392,-81.3284736,120.2916648,-47.9547684
5995.661,6.906746200000001,161.952835,49.1511308,0.5231237999999999,-0.178121,0.3961322,-18.5846134,-43.6398598,-66.6255218,-39.1636834,-41.4767346,14.8235874,-0.9496293999999998,-0.2809558,-0.023575,-98.3137924,73.7207214,-111.6933044,169.38789084975096,0.6799311146316809,58.93939560209039,0.9905997877664824,-79.729179,117.3605812,-45.0677826
6015.647,0.3299956000000001,167.84072880000002,51.9559678,0.4638897999999999,-0.1549196,0.5264758,-18.508103,-40.133329200000006,-66.7322554,-38.2904154,-32.200057400000006,16.113777,-0.9557354,-0.2990898,-0.0019743999999999,-96.9747222,74.1324294,-109.5044572,175.69872433016073,0.7185893103809992,52.56094954691726,1.0014433391523256,-78.4666192,114.2657586,-42.7722018
6035.632,-4.3512684,173.24342640000003,55.10197459999999,0.4110142,-0.2105375999999999,0.5656762000000001,-18.5605204,-36.5036488,-66.7967376,-37.0026674,-25.0079672,18.0639964,-0.9708444,-0.2670558,-0.0083835999999999,-96.1071456,74.5704864,-107.833446,181.8473148889477,0.7302385342214146,48.175759299989366,1.0069398860279395,-77.54662520000001,111.0741352,-41.0367084
6055.617,-0.5431301999999996,179.04893800000002,57.432303000000005,0.3220975999999999,-0.2573638,0.5871818,-18.5484294,-32.7464006,-66.8503554,-37.105539,-13.5296426,20.9108266,-0.9693746,-0.2535516,-0.0055625999999999,-96.0615462,75.03691239999999,-107.01449759999998,188.03533342759232,0.7174715713723018,44.689315529100725,1.0020012332859076,-77.5131168,107.783313,-40.1641422
6075.603,2.4095614,184.39817800000003,58.8802858,0.2701346,-0.2310165999999999,0.614124,-18.4758902,-28.8784924,-66.90689379999999,-36.7885574,-10.839919599999998,21.3474452,-1.012815,-0.2608626,0.0059014,-96.1488296,75.5023924,-106.3441484,193.58559370921623,0.7095700521926781,43.89322532093719,1.04588639288678,-77.6729394,104.38088480000002,-39.4372546
6095.588,-8.5181786,186.52836,60.1246042,0.2085273999999999,-0.2261401999999999,0.7673363999999999,-18.620301,-24.9562716,-66.9584624,-38.685433,-7.878084200000001,17.3700656,-1.0597106,-0.2711308,0.0309376,-96.3951294,75.8816772,-105.8035402,196.16410599586703,0.8266971739226885,43.13172980542378,1.094283145056507,-77.7748284,100.8379488,-38.8450778
6115.574,-4.1196776,190.1403136,61.976073,0.1545869999999999,-0.3322902,0.7899693999999999,-18.685394,-20.9553742,-67.0050552,-42.0180028,-4.8333764,16.035552199999998,-1.0105774,-0.2232018,0.0027926,-96.9603592,76.2318634,-105.5221772,200.02835854932076,0.8708418745796506,45.23287544567346,1.034936482847503,-78.2749652,97.1872376,-38.51712199999999
6135.56,9.885862,194.2510284,62.2736002,0.0327951999999999,-0.3018382,0.7657341999999999,-18.4680048,-16.876673599999997,-67.0652954,-40.02550599999999,-7.610522599999999,17.328573,-1.0066284,-0.2352227999999999,0.0039022,-97.2463654,76.6045608,-104.9965072,204.22828791284056,0.8237297427991295,44.27460476410236,1.0337532241745315,-78.7783606,93.4812344,-37.9312118
6155.545,-1.3133904,194.5873748,60.65459,-0.0292558,-0.2554698,0.7848972,-18.4743814,-12.8017018,-67.1478286,-38.4877898,-20.6666402,14.119715,-1.0471352,-0.2253964,0.0162232,-96.3360932,76.9410294,-103.2749556,203.82578520385147,0.8259445109167564,45.91063419869589,1.0712417357581996,-77.8617118,89.74273120000001,-36.127127
6175.531,-14.0533932,194.14770200000004,60.4951478,-0.1054684,-0.3226128,0.9216776,-18.741081,-8.737430400000001,-67.2415466,-43.5266662,-26.9827644,12.2776674,-1.0364652,-0.2312045999999999,0.0239534,-94.89693,77.2284852,-100.908934,203.83937539067,0.9821874568859856,52.6629030906686,1.062209698338214,-76.155849,85.96591559999999,-33.6673874
6195.516,0.2586850000000005,197.1394072,60.38125,-0.16815,-0.3804156,0.901349,-18.7302002,-4.609729799999999,-67.3674164,-44.1800736,-32.8161924,11.6478782,-0.9757586,-0.2216783999999999,-0.0052249999999999,-92.941452,77.4838578,-97.9992416,206.1793106513336,0.9926834697043968,56.253483923196,1.000636526979462,-74.21125179999999,82.0935876,-30.6318252
6215.502,5.671029800000001,198.4468902,57.8057342,-0.2988986,-0.3278492,0.824564,-18.620639,-0.4736477999999998,-67.5425384,-36.0665064,-39.1860202,11.2464492,-0.987726,-0.2162356,-0.0048291999999999,-90.1927674,77.7188538,-94.4444198,206.77241526723145,0.9363392873945854,54.43178926532022,1.011129965412953,-71.57212840000001,78.19250159999999,-26.9018814
6235.487,-7.0594832,197.5862792,54.268476,-0.358663,-0.3371342,0.8806062000000001,-18.7819888,3.6235934,-67.78237140000002,-33.8333688,-42.7385436,9.2218436,-1.01921,-0.2064664,0.0194114,-86.94884640000001,77.88761600000001,-90.4317596,205.02497779176565,1.008843841165262,55.28401534610864,1.0400933616166002,-68.1668576,74.2640226,-22.6493882
6255.473,-0.2250533999999994,198.8611998,52.32414,-0.4206064,-0.38778,0.9737132,-18.8304736,7.7428038,-68.0796814,-34.0430626,-40.3790848,8.864174,-0.9901284,-0.2242556,0.0209348,-83.8575438,77.992137,-86.572319,205.62986908926425,1.1293362953412949,53.55347030002245,1.0154226156970112,-65.0270702,70.2493332,-18.4926376
6275.459,12.7089874,200.3359252,48.2402152,-0.5222782,-0.3752288,0.9218836,-18.656916,11.8641512,-68.463591,-25.243337,-37.0063354,8.4436136,-0.9332134,-0.1956372,-0.0178353999999999,-80.8701018,78.06396939999999,-82.99903400000001,206.4536743412809,1.1240287107069995,45.58497047557415,0.953666223296474,-62.2131858,66.1998182,-14.535443
6295.444,12.4346908,197.8309632,42.757468800000005,-0.6477762000000001,-0.3533022,0.8687582,-18.5321622,15.8961716,-68.9327224,-15.5456094,-30.6800492,9.9335446,-0.9228292,-0.189967,-0.0455586,-78.1723998,78.166246,-79.9221984,202.78045436904003,1.1398145725856117,35.79953489714605,0.9432797991559028,-59.6402376,62.2700744,-10.989476
6315.429,7.982860400000002,193.147699,37.7923774,-0.7170656,-0.3503458,0.8979522000000001,-18.5486684,19.8083602,-69.4759048,-8.7407204,-22.80202,10.5144328,-0.9483312,-0.1810006,-0.0531266,-75.9919906,78.295749,-77.51489860000001,196.9721388387315,1.201350659784994,26.587320404604373,0.9669103979797506,-57.4433222,58.4873888,-8.038993800000002
6335.415,7.931516000000002,188.230655,33.797507,-0.7767804,-0.3585014,0.9119068,-18.6226918,23.6059058,-70.08374479999999,-2.5812236,-15.969568,11.218779,-0.9632522,-0.19637,-0.0600485999999999,-74.3198456,78.4463914,-75.75194239999999,191.40522434667847,1.2503939601231129,19.686310462620007,0.9848968535165498,-55.6971538,54.8404856,-5.668197600000002
6355.401,8.69726,182.8104952,29.6482612,-0.8336615999999999,-0.3637838,0.8858255999999999,-18.7530862,27.269866200000003,-70.76719039999999,4.991109,-9.4285596,12.2602504,-0.9424792,-0.1915632,-0.0720456,-73.0966782,78.63965160000001,-74.6010696,185.40317925796276,1.2696524367213098,16.25185051159816,0.964444954627396,-54.343592,51.3697854,-3.833879200000004
6375.386,8.603449000000001,176.0902436,26.149134,-0.8663194000000001,-0.3394716,0.8310316,-18.9520368,30.7823656,-71.5108596,13.7113372,-4.4357156,13.3547674,-0.9741354,-0.1994204,-0.0535072,-72.1314224,78.8784486,-73.8913986,178.22898315019614,1.2475431015485918,19.647548269549816,0.9957767289514052,-53.1793856,48.096083,-2.3805390000000046
6395.372,3.2980252000000005,170.0285828,22.6691714,-0.876971,-0.325415,0.8050726000000001,-19.3425156,34.1564564,-72.3366546,19.844826,-4.2529576,12.1085306,-1.0375154,-0.1689227999999999,0.0003676,-71.03289480000001,79.094426,-73.1730422,171.5648194448934,1.2341454324093089,23.63305483023323,1.0511770796239612,-51.69037920000001,44.9379696,-0.8363876000000033
6415.357,-1.2700241999999988,166.4668426,19.8687396,-0.8650734,-0.3210486,0.8220677999999999,-19.9265854,37.4412996,-73.2680008,19.1494854,-8.764191199999999,11.2843266,-1.047609,-0.212014,0.055431,-69.4802274,79.2462586,-71.9797698,167.65318207530203,1.235807290295036,23.89246461314609,1.0702836768062942,-49.553642,41.80495900000001,1.288230999999999
6435.343,0.3505032000000009,164.8716522,17.2494302,-0.8599514000000001,-0.3283602,0.8030486,-20.6172184,40.6565462,-74.3454238,22.5514902,-13.4598612,10.8171036,-1.0090772,-0.2178593999999999,0.0749512,-67.3807568,79.3395326,-70.30041800000001,165.7719137667043,1.221566160823048,28.403297415213864,1.0350445382251143,-46.7635384,38.6829864,4.045005800000001
6455.329,1.7982416000000008,163.539398,14.6230764,-0.9017294,-0.302033,0.7203792,-21.431318,43.8148096,-75.5749634,30.579369199999995,-15.3755402,9.4113632,-0.9960222,-0.1816452,0.0603674,-64.9063466,79.3851228,-68.405487,164.20171355517155,1.1930155219887124,35.49758885324521,1.0142482065838914,-43.4750286,35.5703132,7.169476400000002
6475.314,-2.234086799999999,160.7784728,11.1184418,-0.9465232,-0.2898694,0.676873,-22.520356,46.8804146,-76.996669,34.1608954,-16.5487432,7.679337599999999,-0.988941,-0.1518737999999999,0.0459704,-62.2452992,79.37630320000001,-66.3952674,161.17793958166317,1.1992028582869538,38.72725012189816,1.001590350534389,-39.7249432,32.4958886,10.6014016
6495.3,-5.041972199999999,156.1474608,8.4812804,-0.9803084,-0.2992032,0.6685094,-23.8614682,49.82641,-78.608371,34.9607544,-15.976602799999998,5.564068799999999,-0.9710632,-0.1663684,0.0136254,-59.7971806,79.3244874,-64.6155264,156.45888634135338,1.2236960128598768,38.83896299925141,0.9853059598104338,-35.9357124,29.4980774,13.992844600000002
6515.285,-4.348057799999999,149.00962520000002,6.568687199999999,-1.0182482,-0.3013102,0.6257045999999999,-25.3598974,52.5974678,-80.382759,38.8314956,-12.6806644,4.073550200000001,-0.9559024,-0.1287364,-0.0087661999999999,-57.70280280000001,79.27190099999999,-63.2732618,149.21769888457624,1.2325272734866517,41.05213893806468,0.9645720840212824,-32.3429054,26.6744332,17.1094972
6535.271,-6.242460799999999,139.8216644,4.58215,-1.0568946,-0.273271,0.5624056,-27.0533434,55.1659774,-82.305568,39.666825,-8.921948999999998,3.8303124,-0.9701884,-0.0915856,-0.0036157999999999,-55.91406919999999,79.24894259999999,-62.2606284,140.03593199978448,1.2280078557816805,40.83784363333623,0.974508351750543,-28.8607258,24.0829652,20.0449396
6555.256,-12.3697274,130.1082368,1.9094816,-1.0617148,-0.2690182,0.543636,-29.0699518,57.4936872,-84.436348,34.174588799999995,-5.467030799999999,1.9743526,-0.9971764,-0.1066428,0.035225,-54.647341,79.2337786,-61.6674262,130.70887329916025,1.2227629406251566,34.66538639055334,1.0034810711387634,-25.5773892,21.7400914,22.7689218
6575.242,-14.661622599999998,121.75746620000002,0.611464,-1.0420864,-0.2780684,0.5415539999999999,-31.3346178,59.6198424,-86.77174219999999,29.7303072,-3.2576201999999994,-1.186484,-1.0003676,-0.1427598,0.0493392,-53.8731742,79.1896852,-61.48431840000001,122.63856506389936,1.206874821619674,29.93177241421021,1.011706505011429,-22.5385564,19.5698428,25.2874238
6595.227,-13.8034632,114.2681412,-0.0225818,-1.0306092000000002,-0.2935576,0.5189606,-33.7759004,61.5427962,-89.2864074,28.0067934,1.7777952000000012,-0.3217034000000001,-0.9919416,-0.1141132,0.0594198,-53.4592086,79.2217532,-61.634539800000006,115.0988453441414,1.190651708937068,28.065005351879023,1.000250305102098,-19.6833082,17.678957000000004,27.651867600000003
6615.213,-12.7037314,106.168065,-1.3461566,-1.0316573999999998,-0.2813282,0.5001909999999999,-36.3440358,63.263196400000005,-91.9293884,22.6894478,8.6457352,-0.8616772000000001,-0.9848048,-0.086737,0.0557424,-53.7645896,79.3326036,-62.4090676,106.9338812300353,1.1805310599772458,24.29613685783079,0.9901873643052612,-17.4205538,16.069407200000004,29.5203208
6635.198,-11.9202562,95.9018342,-3.1136138,-1.0295728,-0.287491,0.5135732,-38.9961084,64.7442,-94.6417006,15.715967799999998,16.9646254,-3.385698,-0.9569556,-0.0943474,0.0358804,-55.1854332,79.49036720000001,-64.1735214,96.68996277635792,1.185929448719054,23.372058313297224,0.9622644414932312,-16.1893248,14.746167200000002,30.4681792
6655.184,-8.332493799999998,82.41753539999999,-4.6559624,-1.0100516000000002,-0.3321878,0.5684368000000001,-41.5279138,65.94625620000001,-97.2610488,14.2935552,30.6559462,46.8464778,-0.655497,-0.0188731999999999,0.0431056,-53.7442146,80.62959140000001,-63.026876,82.96841917384893,1.2056837747625373,57.78135720055937,0.6571838459963848,-12.2163008,14.683335200000004,34.2341728
6675.17,0.3438126000000011,66.618393,-6.2245778000000005,-0.9863316,-0.3651761999999999,0.6317514,-43.689469200000005,66.8430296,-99.635614,10.1102252,33.4537114,119.3972578,-0.8693197999999999,-0.0247861999999999,0.0437308,-34.0790978,81.90324100000001,-43.5292572,66.90944523603987,1.2269121865915913,124.40688337141503,0.8707718721060757,9.6103714,15.0602114,56.1063568
6695.155,13.7995612,50.27082800000001,-8.835416,-0.9762106,-0.3549234,0.662757,-45.29177180000001,67.4422682,-101.6815384,13.7406886,26.767228400000004,146.4010596,-1.0327946,-0.0195053999999999,0.0472836,-11.2964074,82.63648220000002,-20.966843400000005,52.87389349207401,1.2321544531709163,149.46090221667566,1.0340603876211871,33.9953644,15.194214000000002,80.714695
