Timestamp (ms),Wrist Gyroscope X (deg/s),Wrist Gyroscope Y (deg/s),Wrist Gyroscope Z (deg/s),Wrist Accelerometer X (g),Wrist Accelerometer Y (g),Wrist Accelerometer Z (g),Wrist Roll (deg),Wrist Pitch (deg),Wrist Yaw (deg),Arm Gyroscope X (deg/s),Arm Gyroscope Y (deg/s),Arm Gyroscope Z (deg/s),Arm Accelerometer X (g),Arm Accelerometer Y (g),Arm Accelerometer Z (g),Arm Roll (deg),Arm Pitch (deg),Arm Yaw (deg),Wrist Gyroscope Magnitude (deg/s),Wrist Accelerometer Magnitude (g),Arm Gyroscope Magnitude (deg/s),Arm Accelerometer Magnitude (g),Difference Roll (deg),Difference Pitch (deg),Difference Yaw (deg)
0.0,1.996143579483032,-3.5606629848480225,7.103185653686523,-0.9345476031303406,-0.3057787120342254,0.306465595960617,-38.71646881103516,62.10610580444336,136.27993774414062,-15.332257270812988,-7.180521965026856,6.433553218841553,-0.9745151996612548,-0.1597641557455063,0.164118155837059,-19.960254669189453,76.28671264648438,-168.38754272460938,8.192567150308639,1.029951942935917,18.11156027868105,1.0010690430271263,18.75621414184571,14.180606842041016,-304.66748046875
18.192,-1.809759676456452,-3.607122004032135,7.853062868118286,-0.9300480037927628,-0.290006723254919,0.3077214211225509,-38.68432521820069,62.13443279266357,136.3927345275879,-15.12799620628357,-6.623048305511475,6.889122128486633,-0.9756845533847808,-0.1408674716949462,0.1737700328230857,-19.84660720825196,76.28022956848145,-168.19569778442383,8.829334949423924,1.0216582901878888,17.893603375946185,1.000999508792448,18.83771800994873,14.145796775817878,-304.5884323120117
28.348000000000003,-4.933856765429179,-3.9365177286995774,8.540023114946154,-0.9242801037099624,-0.2846367748247252,0.3124029669496747,-38.65728569030762,62.15771802266439,136.52233462863498,-15.464407338036432,-6.612622578938802,7.212389124764337,-0.9719069666332668,-0.1326382466488413,0.1871063626474804,-19.72855716281467,76.26313145955403,-167.99007924397787,10.61937423834154,1.0163205288961157,18.30008821222524,0.998601445626596,18.928728527492947,14.105413436889641,-304.51241387261285
51.094,-6.380995288491249,-3.921062047282855,9.01499100526174,-0.9157683340211707,-0.286908299041291,0.3173742356399694,-38.62842845916749,62.17983961105347,136.6468645731608,-15.650215725104015,-6.88373476266861,7.471347401539485,-0.967229434599479,-0.1315421109708646,0.2002539758880932,-19.605655829111736,76.23529767990112,-167.77773475646973,11.720148944247237,1.010779114892434,18.65840530483664,0.9964626239720624,19.02277263005575,14.055458068847656,-304.4245993296305
73.283,-6.3878826546669005,-3.3903651007016498,9.257637411753336,-0.9068732736508052,-0.2868615826467672,0.3227621247371037,-38.590324096679694,62.207420578002925,136.75578145345054,-15.672345012029012,-7.296348123550416,7.64476184686025,-0.962228476802508,-0.1310470570375521,0.2100667671362558,-19.47622304280599,76.19885307312012,-167.560227355957,11.747487849465733,1.0044322233110334,18.90241989300096,0.9935718491296722,19.114101053873704,13.991432495117195,-304.31600880940755
97.101,-8.017524025440215,-2.196002813180288,9.99315735499064,-0.8881071231762568,-0.2803460624317327,0.3314731456836063,-38.50528244018555,62.283700637817375,137.00128377278645,-15.835570834477744,-7.899405946731568,8.115854624112448,-0.952128221789996,-0.1225976176311571,0.2287427500883737,-19.17042195638021,76.11886161804199,-167.0438314819336,12.99870431141544,0.9885355953463536,19.468770229389108,0.9868645156736598,19.334860483805343,13.835160980224614,-304.04511525472003
118.218,-8.102888238430022,-0.2318147762616476,10.312440973917642,-0.866276534597079,-0.2823758464554945,0.3404621305068333,-38.42646308898926,62.39018020629883,137.23938283284505,-16.269883025487264,-8.980176935195924,8.338647220929463,-0.9384029100338618,-0.1233582551529009,0.2433127919832864,-18.81470158894857,76.00238380432128,-166.42941650390625,13.117049010181988,0.9726693247780732,20.368743430206443,0.9772504261534452,19.61176150004069,13.612203598022454,-303.6687993367513
128.373,-6.927198054790497,2.739861385822296,10.099167442321775,-0.8439816659688949,-0.287107995301485,0.3461241680383681,-38.37903465270996,62.5374836730957,137.42579681396484,-16.513123750686646,-10.07345353126526,8.35697997570038,-0.926665890812874,-0.1280027144402264,0.2493556064367294,-18.429153900146485,75.85381233215332,-165.7378057861328,12.549346450387985,0.95631479814856,21.071232435866417,0.9681283936346008,19.949880752563477,13.316328659057625,-303.16360260009765
150.811,-6.516399221420288,6.256427927017212,9.526946182250976,-0.826156439781189,-0.2866072487831115,0.3474920988082885,-38.40403442382812,62.73385513305664,137.53987365722656,-16.938775901794433,-10.899830894470217,8.233403911590575,-0.918276777267456,-0.1292446336150168,0.2456328487396239,-18.031299591064453,75.68305725097656,-164.9787939453125,13.128939514614054,0.9409723358213796,21.760454557537493,0.9593080377891806,20.37273483276367,12.949202117919917,-302.51866760253904
177.031,-8.955560970306397,9.499921073913574,8.83409854888916,-0.8148983645439147,-0.2889518278837203,0.3444020962715148,-38.56440246582032,62.97566101074219,137.57904968261718,-17.873871307373047,-11.296804389953612,8.128717155456544,-0.9142462229728698,-0.1306923064589499,0.2361076003313063,-17.64217658996582,75.50064575195312,-164.15927978515626,15.763624896417324,0.9306800241167228,22.653236138150817,0.953243638385238,20.9222258758545,12.524984741210922,-301.73832946777344
198.634,-13.502706985473631,11.842747611999512,7.938067092895507,-0.8133970904350282,-0.2971191227436064,0.3411100184917449,-38.911082611083984,63.2384896850586,137.51214172363282,-19.12580268859864,-11.284565544128418,7.992023239135742,-0.917191631793976,-0.1376641336083411,0.2250560671091079,-17.327597732543943,75.32355072021485,-163.3716729736328,19.63636107094156,0.9307258697079062,23.601063184903825,0.95438049878319,21.58348487854004,12.08506103515625,-300.8838146972656
218.446,-19.383930416107177,13.248377876281737,7.250877227783204,-0.8201924633979797,-0.3068174982070922,0.3366792619228362,-39.4440251159668,63.51228668212891,137.36791625976562,-20.50407493591309,-10.89809513092041,8.103109550476074,-0.9265997815132142,-0.1468566730618476,0.2145300477743147,-17.082334899902342,75.1608120727539,-162.61215209960938,24.572983036286445,0.9381927198767912,24.593616058789465,0.9623809946799554,22.36169021606446,11.64852539062499,-299.98006835937497
228.557,-26.44000782012939,13.669781188964844,7.015792388916016,-0.8329669570922851,-0.3163816964626312,0.3333103215694427,-40.14753616333008,63.78855224609375,137.1879510498047,-21.937467880249024,-10.259042530059814,8.506821746826171,-0.9396803522109984,-0.1543257790803908,0.2068033850193023,-16.882891006469727,75.01838775634765,-161.85969116210936,30.580357652046068,0.951329122821791,25.668394317970264,0.9744656230342852,23.264645156860354,11.2298355102539,-299.0476422119141
250.82700000000003,-33.37968004226684,13.310671195983886,7.291569023132325,-0.8494683599472046,-0.3301445269584655,0.3310088503360748,-40.988007354736325,64.06061599731444,137.00663635253906,-23.2049617767334,-9.518971920013428,9.22904724121094,-0.9549521994590758,-0.1616378834843635,0.2039302617311476,-16.699143104553222,74.89760894775391,-161.09064392089843,36.6680240295384,0.9696178433964756,26.72557558695725,0.9897717212967672,24.288864250183103,10.836992950439466,-298.0972802734375
269.5,-38.62543983459473,12.532463722229002,7.973377685546876,-0.8668668508529663,-0.344129124879837,0.3286301922798156,-41.9084928894043,64.32735870361329,136.84911560058595,-24.07029838562012,-8.80046636581421,10.132947006225583,-0.9699955534934996,-0.166070937514305,0.2053018105030059,-16.498749923706054,74.79685668945312,-160.28453369140624,41.38311251079672,0.9888785542098534,27.559101720839696,1.005295858680345,25.409742965698246,10.469497985839837,-297.1336492919922
290.76800000000003,-41.98249771118165,11.752163772583009,8.939429359436037,-0.8831406307220458,-0.3567650842666626,0.3238042187690734,-42.86177383422852,64.59389923095702,136.7262518310547,-24.68824531555176,-8.03028272628784,11.15308235168457,-0.9814151263237,-0.1644087949395179,0.2061736601591109,-16.256276931762695,74.71813201904297,-159.4238446044922,44.50344778418107,1.0060158403706083,28.25572762058054,1.0162251129419273,26.605496902465827,10.124232788085948,-296.15009643554686
309.391,-44.31764793395996,10.809356498718262,9.94974578857422,-0.8965948295593261,-0.3649212777614593,0.317979153394699,-43.81626907348633,64.86019760131836,136.6507354736328,-25.32541305541992,-7.03759060025215,12.14869083404541,-0.9871601271629334,-0.1542528599500655,0.2062911653518676,-15.961309738159178,74.66605285644532,-158.4988146972656,46.6893301255443,1.018901648516275,28.95677670020629,1.020213265138885,27.854959335327152,9.805855255126957,-295.1495501708984
330.98100000000005,-45.37965759277344,9.869315357208253,10.910357971191406,-0.9067683148384094,-0.369644626379013,0.3056156444549559,-44.75086547851562,65.12875274658202,136.6199450683594,-26.33648994445801,-5.505607397556305,13.195433044433594,-0.9846913075447082,-0.1375588579475878,0.204462786912918,-15.615108146667476,74.65161010742187,-157.50478027343752,47.70484901890924,1.0258005891699356,29.967346706718875,1.015058836613006,29.135757331848147,9.52285736083985,-294.12472534179693
353.094,-45.600419921875,8.800965061187743,11.706394424438477,-0.911209361553192,-0.3668072032928466,0.2892072421312331,-45.64693649291992,65.3989031982422,136.63621459960936,-27.9225171661377,-2.8752349126338954,14.058324737548826,-0.9731497859954834,-0.1195274631679057,0.2009837263822554,-15.25791271209717,74.69440246582032,-156.47275085449218,47.8946234297766,1.0239584238975965,31.39379612475147,1.0008505276538089,30.38902378082275,9.295499267578123,-293.1089654541015
369.394,-45.232600402832034,7.58180422782898,12.329352645874025,-0.9099547743797304,-0.3588557255268096,0.273238203525543,-46.48673370361328,65.66721435546874,136.70557556152346,-29.853414306640627,0.8517560338974002,14.661970481872562,-0.9565534758567812,-0.1016831275820731,0.1963772022724151,-14.93169704437256,74.81369293212892,-155.43988220214845,47.49194490877086,1.0156053559457556,33.2704856068636,0.9817830800033696,31.55503665924072,9.146478576660172,-292.1454577636719
390.847,-43.95206954956055,6.302881150245666,12.84373638153076,-0.9035902690887452,-0.3464875066280364,0.2555661809444426,-47.25021743774414,65.93273223876953,136.83014099121095,-31.461649017333983,5.5088169801235205,15.164015350341796,-0.9357556676864623,-0.0830761618167161,0.1912077242136,-14.645669288635252,75.02627044677733,-154.42366271972656,46.22198927698576,1.0009210955333652,35.357174448134444,0.9586974038081456,32.604548149108886,9.0935382080078,-291.2538037109375
413.294,-40.95486419677734,5.489148178100586,13.272068977355955,-0.892982771396637,-0.3334772014617919,0.2372076821327208,-47.92058547973632,66.2002001953125,136.9912109375,-31.95272094726563,11.45206033229828,15.476385154724122,-0.9118580174446108,-0.0656859096884726,0.1827098485827445,-14.412677536010742,75.35708404541016,-153.4604833984375,43.40022423948192,0.9822895491497324,37.304752502138285,0.9322996146511848,33.50790794372558,9.156883850097657,-290.45169433593753
435.75,-37.247646751403806,4.714130520820618,13.450250053405762,-0.880981478691101,-0.3156739544868469,0.2268548375368117,-48.478518371582034,66.46555053710938,137.19287109375,-30.618929457664496,18.10593507409096,15.35483413696289,-0.8928424525260926,-0.0470165499299763,0.1732330384850501,-14.24216136932373,75.81697601318359,-152.5967517089844,39.88131694896543,0.9629338132249672,38.74422095505693,0.9107073550943184,34.2363570022583,9.351425476074212,-289.7896228027344
457.952,-33.13865337371826,3.7086667346954334,13.368963470458985,-0.8726553082466125,-0.2971946835517883,0.2219155955314635,-48.9078953552246,66.72001159667968,137.44311584472658,-27.41347346305848,24.572420690059666,15.015915641784668,-0.8817132210731506,-0.0214900897443294,0.1598923686146735,-14.113062438964842,76.40030517578126,-151.84779296875,35.9256696617746,0.948208045991238,39.75902549661242,0.8963512691537958,34.794832916259764,9.680293579101573,-289.29090881347656
469.586,-28.48182941436768,2.275090327262878,12.900122089385984,-0.8714523363113404,-0.2801840084791183,0.2236416655778884,-49.18834442138672,66.95068084716796,137.75180786132813,-22.658681797981263,31.053633517026903,14.729234542846678,-0.8804215788841248,0.004547524228692,0.1407749989628791,-13.998924827575683,77.10841247558594,-151.21628967285156,31.34970163665692,0.9423098469465192,41.1666657096512,0.8916167544827903,35.18941959381103,10.157731628417977,-288.9680975341797
491.00500000000005,-22.594566612243657,-0.1285874843597413,11.8600740814209,-0.8844872426986695,-0.2680201816558837,0.2381324076652526,-49.27102371215821,67.13344024658204,138.1442803955078,-16.78185434341431,37.32697868347168,14.285631065368651,-0.9036611914634703,0.0276849376969039,0.1243266347050666,-13.889895019531249,77.93615905761717,-150.71302307128906,25.51847041562329,0.9543896184745504,43.34758618165202,0.9125936208573604,35.38112869262696,10.802718811035135,-288.85730346679685
513.24,-14.779869728088382,-3.78721745967865,10.598667125701905,-0.9148420763015748,-0.2541482788324355,0.2555741029977798,-49.07707641601563,67.25127655029296,138.6641815185547,-10.95643352031708,41.56349105834961,13.813231163024904,-0.9570893788337708,0.050539158321917,0.1133159336447714,-13.734622802734377,78.84147979736329,-150.28329406738283,18.57738706351333,0.9832830184277492,45.1483397214759,0.965098329921924,35.34245361328125,11.590203247070335,-288.9474755859375
532.949,-5.840154151916505,-8.63017948150635,9.340657653808597,-0.9619639587402344,-0.2439913463592529,0.2747087359428405,-48.55055694580079,67.2874200439453,139.34984436035157,-6.553402118682861,43.77606773376465,13.867840461730957,-1.027316710948944,0.0627047048695385,0.1011241901665925,-13.439501876831054,79.78895263671875,-149.80256103515623,13.99411604235201,1.0297433294839533,46.38543073673381,1.034184512765774,35.11105506896974,12.501532592773444,-289.1524053955078
555.491,3.4758457565307586,-14.621955113410952,8.363550472259522,-1.0219572830200196,-0.2428104364871977,0.307457057237625,-47.6408644104004,67.22431640625,140.24887939453123,-3.1008178186416626,43.90075698852539,14.757188301086426,-1.102581901550293,0.0602597974240779,0.0937335671484469,-12.799122276306154,80.74258666992186,-149.04476257324217,17.199768939257005,1.0944786148801555,46.4183815084465,1.1081985717470595,34.84174213409425,13.518270263671866,-289.2936419677734
578.237,13.26054576873779,-21.58254547119141,8.46777515411377,-1.080612065792084,-0.2431552225351332,0.3412666904926299,-46.29104110717774,67.0573715209961,141.4157208251953,-0.4560400676727292,41.5632787322998,16.449781799316405,-1.1660819268226623,0.0554302614741027,0.0905856474488972,-11.534629278182983,81.65197784423829,-147.71401672363282,26.708642031399894,1.159012447310786,44.70245443784143,1.170907909902942,34.75641182899476,14.59460632324219,-289.12973754882813
588.388,21.495194511413573,-29.261308603286743,10.024516506195068,-1.1234833455085755,-0.2357223147153853,0.3668479448556899,-44.495624542236335,66.78857208251954,142.89426696777343,0.7740325498580933,37.45197204589844,18.591934089660647,-1.191943714618683,0.0482184474915265,0.0789322075247763,-9.46860891342163,82.48125335693359,-145.60393676757812,37.66641075870204,1.2051378559877552,41.81996353070245,1.1955271351509391,35.02701562881471,15.692681274414056,-288.4982037353516
615.495,25.150930442810058,-38.38963928222656,12.519852256774902,-1.1445970368385316,-0.2303788071870802,0.4029999446868896,-42.3071844482422,66.38818969726563,144.730458984375,1.7750810813903812,33.32978004455566,20.6638529586792,-1.1721777415275574,0.0329467779584228,0.0628037262707947,-6.58383225440979,83.22786987304687,-142.69332122802734,47.571844686642265,1.235146034668826,39.25582720771384,1.1743212745854448,35.723352193832405,16.83968017578124,-287.42378021240233
637.9979999999999,27.035951080322263,-48.855685234069824,16.15623975753784,-1.1368618297576905,-0.2278891509771345,0.4471042692661285,-39.73797119140625,65.83011016845703,146.95417724609374,4.261296300888061,29.362985534667967,21.69751523017884,-1.1182044315338135,0.024723846875131,0.0535224506258963,-2.955724983215332,83.88486877441406,-139.08900085449218,58.12783080084043,1.2426948590418654,36.757662233021904,1.119757595208519,36.78224620819092,18.054758605957034,-286.0431781005859
658.101,29.22060607910156,-60.32141555786133,20.46247383117676,-1.0980229139328004,-0.2184050375223158,0.4826577186584472,-36.80749877929687,65.0889096069336,149.54514953613278,7.438362922668456,25.763113555908205,20.80255690097809,-1.0508174085617066,0.0282033567689358,0.0500540416687726,1.0507640171051027,84.45151794433593,-135.17074615478515,70.08016716465376,1.219144599018992,33.938379994961174,1.052386840737167,37.858262796401974,19.362608337402335,-284.71589569091793
668.16,31.5173950958252,-72.29889259338378,24.197702941894534,-1.0456918430328368,-0.2044875907897948,0.5179480016231537,-33.598220901489256,64.13056030273438,152.41898559570313,10.459509134292604,22.082000408172608,17.617074155807494,-0.9914352893829346,0.0343741667270659,0.0582309068739413,4.865186538696288,84.92417572021483,-131.5057388305664,82.49851448068723,1.184717999254609,30.122705309585093,0.9937385747204164,38.46340744018554,20.793615417480453,-283.92472442626956
690.9929999999999,33.79712661743164,-84.32193603515626,26.964067192077643,-0.990025007724762,-0.188736344128847,0.5624036538600923,-30.222297515869137,62.92689086914063,155.45855041503904,13.74318368911743,17.575394515991213,12.83832101345062,-0.9552005004882812,0.0467826726287602,0.0787524030357598,7.995703573226929,85.28673706054687,-128.58992279052734,94.7602004211186,1.154152846632854,25.740863947233105,0.9595824902400312,38.21800108909606,22.35984619140624,-284.0484732055664
708.247,37.32725471496582,-95.51102996826172,28.67272453308105,-0.9388426852226256,-0.1684593564271926,0.6060529899597168,-26.78723461151123,61.47346405029297,158.52153259277344,16.34126540184021,11.808335437774655,7.431275749206541,-0.9461928367614746,0.06969914406538,0.1047239172458647,10.170245838165282,85.51744934082032,-126.6799478149414,106.47913374133014,1.1300904251443806,21.487149648223003,0.9545187027321632,36.95748044967651,24.043985290527353,-285.2014804077148
731.333,40.41720153808593,-105.80086853027343,28.82941909790039,-0.9026103281974792,-0.1422829855978488,0.649500093460083,-23.42870334625244,59.764246520996096,161.46565734863282,16.775215187072753,4.983579978942871,2.1229583787918087,-0.9629055595397952,0.0868960745632647,0.1314015173912047,11.14944890022278,85.60184112548829,-125.96930450439454,116.86962551258922,1.1210710164677595,17.628127134134214,0.9757071297986202,34.57815224647522,25.837594604492196,-287.43496185302735
751.857,41.8702279663086,-115.11698120117188,27.67434669494629,-0.8855513381958009,-0.117076531946659,0.6933391880989075,-20.27789459228516,57.805423736572266,164.18000671386716,15.377145471572875,-2.323237400054931,-2.544804649353027,-0.996707911491394,0.0936077231168746,0.1530622842907904,10.942647523880009,85.5343862915039,-126.41099517822263,125.58226314178962,1.130764041109675,15.758491855958075,1.012727569254919,31.22054211616517,27.72896255493164,-290.5910018920898
768.061,41.709495849609375,-123.62196228027344,25.79563953399658,-0.8824829506874083,-0.0962791743874549,0.7414741373062134,-17.412681732177738,55.61295639038086,166.60499511718749,12.812852382659912,-9.304583473205565,-6.247346749305724,-1.0344950556755066,0.0945776830613612,0.1652433401346206,9.740690461397172,85.32501770019532,-127.79142669677736,132.99431048365122,1.156645898263024,17.0227436447755,1.0518699158209492,27.15337219357491,29.71206130981446,-294.3964218139648
791.618,41.42810455322266,-131.22329559326172,23.75639846801758,-0.8889446234703063,-0.0839397561550139,0.7837900829315185,-14.840127391815184,53.209394226074224,168.72920898437502,8.585453929901124,-15.106272487640382,-9.07952450752258,-1.065334482192993,0.0851225706934928,0.1670912295579909,7.7977130055427555,85.00076232910155,-129.8253628540039,139.64314383957603,1.188105769854656,19.60477627865206,1.081712942506506,22.63784039735794,31.791368103027324,-298.55457183837893
811.666,41.241701202392576,-137.99967712402344,22.21109531402588,-0.8987470960617066,-0.0754120738804339,0.8193749189376831,-12.538356094360353,50.62179473876953,170.57220886230468,2.8947615242004394,-18.933468856811523,-11.65391543865204,-1.0835198187828063,0.0648013280332087,0.1637824702262877,5.263580058813095,84.59994537353516,-132.3372509765625,145.73304896093708,1.2185272181409954,22.42029509808235,1.0977427327764089,17.801936153173447,33.97815063476563,-302.9094598388672
832.926,41.00927276611328,-143.98001647949218,21.644415588378905,-0.905581851005554,-0.074530470073223,0.8433368802070618,-10.47802430152893,47.88303573608398,172.17264099121093,-3.2748655128479003,-20.672650279998777,-14.108330659866334,-1.086311480998993,0.0440318313241004,0.1503376737236976,2.320615210533142,84.16447692871093,-135.13955657958985,151.26297076417208,1.2396976943421978,25.24139868815709,1.097548564784553,12.79863951206207,36.28144119262694,-307.3121975708008
855.209,41.87090850830078,-148.99823608398438,22.16019374847412,-0.9067026710510252,-0.0754783876240252,0.8643435502052308,-8.597094831466674,45.02257354736328,173.5761364746094,-8.90400550365448,-20.557194719314573,-16.203351345062256,-1.0660062098503116,0.0242306043207644,0.1329016298055648,-0.8767363679409026,83.72960144042969,-138.09101806640624,156.34807808994375,1.254948801135237,27.648294044089862,1.074532086459102,7.720358463525771,38.70702789306641,-311.66715454101563
879.13,43.71914855957031,-153.49666503906252,24.139378356933594,-0.8942681455612183,-0.0727531313896178,0.8724560141563416,-6.8322016763687134,42.05794334411621,174.83903015136718,-13.210638790130616,-18.402995681762697,-18.138122673034665,-1.028930721282959,0.0055529457330703,0.1124190598726271,-4.2391486787796016,83.3328482055664,-141.12989501953126,161.41654102460234,1.2514743428972348,29.020384584087346,1.0350687462332298,2.593052997589112,41.274904861450196,-315.96892517089844
887.943,45.66235610961914,-158.13045898437505,26.8721928024292,-0.8694865894317626,-0.0649774494767188,0.8787492418289184,-5.153589491844177,38.99192970275879,175.9945037841797,-15.435812592506409,-14.8145144367218,-20.26625022888184,-0.9947549557685852,-0.006317597925663,0.1004364079236983,-7.741951500177383,82.99199798583984,-144.27358215332032,166.77052368479784,1.237913255505844,29.469561359587136,0.9998323890064404,-2.588362008333206,44.000068283081056,-320.2680859375
910.974,48.1235855102539,-163.15500671386718,29.780295104980468,-0.8356760334968566,-0.0565419972129165,0.8863237977027894,-3.5351725625991826,35.81807884216309,162.658798828125,-15.502512311935424,-11.101167097091675,-22.296356887817385,-0.974501886367798,-0.009939070418477,0.094198373556137,-11.317729594707489,82.70216674804686,-147.49595092773438,172.6913480018744,1.2194758319803471,29.337541297255672,0.9790945027094174,-7.782557032108306,46.884087905883774,-310.15474975585937
930.506,51.892685852050775,-168.26915100097656,32.47898792266845,-0.7927861690521241,-0.0365843099728226,0.8983447885513305,-1.9371389532089232,32.52912475585937,134.83757324218752,-14.715174860954283,-7.729659299850465,-24.171306266784672,-0.9683055615425108,-0.0100729149580001,0.099521740078926,-14.921955527067183,82.44594268798828,-150.7669677734375,179.059327263368,1.1986958249255169,29.334894762431475,0.9734586282314446,-12.98481657385826,49.91681793212891,-285.60454101562505
952.76,54.587825469970696,-173.82297790527346,34.84134963989258,-0.7390893793106079,-0.0103840661607682,0.911457667350769,-0.3729675340652466,29.11380962371826,92.53107604980468,-15.036739416122437,-5.1091359329223645,-26.54826416015625,-0.9788298559188842,-0.0127945824712514,0.1114292752742766,-18.63224143981933,82.19562103271484,-154.1412158203125,185.4944149620856,1.173505866543613,30.935693497429234,0.9852350336680824,-18.259273905754085,53.08181140899658,-246.6722918701172
973.183,55.78381286621093,-179.2385656738281,36.207341003417966,-0.6808192288875581,0.0108045373111963,0.9328216218948364,1.1249375104904176,25.573940773010257,35.72257629394532,-17.23233974933624,-3.872154912948608,-29.50726013183593,-1.0006706070899964,-0.0238557414710521,0.1290009993314742,-22.507493381500247,81.9074331665039,-157.64059020996095,191.1786304617789,1.154897284923673,34.38932272369231,1.0092333813957577,-23.632430891990666,56.33349239349365,-193.36316650390626
995.307,56.657230529785146,-183.6951513671875,37.11011131286621,-0.619324940443039,0.0290911235474049,0.9514160203933716,2.554119687080384,21.92762477874756,-35.59090515136718,-20.71882127761841,-4.045941753387451,-32.57834693908692,-1.0186606073379516,-0.0408072850853204,0.143501514494419,-26.49173984527588,81.54746154785157,-161.1836492919922,195.783326074445,1.1356064983898182,38.819941899611486,1.0295277325649614,-29.045859532356264,59.61983676910401,-125.59274414062502
1015.077,56.71943679809569,-186.78946533203128,37.87929367065429,-0.552400141954422,0.0501943483203648,0.9600635361671448,3.909891715049744,18.20088325500488,-92.60288879394533,-25.3279880475998,-5.361752119064332,-35.636234512329096,-1.025310447216034,-0.0670770080387592,0.1557865375280379,-30.51681114196777,81.09190734863282,-164.67953552246092,198.85230639524136,1.1087774271296895,44.04766253211815,1.039245054572188,-34.42670285701752,62.891024093627934,-72.0766467285156
1037.542,54.85239196777343,-188.78940429687492,38.568734588623045,-0.4801612019538878,0.0619876798428594,0.9641409468650816,5.163198733329773,14.418600497245787,-135.30548889160156,-29.54169873237609,-7.791326446533203,-38.73055236816406,-1.0227224135398865,-0.0982724525779485,0.1649102607369422,-34.477903060913086,80.52263122558594,-168.0311730957031,200.34413235012104,1.0788721044387046,49.33023837905122,1.040583492175838,-39.64110179424286,66.10403072834015,-32.725684204101555
1059.671,53.286960754394535,-189.30232604980463,39.12507736206054,-0.4072593599557876,0.069493864737451,0.9630221319198607,6.33121193408966,10.613906965255737,-163.68967956542969,-31.888991088867183,-10.863091583251954,-41.03815200805664,-1.0121433401107789,-0.1269145569205283,0.1702514433860778,-38.1645320892334,79.84134063720703,-171.06361938476562,200.51344721213627,1.0479032446152738,53.09467423055097,1.034179384663986,-44.495744023323056,69.22743367195129,-7.373939819335931
1067.6699999999998,52.49875137329101,-188.82775939941408,39.84841949462891,-0.3361331072449683,0.0845759159140288,0.9530064153671264,7.443794403076171,6.808202843666075,-177.7419024658203,-31.6730152130127,-14.422721309661863,-42.08152542114258,-1.0014850616455078,-0.145261748805642,0.1710118851065635,-41.34275329589844,79.06615264892578,-173.59067138671875,199.9998453793841,1.0140807556944142,54.60814558680946,1.0263129976829095,-48.78654769897461,72.2579498052597,4.151231079101535
1090.008,51.64912948608399,-187.70265136718749,40.56933639526368,-0.2658101524412631,0.1015275195240973,0.935260808467865,8.511563186645507,3.0136355018615726,-177.45344055175778,-29.77646659851074,-18.18992631912232,-41.9637629699707,-0.9945527362823487,-0.1569999220967292,0.1716953706741332,-43.90432060241699,78.22010803222656,-175.53383056640627,198.86123041582104,0.9775866479333318,54.57534961122291,1.0214026733350634,-52.41588378906249,75.20647253036499,1.9196099853515136
1107.506,50.86453369140625,-186.135615234375,40.95535614013672,-0.1990788438171147,0.1173096388578414,0.9225306773185732,9.543485431671144,-0.7599566125869753,-177.22427978515626,-27.01181602478028,-22.41647833824158,-40.78318183898925,-0.99136990070343,-0.1643590882420539,0.170381145775318,-45.80237213134766,77.32230072021484,-176.85953552246093,197.25873679735693,0.9510293307876376,53.80896418774007,1.0192438004443287,-55.345857563018804,78.08225733280182,0.364744262695325
1130.038,50.76877639770508,-184.1367840576172,41.22341217041016,-0.1404014334082602,0.1373761019110679,0.905738697052002,10.56191909790039,-4.503963375091553,-177.05159790039062,-24.15622329711914,-26.82979909896851,-38.565531997680665,-0.989896695613861,-0.1653522512316703,0.1632324364781379,-47.04822799682617,76.39650939941406,-177.5768780517578,195.4052036435397,0.9267941212679506,52.826712011400296,1.016799716410863,-57.61014709472656,80.90047277450562,-0.5252801513671841
1147.682,50.55721328735352,-182.0069799804688,41.54739242553711,-0.0862751714140176,0.1583977741003036,0.8847815680503845,11.57092472076416,-8.217469763755798,-176.9311590576172,-22.251781539917,-32.22569961547852,-36.02294647216797,-0.9945390367507936,-0.1602440047264098,0.1607799318432807,-47.67636489868164,75.44158752441406,-177.69902099609376,193.4134390220992,0.9029793370859304,53.20986910286401,1.0201157890923382,-59.2472896194458,83.65905728816986,-0.7678619384765568
1170.034,49.98386489868164,-179.49961853027344,41.96504119873048,-0.0330320952832698,0.1750872403383254,0.8636121678352356,12.568301124572754,-11.892466821670531,-176.85771423339844,-23.146909484863283,-38.228724288940434,-33.05764671325683,-0.9946734619140624,-0.1537176737189292,0.1609746828675269,-47.79652420043945,74.45859344482422,-177.27772094726564,190.9962420717604,0.8818007924022119,55.587973390642496,1.01927291123328,-60.364825325012205,86.35106026649476,-0.42000671386719546
1192.841,49.14245574951171,-176.87733154296876,42.1615217590332,0.0171609035879373,0.1913900804519652,0.846956980228424,13.555982742309572,-15.521272244453431,-176.83408081054685,-26.383510513305666,-44.34902221679688,-29.99285591125488,-0.9888699769973754,-0.1527671658992767,0.1600355419516562,-47.53714797973633,73.44599822998046,-176.39450378417968,188.3564845920932,0.8684818857437473,59.68665516097338,1.013317824313501,-61.093130722045906,88.96727047443389,0.439577026367175
1207.606,48.52342041015625,-173.905693359375,42.41710388183594,0.0678986833989619,0.2040024566650389,0.8224351119995117,14.544686126708983,-19.093148231506348,-176.8563787841797,-30.46106277465821,-49.25119476318359,-27.28810813903808,-0.978879702091217,-0.1492134407162665,0.1600501593947409,-47.04377182006836,72.41403686523437,-175.18227600097657,185.4640752621062,0.8500745537788629,64.0171647042459,1.0030384716344924,-61.58845794677734,91.50718509674071,1.674102783203125
1229.972,48.54592712402344,-170.41014526367186,42.52208953857422,0.1217450838536023,0.2150807672739028,0.796442563533783,15.552908363342286,-22.59397640228272,-176.9249871826172,-35.34920936584472,-53.11436882019043,-24.665919380187983,-0.9678680229187012,-0.1504949790239333,0.1689960387349127,-46.42175811767578,71.36872161865234,-173.73370300292967,182.22088998751835,0.8339078839427742,68.40402295791874,0.9939702760183836,-61.97466648101806,93.96269802093506,3.1912841796875284
1253.604,48.68019332885742,-166.46090759277345,42.31667510986328,0.1761821728944777,0.2237546437978743,0.7671949672698974,16.592043800354002,-26.00956207275391,-177.0461590576172,-40.07881401062012,-55.09694938659668,-21.4840726852417,-0.9497476410865784,-0.1601433315873145,0.1725393322110175,-45.78027313232422,70.34034271240236,-172.16342468261718,178.5208558446282,0.8183485910485777,71.43913873607256,0.9784867344840342,-62.37231693267822,96.34990478515627,4.8827343750000125
1275.091,49.28630615234376,-161.88372863769533,41.77884521484375,0.2303383902460336,0.2297440880537032,0.7341857624053956,17.677823486328123,-29.32354602813721,-177.22458312988283,-43.27437789916992,-54.79264038085937,-18.738645057678223,-0.9322026896476746,-0.1760199558734893,0.1778626853227614,-45.216157836914064,69.35021209716797,-170.60577697753905,174.30132953959765,0.8030360226886175,72.29136906342274,0.9652046489124922,-62.89398132324219,98.67375812530517,6.61880615234378
1296.8249999999998,50.33373931884766,-156.6498712158203,41.38722671508789,0.285179544687271,0.2326450872421264,0.7007790684700013,18.81804542541504,-32.52462463378906,-177.45359252929688,-45.51538543701172,-52.83763313293457,-16.019634437561034,-0.9196752619743348,-0.1879531499743461,0.1829184344410895,-44.76729522705078,68.42148162841798,-169.122421875,169.66310736549912,0.7915443210153292,71.55483543467496,0.9563410101690816,-63.58534065246582,100.94610626220704,8.331170654296898
1307.667,51.85079193115234,-151.12444030761716,41.22224044799805,0.3367464572191238,0.2341547310352324,0.6658637022972107,20.02031105041504,-35.61141006469727,-177.7269757080078,-47.71962463378907,-50.00335914611817,-13.002211446762084,-0.9117454290390016,-0.2040456962585448,0.1913540029525756,-44.4386930847168,67.56934692382814,-167.72107116699215,165.00416415875924,0.7820492852453493,70.3317567219227,0.9536932043278497,-64.45900413513183,103.1807569885254,10.005904541015667
1329.8490000000002,52.77456710815429,-145.14880889892578,41.44718841552735,0.3891597825288772,0.2326239150762557,0.627253587245941,21.26644607543945,-38.58293441772461,-178.03128601074218,-49.573188934326176,-45.56384513854981,-10.25887498855591,-0.904586946964264,-0.2224718177318572,0.1919749265909194,-44.27724700927735,66.81363586425782,-166.4607000732422,159.9099780682312,0.7739549631058834,68.10880677973273,0.9511180929530432,-65.54369308471681,105.39657028198243,11.57058593749997
1350.64,53.29401962280273,-138.70521331787108,41.82859878540039,0.4399756997823715,0.2293311232328413,0.6015596365928649,22.541307830810545,-41.43392189025879,-178.35519409179688,-50.54696014404298,-39.30706840515137,-7.610520410537719,-0.904651131629944,-0.2345364224910735,0.1923100703954696,-44.30084045410156,66.18086364746094,-165.38125366210937,154.36651322570515,0.7797726443393381,64.48225203364046,0.9541405381859424,-66.8421482849121,107.61478553771973,12.973940429687502
1372.811,54.16880020141601,-132.15641967773436,42.30183792114258,0.4877213609218597,0.2231542569398879,0.5763888573646545,23.84833694458008,-44.16907348632813,-164.2916784667969,-50.1238151550293,-32.26900497436524,-4.166218719482422,-0.9077778601646422,-0.2416079330444335,0.1899098253250121,-44.45903717041016,65.69624145507812,-164.45920104980468,148.95980554768792,0.7873335145819697,59.758203672380574,0.9583844627653751,-68.30737411499024,109.86531494140625,-0.16752258300778067
1398.226,56.38116592407226,-124.69427520751954,42.7653630065918,0.5346527922153472,0.2198689526319502,0.5419730150699615,25.207124328613283,-46.77691131591797,-135.82728881835936,-48.39599975585937,-24.47251029968261,-0.4199116420745845,-0.9098947954177856,-0.2508239001035689,0.1900345444679259,-44.7297428894043,65.37436950683593,-163.69858459472658,143.3749434649303,0.7924207932778914,54.23331889645296,0.9627742703680188,-69.93686721801758,112.1512808227539,-27.87129577636722
1420.137,58.57594039916992,-115.61992294311524,42.95010070800781,0.5839669704437256,0.2187574529647826,0.5119510912895203,26.59820991516113,-49.22970764160157,-92.93793640136718,-45.22958908081055,-15.876966705322266,3.2097853851318363,-0.9133916997909546,-0.2590603131055831,0.185587943792343,-45.10719436645508,65.22553222656249,-163.12366088867188,136.54236897698468,0.8068247428465447,48.04265315737147,0.9673879924593038,-71.70540428161621,114.45523986816406,-70.1857244873047
1428.272,61.10585433959962,-105.76062561035155,42.4775144958496,0.6276514947414398,0.2163411271572111,0.4901139771938324,28.01783805847168,-51.50705154418945,-35.61432434082032,-40.900126953125,-7.385346450805665,6.793937578201295,-0.9172458243370056,-0.2637699514627455,0.1842894476652144,-45.557984313964845,65.24878112792969,-162.7230487060547,129.3196605385679,0.8252039704167526,42.11319644478041,0.9720478846636528,-73.57582237243652,116.75583267211914,-127.10872436523438
1458.6319999999998,64.38363464355469,-95.52457412719728,42.08306060791016,0.6683674943447113,0.2137993746995924,0.4535259115695953,29.46613166809082,-53.60591201782226,36.16181945800781,-37.17318405151367,0.9372508239746082,9.373852634429932,-0.91585844039917,-0.2722241443395614,0.1838441652059554,-46.12881729125977,65.42546295166015,-162.5344903564453,122.64249125905008,0.8355303899820741,38.34831371581755,0.9729857885355164,-75.59494895935059,119.03137496948241,-198.69630981445312
1477.286,66.58913101196289,-85.0506689453125,41.89631988525391,0.7077718210220336,0.2168305414915083,0.420596033334732,30.90621475219727,-55.52251266479492,93.60942504882811,-34.489891281127925,9.472209091186524,10.86092749595642,-0.914868664741516,-0.2828542143106459,0.1816424155235289,-46.89865280151367,65.73949096679688,-162.62067382812498,115.857801968193,0.8513856104100288,37.37960796642473,0.9746718152262532,-77.80486755371093,121.2620036315918,-256.2300988769531
1503.38,65.582333984375,-75.58775100708007,41.86551025390625,0.7430033564567566,0.2119087481498717,0.3999645519256591,32.260064086914056,-57.27643508911133,122.33954528808594,-32.12224555969238,18.31816719055176,11.526319007873536,-0.9131688714027404,-0.2905728477239607,0.1743736645579337,-47.93489776611328,66.17998016357421,-163.04636901855469,108.47705555538631,0.8700177860512652,38.73306002486056,0.9740206067762271,-80.19496185302734,123.45641525268555,-285.38591430664064
1507.96,63.037551574707024,-68.2278059387207,41.98424758911133,0.7708189344406128,0.2030965238809584,0.3789304745197296,33.501338195800784,-58.90705429077149,122.34291748046876,-29.79839099884033,27.401167907714843,12.12931577682495,-0.9067964577674866,-0.2934598225355147,0.1642986553907393,-49.27974136352539,66.74445434570313,-163.85438964843746,101.93842973760869,0.882608821746326,42.25977295301626,0.9671569321601546,-82.78107955932617,125.65150863647463,-286.19730712890623
1535.093,59.62066757202149,-62.34430282592773,42.55242111206055,0.7949409365653992,0.1982173764705657,0.3557332468032836,34.61203193664551,-60.4452751159668,93.62043029785156,-27.14895706176758,37.06257118225098,13.328166007995604,-0.9017848992347718,-0.2921014910936355,0.1492976170778273,-50.972104797363286,67.44352752685548,-165.09071166992186,96.18806910985693,0.8931782374439907,47.83659750983351,0.9595983868536412,-85.5841367340088,127.88880264282227,-258.7111419677734
1548.736,55.44851776123047,-57.18926361083984,42.9421858215332,0.817716965675354,0.1920217430591582,0.3384975790977478,35.572242507934575,-61.90395584106445,36.17497802734376,-23.22879214286804,46.05004150390626,15.330300350189209,-0.9036625456809996,-0.2881995427608489,0.1357624059915541,-52.98499542236327,68.2701480102539,-166.74888732910154,90.49409548362097,0.905601455837954,53.80707403079142,0.9581734727046262,-88.55723793029784,130.17410385131836,-202.9238653564453
1570.633,51.704209289550775,-52.17074722290039,42.78448883056641,0.8387396907806396,0.1776742810010909,0.3196475964784622,36.37838180541992,-63.284763031005866,-35.58366577148438,-18.92118688583374,51.99667091369629,17.007178497314452,-0.9061176109313964,-0.28293639421463,0.1220846617221831,-55.44321121215821,69.22906829833984,-154.543916015625,85.00367408851396,0.9150010956029044,57.8870384431212,0.957082437744533,-91.82159301757812,132.5138313293457,-118.96025024414062
1595.4,49.58625534057617,-46.8488159942627,41.680856246948245,0.8574307966232301,0.1692702108621596,0.2986905717849731,37.068992156982425,-64.57357055664063,-92.86303955078124,-14.664581956863405,54.26946304321289,18.175748138427736,-0.9101310467720032,-0.279049470424652,0.1077267693728207,-58.22692489624024,70.26337768554689,-128.34341552734375,79.94311762899835,0.923610325276034,59.08115099894189,0.9580251489820536,-95.29591705322267,134.83694824218753,-35.48037597656251
1608.407,47.42911437988282,-41.11251892089844,39.58098983764649,0.8749998474121095,0.1628966367244719,0.2801738935708999,37.65889434814453,-65.75056838989258,-135.68003173828123,-10.505278491973876,52.58558639526368,18.393867950439454,-0.9206417870521544,-0.2784066390991211,0.0949891804158686,-61.19706970214844,71.31004974365234,-87.99552673339844,74.20522124088785,0.9330902731601254,56.691614467272615,0.9664959912783556,-98.85596405029297,137.06061813354492,47.684505004882794
1630.7130000000002,44.65328659057617,-35.02524261474609,36.32056327819824,0.8944559431076049,0.1504259300231933,0.2599479788541793,38.15382934570313,-66.79925155639648,-164.05564575195314,-6.760634489059447,46.22202286720276,17.05008493423462,-0.9359762716293334,-0.281248310804367,0.0868958035856484,-64.16752716064454,72.2935302734375,-33.295005493164055,67.37853471549792,0.9435318469952302,49.72813059924422,0.981174334185446,-102.32135650634767,139.092781829834,130.76064025878907
1653.278,41.04302642822265,-28.5743669462204,31.853761138916013,0.9116022396087649,0.137340793609619,0.2406657707691191,38.559116210937496,-67.69958389282228,-178.01436767578124,-3.7667504692077634,35.443233394622794,14.444606361389162,-0.9454580855369568,-0.2807845884561538,0.0754558494687079,-66.92054901123046,73.15879943847656,36.00123413085937,59.29322527456364,0.9527859938459056,38.45852123390167,0.9891534571747416,-105.47966522216797,140.85838333129885,214.01560180664063
1675.697,35.8390673160553,-22.01826300621033,26.305263171195985,0.9263268733024598,0.1300975918769835,0.2230717206001281,38.87791580200196,-68.43257843017578,-177.59323486328125,-0.3497540378570557,24.050737257003785,12.117759952545166,-0.9531173467636108,-0.2779053825139999,0.0669436385482548,-68.90152969360352,73.81058135986328,91.6261785888672,49.61057873479479,0.9616485075878832,26.93325819057053,0.9950605655305796,-107.77944549560547,142.24315979003904,269.21941345214844
1688.765,28.535409755706787,-15.326349663734437,19.974850873947144,0.9397743391990664,0.1223237347602843,0.2063125926256178,39.09213928222656,-68.98374267578126,-177.2173620605469,3.25027847290039,12.524133224487304,10.051143836975095,-0.9615183401107787,-0.2748620027303695,0.0646471264958381,-70.01823135375977,74.26336395263671,133.66751403808593,38.05471418073674,0.969898855849748,16.384252061283387,1.0021206962629332,-109.11037063598633,143.24710662841795,310.88487609863284
1712.367,20.33797152519226,-7.99614133834839,13.102331032752993,0.9510382080078126,0.1166985011100768,0.1913913249969481,39.18667984008789,-69.33584197998047,-176.88887451171877,6.211826982498169,1.0259988880157471,8.195946741104127,-0.9659564661979676,-0.2698679715394972,0.0662639416009187,-70.21710571289063,74.5307601928711,147.79056579589843,25.48023627351633,0.9770992030168366,10.3350380338786,1.0051325915564564,-109.40378555297852,143.86660217285157,324.6794403076172
1734.693,11.705239639282224,-0.0142844533920282,5.888748950958252,0.9559211730957032,0.1172728002071379,0.1835292726755141,39.14802810668945,-69.4718246459961,-176.6020031738281,8.242212352752684,-9.5970964050293,6.838965950012207,-0.9625960087776184,-0.2613877183198928,0.0676737536489962,-69.51721008300781,74.63494415283203,133.992490234375,13.10306083577591,0.9804188863796393,14.380882418708582,0.9997471441999848,-108.66523818969726,144.1067687988281,310.5944934082031
1756.094,2.683991365432738,8.221921710968019,-1.263700470924377,0.9561081552505494,0.1217467260360717,0.1801694554090498,38.963033752441405,-69.38624786376953,-176.3504296875,9.790494041442871,-18.122738924026493,5.930262308120728,-0.9595473957061766,-0.2541881579160689,0.0721967481821774,-68.02830673217774,74.59987762451172,92.1664031982422,8.740751978589673,0.9805233819239114,21.43491195986283,0.9952663938259702,-106.99134048461914,143.98612548828123,268.5168328857422
1780.668,-5.925269622802736,16.651608557701113,-7.996750469207763,0.9505776262283324,0.1281886547803878,0.1825614684820174,38.62098220825195,-69.08313446044922,-176.11395263671875,10.439815769195556,-25.612357196807864,4.790009803771974,-0.9554530429840088,-0.2492828512191772,0.0778099867701529,-66.0846257019043,74.47501708984376,36.39893005371093,19.39930168146752,0.9764009650111002,28.07003363716993,0.9904982843501224,-104.70560791015626,143.55815155029296,212.51288269042968
1787.948,-13.56208287239075,25.2199990940094,-14.04352406978607,0.9387418937683104,0.1366453379392623,0.1898799341917037,38.11982391357422,-68.56982849121093,-175.86922546386717,10.344234409332277,-31.427758855819707,3.67925711631775,-0.9494683790206908,-0.2457358056306838,0.0820164078474044,-63.84363952636719,74.26813354492188,-33.45737060546875,31.89355756948557,0.9674516426700068,33.29030106716883,0.9841762952262828,-101.96346343994142,142.8379620361328,142.4118548583984
1813.729,-20.34101312637329,33.7987605714798,-19.389876985549925,0.923365249633789,0.1443974941968916,0.2016419404745101,37.46115905761718,-67.85385299682618,-175.59944274902344,10.218073005676269,-35.01437549591064,2.575147495269776,-0.9440416479110718,-0.2457816267013549,0.0859715300798415,-61.47981246948242,73.99287719726563,-88.78275207519532,43.9554360766705,0.956092826413804,36.56565180521677,0.979292777977498,-98.9409715270996,141.8467301940918,86.81669067382812
1836.986,-26.43584380149841,42.29719696044922,-23.96438084125519,0.9062830996513366,0.1506036752462386,0.214960309267044,36.64877182006836,-66.94549865722657,-175.29356079101564,10.667081317901612,-35.91993278503418,1.12702172279358,-0.9392463397979738,-0.2496734970808028,0.0889912164211272,-59.18140426635743,73.66566345214844,-129.7849676513672,55.337132716766014,0.9435244873724752,37.48730949385068,0.975930314401884,-95.8301760864258,140.61116210937502,45.50859313964844
1858.216,-31.971445045471192,50.73014060974121,-27.74287761688232,0.8883386516571046,0.1571372777223586,0.232127125263214,35.68653907775879,-65.85384368896484,-174.94301147460936,11.537776489257812,-34.545270614624016,-0.8615752792358391,-0.9339096450805664,-0.2604077845811844,0.0914720591902732,-57.10848571777344,73.2992919921875,-156.63887634277344,66.07108083757227,0.9315152636220836,36.43128216403407,0.9738411456995946,-92.79502479553223,139.15313568115235,18.30413513183592
1867.365,-37.46675079345703,58.79081222534179,-30.76768035888672,0.8694187784194947,0.1631305491924285,0.2528292709589004,34.580803375244145,-64.59005035400392,-174.55284423828124,13.112145671844482,-30.80501752853393,-3.3932080936431874,-0.9308699226379394,-0.2764508235454558,0.0932041114568709,-55.39760848999024,72.91379058837892,-169.50200927734377,76.20214676635452,0.9200126241535378,33.65102272174976,0.9755156980302208,-89.97841186523439,137.50384094238285,5.050834960937465
1893.13,-42.50032585144043,66.39426055908203,-32.911483154296874,0.8499124670028687,0.1665355747938155,0.2784889417886734,33.34231140136718,-63.16734466552735,-174.12403259277343,16.494780464172365,-24.750476417541503,-6.532420063018799,-0.933345308303833,-0.2852849668264389,0.097765273451805,-54.123975067138666,72.53376708984375,-168.4931512451172,85.42623283325479,0.9097479815516956,30.452198234877084,0.9808562715928596,-87.46628646850584,135.7011117553711,5.630881347656242
1917.096,-46.91868545532226,73.31130767822265,-33.875978775024414,0.829236650466919,0.1660693103075027,0.3064252990484237,31.980379486083983,-61.60829925537109,-173.65224426269532,21.400488414764403,-17.245552883148196,-9.524252815246582,-0.9387427258491516,-0.2775835931301116,0.1069148305058478,-53.28925292968751,72.18542266845704,-168.04800354003908,93.39964034359234,0.8995048094371262,29.087822027863464,0.9847443005632543,-85.2696324157715,133.79372192382812,5.604240722656243
1938.065,-50.64674728393555,79.65031692504883,-33.41801712036133,0.8080135154724122,0.1644369739294051,0.3349269777536391,30.502297439575194,-59.93414703369141,-173.1270721435547,26.222234458923342,-9.215216445922852,-11.993453941345214,-0.9480896282196044,-0.262563400864601,0.1242353940010069,-52.85689910888672,71.88792846679688,-168.12933166503905,100.1300647406178,0.8900008089930777,30.27158290554233,0.991588581889565,-83.35919654846191,131.8220755004883,4.997740478515652
1949.587,-53.457429046630864,85.63314483642577,-31.92033256530761,0.7847437858581543,0.1634000408649444,0.363529177904129,28.92870826721192,-58.15817016601562,-172.54762451171877,30.45711767196656,-0.85960123062134,-13.582171421051024,-0.9586790752410888,-0.2400019001960753,0.148362002968788,-52.78127349853516,71.66286102294922,-168.67857727050782,105.87558663795768,0.8801567167188501,33.3594111409437,0.9993386639812084,-81.70998176574707,129.82103118896484,3.86904724121095
1973.011,-54.3638705444336,91.99315551757812,-29.925525970458985,0.7603757405281066,0.1615808588266371,0.3880573189258575,27.30064666748047,-56.27820800781251,-171.91452819824218,34.28696563720703,7.341888427734373,-13.731111497879027,-0.9666897916793824,-0.2100445795059204,0.1704567080736159,-52.992889862060544,71.53465240478515,-169.61388793945315,110.96714913550704,0.8688314701337337,37.65690854623493,1.003824371114908,-80.29353652954102,127.81286041259766,2.3006402587890307
1987.413,-53.837728881835936,99.09765167236328,-28.325514602661134,0.7361121606826782,0.1637145763635634,0.4069336724281311,25.66910614013672,-54.27711349487305,-171.25082519531253,36.8018099975586,14.348037204742427,-12.24586255788803,-0.9674814105033874,-0.1872417676448821,0.186794158220291,-53.40998413085938,71.51237762451173,-170.81961059570312,116.2806105747501,0.8568889014187706,41.354570974824064,1.002981463819562,-79.07909027099609,125.78949111938478,0.43121459960940456
2011.14,-52.15554351806641,107.13174926757812,-27.778253936767577,0.7084862327575683,0.1733504021167754,0.427840974330902,24.08897018432617,-52.124134674072266,-170.59186279296875,38.11553092956543,20.74747844696045,-10.475746331214904,-0.9614653658866882,-0.1847329497337341,0.1975733849406241,-54.02204299926758,71.59093994140626,-172.25831176757814,122.3480437627496,0.8456068845731299,44.64294816816773,0.9987878428144016,-78.11101318359376,123.71507461547853,-1.6664489746093807
2032.303,-49.21997489929199,116.01342529296872,-28.9499715423584,0.6737001585960389,0.1829926306009291,0.4498483622074127,22.621387786865235,-49.78732849121094,-169.98301513671876,39.3090160369873,26.591173763275144,-8.565780899524686,-0.948459177017212,-0.1921284759044646,0.1979219675064086,-54.8309977722168,71.76232971191406,-159.5260510253906,129.3051492771944,0.8304948859127718,48.22511655064692,0.987755671683614,-77.45238555908203,121.549658203125,10.456964111328176
2046.9020000000005,-45.56470443725586,125.44522155761716,-31.664112701416013,0.6333081889152528,0.1942910701036452,0.4767926681041717,21.30757972717285,-47.24238281250001,-169.46011535644533,41.91034019470215,32.059153442382815,-6.143478527069091,-0.937084801197052,-0.2016030865907668,0.1853139626979826,-55.81744857788086,72.02930267333984,-132.6284100341797,137.16873526887284,0.8161859655905828,53.12257771504007,0.9762750605891108,-77.12502830505372,119.27168548583985,36.831705322265634
2069.52,-43.226704177856455,134.13393341064452,-35.33184242248535,0.5855916786193848,0.2076265054941176,0.5156123697757721,20.137790145874025,-44.49353927612305,-169.05021057128906,45.06296546936035,36.898806495666506,-4.060108001232146,-0.929405152797699,-0.2069069206714629,0.1733206409215926,-56.97327575683594,72.37658477783202,-91.56705139160157,145.28867517896384,0.8073924050409164,58.38387837990102,0.9678039349156072,-77.11106590270997,116.87012405395507,77.48315917968749
2093.041,-42.0667042541504,141.4920196533203,-38.82687835693359,0.5290382850170136,0.2145237392187118,0.563237829208374,19.08192199707032,-41.56858474731446,-168.75188537597654,47.407503280639645,41.153611450195314,-2.54004768371582,-0.9263510704040528,-0.2071346598863601,0.1641958552598952,-58.32125701904297,72.78592926025391,-36.34741088867187,152.63395990187064,0.8019593468209484,62.82947512858161,0.9633230776066256,-77.40317901611328,114.35451400756837,132.40447448730467
2114.338,-41.6868106842041,147.7076510620117,-41.80577178955078,0.4675854647159576,0.2152683174610137,0.6067385923862456,18.11115272521973,-38.49883888244629,-168.55438720703123,47.82946357727051,44.16997146606445,-0.4426901555061333,-0.930897386074066,-0.2039913272857665,0.1507081288099288,-59.852533416748045,73.2499932861328,33.08316711425782,159.06936512791418,0.795681050928685,65.10637403492976,0.9648291792316024,-77.96368614196777,111.7488321685791,201.63755432128903
2135.951,-43.03029861450196,152.2647900390625,-44.054044570922855,0.4048119574785233,0.22567489862442,0.6621152019500732,17.178398361206057,-35.323148040771486,-168.44768127441407,47.50830581665039,46.2893650817871,2.2970894765853886,-0.9439603066444396,-0.1998066407442092,0.1367950266599654,-61.53633926391601,73.76787414550782,87.97407958984375,164.24655773424857,0.8082069174661414,66.3703326894388,0.9745237983367316,-78.71473762512207,109.0910221862793,256.4217608642578
2146.819,-45.3998740386963,154.943876953125,-45.13686294555664,0.3406624063849449,0.2263747090101241,0.7136834263801575,16.24347732543945,-32.089674148559574,-168.41303649902343,44.95833724975586,46.657514801025386,4.387945215702058,-0.9580957555770876,-0.195068210363388,0.1314550772309302,-63.34033782958985,74.30655487060547,128.40545043945312,167.6487099996913,0.8225815564994886,64.94174188368133,0.9865492997711746,-79.5838151550293,106.39622901916505,296.81848693847655
2170.318,-46.41388122558594,156.9232977294922,-45.27908950805664,0.2803860166668891,0.2210173523426055,0.7545685386657714,15.31691749572754,-28.81916870117188,-168.4311444091797,40.215109786987306,44.89084869384765,6.591898727416994,-0.9714891791343688,-0.2007379263639449,0.1254016208648681,-65.18797348022461,74.8439208984375,154.5032049560547,169.7921249275132,0.8347686313722253,60.62917186030078,0.9999062489911756,-80.50489097595215,103.66308959960938,322.9343493652344
2191.64,-46.68494178771973,158.59739746093751,-45.27234146118165,0.2250546880066394,0.2194072753190993,0.791660590171814,14.406842231750488,-25.51858253479004,-168.49841430664063,34.98167510986328,41.09772159576416,8.924138679504395,-0.9836371111869812,-0.2153590142726897,0.1179823902249335,-66.94683578491211,75.36455352783203,166.4134735107422,171.41237753582206,0.8517720675673168,54.70265592296223,1.013825091391983,-81.3536780166626,100.88313606262207,334.9118878173828
2215.08,-46.97305114746094,159.6040350341797,-44.87894454956054,0.1732140847295522,0.2191429060697554,0.8327422690391542,13.506297531127933,-22.20111629486084,-168.60849792480468,31.27273315429688,36.36859455108642,11.057903423309329,-0.9892249298095702,-0.227801267504692,0.1117514720559119,-68.50969314575197,75.86149383544922,164.21354736328126,172.319572878928,0.8783429962570848,49.22332512823984,1.021248143567545,-82.0159906768799,98.06261013031006,332.822045288086
2236.896,-46.17186141967774,160.50097595214842,-43.69884582519531,0.1261060523986815,0.2004827880859374,0.8563932514190673,12.625483932495118,-18.872383728027344,-168.74270751953125,28.589965667724613,30.802681999206545,12.580211982727052,-0.9889136600494386,-0.2319870901107787,0.110801104903221,-69.78085189819336,76.32405151367188,162.3781817626953,172.63253805411145,0.8885412122385836,43.86858886214901,1.0217852621065826,-82.40633583068848,95.19643524169922,331.1208892822266
2246.674,-44.865894165039066,161.70400817871095,-42.50330535888672,0.0831399161368608,0.1900850719213485,0.8790485763549805,11.77162799835205,-15.52391445159912,-168.89794494628907,26.45900463104248,24.602980880737302,14.53095329284668,-0.9865309715270996,-0.235548772215843,0.1054744848608969,-70.6612762451172,76.76369598388672,160.99617492675782,173.11171446993376,0.9032004095516712,38.94270403916945,1.019731066914834,-82.43290424346924,92.28761043548585,329.89411987304686
2271.574,-44.57674560546875,162.85364929199218,-40.98182151794433,0.0383251668512821,0.1772041182219981,0.9018422222137452,10.920260524749756,-12.158651385307312,-169.06735717773438,24.762431640625,18.466210422515868,16.24502519607544,-0.9848055958747864,-0.2239047784358262,0.103469339609146,-71.10057250976563,77.18668334960937,160.1073767089844,173.7466748787513,0.919885597069788,34.90099986743053,1.0152247611794356,-82.02083303451538,89.34533473491668,329.17473388671874
2295.165,-44.724391326904296,163.98230895996096,-38.88029640197753,-0.010077848508954,0.1596319139003753,0.9160174822807312,10.057630825042724,-8.779096784591676,-169.23997619628906,22.318165588378907,13.625296821594237,17.892048110961916,-0.9809680080413818,-0.2007646442949771,0.1007461765408515,-71.17720550537109,77.60882141113282,159.6445184326172,174.36211251217333,0.929877378373082,31.68398040511676,1.0063570277427218,-81.23483633041381,86.3879181957245,328.8844946289063
2314.836,-45.26346496582031,165.01952514648437,-36.712808456420895,-0.0614387209713458,0.1441353936493396,0.9254249215126038,9.173420162200928,-5.387159333229065,-169.41595153808595,18.785465965271,9.341689205169676,19.059713916778566,-0.979941635131836,-0.1793139716237782,0.1013137993216513,-70.93481048583985,78.02639038085938,159.58287353515624,175.008729053842,0.9385952341098126,28.34490400985301,1.001350884863711,-80.10823064804077,83.41354971408845,328.9988250732422
2336.627,-46.94014068603516,165.6960369873047,-34.897471771240234,-0.1188601233810185,0.1368214511871336,0.9356043457984924,8.244285507202148,-1.9901786231994631,-169.60593444824218,14.09349712371826,5.052132434844969,20.14320297241211,-0.9829757332801818,-0.1724395981431006,0.0996215638518332,-70.38191375732421,78.43634094238281,159.93622192382813,175.7167806925324,0.9529970253427494,25.097795307621336,1.0029462414355768,-78.62619926452636,80.42651956558228,329.5421563720703
2356.577,-49.1536247253418,166.0729211425781,-33.21949424743652,-0.1814160710573195,0.1200115178525447,0.9405132126808168,7.254626197814941,1.4046048593521117,-169.81757202148438,10.315366859436036,1.5502097129821766,20.917933883667,-0.9868439269065856,-0.1672163716703652,0.1008090776205062,-69.53792419433594,78.83601562499999,160.6638311767578,176.3514353741533,0.9653391416918394,23.37455671366709,1.0059745131750155,-76.79255039215089,77.43141076564788,330.4814031982422
2366.621,-51.046710357666015,166.2144354248047,-32.16010955810547,-0.245202753022313,0.1083073254674672,0.941713972091675,6.20808449268341,4.793299846649171,-170.06856201171877,7.936566429138184,-0.493138566017152,21.34585815429688,-0.9862587213516236,-0.1731373453140258,0.1019888672232627,-68.50145889282227,79.22623443603516,161.6354357910156,176.82555762308615,0.9791220925259104,22.778892261758013,1.0065210056536384,-74.70954338550568,74.43293458938598,331.70399780273436
2386.5980000000004,-53.49656921386719,165.79580322265625,-31.493353042602543,-0.3045494875311851,0.0980976920016109,0.9448523664474489,5.089087672308088,8.167907691001892,-170.3733758544922,7.101868934631348,-1.927584378719332,20.79840675354004,-0.9873794484138488,-0.1817923711985349,0.1077506047487258,-67.31548431396484,79.5912646484375,162.7743768310547,177.03661364182787,0.9975567863098792,22.061864095934062,1.0097409738144425,-72.40457198627293,71.42335695743562,333.1477526855469
2408.938,-56.58831268310547,165.08268493652344,-30.94718299865723,-0.3608078232407569,0.0777636597305535,0.942653467655182,3.8787645865976814,11.52435166358948,-170.74100646972656,7.082575912475586,-2.951701955795289,20.1575772857666,-0.9906727576255798,-0.1800981904566287,0.1119474110007285,-65.9892791748047,79.9348388671875,164.05366149902343,177.2350364169702,1.0123364224252536,21.568573156875228,1.0131140576149305,-69.86804376140238,68.41048720359801,334.79466796875
2429.0600000000004,-59.7769174194336,164.5119525146484,-30.271610870361325,-0.4118968945741653,0.0545327848382293,0.939387686252594,2.5699638130515816,14.867376675605778,-171.1743670654297,7.496627039909363,-3.1978694748878493,19.737235488891606,-0.9923718333244324,-0.1583495802432298,0.1147975456714629,-64.54914062499999,80.26661132812501,165.43616516113283,177.6339854899346,1.0271718947990427,21.35378774123884,1.0114617746761831,-67.11910443805158,65.39923465251923,336.61053222656255
2446.639,-63.48811828613282,163.91606567382811,-29.22691131591797,-0.4600486803054809,0.0344189348444342,0.934765284061432,1.1457553055882452,18.196019973754883,-171.67296325683594,6.060259428024291,-2.7115604090690626,19.255784301757814,-0.9900846767425536,-0.1331284183263778,0.1150373312830924,-63.09803009033203,80.59271759033204,166.8539453125,178.1949216295719,1.04240855119914,20.36822361578964,1.00559655452633,-64.24378539592027,62.39669761657716,338.52690856933594
2468.956,-68.15009979248046,163.13459716796874,-27.751239776611328,-0.5078109502792358,0.0101650806330144,0.9266888332366944,-0.4239660211652517,21.50441802978516,-172.23924011230469,2.550822739601136,-2.4100166916847243,19.34243492126465,-0.9869790315628052,-0.1107207144796847,0.1053519857674836,-61.6230126953125,80.92428771972655,168.36112060546876,178.9621865200005,1.0567532747682222,19.658195893479736,0.9987420719408474,-61.19904667414725,59.41986968994139,340.60036071777347
2492.587,-72.57883575439453,162.4644543457031,-26.332913436889648,-0.5598084366321563,-0.0151121269538997,0.9116348123550416,-2.1480701968073843,24.7895240020752,-172.8858538818359,-1.73596399307251,-2.0829544281959547,20.86952751159668,-0.9812392425537108,-0.0908170403540133,0.0825476376712321,-60.07004089355469,81.28769775390626,170.02837341308594,179.87720437950205,1.069902749413806,21.04493879041885,0.9888843706071724,-57.92197069674731,56.49817375183106,342.91422729492183
2513.997,-76.28029647827148,161.80057617187498,-25.08023017883301,-0.6143542528152466,-0.0397917424701153,0.8951826333999634,-4.030902647748589,28.04539569854736,-173.63102783203126,-6.196234650611878,-0.6422986054420488,22.485420837402348,-0.9802351546287535,-0.0752328345179557,0.0626945989578961,-58.55603576660157,81.6946029663086,171.74090637207033,180.6298093510231,1.0864467211335682,23.33238139537162,0.9851149935404262,-54.52513311885298,53.649207267761234,345.3719342041016
2526.451,-78.94496353149414,160.58641174316406,-24.069683609008788,-0.6740669882297515,-0.0685617473721503,0.8757536482810975,-6.071851115077735,31.25609870910645,-174.49508361816407,-11.84332006454468,1.7052873587608322,23.91033920288086,-0.986345610618591,-0.070450582653284,0.0421720919013022,-57.21901809692383,82.15137695312501,173.38388671874998,180.55373873883573,1.1072540224815184,26.73717554125748,0.9897572598966276,-51.1471669818461,50.895278244018556,347.87897033691405
2548.915,-80.03184753417969,158.3106091308594,-23.154022674560547,-0.7353634452819824,-0.0983172739483415,0.8512514710426331,-8.251838831827044,34.39652862548828,-161.09274475097658,-16.862368445396424,4.329999926090239,25.66990447998047,-0.9969813132286072,-0.0767567217350005,0.0179597107321023,-56.02948791503907,82.66573669433595,160.5744940185547,178.89509313877784,1.1291832224957414,31.01664657824189,1.0000929379153334,-47.777649083212026,48.26920806884767,321.6672387695313
2572.739,-78.93618743896484,154.88747619628904,-22.05811332702637,-0.7941563582420349,-0.1290997930988668,0.8261355257034302,-10.534452123641968,37.44177253723144,-133.42722229003908,-19.793297381401068,7.802852594852446,26.19193359375,-1.0142994165420531,-0.0905225805938243,0.0040236136317252,-55.225040435791016,83.22308990478516,147.43350891113283,175.23587627367672,1.153191651350158,33.74428122252693,1.018338761641514,-44.690588312149046,45.78131736755372,280.8607312011719
2594.111,-75.73547332763671,150.05542358398438,-20.426820526123045,-0.848784770965576,-0.1651129823550581,0.8109765028953554,-12.876598320007323,40.359335098266605,-91.48811889648438,-20.121865668296817,11.632320704460144,24.387965259552004,-1.044409592151642,-0.1067879310250281,0.0071555926650762,-55.08404174804688,83.78665985107422,133.6303820800781,169.3214312009457,1.1854875674648162,33.68936349124913,1.049879164902968,-42.207443428039554,43.427324752807614,225.11850097656247
2616.347,-70.13119964599609,143.50779388427733,-17.945067009925843,-0.8967041873931884,-0.2012155497074126,0.7967344784736634,-15.211774349212646,43.11659484863281,-35.244165039062494,-18.991854605674742,13.933044745922086,22.23790298461914,-1.0597594118118283,-0.124288908690214,0.0036101107299327,-55.4749951171875,84.33600219726563,119.26987182617184,160.73237850324222,1.2162861202534685,32.393588970786936,1.0670289483639324,-40.26322076797485,41.21940734863282,154.51403686523435
2626.373,-62.46929145812989,135.4154241943359,-14.720289726257324,-0.9308337903022764,-0.2339553514122962,0.7888316106796265,-17.46946714401245,45.6846127319336,35.345021972656255,-14.926276788711553,15.15550748825073,19.10270673751831,-1.0560671520233154,-0.1390084262192248,-0.0022346963733434,-56.352577362060536,84.84265563964844,104.34000732421876,149.8547176922958,1.242353396433707,28.59014779079116,1.0651789361466284,-38.88311021804809,39.158042907714844,68.9949853515625
2648.789,-53.4723233795166,126.22717620849608,-11.209543147087098,-0.9510085344314576,-0.2664979010820388,0.7974832201004028,-19.59462089538574,48.0461964416504,91.51845642089845,-8.741059556007386,15.687848358154294,14.050263786315918,-1.051048562526703,-0.1403755711019038,-0.0033493110537529,-57.90306945800781,85.267138671875,117.41345703125,137.54360486311504,1.269416342333873,22.80185564236325,1.0603865331265618,-38.308448562622075,37.2209422302246,25.89500061035156
2672.767,-44.32333660125733,115.75201660156247,-7.641454648971558,-0.9592998456954956,-0.2957830238342285,0.8159510254859924,-21.54698215484619,50.18309616088868,133.3218780517578,-2.346023626327514,14.672051391601562,9.418966388702392,-1.0430725598335266,-0.1237432959675788,-0.0125312647223472,-59.870180206298826,85.59890686035155,129.94355224609376,124.18324904732138,1.293645958959237,17.592323516937427,1.050461708474006,-38.323198051452636,35.41581069946287,-3.3783258056640477
2692.757,-35.70954235076904,103.44757843017578,-4.45870638370514,-0.95731463432312,-0.315363273024559,0.8291906452178954,-23.29425552368164,52.07353790283203,160.80471923828125,2.9555784654617314,12.528952312469482,6.136725654602051,-1.018383173942566,-0.1059177464246749,-0.033916592746973,-61.928736267089846,85.84845245361328,142.2782403564453,109.5283203586398,1.3051675866258867,14.260767576588805,1.0244379889678927,-38.634480743408204,33.77491455078125,-18.526478881835942
2713.256,-27.84716747283936,89.18939176559448,-2.2737390899658205,-0.9486451005935668,-0.3240701520442962,0.8464187121391296,-24.806200942993165,53.68688949584962,174.01454833984377,8.398092079162598,10.837954616546629,2.2662548637390136,-1.0046924805641173,-0.0921072028204797,-0.0497802717238664,-64.18201187133789,86.00523620605468,154.31087890625,93.46326673739952,1.3120112905708756,13.89694649726474,1.0101330569615046,-39.37581092834473,32.318346710205056,-19.703669433593774
2734.278,-21.05819909095764,72.55919910430909,-1.1635809850692749,-0.9396583580970764,-0.3270221543312072,0.8593242859840393,-26.05733779907227,54.98589935302734,173.00097717285158,13.16840268611908,9.006409645080565,-1.1111722373962405,-1.0088048028945924,-0.0811623392254113,-0.0547046108543872,-66.49011123657226,86.07671173095703,166.19388061523438,75.56215351829243,1.3146632830679863,15.992402813209422,1.0135418344106315,-40.43277343749999,31.090812377929687,-6.8070965576172
2754.347,-15.095092067718506,53.36438913345337,-0.8382418823242188,-0.9337360191345216,-0.3248803949356079,0.8547903442382812,-27.007154235839845,55.926734924316406,172.22397216796875,17.139402341842654,6.800224704742431,-3.145522880554199,-1.0146643567085267,-0.074340429343283,-0.0542397377640008,-68.51958877563477,86.08296844482422,163.87582702636718,55.46460566498978,1.3069341058544992,18.705520117404937,1.018828840071962,-41.512434539794924,30.15623352050781,-8.348145141601577
2776.1200000000003,-9.387175550460816,31.96310623168945,-1.2495317029953004,-0.9326790642738342,-0.316238625049591,0.8420267534255981,-27.61145927429199,56.47139785766601,171.73473144531252,20.64491937637329,4.9077037525176985,-4.943030185699463,-1.0192676997184753,-0.0728107261657713,-0.0471647290885447,-70.18797454833984,86.03520385742186,161.84736877441406,33.33647483268477,1.295726112414357,21.788340909673817,1.0229528616726065,-42.57651527404785,29.56380599975585,-9.887362670898455
2796.148,-3.426270904541016,9.67349843978882,-1.841242094039917,-0.9341956543922424,-0.3067135059833526,0.8271817159652709,-27.826938934326176,56.60356903076172,171.57180603027345,24.71338261604309,3.804111137390136,-6.528986949920655,-1.027355418205261,-0.0689957296475767,-0.0356786268204449,-71.58355545043946,85.94675354003907,160.00846313476563,10.426220639558974,1.2849218990527014,25.84279807731336,1.0302875959833262,-43.75661651611328,29.34318450927735,-11.563342895507816
2807.503,2.5439165019989014,-12.303206481933591,-2.159256909489632,-0.936516046524048,-0.2970028328895568,0.809813449382782,-27.642723007202147,56.3333235168457,171.74694274902345,28.1328779411316,2.9788921260833723,-7.763056697845459,-1.0294376969337464,-0.0701018282771109,-0.0241991121321915,-72.69694580078126,85.82330505371092,158.3806896972656,12.747658267596204,1.2732127909123023,29.335944996597835,1.0321055349255888,-45.054222793579115,29.489981536865223,-13.366253051757838
2829.163,8.550984420776368,-32.89835607528687,-2.092819448709488,-0.9402782487869265,-0.2852467834949492,0.796089084148407,-27.07385398864746,55.68701751708984,172.24423828125,31.606652297973632,2.738326411247252,-9.312482318878171,-1.024963901042938,-0.0729438309743999,-0.0179797083884476,-73.66372192382813,85.66172607421875,156.82743347167968,34.05585207076196,1.2646132778586,33.063593693955205,1.0277135159333624,-46.58986793518068,29.974708557128906,-15.416804809570323
2846.203,15.115993700027463,-51.53232555389404,-1.7278949445486067,-0.9453156328201296,-0.2723722636699676,0.7927056670188903,-26.153004455566407,54.70268615722656,173.0170880126953,35.36044067382813,3.086033267974852,-11.003541889190677,-1.0169231009483335,-0.0755560939759015,-0.0127334985882043,-74.61145690917968,85.46549621582031,155.21592590332028,53.73136387131065,1.263404357359388,37.16130110862024,1.0198055984184269,-48.458452453613276,30.76281005859375,-17.801162109375014
2868.688,22.43105207443237,-68.19315233230591,-0.7440192341804501,-0.9484632539749146,-0.2659063661098479,0.794630811214447,-24.913578109741213,53.416121826171874,174.01363830566407,38.71842681884765,3.2759459924697865,-13.104519596099852,-1.0114444184303284,-0.0811304062232374,-0.0004339811950921,-75.52356964111328,85.22470611572265,153.5707977294922,71.79144577736129,1.2655934836312006,41.00703392488422,1.0146931273678217,-50.609991531372074,31.80858428955078,-20.442840576171875
2891.151,30.47645274162292,-83.37817466735841,0.7956496661901475,-0.9490357685089112,-0.2618073546886443,0.8064500045776368,-23.39660873413085,51.85326797485352,160.7766485595703,38.91441165924072,2.003969545364378,-16.175216922760008,-1.013280198574066,-0.0883623045682906,0.0202864555269479,-76.18347351074219,84.91139221191405,152.17139648437498,88.77706483638785,1.2726246857426726,42.18986811098063,1.0173279697171236,-52.78686477661134,33.058124237060525,-8.605252075195324
2906.726,39.22242668151855,-97.8867514038086,2.7636314558982846,-0.9477733850479126,-0.2568133503198623,0.8287216424942017,-21.635379333496097,50.0211360168457,133.2546527099609,36.78853936195374,-0.5624066019058243,-18.68725221633911,-1.0208137917518614,-0.084530969262123,0.0453304669260978,-76.35217193603515,84.53715942382811,151.30437622070312,105.48863689517538,1.2849151906044145,41.26652790057528,1.0253102620314227,-54.71679260253905,34.51602340698241,18.04972351074221
2929.115,48.68050666809082,-112.22320877075194,5.302026053071022,-0.9392412042617796,-0.2517693334817886,0.857676703929901,-19.65494884490967,47.91745620727539,91.4049969482422,31.85286466598512,-4.174843549728395,-20.148739662170406,-1.0277741742134094,-0.0795121307671068,0.0750198210030793,-75.87475128173828,84.11710693359375,151.1821221923828,122.44162607762628,1.296599847882546,37.921049775397705,1.0335714322979883,-56.219802436828616,36.19965072631835,59.77712524414059
2951.166,57.86295249938964,-126.4750866699219,8.330295385122298,-0.920522713661194,-0.2422414278984069,0.8924165153503418,-17.491107940673828,45.537294921875,35.193057250976565,23.675336256027222,-8.371989474296573,-21.59389358520508,-1.036787567138672,-0.0799482086300848,0.1047354876995086,-74.78227508544921,83.64451599121094,151.8382165527344,139.33220245626734,1.304779756367516,33.11960136781315,1.0451266420009298,-57.291167144775386,38.107221069335935,116.64515930175783
2973.868,66.12538871765136,-140.2736865234375,11.3925622433424,-0.8927357578277588,-0.2236389106512069,0.9332850432395936,-15.198038539886475,42.88164978027344,-35.42243774414062,13.575834426879885,-12.035989179611208,-22.66301219940185,-1.0423972630500793,-0.0827672149240969,0.1261481530219315,-73.30093200683594,83.12994842529297,153.08559326171874,155.49618850121226,1.310729746208688,29.030680974927414,1.0532596177540618,-58.10289346694946,40.248298645019524,188.50803100585938
2996.953,73.0854539489746,-153.3507418823242,14.150485343933104,-0.8580139088630677,-0.1965369316935538,0.970850293636322,-12.834058513641358,39.95819778442383,-91.68348205566406,3.642845735549926,-13.886281995773317,-23.118394470214845,-1.042007863521576,-0.0887342989444731,0.1406862692534922,-71.78994354248047,82.59581787109376,154.5615167236328,170.46457065987576,1.310482707240248,27.21321950081638,1.0551998814473174,-58.95588502883911,42.637620086669926,246.24499877929685
3006.785,78.51689178466798,-165.18573760986328,16.61704363822937,-0.8144725847244263,-0.1681317125260829,1.0035873508453368,-10.458057146072386,36.78629943847656,-133.62784912109373,-6.06884994506836,-14.267396688461304,-24.21742191314697,-1.0364656043052674,-0.1034692798554896,0.1536162418127059,-70.55413757324219,82.03352020263671,155.95531127929686,183.6500921440408,1.3033884435583285,28.75540074561723,1.0528840347019972,-60.0960804271698,45.24722076416015,289.5831604003906
3028.594,82.34992614746093,-175.42694854736328,18.58243808746338,-0.767323682308197,-0.1373372372239827,1.0273719429969788,-8.12284960269928,33.39596992492676,-161.28850036621094,-15.32494610786438,-13.52179406642914,-26.462543487548828,-1.0314399790763855,-0.125523149371147,0.1598578631877898,-69.8250277709961,81.42619964599609,157.02516906738282,194.68290016949592,1.2896279538753472,33.43589531946586,1.0512749535150698,-61.702178168296825,48.03022972106933,318.31366943359376
3049.554,84.65091918945312,-184.07330322265628,20.269239654541018,-0.7150221252441407,-0.1058212642371653,1.0428614234924316,-5.867574214935303,29.81837154388428,-174.6845837402344,-23.174270572662355,-12.184065341949465,-29.61884677886963,-1.0280353474617006,-0.1494617402553557,0.1653960853815077,-69.66931213378906,80.76240966796874,157.67547912597655,203.61630866679732,1.2688635577405714,39.53194087496861,1.0519274464003616,-63.80173791885376,50.94403812408446,332.3600628662109
3070.9970000000003,85.74017883300782,-191.25745239257813,21.67829853057861,-0.6571908950805665,-0.0760331961885093,1.0475029826164246,-3.7149383497238153,26.08463665008545,-173.82656066894532,-30.24533583641053,-11.545615715980531,-33.258245849609374,-1.0273682379722595,-0.1730475175380706,0.170586392879486,-69.96756744384766,80.03015197753906,158.01023193359376,210.7148309663948,1.2389283345253437,46.41327934019977,1.055713340427196,-66.25262909412385,53.94551532745361,331.83679260253905
3091.087,85.9225991821289,-197.0280682373047,23.04884651184082,-0.5940716397762298,-0.0481723498553037,1.0488679552078248,-1.6714675426483154,22.22436553955078,-173.11244140625,-35.49751274108887,-12.876024036407472,-36.743344459533695,-1.0274794125556943,-0.1946679526567458,0.1713654449582099,-70.45145812988281,79.22197814941406,158.26411865234377,216.18048489413465,1.2063853762122798,52.68717840102898,1.059705464147038,-68.7799905872345,56.997612609863275,331.3765600585938
3113.605,85.23102386474609,-201.46696838378907,24.690561904907227,-0.5279414868354797,-0.0216749484464525,1.041749050617218,0.2616219472885132,18.266936287879943,-172.5285430908203,-39.169229888916014,-16.23210793972016,-39.44822593688964,-1.030405032634735,-0.2078079682588576,0.1684525132179259,-70.88850677490234,78.34220977783204,158.64295959472656,220.14288683936084,1.1680895091447778,57.91262753342634,1.0645632588814526,-71.15012872219086,60.075273489952096,331.1715026855469
3137.143,83.55347808837891,-204.757548828125,26.684073486328128,-0.4577228236198425,0.0028929258882999,1.0310905075073244,2.084574689865112,14.231463956832886,-172.0564874267578,-41.74481384277344,-22.437653970718383,-40.92227584838867,-1.033264214992523,-0.2054854097962379,0.1645590707659721,-71.00052673339844,77.39772521972655,159.41091552734378,222.75295122756728,1.1281250759354782,62.615576808723226,1.0662733605387518,-73.08510142326355,63.16626126289367,331.46740295410154
3146.737,81.16322875976563,-206.83466613769528,28.67399528503418,-0.3889541137218475,0.0270286239311098,1.0121338367462158,3.7999082231521606,10.139515109062197,-171.68497558593748,-43.80419692993164,-31.32793945789337,-39.61970012664795,-1.0310516643524168,-0.1933694779872893,0.1520097559690475,-70.54986846923828,76.42081237792969,160.80535278320312,224.0317986907396,1.0846339256077937,66.8578200174009,1.0599840826591382,-74.34977669239044,66.28129726886749,332.49032836914057
3168.4770000000003,77.83469940185547,-207.9220159912109,30.741236038208008,-0.324485521018505,0.0523295927047728,0.99140198469162,5.407770271301269,6.008405532836915,-171.40098022460936,-44.56910842895508,-41.90423503875733,-36.44867706298828,-1.0239215612411496,-0.1793480864167212,0.1387975281476974,-69.43512771606444,75.42655242919922,162.90952392578123,224.1312757247042,1.0444649993531523,71.21008636406349,1.048735359132972,-74.84289798736572,69.4181468963623,334.31050415039056
3196.8540000000003,73.58516647338868,-208.13453918457031,32.46293281555175,-0.2662232166528701,0.0748203881457447,0.96402321100235,6.906516585350038,1.854431729316712,-171.20029113769533,-45.74802200317383,-52.96066200256348,-32.18753498077392,-1.014093828201294,-0.1690546184778212,0.129432406425476,-67.71216690063477,74.4182452392578,151.28099060058594,223.133603774682,1.0029026088900967,77.03084216786931,1.0362038912577614,-74.6186834859848,72.56381350994108,322.48128173828127
3216.812,69.25765258789063,-207.6421398925781,33.23035675048828,-0.2144686940312385,0.0984930818527936,0.930550413131714,8.311059494018554,-2.3093661880493164,-171.09117797851562,-46.35277320861816,-63.13503944396973,-27.22589279174805,-0.9997148418426514,-0.1667016062140464,0.1162042912840842,-65.47917053222656,73.40381256103515,125.80888427734376,221.3958836810628,0.9600113433037808,82.92081782055072,1.0201581386371708,-73.79023002624511,75.71317874908446,296.9000622558594
3226.871,64.95376693725585,-206.47012207031247,32.69862579345703,-0.1657955890893935,0.1237901747599243,0.8940847301483155,9.63810230255127,-6.460850377082825,-171.09077575683597,-45.5423876953125,-70.14032089233399,-22.06798397064209,-0.980557849407196,-0.1772523951530455,0.1086939775943755,-62.95065902709962,72.39890533447266,86.24131103515624,218.90204036474765,0.9177143833530004,86.49144239980191,1.002360458311701,-72.5887613296509,78.85975571155548,257.3320867919922
3246.203,61.12051452636719,-204.63648315429688,31.135004882812503,-0.116952030956745,0.1453653606772422,0.8607421445846558,10.913914470672609,-10.578178415298462,-171.21251953125,-43.679776229858405,-73.12161148071289,-18.13203344345093,-0.9600206398963927,-0.1971271601319312,0.1064768800139426,-60.390055084228514,71.40450927734375,32.281045532226564,215.8267732761148,0.8807303248406544,87.08308420021221,0.9858174639689964,-71.30396955490113,81.98268769264222,203.49356506347655
3267.804,58.23723205566406,-201.8554138183594,28.756679229736328,-0.0657839828729629,0.1620178839564322,0.8209200310707093,12.172108974456789,-14.63281690120697,-171.46720703124998,-40.38904739379883,-72.0597608947754,-14.682286887168882,-0.9420105361938476,-0.2143818897008895,0.1052557387948035,-57.98138854980469,70.4470571899414,-36.29788513183593,212.047470830492,0.8393372531572065,83.90145313299324,0.9718138790330094,-70.15349752426148,85.07987409114837,135.16932189941406
3285.956,55.8200080871582,-198.1102478027344,25.88573669433594,-0.0100587829947471,0.1805991798639296,0.7842893505096435,13.438283386230466,-18.598004512786865,-171.8621350097656,-35.93178047180176,-67.33853637695312,-11.397531261444092,-0.9238674902915956,-0.2237235787510871,0.1028903117775916,-55.84612091064453,69.56174804687501,-90.85288879394533,207.44545054428093,0.8048770267598013,77.17172440809904,0.9561222701959072,-69.284404296875,88.15975255966188,81.00924621582028
3308.32,53.5573095703125,-193.3105340576172,23.2059228515625,0.0494119751453399,0.1916580700874328,0.7481541609764099,14.725025367736816,-22.447139968872072,-172.3900646972656,-32.41447891235352,-60.21326858520507,-8.235990777015687,-0.9055235886573793,-0.2287096250057219,0.1053650140762328,-54.068586578369136,68.77496765136718,-131.45664611816406,201.93034155729083,0.77389211632095,68.87791881984053,0.9398844867197677,-68.79361194610595,91.22210762023926,40.93341857910153
3330.8430000000003,51.75393768310547,-187.20639587402343,20.94086982727051,0.1090987858176231,0.2021191406249999,0.7127421736717224,16.051268882751465,-26.153368034362792,-173.03875549316405,-29.910460510253905,-51.14106091022491,-4.741032781600952,-0.8894523191452027,-0.2278672796487807,0.0984026604890822,-52.66786087036133,68.12360382080078,-158.11254821777342,195.3541009320537,0.7488364963088804,59.43501620084752,0.923434896870724,-68.7191297531128,94.27697185516357,14.926207275390624
3346.951,49.747376708984376,-180.28108459472656,19.14970058441162,0.1643127816915512,0.2098204141855239,0.6787863421440125,17.421440010070803,-29.700052032470705,-173.79853393554689,-27.14195106506348,-41.42779150962829,-0.7171663999557497,-0.8786878490447997,-0.2213644075393676,0.0923891496658324,-51.579156951904295,67.63606506347656,-170.76227478027346,187.9967605692959,0.7292284928041748,49.53243124084215,0.9108404316674834,-69.0005969619751,97.33611709594727,3.0362591552734273
3369.494,48.06973510742188,-172.41002868652342,17.81388336181641,0.213269470334053,0.2154489743709563,0.6494905996322632,18.84395294189453,-33.07332832336426,-174.65535583496094,-25.83806690216064,-30.9582221364975,3.6690827465057367,-0.8713972043991088,-0.2174442690610885,0.0848024408519267,-50.79831512451172,67.33435791015626,-169.37233642578124,179.87009719632093,0.7167566996859822,40.49048514520367,0.902112272367768,-69.64226806640625,100.40768623352051,5.283019409179701
3390.91,47.682207183837896,-163.72430999755858,17.21681247711182,0.2569295102357864,0.215240168571472,0.6136157298088074,20.338188972473148,-36.25985191345215,-175.58757080078126,-25.266270141601563,-19.23616466522217,8.328127932548522,-0.8694667959213256,-0.2156531584262847,0.0767002764344214,-50.344439392089846,67.24570281982423,-168.34890624999997,171.39329391190057,0.6991890783368059,32.82944033572341,0.8990893872991967,-70.68262836456299,103.50555473327638,7.238664550781294
3413.559,47.33505035400391,-154.3352816772461,16.63587463378906,0.2971309894323349,0.2221251463890075,0.5844910526275635,21.90543071746826,-39.246842041015626,-162.18878479003905,-23.94337863922119,-5.691456589698791,13.443623619079588,-0.8739255952835082,-0.2194247770309447,0.0654684834182261,-50.24309097290039,67.40383697509766,-167.7356756591797,162.285977481858,0.6922833207156255,28.042986195928098,0.9034264226752484,-72.14852169036865,106.65067901611329,-5.54689086914064
3437.006,46.7884913635254,-144.71706146240234,16.491496772766112,0.3352234721183776,0.2230081301927566,0.5593600797653198,23.53188751220703,-42.032386016845706,-134.44191467285157,-22.042377586364744,8.25234199523926,18.38552235126496,-0.888224413394928,-0.2282172769308089,0.0636567819118498,-50.51905258178711,67.81253784179687,-167.56918212890625,152.98418306541885,0.6891959817252529,29.866285175681416,0.9192811974166828,-74.05094009399414,109.84492385864257,-33.12726745605468
3445.881,47.107646484375,-134.29267517089843,16.75820785522461,0.3773341262340545,0.223524368405342,0.5287640535831452,25.214323959350587,-44.60842315673828,-92.31923034667967,-20.91861995697021,23.294140419960023,23.04683646202087,-0.9060814785957336,-0.2385033392906188,0.0621380282938479,-51.28221664428711,68.47706207275391,-167.94640563964845,143.29860603778462,0.6869756985902076,38.87624351343764,0.9390040592389652,-76.4965406036377,113.08548522949219,-75.62717529296877
3469.0530000000003,46.98790985107421,-123.57224670410156,17.205386085510256,0.4266562795639038,0.2298265081644057,0.5018563818931578,26.926438293457032,-46.97151473999024,-35.79947143554687,-19.873779678344725,38.78271466255188,27.06603382110596,-0.9215983557701112,-0.2513570117950438,0.0638434168696402,-52.6580923461914,69.38279235839843,-168.99311279296876,133.31912517723586,0.6976500790462556,51.299476236171806,0.957392217753151,-79.58453063964843,116.35430709838867,-133.19364135742188
3490.893,44.88826606750489,-112.80645538330076,17.66914688110351,0.4821127438545227,0.2373187023401259,0.481611783504486,28.610963821411133,-49.12801055908203,35.13620239257813,-18.30498527526856,53.06695449352264,29.934638824462887,-0.9342570710182192,-0.2703867143392562,0.069139329344034,-54.73947021484376,70.4786962890625,-156.41033813476562,122.6884328622619,0.7215973768506299,63.61805362235191,0.9750515355102328,-83.3504340362549,119.60670684814453,-191.54654052734375
3511.5460000000003,42.11221252441406,-102.37812286376956,18.39509433746338,0.5441853380203246,0.2392749035358428,0.4609491324424743,30.23290145874024,-51.0941911315918,91.71147705078126,-15.794618282318115,64.43966356277465,30.90667682647705,-0.9485546398162844,-0.2866358709335326,0.0815081420540808,-57.5477214050293,71.68002777099609,-130.2328253173828,112.218973353416,0.7522394992805493,73.19264224786545,0.99426334763177,-87.78062286376954,122.77421890258789,-221.94430236816407
3534.556,39.66757820129394,-91.98484252929688,19.18884292602539,0.6114449501037598,0.241093755364418,0.434573494195938,31.77374313354492,-52.88238037109375,133.95265747070312,-13.11881194114685,72.2368662261963,30.05360752105713,-0.9611124467849732,-0.2960286271572112,0.0922584088146685,-61.03596267700196,72.89930847167969,-90.4099884033203,101.99480235940942,0.7879373374455446,79.3315031621001,1.009891923652524,-92.80970581054689,125.78168884277343,-224.36264587402343
3556.985,36.21175643920899,-82.1023435974121,19.912371520996096,0.6808466565608978,0.245707836151123,0.4121817064285277,33.1948639678955,-54.50598754882813,161.87712463378907,-10.055655632019045,75.455087890625,27.42831659317017,-0.9704060149192808,-0.3005424994230269,0.102379234433174,-65.05964889526368,74.04466705322265,-36.79469970703124,91.91620460065944,0.8329575437022906,80.91291027955225,1.021026510622561,-98.25451286315918,128.55065460205077,-198.6718243408203
3566.376,31.911814918518065,-72.99289199829101,20.6460969543457,0.7491569089889527,0.2435404086112975,0.384744302034378,34.46417236328125,-55.98601654052734,175.49849731445312,-6.315604341030122,73.21811767578124,23.14457851409912,-0.9811481404304504,-0.2993430346250534,0.1096653689444064,-69.33177352905274,75.02952423095704,30.899202880859377,82.29573216829759,0.8766847682379115,77.04836876126767,1.0316416136403086,-103.79594589233399,131.01554077148438,-144.59929443359374
3594.079,28.05029998779297,-64.40828994750976,21.19387359619141,0.813622751235962,0.2409620302915572,0.3546598279476165,35.579071273803706,-57.33489593505859,174.82629455566408,-2.5029428815841674,66.33145057678223,17.96027554810047,-0.9921792411804198,-0.2917415910959243,0.1119246441125869,-73.51071884155274,75.80393859863281,84.22371459960938,73.37865780578849,0.9196892273647868,68.76552593016555,1.0402210960003957,-109.08979011535645,133.1388345336914,-90.6025799560547
3616.003,24.62637218475341,-56.092563476562496,21.61506332397461,0.8694438934326172,0.2417276364564894,0.3243004620075225,36.536790161132814,-58.55559310913086,174.27166625976562,0.595135028362274,56.27300144195556,12.871729549169538,-0.9984268355369568,-0.2793809658288955,0.1054453392326831,-77.28610488891601,76.36327270507812,123.51201293945311,64.96187225483592,0.9589242533758344,57.72942316163639,1.0421269546239191,-113.82289505004883,134.91886581420897,-50.75965332031251
3635.989,20.390358734130857,-48.62129020690918,21.547314071655272,0.9143679189682008,0.2459269279241561,0.2989093363285064,37.32985885620117,-59.65462707519531,173.82133544921876,3.5616581630706783,44.55685401916504,8.487789917588234,-0.9941481852531432,-0.2671164315938949,0.0913552401028572,-80.41653350830077,76.73125305175782,149.01380126953126,56.95685502548032,0.992922724314838,45.49770572941963,1.0334541993546809,-117.74639236450194,136.3858801269531,-24.807534179687508
3645.824,16.13074356079101,-41.99976760864258,20.92883274078369,0.947452566623688,0.2472053080797195,0.2755489557981491,37.97020050048828,-60.64096649169922,173.4579718017578,6.854900352954864,32.41182597160339,5.048247895240784,-0.9867889666557312,-0.2574456942081451,0.0739175011962651,-82.73513671875,76.94581207275391,160.89164794921876,49.62053412545741,1.017204039210449,33.511206013425536,1.022494277325257,-120.70533721923829,137.58677856445314,-12.566323852539028
3668.107,12.724497909545898,-35.76536933898926,19.66967361450196,0.96754319190979,0.2494457298517226,0.2570546817779541,38.48456726074219,-61.51408096313477,173.16808654785157,10.012121438980104,21.15151491165161,2.768187584280968,-0.9780512928962708,-0.2477309745550155,0.0560703375749289,-84.19351989746093,77.05722229003906,159.19533142089844,42.75477226118021,1.031717068665731,23.56463496998145,1.0104943592350286,-122.67808715820311,138.57130325317382,-13.972755126953132
3685.646,10.08837543487549,-29.87711414337158,17.89788475036621,0.9752893447875975,0.2523946899175643,0.2453248852491378,38.89426788330078,-62.270477600097664,172.94224365234373,12.570625674724578,11.463432588577268,1.7097468543052674,-0.969760603904724,-0.2360996508598327,0.0393529744818805,-84.85421875,77.11448455810546,158.2710754394531,36.259502850817526,1.036859047738557,17.09836690659979,0.9988630189482248,-123.74848663330079,139.3849621582031,-14.67116821289062
3708.488,7.665656423568727,-24.385820202827453,15.736528663635257,0.973259665966034,0.2526052910089492,0.2375571882724761,39.20735839843749,-62.91097061157227,172.77314392089843,14.43004629611969,3.682702713012693,1.6606860500574112,-0.9591211986541748,-0.2239663660526275,0.0247952087223528,-84.85138458251951,77.15304077148438,157.99444580078125,30.01780887656929,1.0331878958553262,14.984872823532534,0.9852356110120188,-124.058742980957,140.06401138305665,-14.778698120117184
3730.648,5.572298641204833,-18.70927987098694,13.390310420989994,0.9652502703666688,0.2490785092115401,0.2323836237192153,39.41829559326171,-63.43112487792969,172.6721984863281,15.651597092151642,-2.5759476184845,2.323086072206497,-0.9575232410430908,-0.2127112764120101,0.0191983979940413,-84.28917297363282,77.19421844482422,158.26983947753905,23.67251736947644,1.0235967647305475,16.031366958781323,0.9810532211536892,-123.70746856689453,140.6253433227539,-14.402359008789062
3745.691,3.695507287979126,-12.489637961387634,10.821834869384768,0.9516693925857544,0.2473225557804107,0.2312261754274368,39.51879623413085,-63.819575042724615,172.65279663085937,15.724947032928467,-8.201225128173832,3.4577537840604777,-0.9589803433418274,-0.2025479757785796,0.0191631197184323,-83.22184783935546,77.24634185791015,159.06387756347655,16.933987730663855,1.0101032737225897,18.06903744040009,0.9803245414480616,-122.74064407348632,141.06591690063476,-13.588919067382818
3768.179,1.5200477981567384,-5.806886920928955,8.089405574798587,0.934113447666168,0.2467738139629363,0.2335950976610183,39.49273071289062,-64.06530899047853,172.72582580566407,14.83913407564163,-13.547912931442264,4.697733209133148,-0.9618915438652038,-0.1959710681438445,0.0242446693032979,-81.68538055419921,77.30260162353515,160.35857116699216,10.07318041011474,0.9939979466879444,20.6352742219967,0.9819510200098835,-121.17811126708983,141.36791061401368,-12.367254638671909
3790.596,-1.4512196445465089,1.4071828603744507,5.035978279113771,0.9174515771865844,0.2434954494237899,0.233921763896942,39.31956085205079,-64.15880981445312,172.89618347167968,12.530971417427065,-20.17415609359741,5.120710636377334,-0.9737303829193116,-0.1943673539161681,0.037422937080264,-79.62159149169922,77.32602386474609,162.2412713623047,5.426534740232944,0.9776128180404046,24.294927375374385,0.9936448073171192,-118.94115234375002,141.4848336791992,-10.654912109374976
3813.11,-5.105632667541505,9.375598278045654,1.3144539833068856,0.9033468794822692,0.2383445149660109,0.2329693549871444,38.99064483642578,-64.08280075073243,173.158544921875,8.085886228084565,-28.99280018806457,4.161410744190216,-0.9898162841796876,-0.1962596744298934,0.0544206250831484,-76.96213211059572,77.26214752197265,150.42481872558594,10.756259446545112,0.9628698836539974,30.385545218416382,1.0105521959152095,-115.9527769470215,141.3449482727051,-22.73372619628907
3834.26,-9.228153295516968,17.871815514564513,-3.0760812759399414,0.8906457972526549,0.2345006227493285,0.2331532561779021,38.51265899658203,-63.821136016845706,173.49579467773438,1.9715862560272217,-38.482939109802246,2.0767772245407103,-0.9938754105567932,-0.2009266752004622,0.063379632141441,-73.78060180664063,77.0714047241211,124.86830627441408,20.347552163549743,0.9500531138310104,38.589334777034885,1.0159610417171177,-112.29326080322267,140.8925407409668,-48.6274884033203
3845.615,-13.831791896820068,26.694112310409547,-7.841997737884522,0.8806781339645386,0.2287909591197967,0.2342020523548125,37.88868408203125,-63.364135589599606,173.89407531738283,-4.234617192745209,-47.24980213165284,-0.8654506063461301,-0.9960608959197998,-0.2091684758663176,0.0712540125474333,-70.22995346069337,76.72901885986327,85.41730834960939,31.07074230910298,0.9395689862620118,47.44707355571536,1.0202773612998095,-108.11863754272461,140.09315444946287,-88.47676696777344
3868.026,-18.83847165107727,36.01595042705536,-12.843057937622069,0.8745015668869017,0.2218947088718413,0.2366952526569365,37.12067398071289,-62.700959014892575,174.3431219482422,-10.32140320777893,-54.56584587097169,-4.279832019805907,-0.9963662672042848,-0.2188154596090315,0.0779080997966229,-66.51164184570312,76.2279214477539,31.86358276367188,42.62605818629807,0.9327458898024136,55.69811362972667,1.0230814316565582,-103.632315826416,138.92888046264648,-142.47953918457034
3890.574,-23.93655754089356,45.81648830413818,-17.7622674369812,0.8672860693931579,0.218398794531822,0.2450026762485503,36.2147492980957,-61.82110244750976,174.83599548339845,-14.548973448276518,-57.44223785400391,-7.365276741981506,-0.9804747152328492,-0.2278937590122222,0.0737220074236392,-62.98115829467774,75.60831817626953,-36.19518188476562,54.659011443078455,0.9273130382914598,59.71206427147355,1.0093072708477973,-99.19590759277344,137.4294206237793,-211.03117736816407
3913.171,-29.04932529449463,55.93482139587402,-22.02641357421876,0.8573238325119018,0.2180177652835845,0.2591218996047973,35.16919403076172,-60.72254348754883,175.3767724609375,-14.81556939601898,-54.234979286193855,-9.409482488632204,-0.9628675484657288,-0.2377237534523009,0.0682195110619067,-59.96295227050781,74.94792205810546,-90.3743817138672,66.76623727301262,0.9217809168272808,57.00414401958867,0.994122930292516,-95.13214630126953,135.67046554565428,-265.7511541748047
3932.862,-34.17748935699463,66.32613204956054,-25.376588935852048,0.8430915760993958,0.2164358884096144,0.278562399148941,33.97487236022949,-59.40748596191406,175.97699462890623,-11.131298034191133,-47.1788777589798,-10.812187304496764,-0.957967221736908,-0.2478572779893875,0.0762053041160105,-57.57052291870117,74.30319305419923,-130.87442810058593,78.81134332964025,0.9139173429260636,49.66543764863315,0.9924422786993974,-91.54539527893067,133.7106790161133,-306.8514227294921
3957.471,-39.12757553100586,76.86812072753906,-27.696850662231448,0.8229133415222168,0.2154966348409651,0.3031514948606491,32.63152961730957,-57.87918289184571,176.6438684082031,-4.941640110015869,-37.15888287544251,-11.388669509887697,-0.9523159790039064,-0.253059703707695,0.0856522114574908,-55.85035064697265,73.73157928466796,-157.797626953125,90.59133892223936,0.9030647795807824,39.177853140941984,0.9890810072154624,-88.48188026428221,131.61076217651367,-334.44149536132807
3965.818,-43.595152587890624,87.08367156982422,-28.834461669921875,0.7951323986053467,0.2139219623804091,0.3312566852569579,31.15072410583496,-56.1498388671875,162.97820739746092,4.1597043418884265,-24.181731543540955,-11.162707347869873,-0.9431695818901062,-0.254763941168785,0.0920983497798442,-54.81562393188476,73.29221984863281,-171.22081359863282,101.56539451524162,0.8875410575449478,26.95673043953953,0.981303027588716,-85.96634803771971,129.4420587158203,-334.19902099609374
3992.782,-47.33149719238281,96.34064971923829,-28.98409431457519,0.7614470076560974,0.2087400281429289,0.3589848268032073,29.55956970214844,-54.24329330444336,134.96740966796875,15.498669872283935,-10.888322963714604,-10.22239580154419,-0.9410110187530518,-0.2536168831586837,0.1057267753779887,-54.32341293334961,73.01195892333985,-171.04454833984374,111.18394280665576,0.867320039369819,21.52351552826872,0.980306794768663,-83.88298263549805,127.25525222778322,-306.0119580078125
4015.96,-50.25364959716797,104.761611328125,-28.6202693939209,0.7222511148452759,0.20013166308403,0.3889652872085571,27.89344749450684,-52.17437454223633,92.5897442626953,27.181725788116456,0.6248020315170265,-9.277954082489014,-0.9416447138786316,-0.2490550792217254,0.1235351528227328,-54.20038513183594,72.87665008544921,-171.49631042480468,119.6642984606548,0.8443893356250178,28.728331423104223,0.9818269367076085,-82.09383262634277,125.05102462768554,-264.0860546875
4025.81,-51.555563659667975,112.84205627441406,-27.921011505126955,0.6779647183418274,0.1923487734794615,0.4180670726299286,26.20616142272949,-49.947079010009766,35.82322387695312,37.70671140670777,11.30469606399536,-7.838192024230958,-0.935905418395996,-0.2348965662717818,0.1332579118013381,-54.38969085693359,72.88868713378906,-172.49047424316404,127.16480917287431,0.8193987351666614,40.13763187355198,0.9740908684958048,-80.59585227966308,122.83576614379882,-208.31369812011718
4055.365,-51.71758087158203,120.75703979492188,-27.46920700073242,0.6287372350692749,0.1859684348106383,0.4453054857254027,24.547088165283203,-47.55933425903321,-35.36164794921876,46.60072513580322,21.153795113563536,-6.266275119781495,-0.9298527598381042,-0.2248233366012572,0.1361582891643046,-54.89108932495117,73.03812713623047,-159.58896850585936,134.20703470567426,0.792585481273542,51.5594495196186,0.9662871040054356,-79.43817749023437,120.59746139526368,-124.22732055664059
4076.114,-51.69114273071288,128.8118911743164,-27.59633209228516,0.5760308980941773,0.1814128160476683,0.473731917142868,22.94373306274414,-45.00089126586914,-92.19284790039065,53.00642740249634,29.136369962692253,-5.031256704330445,-0.9282354831695556,-0.2139601731300353,0.1395787370204924,-55.685630493164055,73.29311798095702,-132.71707885742185,141.51337424306774,0.7675572517443808,60.69532885324752,0.962747262644298,-78.6293635559082,118.29400924682616,-40.52423095703121
4085.509,-51.78332748413086,138.1476220703125,-28.40404891967773,0.5182928049564361,0.1755834886431693,0.5061831748485565,21.40178688049317,-42.24014221191406,-134.6818420410156,56.81077178955079,36.35742038249968,-3.684661674499512,-0.9248912930488586,-0.2023532664775847,0.1388045296072959,-56.82018447875977,73.63980529785155,-91.86671630859377,150.24336419303876,0.7454383942711031,67.54926009846258,0.9568894637580878,-78.22197135925293,115.87994750976561,42.81512573242185
4108.414,-51.21015930175781,148.43525787353514,-29.77603096008301,0.4533001267910004,0.1748697686195373,0.5403680753707887,19.942039833068844,-39.25707664489746,-162.83963012695312,58.89814697265625,43.590627593994135,-1.5235168933868408,-0.9174402260780334,-0.1909808510541915,0.1265913339331745,-58.371038818359374,74.08497985839844,-37.07851440429687,159.8190170643973,0.7266760611205779,73.29021513527802,0.9456191726707306,-78.31307865142821,113.34205650329591,125.76111572265626
4125.442,-51.47276779174805,158.34732452392578,-31.54887672424316,0.3807288303226232,0.1783673605322837,0.5822583842277527,18.55542118072509,-36.057633590698245,-176.68045898437498,59.69829208374024,49.94899238586426,0.7153137016296386,-0.9140623164176942,-0.1869160470366477,0.1099618012458085,-60.36975448608399,74.6118377685547,31.64296081542968,169.4657860176802,0.7181881254557191,77.84150301587468,0.9394355351315544,-78.92517566680908,110.66947135925294,208.32341979980467
4148.655,-52.0586294555664,167.54597564697266,-33.05193618774414,0.301798139065504,0.1739842677116393,0.6247861981391907,17.226972618103026,-32.66048179626465,-176.20018798828124,58.79246871948243,54.734858627319326,3.3012096500396724,-0.9141117334365844,-0.1729299214482306,0.0982823180779813,-62.785579223632816,75.205625,85.56529846191407,178.53342920037872,0.7153393848655202,80.39500676184727,0.9355022356923098,-80.01255184173584,107.86610679626465,261.76548645019534
4170.477,-51.452510070800784,175.9653924560547,-34.285199356079104,0.2164944798499345,0.1706102713942527,0.6685402059555055,15.97313789367676,-29.08652126312256,-175.79494140624996,55.98922172546387,57.89284408569336,6.858717613220215,-0.9156465268135072,-0.161864642202854,0.0843388621509074,-65.57922195434571,75.85987426757814,124.77000122070312,186.5118093571699,0.7231346565403597,80.82955123623694,0.9336604137104704,-81.55235984802248,104.9463955307007,300.5649426269531
4185.462,-49.70004241943359,182.31821228027343,-34.982685012817385,0.1275918576121329,0.1750485527515411,0.7137373805046081,14.81234504699707,-25.381466178894044,-175.46368408203125,51.53837448120117,58.84380813598633,10.085545511245726,-0.9230910062789917,-0.1555891254544257,0.0704398084059356,-68.70051345825195,76.53931762695314,149.34390380859372,192.18171868383928,0.7458838557569829,78.87024805570671,0.9387580883492294,-83.51285850524901,101.92078380584718,324.807587890625
4207.755,-48.25871124267578,186.45652526855469,-34.90547393798828,0.0419987987726926,0.1755901786684989,0.7586658811569214,13.727155838012695,-21.59327611923218,-175.19673522949216,45.2510368347168,57.56661071777344,12.864615306854247,-0.9375817775726318,-0.1549698492884635,0.0640832555294036,-72.07104110717773,77.20870635986329,159.404873046875,195.73791440817672,0.7798523765269889,74.34426226106432,0.952460974247235,-85.79819694519043,98.80198247909547,334.6016082763672
4230.129,-46.11787170410157,189.3337872314453,-34.26627723693848,-0.0348031476140022,0.1685322576761245,0.7948603749275207,12.718959579467777,-17.750638065338133,-174.98137390136722,38.41887954711914,54.36091995239258,15.838764925003051,-0.9553041076660156,-0.1583601418137549,0.0633566057309507,-75.55270965576172,77.85824737548828,155.104501953125,197.8593410319485,0.8132757199075676,68.42504218541622,0.9704112180558208,-88.2716692352295,95.60888544082641,330.0858758544922
4252.7970000000005,-43.498873748779296,191.11477111816407,-33.54822685241699,-0.1014292972534894,0.1709193029999732,0.835407555103302,11.792636680603028,-13.874769806861876,-174.8159246826172,32.82934776306153,49.62505310058594,18.65626125335693,-0.9756778717041016,-0.1730199965834616,0.0636955206841229,-79.00368011474609,78.47799377441406,150.96168518066406,198.85293883144328,0.8587241079665866,62.35758216718729,0.992945289482763,-90.79631679534911,92.35276358127594,325.77760986328127
4276.679999999999,-41.40894332885743,191.58241271972656,-32.52351982116699,-0.1572657950222492,0.1724742901325225,0.8723399138450623,10.929300708770754,-9.992141942977906,-174.6934167480469,29.488800964355462,44.02492721557617,20.8589308166504,-0.9966446566581724,-0.1839482769370078,0.0699603839591144,-82.2714077758789,79.0648208618164,147.08375732421874,198.6864383713242,0.9030264870577764,56.946278135326445,1.0158897556118416,-93.20070848464965,89.05696280479431,321.77717407226567
4285.977,-40.23638244628906,191.2585223388672,-31.15866790771484,-0.2007457814365624,0.1693810027837752,0.9057817888259888,10.1037624168396,-6.118146052360535,-174.60444580078126,27.454831848144533,37.42590003967285,23.41737503051758,-1.0169843029975891,-0.1882229098677634,0.0829435773193835,-85.15712493896486,79.64075775146485,143.64523742675783,197.91324216786063,0.9430956695041184,51.988837637606245,1.037576297609538,-95.26088735580446,85.75890380382538,318.2496832275391
4307.894,-39.51810470581055,190.6489978027344,-29.64177848815918,-0.2353631329536437,0.160993860810995,0.929642210006714,9.302183494567872,-2.257453727722168,-174.54353515625002,25.587313709259035,29.459132499694817,25.88467189788819,-1.0326174068450926,-0.1776678282022475,0.1024918469786642,-87.43161224365234,80.22228729248046,140.874990234375,196.94505831492071,0.9723936786090044,46.82485824593528,1.0527911211606436,-96.73379573822021,82.47974102020262,315.418525390625
4328.277,-39.48807723999023,189.9793835449219,-28.276351699829103,-0.2660226070880889,0.1528526794165372,0.949713385105133,8.505045585632324,1.5906110715866089,-174.51292602539064,21.793190345764163,20.84136215209961,28.248775405883794,-1.0371703767776488,-0.1586924504861235,0.1240649573504923,-88.96299865722656,80.82100585937499,138.9447314453125,196.08933291148807,0.9980418242411534,41.31947281529308,1.0565499505223406,-97.4680442428589,79.23039478778838,313.4576574707031
4350.120000000001,-40.700915832519534,189.29870910644533,-27.0235312652588,-0.2938370954990387,0.1423945200443267,0.9599847531318664,7.681716804504394,5.427291450500488,-174.51524841308594,15.568665828704836,11.937290077209472,30.195261573791505,-1.0345377159118652,-0.1306712975353001,0.1392185703665017,-89.58605895996094,81.44278106689453,138.06606994628905,195.5015014290603,1.013995643124573,36.0088332438447,1.052010020854645,-97.26777576446533,76.01548961639404,312.581318359375
4372.7080000000005,-43.55940368652344,188.8267706298828,-26.18200103759765,-0.3206978225708007,0.1270480809360742,0.9647624039649964,6.791178922653198,9.258435521125794,-174.56154052734377,6.543401794433597,2.854705047607419,31.36138862609863,-1.0261042737960815,-0.1037935094907879,0.1519576975703238,-89.17232482910156,82.07660369873045,138.42041870117188,195.5465881430015,1.0245754263964713,32.16367740960944,1.0424750429462917,-95.96350375175476,72.81816817760466,312.9819592285156
4395.361,-47.53372070312499,188.9427587890625,-26.411225357055667,-0.3529652523994445,0.1043981760554015,0.9600990176200866,5.795389428138733,13.095914773941038,-174.67868713378908,-4.9220958518981925,-5.814699974060061,30.88098110198975,-1.014935050010681,-0.0833891256153582,0.1555684661120175,-87.69149047851563,82.68821655273437,140.0811932373047,196.61224155063627,1.0282380912026912,31.80680363043504,1.0301691364331993,-93.48687990665437,69.59230177879334,314.7598803710938
4405.347,-52.16760192871094,189.3756823730469,-27.881551666259764,-0.3936648261547087,0.0857725643739103,0.9513255286216736,4.662046413421631,16.9445618391037,-174.90286682128908,-15.857629928588867,-13.018203125000005,29.288949890136724,-1.0074451208114623,-0.0738341854140161,0.1496675089001654,-85.18160186767577,83.24997802734374,142.99190185546874,198.39856019781976,1.0331259311226295,35.76004229895118,1.0211745793951954,-89.8436482810974,66.30541618824005,317.89476867675785
4432.621,-58.3137924194336,189.3589855957032,-30.181222076416013,-0.4428691339492797,0.0693778198398649,0.9404091691970824,3.337481484413148,20.790862464904784,-175.267646484375,-23.8570685005188,-19.22747425079346,26.87481090545655,-1.0094153022766112,-0.0641421346366404,0.1357019824534653,-81.53366714477538,83.72876983642578,147.19602233886718,200.42013366475044,1.0417848900808,40.75672882736565,1.0205138381951162,-84.87114862918853,62.937907371521,322.4636688232422
4452.7210000000005,-65.42194381713867,188.9203271484375,-32.84167747497558,-0.5023348617553711,0.0459439312666654,0.9252269554138184,1.77472580909729,24.62057350158691,-175.80324218750002,-28.63154163360596,-24.17341590881348,24.6148641204834,-1.012577648162842,-0.0589994568005203,0.12572647055611,-76.6896583557129,84.10080810546874,138.28327758789064,202.60675339695817,1.053800776797658,44.83314341742333,1.022057520328599,-78.46438416481018,59.48023460388183,314.0865197753907
4475.112,-72.79406204223633,188.33531555175784,-35.62539794921875,-0.5723023462295533,0.0168674694560467,0.9021425461769104,-0.0651342821121216,28.4235302734375,-162.14215698242188,-29.696013822555543,-27.803966789245614,23.245975532531737,-1.0203301310539246,-0.0575243528932332,0.1065105037763714,-70.71017288208007,84.36302795410157,116.11712585449216,205.03252310701671,1.0684922370556844,46.85391322638854,1.027485822251091,-70.64503859996795,55.93949768066407,278.25928283691405
4495.246,-80.17376052856446,187.55602966308595,-38.00433197021485,-0.64782555103302,-0.0118846050649881,0.8729158997535705,-2.220155954360962,32.184195327758786,-134.32174377441407,-26.67871719360352,-29.48640274047852,23.34799167633057,-1.0215363264083863,-0.0558231864497065,0.0813347293622791,-63.809140625,84.5475030517578,80.40198486328124,207.4835545019756,1.0871068744384669,46.1121525520982,1.026288474317906,-61.588984670639036,52.363307723999014,214.72372863769533
4505.419,-86.84721115112305,186.8729370117188,-39.85686447143555,-0.726706771850586,-0.041853803154081,0.8411078023910521,-4.727208590507507,35.88851715087891,-92.38617309570311,-21.545312986373904,-28.450811157226564,24.90837291717529,-1.0029586553573608,-0.0631837883591651,0.0381621180474757,-56.292150726318354,84.70561614990234,30.7913818359375,209.88687981293148,1.1123474314867028,43.52098584092565,1.0056712199926627,-51.564942135810846,48.81709899902343,123.17755493164061
4528.329000000001,-91.41885711669924,186.78844665527348,-41.05025550842286,-0.8054332065582275,-0.0818963549658655,0.7980576920509338,-7.602375659942626,39.531987457275385,-36.38532287597657,-14.553215465545652,-22.365361328125005,26.97827274322509,-0.9709271144866942,-0.075293813496828,-0.0209576200135052,-48.81387115478516,84.91398345947265,-33.40512207031251,211.97276881175145,1.136805059376948,37.945127064381126,0.9740676782611072,-41.21149549484254,45.38199600219726,2.9802008056640616
4545.046,-94.12137603759766,186.97073486328128,-41.7441862487793,-0.8815727758407593,-0.1311750732548534,0.7442211937904357,-10.868001675605774,43.102880706787104,33.62543273925782,-6.62798279762268,-10.736717681884768,27.77620220184326,-0.9424321937561034,-0.0864354367554187,-0.0902274587005376,-42.826934814453125,85.26533508300781,-84.84603149414063,213.4466355042849,1.1611385120793554,30.50778050438546,0.9506789778145928,-31.95893313884735,42.16245437622071,-118.47146423339845
4567.514,-94.6664288330078,186.3319268798828,-41.36790443420411,-0.953148865699768,-0.1779625859111546,0.6849090313911439,-14.516785049438475,46.57258422851562,88.82062561035157,0.4743450355529784,5.3183710479736295,26.617103338241577,-0.9304320478439332,-0.1012178160250186,-0.1400919923000037,-41.62751831054688,85.80578247070312,-112.37705139160155,213.055446398449,1.1871241819835423,27.14738042491961,0.9463480375858102,-27.110733261108408,39.2331982421875,-201.19767700195314
4589.998,-92.91474182128908,183.4671466064453,-39.30580102920532,-1.0192601418495175,-0.2249042542278765,0.6204641199111939,-18.50297038078308,49.89622207641602,129.2246221923828,7.015665674209595,22.85467079162597,24.443700513839723,-0.948169536590576,-0.1088016666471957,-0.1620311037078499,-46.385719299316406,86.47750854492186,-117.17345489501956,209.3759516424348,1.2142688682619138,34.19137371700898,0.9680482174728589,-27.882748918533327,36.581286468505844,-246.39807708740238
4610.121999999999,-89.92963531494141,177.08019653320312,-35.17696779251098,-1.0771323585510255,-0.2806025648117064,0.5585523974895478,-22.754242153167723,53.0154638671875,154.91313598632811,12.453206176757812,38.29660957336425,22.42345244407654,-0.9909460496902468,-0.0909746707975864,-0.1584528539516031,-58.27180267333985,87.22550354003906,-100.39360885620115,201.6981764300103,1.2453644839796598,46.09255762492786,1.0076496271268314,-35.517560520172125,34.21003967285156,-255.30674484252927
4624.937,-85.35761978149415,166.36111450195312,-28.847563114166256,-1.124854040145874,-0.3272152370214461,0.514535665512085,-27.12676853179932,55.868876953125,166.02549438476564,14.658079752922058,47.96496681213379,19.42285189628601,-1.0379761505126954,-0.0795231507718562,-0.1345985905826091,-63.06095046997071,87.91641357421875,-62.15457580566406,189.1933549856334,1.2794973130317473,53.78424043451,1.0496833813720503,-35.93418193817139,32.04753662109375,-228.1800701904297
4647.531,-78.09758476257325,151.74958587646483,-20.929025440216066,-1.1569391942024232,-0.3580204844474791,0.5039363873004914,-31.436990165710448,58.41067489624023,162.71762634277346,14.896116132736209,50.56312660217285,16.16476622581482,-1.0854611825942992,-0.0810468673706054,-0.0988967925310134,-73.19619796752929,88.3653778076172,-14.881961517333986,171.9453217313664,1.3117312410746458,55.13459635077206,1.0929662159474671,-41.75920780181884,29.954702911376963,-177.59958786010745
4669.897,-67.73395042419433,134.32626159667967,-12.736649379730224,-1.1699263048171995,-0.3726382267475127,0.526427149772644,-35.50012496948242,60.613990783691406,159.52737731933593,15.449937682151791,46.76969825744629,14.550178875923155,-1.1084707593917846,-0.0627344026789068,-0.0882992559671401,-82.80811050415039,88.48669250488281,18.421275787353515,150.97567629266982,1.3359312672269137,51.35964325028269,1.1137503258407735,-47.30798553466797,27.872701721191405,-141.1061015319824
4692.523999999999,-55.78899730682373,114.70068458557128,-5.484802856445311,-1.163390073776245,-0.3781818151473998,0.5753734576702118,-39.1425033569336,62.463116912841805,156.60339294433592,15.531181812286375,39.17995752334595,14.136510124206543,-1.0926097822189331,-0.0393734680861234,-0.1135939228534698,-75.41886291503906,88.37890838623048,39.87702926635742,127.66652782649636,1.351870025135795,44.45365675070255,1.0992042510374829,-36.276359558105455,25.915791473388673,-116.7263636779785
4716.124,-42.46156658172608,93.5301721572876,0.4756234741210939,-1.1414256858825682,-0.3728405147790908,0.6342188048362731,-42.17658065795898,63.9611117553711,154.1076446533203,15.53972132205963,30.875665333271023,11.329779601097108,-1.0673213553428649,-0.0450968261435627,-0.1414250946044921,-48.50705856323242,88.06714630126953,52.03178802490235,102.71856676392709,1.357975013857464,36.37517772257429,1.0775943841181812,-6.33047790527344,24.10603454589843,-102.07585662841797
4725.765,-28.86694713592529,71.47068237304687,4.445217819213868,-1.1119499588012691,-0.3608454704284667,0.6890660297870635,-44.47591552734375,65.11601440429686,152.15973571777346,18.012431125640866,23.26024023532867,8.567985973358155,-1.0626562261581425,-0.0465571199357509,-0.1577934941649436,-29.850549011230463,87.65395416259767,55.87458618164062,77.2082834757872,1.3570019004457556,30.641423506436848,1.0753160499174923,14.625366516113289,22.53793975830081,-96.28514953613283
4747.254,-15.809809150695802,47.9362926864624,6.655253257751466,-1.0843328428268433,-0.3476394873857497,0.7126340794563293,-45.91981735229492,65.91927993774414,150.89080078125,21.901471037864685,16.165158879756927,7.458101139068603,-1.0573673248291018,-0.0241601778194308,-0.1661232499033212,8.357650146484374,87.28876434326172,50.39645294189453,50.91297101749637,1.3433086981127385,28.22428152904492,1.0706102502624186,54.277467498779295,21.369484405517582,-100.49434783935547
4767.465999999999,-4.115270805358887,22.56577354431153,7.839915122985841,-1.064424443244934,-0.3504979109764098,0.7061203467845918,-46.40360092163086,66.35385620117187,150.43434814453127,24.90313717842102,9.890367174148558,5.876320991516113,-1.05268292427063,-0.0154148370027542,-0.1517788006365298,63.47958862304688,87.05958709716796,47.41416641235351,24.2407478966762,1.3245580867290447,27.43203879703555,1.0636802905823957,109.88318954467775,20.705730895996098,-103.02018173217776
4790.253,7.833101844787597,-3.289423789978025,8.81677068710327,-1.0559517192840575,-0.3542232590913772,0.6891324734687805,-45.86407806396484,66.41805801391601,150.84817626953125,26.775524811744685,4.249668371677396,2.631553030014038,-1.0600222873687746,-0.0198191714659333,-0.1116613087803124,91.85018981933597,86.94778778076173,46.47364196777343,12.243906187563336,1.309737270115451,27.23808880159117,1.06607143154418,137.7142678833008,20.52972976684572,-104.37453430175782
4809.979,19.49856945037842,-28.568283004760747,9.48048978805542,-1.055113034248352,-0.3498994827270507,0.6710271048545837,-44.349014816284175,66.10679580688476,152.08671936035154,27.865379943847653,-1.803149747848514,0.4364490318298341,-1.0675728797912598,-0.009720843732357,-0.065994294732809,92.54532470703126,86.98786254882813,46.66093154907227,35.863919070184664,1.298449282222046,27.92706995346161,1.0696548954714102,136.89433952331544,20.88106674194337,-105.42578781127926
4832.224,30.57444583892822,-52.51378650665284,10.185225658416748,-1.0553990650177003,-0.3474174529314041,0.6551575374603271,-41.97382530212402,65.41838623046876,154.04234375,26.627476329803464,-8.371179468631748,-1.49327748298645,-1.0587327241897584,0.0045370395202189,-0.0246584644168615,80.0998321533203,87.21711883544921,48.16943847656249,61.613580754057296,1.289882735729361,27.95226321841364,1.0590295585418157,122.07365745544433,21.798732604980458,-105.8729052734375
4855.965,40.25593692779541,-74.34692276000976,11.217907772064208,-1.0533431506156925,-0.3397374558448791,0.6568301606178284,-38.92439208984375,64.36059356689454,156.54786926269531,22.86100246429444,-15.205362067222598,-4.074570646286011,-1.048207755088806,0.0048405716754495,0.0121405632793903,42.63488922119141,87.594033203125,53.614466705322265,85.28685031468825,1.2870039594928162,27.75663155390768,1.0482892359645788,81.55928131103516,23.233439636230457,-102.93340255737306
4865.002,47.78234767913818,-93.58451274871828,12.428630199432371,-1.044659013748169,-0.3202806425094603,0.6748100519180299,-35.43998764038086,62.94642501831055,159.399287109375,18.26067003250122,-22.58921454191208,-6.346189494132996,-1.0467042589187625,0.0061402159463613,0.041683368012309,-17.715300903320312,88.04650787353515,50.66954940795899,105.80966224678772,1.2842354734008807,29.732117394357644,1.0475519133004303,17.72468673706055,25.1000828552246,-108.72973770141601
4892.62,52.53362686157226,-110.36366638183594,13.501106910705568,-1.0278609299659731,-0.2940550887584686,0.6986567974090576,-31.76492393493653,61.189147033691405,162.39471374511717,14.062949478626251,-30.70247381210327,-7.278782291412353,-1.0519366693496706,0.0106334337219595,0.0656967046856879,-57.79321044921876,88.45854797363282,39.265569915771486,122.97235744786872,1.2771404805819706,34.54546450501223,1.0540397920580398,-26.028286514282232,27.269400939941413,-123.12914382934568
4914.699,55.45863288879394,-124.6758267211914,14.568767700195313,-1.0063091850280763,-0.2704183721542358,0.7244882202148437,-28.08934715270996,59.11481643676758,165.3678479003906,9.803501629829404,-38.901184425354,-7.320199095010757,-1.0568343162536622,0.0163486982602625,0.0823525203019379,-77.89280132293702,88.71415924072265,19.09469421386719,137.22962771504123,1.269120740158512,40.77984929707403,1.060164133304948,-49.803454170227056,29.599342803955068,-146.2731536865234
4936.162,57.43621337890626,-136.6250729370117,15.498837623596192,-0.9832095742225648,-0.2472590672969817,0.7504045128822326,-24.542818717956543,56.75560241699219,168.19358886718751,5.068780114650727,-46.46600917816163,-6.64426885843277,-1.0585877203941343,0.0226360277459024,0.0899521975219249,-79.16876911163331,88.64396728515624,-11.02964904785156,149.01524462293656,1.261326700802576,47.21153301322484,1.0626437546799898,-54.62595039367677,31.888364868164047,-179.22323791503908
