Timestamp (ms),Wrist Gyroscope X (deg/s),Wrist Gyroscope Y (deg/s),Wrist Gyroscope Z (deg/s),Wrist Accelerometer X (g),Wrist Accelerometer Y (g),Wrist Accelerometer Z (g),Wrist Roll (deg),Wrist Pitch (deg),Wrist Yaw (deg),Arm Gyroscope X (deg/s),Arm Gyroscope Y (deg/s),Arm Gyroscope Z (deg/s),Arm Accelerometer X (g),Arm Accelerometer Y (g),Arm Accelerometer Z (g),Arm Roll (deg),Arm Pitch (deg),Arm Yaw (deg),Wrist Gyroscope Magnitude (deg/s),Wrist Accelerometer Magnitude (g),Arm Gyroscope Magnitude (deg/s),Arm Accelerometer Magnitude (g),Difference Roll (deg),Difference Pitch (deg),Difference Yaw (deg)
0.0,-1.009717,-1.167232,-0.209982,-0.955487,-0.250891,0.160155,-58.100025,73.031441,139.230789,-0.412716,-0.617174,-0.387109,-0.973573,-0.244144,0.036511,-81.776642,75.945061,30.20821,1.5575786985693532,1.0007753619444275,0.8373121406100594,1.00438226397423,-23.676617,2.9136199999999945,-109.02257899999998
19.985,-0.7163915,-1.1014695,-0.1894445,-0.954047,-0.249132,0.15741,-58.0782605,73.024498,139.2530595,-0.7211395,-0.6490564999999999,-0.272267,-0.970799,-0.244524,0.036971,-81.7593385,75.9413225,30.2365895,1.3275319428483632,0.9985240806976065,1.007693325343331,1.0018031442444169,-23.681078,2.916824499999997,-109.01647
39.97,-0.5856286666666667,-1.102302,-0.1979206666666666,-0.9548793333333332,-0.2480316666666666,0.1579,-58.05246366666668,73.01717366666666,139.28307099999998,-0.6560623333333334,-0.5824053333333333,-0.1537346666666666,-0.9704556666666668,-0.244012,0.0355243333333333,-81.74738066666667,75.939944,30.25616833333333,1.2638050580368616,0.9991229448353968,0.890644769394061,1.0012931815248831,-23.694917000000004,2.9227703333333275,-109.02690266666666
59.955,-0.741216,-1.1091865,-0.20440525,-0.9540525,-0.24852475,0.1558045,-58.0348835,73.009674,139.31364825,-0.6066250000000001,-0.5701035,-0.18552125,-0.9704725,-0.24206425,0.036379,-81.73169899999999,75.9381505,30.27821025,1.3496211900625348,0.9981261274704026,0.8528950847195759,1.000867326884694,-23.6968155,2.9284764999999986,-109.035438
79.94,-0.7629648,-1.0673586,-0.1937542,-0.9545494,-0.248427,0.1560795999999999,-58.0182862,73.0027664,139.344986,-0.9324306,-0.5811792,-0.2322245999999999,-0.971024,-0.2408081999999999,0.0364812,-81.7214584,75.9357438,30.301453400000003,1.3262391779202725,0.9986197338854866,1.1229979301735868,1.001102929631454,-23.7031722,2.932977399999998,-109.0435326
99.926,-0.6516957999999999,-1.0425912,-0.1794328,-0.9538244,-0.2465259999999999,0.155075,-57.9787476,72.98943320000001,139.4078522,-1.2954074000000002,-0.5399762,-0.1840604,-0.9702402,-0.2414586,0.0361241999999999,-81.7059006,75.9305008,30.344149,1.2425377079875362,0.997298506133625,1.4154620656836272,1.00048651117126,-23.727153000000005,2.9410676,-109.0637032
119.911,-0.683557,-1.0761976,-0.1654918,-0.9542228,-0.2465259999999999,0.1549606,-57.9381882,72.9762252,139.4772522,-1.246782,-0.406704,-0.1464816,-0.9707562,-0.2419531999999999,0.0347974,-81.70276799999999,75.9263488,30.3732348,1.2856278553150595,0.9976617704754452,1.31959477048015,1.0010593438330415,-23.7645798,2.9501236000000004,-109.1040174
139.896,-0.806944,-1.0766078,-0.1555482,-0.95375,-0.2474248,0.1544874,-57.901886000000005,72.9629318,139.5460998,-1.155529,-0.3084454,-0.1575408,-0.9707948,-0.2414154,0.0353136,-81.7043304,75.922583,30.395539,1.3544143445342272,0.9973587373226346,1.2063187548433456,1.0009850095826411,-23.8024444,2.959651200000002,-109.1505608
159.881,-0.8172648,-1.082667,-0.0903098,-0.9534772,-0.2472076,0.1545422,-57.8633332,72.9508332,139.6151824,-1.3905258,-0.2361015999999999,-0.1325978,-0.9701966,-0.242354,0.0349962,-81.71695700000001,75.91896820000001,30.411305,1.3595019110630482,0.997052486080066,1.4166467952715105,1.0006206264024342,-23.853623800000005,2.968135000000001,-109.2038774
179.867,-0.9632868,-1.1044436,-0.0453074,-0.9523974,-0.2472836,0.15359,-57.82704700000001,72.93944560000001,139.682852,-1.4378786,-0.1338326,-0.0810056,-0.9686206,-0.2425526,0.035771,-81.7361144,75.91632080000001,30.4212194,1.4662093592423833,0.9958914973307684,1.4463636957529318,0.9991682515733374,-23.909067400000005,2.9768752000000007,-109.26163259999998
199.852,-1.1506181999999998,-1.0700084,-0.0092524,-0.9521302,-0.2476951999999999,0.1539826,-57.7953232,72.9287858,139.7476652,-1.5585224,-0.007437,-0.0337581999999999,-0.9680866,-0.241865,0.0358926,-81.7663146,75.91530460000001,30.422194,1.571281586841633,0.9957989109041242,1.5589057047615165,0.9984881682119824,-23.97099140000001,2.9865188000000016,-109.3254712
219.837,-1.3090024000000002,-0.9806136,0.0476768,-0.9512778,-0.2484832,0.1537314,-57.7712768,72.9196932,139.805847,-1.9949254,0.1236424,0.0160368,-0.9667184,-0.2427692,0.036715,-81.813008,75.91487900000001,30.415021000000003,1.6362650741762352,0.995141546113436,1.998817643907808,0.9974113196631568,-24.041731200000008,2.9951858000000016,-109.39082600000002
239.822,-1.3087332,-0.8723560000000001,0.1443728,-0.9510524,-0.2489913999999999,0.152702,-57.7523108,72.91350120000001,139.85639940000002,-2.187315,0.3139532,0.0922542,-0.9655448,-0.2443362,0.0352542,-81.8810424,75.91557780000001,30.3899966,1.5794401175410482,0.9948946103099162,2.211656473874928,0.9966041330714618,-24.128731600000005,3.002076600000004,-109.4664028
259.808,-1.4398575999999998,-0.7463288,0.1828398,-0.951492,-0.2484706,0.1533456,-57.7401206,72.90948660000001,139.9000152,-2.1282154,0.6292758,0.1962932,-0.9652652,-0.2434004,0.034074,-81.9732574,75.9197846,30.338942600000003,1.6320621858407356,0.9952836470914812,2.2279631598455665,0.9960630996715016,-24.233136800000004,3.0102980000000032,-109.56107260000002
279.793,-1.5008916,-0.6200644,0.219307,-0.9510492,-0.2481754,0.152708,-57.7356596,72.90771199999999,139.93449700000002,-2.0645072,0.9461574,0.3109346,-0.965532,-0.2427562,0.0326,-82.0901458,75.9276048,30.261267000000004,1.6386735536240644,0.9946885659591146,2.292178904427785,0.9961151417694843,-24.3544862,3.0198928000000054,-109.67323000000002
299.778,-1.698987,-0.4988204,0.2718846,-0.9511918,-0.248289,0.1523796,-57.7406538,72.9082034,139.9613342,-2.3352662000000004,1.2889556,0.3249908,-0.9657842,-0.241562,0.0331358,-82.2364928,75.9371568,30.158606,1.7914518841828602,0.9948029002794472,2.6870976505736524,0.9960869952244532,-24.495839,3.028953400000004,-109.8027282
319.763,-1.7811115999999998,-0.4259160000000001,0.3343896,-0.9518938,-0.2472924,0.1521552,-57.748393,72.9111742,139.9850188,-2.7125236,1.6481672,0.4319178,-0.9667354,-0.2404182,0.032679,-82.416899,75.9504242,30.0285626,1.8616066650339216,0.9951917114120477,3.20324716275058,0.996717694006382,-24.668506,3.0392500000000013,-109.9564562
339.748,-1.9640514,-0.2391076,0.3973038,-0.9514046,-0.2458288,0.1509534,-57.768228,72.91812159999999,139.99836720000002,-3.1188682,1.9246082,0.4510652,-0.9692282,-0.2400544,0.0350911999999999,-82.619699,75.96494299999999,29.8833622,2.018048724811708,0.9941777712170796,3.69254863029988,0.9991300270495528,-24.851471,3.046821399999999,-110.115005
359.733,-2.1196568,0.0818824,0.4960554,-0.952468,-0.246115,0.1519478,-57.803787,72.92983419999999,139.9970458,-3.5219146,2.1384014,0.4991158,-0.9705652,-0.2416084,0.0357582,-82.8441634,75.9799684,29.7239488,2.178467497367165,0.9954175094772244,4.150392701784346,1.000824697571378,-25.0403764,3.0501342,-110.273097
379.719,-2.2963998000000005,0.434844,0.646388,-0.9537766,-0.2457225999999999,0.152254,-57.8558066,72.9480242,139.9814544,-3.8564458,2.366243,0.5196134000000001,-0.9717694,-0.2445712,0.035109,-83.0935928,75.99423379999999,29.545687200000003,2.4249451111973737,0.9966196262237264,4.554259350195836,1.0026881272493458,-25.2377862,3.0462095999999974,-110.43576720000002
399.704,-2.357324,0.8415393999999999,0.8185134,-0.9541384,-0.246835,0.1496572,-57.9305068,72.97355519999999,139.9483764,-3.6641324,2.5690866,0.6931622,-0.971646,-0.2456544,0.0319652,-83.359236,76.0116806,29.3470672,2.633463344857476,0.9968474713271834,4.528415400395391,1.0027281822938858,-25.428729200000003,3.0381253999999984,-110.60130920000002
419.689,-2.6703134,1.4164064,0.9389244,-0.9545642,-0.246888,0.148558,-58.0402648,73.007294,139.8896178,-3.3016034,2.740421,0.6613856,-0.9729004,-0.242816,0.0307404,-83.63166939999999,76.0302918,29.133964400000004,3.165179263974772,0.997103793909962,4.341419489063447,1.00321471797832,-25.5914046,3.022997799999999,-110.7556534
439.674,-2.8078862,1.880657,1.0462818,-0.956311,-0.2469637999999999,0.1489204,-58.173445,73.04751920000001,139.81135239999998,-3.5028178,2.8496904,0.7771922,-0.9721334,-0.2417313999999999,0.0273068,-83.9214568,76.0517196,28.907437,3.5377678370422614,0.9988489038726528,4.581975079765258,1.0021093146297764,-25.7480118,3.0042003999999998,-110.9039154
459.66,-2.8737502,2.2186812,1.1186134,-0.95607,-0.2474281999999999,0.146212,-58.32833480000001,73.092589,139.71307059999998,-3.513672000000001,3.03777,0.8558508,-0.9719478,-0.2440402,0.0255363999999999,-84.22826219999999,76.07340980000001,28.6636908,3.7989843929520215,0.9983328643289472,4.722967085248916,1.002442144398289,-25.899927400000003,2.980820799999998,-111.0493798
479.645,-2.9914812,2.5976644,1.1972606,-0.9557038,-0.2490612,0.145183,-58.506546,73.141913,139.59366759999995,-3.3109384,3.2222387999999995,0.9413986,-0.9709278,-0.2452828,0.0221181999999999,-84.5509994,76.09598059999999,28.3996646,4.13887098727336,0.9982381169685316,4.715015089785181,1.001675426253395,-26.0444534,2.9540675999999992,-111.194003
499.63,-3.0070028,2.9541588,1.2873800000000002,-0.9566988,-0.2482044,0.145176,-58.70020000000001,73.196451,139.45661619999998,-3.0073224,3.3980382,1.0812436,-0.9706164000000002,-0.2441396,0.0186765999999999,-84.8866256,76.12183060000001,28.1164124,4.407546632677331,0.9989765207835468,4.664733577466344,1.0010240534695858,-26.1864256,2.9253795999999994,-111.3402038
519.615,-3.0815678,3.0666994,1.3542786,-0.9562694,-0.2487578,0.1436754,-58.9015994,73.2527222,139.3115814,-2.8604854,3.5487308,1.3020464,-0.9693898,-0.2458908,0.0144709999999999,-85.2381652,76.1507124,27.8141774,4.553545414550641,0.9984859683552694,4.740378871169979,1.0001941210133565,-26.3365658,2.897990199999998,-111.497404
539.6,-3.0461938,3.1263214,1.4417638,-0.9548298,-0.2507439999999999,0.1403116,-59.10954460000001,73.31018220000001,139.1579742,-2.7503628,3.636506400000001,1.4487204,-0.9671594,-0.2475592,0.0103338,-85.6016128,76.1809294,27.4978292,4.596940832580602,0.9971257922642458,4.784084565122252,0.9983935346021828,-26.4920682,2.8707471999999967,-111.660145
559.586,-2.8613024,3.1422944,1.5449934,-0.954466,-0.2509293999999999,0.140173,-59.3106324,73.368773,139.0069548,-2.5150172,3.636154,1.5753858,-0.9659148,-0.2455918,0.0058882,-85.9674316,76.2140442,27.1746224,4.521954237557107,0.9968045840932716,4.693481420742334,0.9966651413516576,-26.6567992,2.8452711999999964,-111.8323324
579.571,-2.6291362,3.001468,1.5907152,-0.954559,-0.2500452,0.138845,-59.497953800000005,73.4267976,138.86563700000002,-2.3432957999999995,3.5438308,1.7676269999999998,-0.9661166,-0.2418537999999999,0.0029678,-86.3255278,76.2523086,26.856059,4.295525830522438,0.996485534540788,4.60155160315032,0.9959334080182468,-26.82757400000001,2.8255109999999943,-112.009578
599.556,-2.4443116,2.7461626,1.570385,-0.9539192,-0.2494508,0.136673,-59.66999499999999,73.4819734,138.7370208,-2.34127,3.3221346,1.7603497999999995,-0.967265,-0.2407242,0.0008511999999999,-86.6688292,76.2901854,26.5528538,3.9977715382145487,0.9954230511085626,4.429103174659312,0.9967700061860209,-26.9988342,2.808211999999995,-112.184167
619.541,-2.2320848,2.5077084000000003,1.5513384,-0.9553312,-0.2503466,0.1358296,-59.82615639999999,73.53381060000001,138.621167,-2.2277238,2.9510604000000003,1.6983024,-0.9683195999999998,-0.2402336,-0.0005042,-86.98135219999999,76.3260802,26.2790344,3.6983043148362142,0.9968855511347128,4.068874765261319,0.997674939311778,-27.1551958,2.7922695999999947,-112.3421326
639.527,-2.0566892,2.2629794,1.4795311999999998,-0.956356,-0.2507834,0.1364984,-59.9655164,73.5811234,138.5217468,-1.7770696,2.5998756,1.6487734,-0.9706864,-0.2389604,-0.0014952,-87.2568008,76.3610076,26.034064,3.3970662051238327,0.9980685976695788,3.5546846868979927,0.9996681427034472,-27.2912844,2.779884199999998,-112.4876828
659.512,-1.6053598,1.9948296,1.4179996,-0.9576118,-0.2487966,0.1357048,-60.0809134,73.6255294,138.4412964,-1.2881748,2.3177346,1.677911,-0.971418,-0.2367062,-0.0026272,-87.5003738,76.397006,25.8118744,2.926986177981092,0.9986670618448574,3.13794093559984,0.9998448169702536,-27.4194604,2.771476599999997,-112.629422
679.497,-1.1757512,1.7295738,1.2823678,-0.958687,-0.2484158,0.1343356,-60.1781662,73.66519000000001,138.3735108,-0.6654356,2.048344,1.6019096000000002,-0.9740112,-0.2357034,-0.0018683999999999,-87.706514,76.4315534,25.61519,2.453219025775057,0.9994184444395652,2.684144565155819,1.0021264398345948,-27.5283478,2.7663633999999973,-112.7583208
699.482,-0.7097452,1.4964086,1.1251916,-0.9611446,-0.2495454,0.136493,-60.254502200000005,73.6986616,138.31706839999998,-0.0457497999999999,1.7406924000000004,1.4986643999999998,-0.9755582,-0.2361908,0.0002116,-87.86918639999999,76.4631636,25.4500824,2.002256997437532,1.0023483365673431,2.297411164647104,1.003742965288644,-27.6146842,2.764501999999996,-112.866986
719.467,-0.1508248,1.3351768,0.9884052,-0.9610608,-0.2478159999999999,0.1380005999999999,-60.3099206,73.7282026,138.2700256,0.6013656000000001,1.4576364000000002,1.4043968,-0.9761698,-0.235231,0.001548,-87.99161059999999,76.4928496,25.3128182,1.668049773520059,1.0020453067366766,2.1115574421072614,1.004113289473374,-27.681690000000003,2.764646999999999,-112.9572074
739.453,0.3000102,1.1583604,0.8675556,-0.962247,-0.24663,0.1391722,-60.3463694,73.75403739999999,138.2332246,1.2130282,1.2752986000000002,1.2721748,-0.9766328,-0.2337242,0.0030574,-88.0826398,76.52029719999999,25.1950254,1.4779910877551192,1.0030526143537235,2.171693499302385,1.0042151041466365,-27.7362704,2.7662597999999976,-113.0381992
759.438,0.6027328000000001,0.99317,0.6946686000000001,-0.9620612,-0.2461638,0.1389304,-60.3725596,73.77523959999999,138.2011446,1.5290448,0.8820958000000001,1.0759874000000005,-0.9775176,-0.2326706,0.004424,-88.1314268,76.5439164,25.1139732,1.353601839878256,1.0027262961646313,2.067321911494057,1.0048362245610576,-27.758867200000005,2.7686768,-113.08717140000002
779.423,0.8781907999999999,0.8416366,0.5598144,-0.9619742,-0.2466533999999999,0.1410734,-60.3853372,73.7915634,138.17772240000002,1.6101106,0.5199422,0.8896302,-0.9753496,-0.2334766,0.0042007999999999,-88.14949019999999,76.56256579999999,25.0628488,1.3390158363931175,1.0030622938705054,1.9116061122326533,1.0029136611335794,-27.764153,2.7710024000000004,-113.1148736
799.408,1.3503774,0.6603245999999999,0.4403439999999999,-0.960974,-0.2473005999999999,0.1406212,-60.38331,73.8034972,138.1617984,1.9870994,0.243275,0.7613472,-0.9742292,-0.234143,0.0032304,-88.1397644,76.5777742,25.0326836,1.5663494304055912,1.0021990507507976,2.1418207931694937,1.0019760047355424,-27.756454400000003,2.7742770000000005,-113.1291148
819.393,1.9154656,0.4610299999999999,0.3020957999999999,-0.9607448,-0.2454416,0.1401948,-60.36178299999999,73.8119202,138.15628999999998,2.5243498,-0.0632372,0.6401657999999999,-0.9747724,-0.232579,0.0039543999999999,-88.09239360000001,76.5911256,25.0300954,1.993193166268889,1.0014622966865203,2.6050245886965286,1.00214263471929,-27.7306106,2.7792053999999977,-113.1261946
839.379,2.1924924,0.2363613999999999,0.1462028,-0.9609838,-0.2431338,0.1415072,-60.322255,73.8161086,138.16402,2.6311944,-0.3457588,0.4642305999999999,-0.9754396,-0.230946,0.0044384,-88.01905839999999,76.60162519999999,25.0519936,2.210037306064212,1.001313235814208,2.6941126866456715,1.0024161648530614,-27.6968034,2.7855165999999967,-113.11202640000002
859.364,2.4286534,0.0192313999999999,0.0481488,-0.962346,-0.244003,0.1411748,-60.270285,73.8162916,138.1801088,2.7075794,-0.6834818,0.2641998,-0.9779704,-0.2318874,0.0060757999999999,-87.9134402,76.6075012,25.1053102,2.429206761685584,1.0027849280279597,2.804983977236883,1.0051043651783431,-27.6431552,2.791209599999996,-113.0747986
879.366,2.6877694,-0.110935,0.0042633999999999,-0.9632046,-0.2423605999999999,0.1405008,-60.206971,73.81552880000001,138.1996644,2.7734694,-1.0915806,0.068855,-0.979802,-0.2320786,0.0091831999999999,-87.76660639999999,76.6091338,25.1993142,2.6900611700072767,1.0031162628001602,2.981345624052622,1.0069542030024008,-27.5596354,2.793604999999997,-113.0003502
899.334,2.7805326,-0.0999916,-0.029738,-0.9625358,-0.2412624,0.1412954,-60.1417518,73.81449740000001,138.2102754,2.8442788,-1.6464384,-0.1278146,-0.9806196,-0.2309138,0.0124422,-87.566295,76.60694120000001,25.346525,2.7824888514381003,1.002320857807798,3.2889235121992666,1.0075171419263496,-27.4245432,2.7924437999999983,-112.8637504
919.32,3.1139298,0.0549939999999999,-0.0339446,-0.9615282,-0.2421456,0.1418867999999999,-60.0797102,73.8142044,138.20191960000002,2.9410678,-2.280719,-0.3654188,-0.979222,-0.2319624,0.015089,-87.3079956,76.59839480000001,25.551151,3.114600355620798,1.0016500561617516,3.739664404803094,1.006434279135384,-27.2282854,2.7841904,-112.65076860000002
939.305,3.7075996,0.3952,-0.0252624,-0.959111,-0.2419768,0.139725,-60.0299978,73.8177644,138.1689148,3.529227,-3.0182786,-0.6181442,-0.9776132,-0.231998,0.017627,-86.97453759999999,76.5835464,25.82077,3.7286882442454106,0.9989843630829464,4.68482136017379,1.0049185797601914,-26.9445398,2.765782000000001,-112.3481448
959.29,4.0354846,0.8578111999999999,-0.0877814,-0.9574486,-0.2404334,0.1392848,-60.0030272,73.8254228,138.1072052,4.230048,-3.6100434,-0.8335188,-0.975185,-0.2305484,0.018563,-86.5806746,76.56394359999999,26.1381932,4.126582312988384,0.996953507937336,5.6232084277697725,1.002238960496228,-26.5776474,2.7385208000000008,-111.96901200000002
979.275,4.311767,1.3020026000000002,-0.1165643999999999,-0.9562762,-0.2399077999999999,0.1364272,-60.0027602,73.837787,138.0157502,4.817727,-4.1519024,-1.0910722,-0.9739584,-0.2293054,0.017737,-86.1385496,76.5387636,26.4935094,4.505566855795519,0.9953051311467856,6.452846312385535,1.000744988780219,-26.1357894,2.7009765999999984,-111.5222408
999.26,4.520976200000001,1.7642485999999995,-0.1418994,-0.957292,-0.2391864,0.1327366,-60.0325362,73.8557084,137.8950562,5.1623458,-4.4288002,-1.3178611999999998,-0.9731694,-0.2296246,0.0158256,-85.6784896,76.5081774,26.8606964,4.8550936513407,0.9956089152817588,6.928264105298175,1.000018293651111,-25.645953400000003,2.6524689999999964,-111.03435980000002
1019.245,4.4118792,2.0791494,-0.188909,-0.9594836,-0.2374814,0.1289799999999999,-60.089637,73.877945,137.7543854,5.334634599999999,-4.4678134,-1.3684366,-0.9720152,-0.2301601999999999,0.012395,-85.22671820000001,76.4759248,27.2165858,4.880904313054498,0.9968159481142546,7.091706537989024,0.99896992082849,-25.137081200000004,2.597979799999996,-110.5377996
1039.231,4.054814800000001,2.117458,-0.263814,-0.9617066,-0.2388043999999999,0.127312,-60.1626198,73.8991776,137.60126359999998,5.3733808,-4.0655112,-1.3569986,-0.9708168,-0.2330372,0.0081942,-84.8240342,76.44287119999998,27.5220286,4.58200275760055,0.9990572912936072,6.873357821293465,0.9984281349499924,-24.661414400000005,2.543693599999997,-110.079235
1059.216,4.062518799999999,1.9071958,-0.3330352,-0.9646826,-0.2382941999999999,0.1234358,-60.231102,73.9186418,137.44809579999998,5.2957402,-3.1880650000000004,-1.1501452,-0.9694298,-0.2354654,0.003823,-84.50933380000001,76.4142578,27.7393776,4.500263021683301,1.001315655134803,6.28740460692678,0.997623529721608,-24.278231800000004,2.4956159999999983,-109.7087182
1079.201,4.0491448,1.5414714,-0.4153562,-0.9649988,-0.2389669999999999,0.1200486,-60.2870726,73.9334672,137.3058532,5.6389668,-2.093031,-0.8342335999999999,-0.9698424,-0.2360256,0.0028995999999999,-84.2811386,76.393895,27.8609382,4.352496807725818,1.0013688518485084,6.072451814368905,0.9981536817410832,-23.994066,2.4604278000000024,-109.444915
1099.187,3.9066494,1.0809066,-0.4556378,-0.9656578,-0.2394472,0.1204124,-60.31913900000001,73.942627,137.19219360000002,5.698846399999999,-1.1552372,-0.5171680000000001,-0.9706842,-0.234825,0.0052471999999999,-84.12261199999999,76.3823974,27.9093476,4.078955064380185,1.0021622096060296,5.837712396074406,0.9986982176125478,-23.803473000000004,2.439770400000003,-109.282846
1119.172,4.000295400000001,0.6638041999999998,-0.4915982,-0.9637944,-0.2410328,0.1204594,-60.32692920000001,73.9458664,137.1027374,5.4339256,-0.4804986,-0.3503736,-0.9725068,-0.2351675999999999,0.0089404,-84.01596359999999,76.3754486,27.909360600000003,4.084687025151626,1.0007531779592609,5.466368812156227,1.000576437304097,-23.6890344,2.4295822000000045,-109.19337679999998
1139.157,4.3355912,0.5034151999999998,-0.5510849999999999,-0.963007,-0.2390609999999999,0.1225557999999999,-60.3146582,73.946695,137.0267058,5.5345782,-0.1603064,-0.1357284,-0.9737318,-0.2345138,0.01366,-83.9212172,76.3737304,27.894487200000004,4.399371840880637,0.9997762589117826,5.538562646785064,1.0016670785853352,-23.606559,2.4270354000000025,-109.1322186
1159.142,4.2669014,0.5656395999999999,-0.5477372,-0.9597804,-0.2404578,0.124478,-60.3055708,73.946515,136.9485992,5.6751536,-0.2682281999999999,-0.1405882,-0.9753376,-0.2345764,0.0204644,-83.7995864,76.37145840000001,27.9035032,4.338941317265533,0.9972427699858244,5.683227937787419,1.0033585167217547,-23.4940156,2.424943400000004,-109.045096
1179.128,4.1597526,0.8410119999999999,-0.5279936000000001,-0.9605634,-0.2399622,0.1288576,-60.3061462,73.9485734,136.8622986,5.540068799999999,-0.6526692,-0.2093856,-0.9754144,-0.2345938,0.0248696,-83.640718,76.3667068,27.953106,4.276636542774207,0.9984328640054674,5.58230971219346,1.00353674558033,-23.3345718,2.418133400000002,-108.9091926
1199.112,4.012997,1.1650192,-0.4853716,-0.9598552,-0.2387996,0.131312,-60.3220894,73.9543214,136.7635192,5.3089484,-1.068128,-0.2808578,-0.9733834,-0.234142,0.0248004,-83.4550628,76.3596236,28.035170800000003,4.2067802709987365,0.9977926113532812,5.422611146123923,1.0014553307061278,-23.1329734,2.4053022000000026,-108.7283484
1219.098,3.7475756,1.354555,-0.4582588,-0.9609192,-0.2390633999999999,0.130427,-60.35548180000001,73.96262060000001,136.653067,5.1656998000000005,-1.0733344,-0.243969,-0.9707052,-0.2335648,0.021425,-83.281479,76.35348040000001,28.1083348,4.011127429229568,0.9987633455815246,5.281668489303773,0.9986391398954276,-22.9259972,2.390859800000001,-108.5447322
1239.083,3.6090894,1.3023078,-0.4420198,-0.961084,-0.2397695999999999,0.128301,-60.3921768,73.97086019999999,136.54311819999998,4.9444134,-0.8861934,-0.1448954,-0.9688144,-0.2330126,0.0182382,-83.1358156,76.3500564,28.157824,3.8622420181450616,0.9988158302415716,5.025291761603926,0.996608672120286,-22.7436388,2.3791962000000013,-108.3852942
1259.068,3.7087598,1.0299869999999998,-0.4329314,-0.9615768,-0.2398536,0.1285516,-60.4095002,73.9764296,136.451889,4.8833114,-0.6570136,-0.0115138,-0.9674386,-0.2309102,0.0177608,-83.0106676,76.35087419999999,28.187589600000003,3.873396709784708,0.9993423865691676,4.927324798259737,0.994772542469202,-22.6011674,2.374444599999998,-108.2642994
1279.053,3.8161598,0.5794125999999999,-0.4749632,-0.9607076,-0.2388857999999999,0.1292046,-60.3967834,73.9769086,136.3907624,4.7226702000000005,-0.2922253999999999,0.1022793999999999,-0.9665138,-0.2299701999999999,0.0188482,-82.9155916,76.3551328,28.1896122,3.88900817966857,0.998358325853278,4.732807895746199,0.9936752352362012,-22.5188082,2.3782242,-108.2011502
1299.038,3.8928426,0.0951567999999999,-0.5773046000000001,-0.9600328,-0.2376528,0.1294133999999999,-60.3554848,73.97125679999999,136.3585908,4.7037076,0.08999,0.1746201999999999,-0.9688256,-0.2312326,0.02441,-82.8391756,76.36092199999999,28.1720954,3.936566895931296,0.9974415564449078,4.707807940076337,0.9963369945044296,-22.483690800000005,2.3896651999999987,-108.18649539999998
1319.024,3.9313908,-0.2048378000000001,-0.6116644000000001,-0.9599924,-0.2390386,0.1342512,-60.2897392,73.9601194,136.3514618,4.7264884,0.099248,0.1517753999999999,-0.9717776,-0.23185,0.0318786,-82.7463304,76.3657408,28.170069,3.983958519470407,0.9983727986324348,4.729966018153166,0.9995610894286152,-22.4565912,2.4056213999999985,-108.1813928
1339.009,3.9806522,-0.2975286,-0.5526798,-0.9599846,-0.239789,0.1370176,-60.21190800000001,73.9481046,136.3612458,4.529901000000001,-0.1127191999999999,0.0601779999999999,-0.9747038,-0.2327294,0.037223,-82.6294694,76.36767560000001,28.1961348,4.029835004874373,0.998920927535268,4.531702779257886,1.002794108024075,-22.4175614,2.419570999999999,-108.165111
1358.994,3.8479746,-0.2019916,-0.5323074,-0.9608672,-0.2386866,0.1386866,-60.1384132,73.9377332,136.3751068,4.2815418,-0.2973618,0.0142253999999999,-0.9751704,-0.2330218,0.0378044,-82.5028702,76.36805259999998,28.2373344,3.889866359762309,0.999735486053666,4.291879144064013,1.0033372518603902,-22.364457,2.4303193999999992,-108.1377724
1378.979,3.7046602,-0.065338,-0.4892375999999999,-0.9621082,-0.2400382,0.138801,-60.076413,73.9290876,136.3816986,4.020795399999999,-0.4132624,-0.0378528,-0.9757484,-0.2325838,0.0376408,-82.3741012,76.36743779999999,28.2862324,3.737396109721553,1.0012673187353516,4.042154659879153,1.0037913099592164,-22.297688200000003,2.4383501999999995,-108.0954662
1398.965,3.6698028,-0.0014108,-0.4255211999999999,-0.9624874,-0.2403141999999999,0.1384538,-60.0182922,73.9222776,136.3821442,3.5814417999999995,-0.4535158,-0.0773148,-0.974946,-0.2331346,0.035953,-82.2567152,76.3656388,28.332771,3.6943907309452153,1.001649821352173,3.6108696356883225,1.00307729654407,-22.238423,2.4433611999999982,-108.04937320000002
1418.95,3.3285316000000003,0.0462099999999999,-0.3884366,-0.9625264,-0.2381148,0.137727,-59.9681886,73.9179076,136.3783846,3.1067112000000003,-0.3088898,-0.0744438,-0.9748344,-0.2335912,0.0341252,-82.16615279999999,76.3641434,28.3617524,3.3514386416161823,1.001061664037236,3.1229167885340656,1.0030112090180447,-22.1979642,2.4462357999999997,-108.0166322
1438.935,2.8579216,-0.0193426,-0.3592654,-0.9627486,-0.2379414,0.1382688,-59.92193160000001,73.913391,136.37797559999998,2.7846962,-0.1910634,-0.0386598,-0.9752256,-0.2328199999999999,0.0352322,-82.0891982,76.3640824,28.3832784,2.880479410715945,1.0013087624151504,2.7915108327301974,1.0032504329489225,-22.1672666,2.4506913999999997,-107.9946972
1458.92,2.6065482,-0.0476158,-0.3559439999999999,-0.9618444,-0.2394578,0.1399632,-59.8778878,73.9073714,136.37792080000003,2.4382076,-0.1651562,-0.0861064,-0.9758298,-0.2321483999999999,0.03581,-82.020906,76.3635376,28.4029408,2.63117025569781,1.0010366552461705,2.4453112650984044,1.0037026622912784,-22.1430182,2.456166200000001,-107.97498
1478.905,2.3078002,-0.0562666,-0.3705268,-0.9603262,-0.2380828,0.1412932,-59.83644260000001,73.901129,136.3800936,2.0142222,-0.2557966,-0.1270642,-0.9750872,-0.2337568,0.0365464,-81.9536728,76.36087479999999,28.430204,2.338032891751918,0.9994366405273124,2.0343717168860858,1.0033807495178686,-22.1172302,2.459745799999999,-107.9498896
1498.891,1.9450238,-0.0011344,-0.363616,-0.9593648,-0.2391817999999999,0.140902,-59.80750880000001,73.89505299999999,136.3773592,1.8480962,-0.2886434,-0.1082664,-0.9732994,-0.2339302,0.035121,-81.891011,76.3582916,28.456414,1.9787206636829264,0.9987202443799164,1.8736318182041425,1.0016329393312702,-22.0835022,2.4632386000000026,-107.9209452
1518.876,1.9282206,0.0033719999999999,-0.3695719999999999,-0.9579918,-0.2393946,0.141561,-59.778726000000006,73.8884856,136.3750734,1.9886012,-0.3384482,-0.093486,-0.9718336,-0.2325529999999999,0.035625,-81.8203124,76.3564102,28.4879746,1.963321042476844,0.9975457784469844,2.019361668676684,0.9999052877762774,-22.0415864,2.4679246000000035,-107.8870988
1538.861,1.7345106,0.0285831999999999,-0.392541,-0.9564726,-0.2380916,0.1407941999999999,-59.7563772,73.882434,136.37208879999997,1.8860976,-0.3114515999999999,-0.1629752,-0.9715042,-0.2308259999999999,0.0367232,-81.7521758,76.3540542,28.5188544,1.7786040755366552,0.9956658331463224,1.9185742549308225,0.9992245224732428,-21.9957986,2.471620200000004,-107.8532344
1578.831,1.2335888000000002,-0.0309424,-0.328327,-0.9570632,-0.238214,0.1398216,-59.7343696,73.87597500000001,136.37875679999996,1.2788178,-0.3234338,-0.2216482,-0.9725308,-0.2325014,0.03869,-81.692482,76.349562,28.5533462,1.276909307089662,0.9961254732295526,1.3375770307322568,1.0006847525822506,-21.9581124,2.4735870000000038,-107.82541059999998
1598.817,1.0433584,0.0065615999999999,-0.2619564,-0.9583774,-0.2400942,0.1397605999999999,-59.7183296,73.8704362,136.3797364,0.7769524000000001,-0.2706426,-0.1882154,-0.9724708,-0.2346549999999999,0.0382256,-81.6491592,76.3447678,28.5814602,1.07576064296203,0.9978303919087452,0.8439949559077236,1.0011111938106576,-21.9308296,2.474331600000002,-107.7982762
1618.802,0.9141728,-0.0059986,-0.1989114,-0.9580182,-0.2387372,0.1407664,-59.6989166,73.8662294,136.38416139999998,0.7310404,-0.1546194,-0.1518186,-0.973027,-0.2348203999999999,0.0387666,-81.61487439999999,76.3410248,28.6011688,0.9355819774406516,0.997301108775098,0.7624802375107699,1.001711042297488,-21.9159578,2.4747954000000023,-107.7829926
1638.787,0.5092021999999999,0.0079411999999999,-0.1158476,-0.958315,-0.23779,0.1398908,-59.68627240000001,73.864374,136.39280079999995,0.5996108,-0.02218,-0.1318526,-0.9727882,-0.2332598,0.0396848,-81.5912552,76.3388474,28.6124454,0.522274458085057,0.9972367618823726,0.6143371810361148,1.001150288271606,-21.9049828,2.474473400000002,-107.7803554
1658.772,0.2030494,0.0374085999999999,-0.0728992,-0.9584492,-0.2399156,0.141709,-59.6791068,73.8620792,136.4009888,0.1586566,0.0721684,-0.1001958,-0.9716026,-0.2332697999999999,0.0397396,-81.5837432,76.33742079999999,28.6162174,0.2189583420538253,0.9981311561037458,0.2010457485741989,1.000002823859493,-21.9046364,2.475341600000001,-107.7847714
1678.758,0.1909265999999999,0.0861479999999999,-0.0396046,-0.9573674,-0.239432,0.142737,-59.67762580000001,73.86192199999999,136.4027772,-0.0383002,0.149251,-0.0996584,-0.9699152,-0.2346143999999999,0.0396112,-81.5872268,76.3353106,28.6127998,0.2131735650420098,0.997122797039442,0.183506302375695,0.9986733495211736,-21.909601,2.473388600000001,-107.7899774
1698.743,0.1043537999999999,0.0706735999999999,0.0110322,-0.9568564,-0.2385078,0.1428572,-59.674066,73.8627994,136.41077880000003,-0.0704113999999999,0.1383766,-0.1298798,-0.970643,-0.2339296,0.0398954,-81.589859,76.33304319999999,28.6108562,0.1265155435045037,0.9964277798584502,0.2024218642478129,0.9992309713706437,-21.915793,2.470243800000003,-107.7999226
1718.728,0.0768712,0.0736169999999999,0.0021234,-0.9581162,-0.2407166,0.142674,-59.6741752,73.86274900000001,136.4185364,-0.3082108,0.0776716,-0.1244612,-0.9708622,-0.2339824,0.0398749999999999,-81.5923018,76.33072239999998,28.6140052,0.1064572820712608,0.9981417757483152,0.3413464002866296,0.9994554469928112,-21.9181266,2.4679733999999995,-107.8045312
1738.713,0.2521228,0.0452595999999999,-0.0096209999999999,-0.9592032,-0.2427458,0.1434937999999999,-59.670169,73.8611894,136.4280122,-0.3293748,0.010309,-0.1151932,-0.9714924,-0.2366134,0.0388453999999999,-81.5929992,76.3271502,28.6196144,0.2563335742991932,0.999793365124174,0.349089541066873,1.000645966073156,-21.9228302,2.4659607999999964,-107.8083978
1758.698,0.3242184,-0.0138314000000001,0.0582124,-0.9605962,-0.2409583999999999,0.1437232,-59.65666280000001,73.86122440000001,136.44679879999998,-0.1019065999999999,-0.057455,-0.1082586,-0.972362,-0.2369656,0.038111,-81.5854874,76.3235124,28.629074600000003,0.3296931331378923,1.0007309169818028,0.1593924609964975,1.001545307486566,-21.9288246,2.462287999999995,-107.8177242
1778.683,0.3764236,-0.1309168000000001,0.0869348,-0.9608014,-0.2403445999999999,0.1445688,-59.6321938,73.8606522,136.4797394,0.02802,-0.0965742,-0.0570478,-0.9732046,-0.2346794,0.038488,-81.5699966,76.32214819999999,28.643982,0.4079112582538511,1.000902090578574,0.1156120581534642,1.0018397778035768,-21.937802800000004,2.461495999999994,-107.8357574
1798.669,0.4559334,-0.2586030000000001,0.0867073999999999,-0.9603744,-0.2410424,0.145223,-59.5984046,73.8582154,136.5263826,0.0406844,-0.1836042,0.0173729999999999,-0.9727552000000002,-0.2340749999999999,0.0380453999999999,-81.5473404,76.3223038,28.6660668,0.5312898926756654,1.0007547883982968,0.1888585285074518,1.001244843788571,-21.948935800000005,2.464088399999992,-107.8603158
1818.654,0.5645614,-0.3907278,0.1165934,-0.9600358,-0.2402288,0.146255,-59.5512892,73.8550156,136.5886384,0.0717192,-0.383744,0.0327265999999999,-0.9723494,-0.2350433999999999,0.0370702,-81.51065980000001,76.3216628,28.702141,0.6964135330293059,1.00038449540968,0.3917577459760049,1.001040935872235,-21.9593706,2.4666471999999944,-107.8864974
1838.639,0.6137180000000001,-0.5703060000000001,0.1197364,-0.9594332,-0.239471,0.1462146,-59.4922652,73.8503464,136.655957,-0.0149175999999999,-0.564584,-0.0016256,-0.972181,-0.2332568,0.0365808,-81.4624298,76.3207946,28.7519364,0.8463069907810996,0.9996184944049404,0.5647833836269618,1.0004412958469278,-21.9701646,2.4704481999999954,-107.9040206
1858.624,0.7405284,-0.822783,0.0801024,-0.9605546,-0.2406062,0.1452507999999999,-59.420716000000006,73.8423676,136.7277282,-0.2327555999999999,-0.7506144,-0.0446422,-0.9721282,-0.2331907999999999,0.0353968,-81.407344,76.3186522,28.813475,1.1098515985397868,1.000826797183329,0.7871404403532828,1.000332004831456,-21.986628000000003,2.476284599999997,-107.9142532
1878.61,0.84741,-0.9930586,0.0510052,-0.9608102,-0.2412963999999999,0.1451121999999999,-59.339803200000006,73.83197480000001,136.8027892,-0.2339251999999999,-0.9157562,-0.0550236,-0.9724052,-0.2348226,0.034534,-81.3423186,76.3150206,28.8854626,1.306472587374492,1.001218129912678,0.9467618568523132,1.000952608075827,-22.0025154,2.4830457999999966,-107.9173266
1898.595,0.7608536,-1.171593,0.0384156,-0.9621408,-0.2411159999999999,0.1457497999999999,-59.2501662,73.8197418,136.8854246,-0.0035673999999999,-0.983547,-0.095129,-0.9730568,-0.235478,0.0350474,-81.2674818,76.3101072,28.9627938,1.397499236710103,1.002544187894319,0.9881431850661928,1.001757328277163,-22.0173156,2.490365399999999,-107.9226308
1918.58,0.7093166,-1.3469664,0.021031,-0.9617588,-0.2420323999999999,0.1452756,-59.1546486,73.8051376,136.9735686,0.1169038,-1.0044262,-0.1197688,-0.9742316,-0.2345986,0.0375238,-81.1834548,76.30510840000001,29.0468052,1.522462093034017,1.002329622420968,1.0182745480244115,1.0027820047881593,-22.0288062,2.499970799999997,-107.9267634
1938.565,0.7172902,-1.5084052,0.0244126,-0.9611294,-0.2419144,0.1459932,-59.0491242,73.78879100000002,137.0798248,-0.0644497999999999,-1.0679328,-0.1145316,-0.9737174,-0.2349666,0.0384132,-81.0968032,76.29969919999999,29.137214,1.670445285976718,1.0018015346953508,1.0759887217970454,1.0024023404364937,-22.047679,2.510908199999997,-107.94261079999998
1958.55,0.5667364,-1.62315,0.039377,-0.9582308,-0.2402154,0.1454563999999999,-58.93980019999999,73.7721238,137.2010468,-0.1742149999999999,-1.02405,-0.0656856,-0.9722688,-0.2347042,0.0394678,-81.0135344,76.29527279999999,29.2262968,1.719696664448111,0.9985325576899132,1.0408380598212,1.0009747190553415,-22.0737342,2.523148999999998,-107.97475
1978.536,0.295636,-1.7688178,0.0113116,-0.956792,-0.240343,0.1468809999999999,-58.8273162,73.75287180000001,137.3337922,-0.3189585999999999,-1.0047778,-0.0030356,-0.970156,-0.2339064,0.0403576,-80.93235,76.2922226,29.3161252,1.7933892512188758,0.9973914562868482,1.05419269147256,0.9987710469245292,-22.1050338,2.5393508,-108.017667
1998.521,0.1463768,-1.911037,-0.0297245999999999,-0.954629,-0.241329,0.1481452,-58.711209,73.73040019999999,137.47300420000002,-0.590715,-0.8974515999999999,0.0022557999999999,-0.9693768,-0.2344286,0.0418186,-80.8627334,76.28909300000001,29.399493,1.91686518430285,0.9957425441172232,1.074415503518634,0.9981968464096448,-22.151524400000003,2.5586928,-108.07351119999998
2018.506,-0.1004656,-1.9347314,-0.0325066,-0.9554416,-0.2396556,0.150354,-58.5945708,73.7080918,137.6163148,-0.8563085999999999,-0.8925826000000001,-0.0454266,-0.9695042,-0.2351994,0.0440174,-80.79527279999999,76.2844376,29.4858532,1.9376107983733164,0.9964485851954028,1.2377526781406212,0.998596356432748,-22.200702,2.5763457999999986,-108.1304616
2038.491,-0.4876684,-1.8842636,-0.0360216,-0.9565362,-0.2387822,0.1512942,-58.4875646,73.68673559999999,137.75231639999998,-1.0349162,-0.908727,-0.096399,-0.9717428,-0.23537,0.0461714,-80.7264496,76.2787338,29.57701,1.94668110853064,0.9974308877816648,1.3806263320509429,1.0009070408533454,-22.238885,2.5919981999999977,-108.1753064
2058.476,-0.8705164,-1.7896312,-0.0639204,-0.9587136,-0.239909,0.152634,-58.3948232,73.66547700000001,137.8760926,-1.3503498,-1.0936636,-0.1299938,-0.972961,-0.23635,0.0465372,-80.64984439999999,76.27139580000001,29.6827254,1.991146517014396,0.999992616503722,1.742539250738255,1.002337338925793,-22.255021200000005,2.605918799999995,-108.19336719999998
2078.462,-1.1084056,-1.7005616,-0.0579569999999999,-0.9597138,-0.2404096,0.1506403999999999,-58.316912,73.645926,137.9878632,-1.4849326,-1.0515256,-0.2024334,-0.973517,-0.2380548,0.0446521999999999,-80.58622299999999,76.262126,29.7781578,2.0307219758881123,1.0007696457201127,1.8307676519519565,1.0031945255317534,-22.269311,2.6161999999999948,-108.2097054
2098.447,-1.2458155999999998,-1.6096462000000002,-0.0708737999999999,-0.9600908,-0.2382606,0.1510959999999999,-58.2453858,73.62819820000001,138.0954622,-1.475864,-1.0010198,-0.191915,-0.9733162,-0.2361332,0.044561,-80.5264908,76.25436239999999,29.869441,2.036673880105561,1.000685994192484,1.7936127100667636,1.0025412689987778,-22.281105000000004,2.6261641999999936,-108.2260212
2118.432,-1.6010578,-1.6063206,-0.1017637999999999,-0.9593374,-0.2379156,0.1502792,-58.1841492,73.61039120000001,138.1993408,-1.5553807999999998,-0.8851606000000001,-0.1690616,-0.9733438,-0.2341496,0.0438459999999999,-80.4788528,76.24863579999999,29.949984,2.270244000083612,0.9997579295583308,1.797581860554773,1.0020711850435575,-22.2947036,2.638244599999993,-108.24935680000002
2138.417,-1.927446,-1.5739622,-0.1405015999999999,-0.959073,-0.2400208,0.1502228,-58.1357126,73.5914092,138.29533999999998,-1.7674292,-0.8478823999999999,-0.1486956,-0.9729552,-0.2344198,0.0432568,-80.4401778,76.2433228,30.0257766,2.492417659532086,0.9999989467001854,1.9659147801219052,1.0017313085779638,-22.304465200000003,2.6519135999999945,-108.2695634
2158.402,-1.9505536,-1.4552238,-0.1406409999999999,-0.9576170000000002,-0.2402718,0.1497339999999999,-58.09624660000001,73.573648,138.3809356,-1.828945,-0.7289570000000001,-0.2123816,-0.9729058,-0.2363356,0.0437522,-80.4131194,76.23608239999999,30.090846600000003,2.437645492158447,0.9985895690023204,1.9802838344269136,1.0021549114312818,-22.3168728,2.6624343999999955,-108.290089
2178.388,-2.1031808,-1.2896816,-0.1187917999999999,-0.9578106,-0.2396274,0.1513092,-58.0656144,73.55804420000001,138.4631592,-1.8151432,-0.7686524,-0.218439,-0.9733204,-0.2353536,0.0453824,-80.37879939999999,76.22911079999999,30.1629146,2.4699715785033725,0.9988578028467114,1.9832516091643544,1.0023988628878626,-22.313185,2.6710665999999947,-108.3002446
2198.373,-2.158389,-1.1680252,-0.136899,-0.9581142,-0.2409138,0.1502118,-58.0473046,73.5433302,138.5382904,-1.9705662,-0.8886464000000001,-0.2526518,-0.9737944,-0.234476,0.044556,-80.34044200000001,76.2217362,30.242441,2.457980325258329,0.9992926819162242,2.1763861111619507,1.0026164596611011,-22.2931374,2.6784059999999954,-108.2958494
2218.358,-2.0765258,-1.053538,-0.174116,-0.9575098,-0.2407257999999999,0.149724,-58.03611000000001,73.52948599999999,138.608844,-2.1262544,-0.9123262,-0.2976204,-0.972744,-0.2350542,0.0434187999999999,-80.30724040000001,76.2131226,30.320077000000005,2.334998521833716,0.9985946144746024,2.3327826240826552,1.0016818649986032,-22.271130400000004,2.683636599999997,-108.288767
2238.343,-2.0828496000000003,-0.9484538,-0.1758519999999999,-0.9572524,-0.2402947999999999,0.1495565999999999,-58.031076,73.5170684,138.67819819999997,-2.0107446,-0.8124646,-0.3512408,-0.9716814,-0.2356598,0.0427192,-80.2826738,76.2034546,30.3865452,2.2953760025012464,0.9982188762071974,2.196943939263576,1.000762316681958,-22.251597800000003,2.6863861999999954,-108.291653
2258.328,-2.1196712,-0.9151036,-0.2105303999999999,-0.9579364,-0.2406887999999999,0.1507034,-58.028453,73.5041352,138.7506988,-1.8187802,-0.6923216,-0.3368708000000001,-0.9715452,-0.2344955999999999,0.0428612,-80.26317159999999,76.19517219999999,30.4438088,2.3183493360937995,0.9991420117590692,1.97503229078191,1.000362606522175,-22.234718600000004,2.691036999999997,-108.30689
2278.314,-2.1123474,-0.8999004000000002,-0.2621348,-0.9580646,-0.240193,0.151041,-58.0273492,73.49077,138.81961959999998,-1.9184058,-0.5399063999999999,-0.3701368,-0.9722806,-0.2347563999999999,0.043092,-80.25804000000001,76.1867524,30.4882744,2.310962336685295,0.9991965966230868,2.027012823084461,1.0011478676705656,-22.230690800000005,2.6959824,-108.3313452
2298.299,-2.1398338000000003,-0.8100922,-0.2364133999999999,-0.9582676,-0.240478,0.15128,-58.03092819999999,73.4787492,138.88026100000002,-1.9264684,-0.4176624,-0.4127632,-0.972921,-0.2359718,0.0437626,-80.26234280000001,76.1773438,30.5231004,2.3002237629897757,0.999495923000069,2.013975132876908,1.002084391553426,-22.231414600000004,2.6985945999999985,-108.3571606
2318.284,-1.9922092,-0.7075244,-0.2331451999999999,-0.9585666,-0.2423963999999999,0.151378,-58.039145,73.46712959999999,138.92913800000002,-1.9022762,-0.3472322,-0.4265968000000001,-0.9738076,-0.23626,0.0443558,-80.27066640000001,76.16790619999999,30.5532152,2.1269332282521334,1.000260586173683,1.9802044772127751,1.0030391150954183,-22.231521400000005,2.700776599999997,-108.37592279999998
2338.269,-1.6953302,-0.5861786,-0.2400454,-0.959066,-0.2418444,0.150652,-58.049154,73.457335,138.9658232,-2.0045688,-0.3171226,-0.4323720000000001,-0.9740742,-0.2374926,0.0443589999999999,-80.28393700000001,76.1579224,30.5803834,1.80979878223828,1.0004960426065463,2.0750441835653044,1.003589060841837,-22.234783000000004,2.7005873999999976,-108.3854398
2358.255,-1.4942656,-0.492551,-0.2204565999999999,-0.9588606,-0.2412898,0.1502813999999999,-58.0597252,73.4492752,138.9936676,-2.0321984,-0.2224396,-0.4172446000000001,-0.9729624,-0.2383027999999999,0.042572,-80.30944960000001,76.1482254,30.5957478,1.588721902482596,1.000109452511254,2.08648095338536,1.0026247710313163,-22.2497244,2.6989501999999987,-108.3979198
2378.24,-1.3161912,-0.4432236,-0.2445374,-0.958648,-0.2420302,0.1505139999999999,-58.070681,73.4409668,139.0111664,-1.7503028,-0.1095536,-0.4274336000000001,-0.9724378,-0.2364874,0.042761,-80.3370038,76.1397232,30.6031342,1.4101790576211093,1.000119527762577,1.805065473984188,1.0016936000337628,-22.266322800000005,2.698756399999996,-108.4080322
2398.225,-1.197693,-0.3804136000000001,-0.2909682,-0.9578258,-0.2416968,0.1500996,-58.0847198,73.4327666,139.016089,-1.7307651999999998,0.0113215999999999,-0.4291868000000001,-0.9723752,-0.2359477999999999,0.0425324,-80.3738066,76.131987,30.600595,1.2899013616262291,0.9991884187659704,1.7832211487787597,1.0014958307200486,-22.289086800000003,2.699220399999999,-108.415494
2418.21,-1.1415020000000002,-0.3071122,-0.2991164,-0.957639,-0.2427696,0.1510304,-58.1014686,73.4244642,139.0130098,-1.7186642,-0.0223056,-0.4822780000000001,-0.9719066,-0.2369746,0.0422875999999999,-80.4090042,76.1225632,30.5994804,1.2193503762831257,0.9994096831276552,1.7851880129098447,1.001273010363547,-22.3075356,2.698099000000002,-108.4135294
2438.195,-0.92987,-0.2805234,-0.3264019999999999,-0.9565622,-0.2434455999999999,0.1520938,-58.1152146,73.4152632,139.01021740000002,-1.5387483999999998,-0.0153884,-0.5010842,-0.971368,-0.2385864,0.041892,-80.4425934,76.111966,30.5963694,1.0246413325898776,0.9987039234060514,1.6183537366245857,1.0011164774155703,-22.3273788,2.696702800000003,-108.413848
2458.181,-0.7139,-0.2128212,-0.382609,-0.9562624,-0.2426242,0.1514466,-58.130584,73.4064634,139.0029938,-1.122313,-0.0272638,-0.5085036000000001,-0.9715022,-0.2377644,0.0429289999999999,-80.463933,76.10167240000001,30.5971264,0.8374578915088448,0.9981184061678052,1.232438921801969,1.0010950671905243,-22.333349000000005,2.695209000000003,-108.4058674
2478.166,-0.5967214000000001,-0.0920629999999999,-0.3655397999999999,-0.9560592,-0.2430149999999999,0.1509078,-58.1510186,73.39923999999999,138.9926484,-0.7317315999999999,-0.0147596,-0.4764276,-0.971601,-0.238038,0.04195,-80.4801944,76.092102,30.595181200000003,0.7058125605080998,0.9979371965361749,0.8732881759605359,1.0012144601158135,-22.3291758,2.692862000000005,-108.3974672
2498.151,-0.5740763999999999,-0.0310718,-0.3825164,-0.9568544,-0.2436964,0.1521852,-58.1733772,73.3918944,138.9851472,-0.4754283999999998,-0.0380632,-0.4817876,-0.9710456,-0.2376318,0.0416406,-80.4899584,76.08261100000001,30.5946652,0.690541791683284,0.9990588637669754,0.6779382436730943,1.0005660244176595,-22.3165812,2.6907166000000045,-108.390482
2518.136,-0.5665595999999999,-0.0524027999999999,-0.4113025999999999,-0.95593,-0.2419057999999999,0.151148,-58.1950264,73.3848968,138.9802186,-0.5410441999999999,0.0335359999999999,-0.4391944,-0.970738,-0.2377878,0.040374,-80.5090424,76.07427820000001,30.5860652,0.7020724055015692,0.997580221775492,0.6976712769213018,1.000252649258596,-22.314016,2.6893814000000047,-108.3941534
2538.121,-0.554536,-0.0798278,-0.4552562,-0.956101,-0.2411394,0.1503316,-58.2167778,73.37755419999999,138.9713532,-0.6236361999999999,0.1203077999999999,-0.4435978,-0.9707104,-0.2356398,0.0397294,-80.5371506,76.06746960000001,30.5699212,0.7219008661771227,0.9974351720246886,0.774709677786537,0.9996915630516044,-22.3203728,2.6899154000000065,-108.401432
2558.107,-0.6581616,-0.0938966,-0.4605662,-0.9568078,-0.2422369999999999,0.151671,-58.2386254,73.3692444,138.96080320000002,-0.7227689999999999,0.104563,-0.4493184,-0.9715292,-0.236023,0.0392696,-80.5669692,76.06049479999999,30.5540978,0.8087734465154999,0.9985810045013072,0.8574470671175917,1.0005588160951857,-22.3283438,2.691250400000004,-108.4067054
2578.092,-0.6658434,-0.1122232,-0.4801642,-0.9574694,-0.2429311999999999,0.1522386,-58.25981360000001,73.3601272,138.9506012,-0.8508631999999998,0.0274973999999999,-0.4912674000000001,-0.9721556,-0.2377656,0.039915,-80.5926878,76.0515838,30.545077600000003,0.8285524358201115,0.999469765025316,0.9828875573654188,1.001604811479917,-22.3328742,2.6914566000000035,-108.4055236
2598.077,-0.446394,-0.1541446,-0.4967249999999999,-0.957582,-0.2418072,0.1511438,-58.2753006,73.3512314,138.9418304,-0.7012786,-0.0069858,-0.4871584,-0.9717642,-0.2397058,0.0393784,-80.6143706,76.0416702,30.537241,0.6853932349900749,0.9991388577041131,0.8539108752733859,1.0016662065487885,-22.33907,2.690438800000001,-108.4045894
2618.062,-0.2757916,-0.1566268,-0.5130480000000001,-0.9567614,-0.2419271999999999,0.150718,-58.28852379999999,73.34205019999999,138.9326386,-0.1185787999999999,0.0782747999999999,-0.4285088,-0.9710832,-0.23904,0.0393933999999999,-80.6298462,76.0335494,30.5237386,0.6031676478499158,0.9983171150259822,0.4514506260953904,1.000846912812244,-22.341322400000003,2.6914992000000013,-108.4089
2638.048,-0.3276496,-0.0608036,-0.4826279999999999,-0.9567808,-0.2435712,0.1521108,-58.30634,73.3333282,138.92133180000002,0.3284410000000001,0.136931,-0.3648244,-0.971036,-0.2382178,0.0405241999999999,-80.6370834,76.027301,30.5093324,0.5864990405253191,0.9989465071737924,0.5096277387244145,1.000650210772216,-22.330743400000003,2.6939728,-108.4119994
2658.033,-0.0503953999999999,-0.0278757999999999,-0.4891701999999999,-0.9556274,-0.2440175999999999,0.1528434,-58.31974339999999,73.3243208,138.9103974,0.3802072000000001,0.1600902,-0.3771642,-0.970518,-0.2382788,0.0413344,-80.6433608,76.02077179999999,30.494743,0.4925487195545634,0.9980628345270052,0.5589626291886786,1.0001952346801095,-22.3236174,2.696451000000002,-108.4156544
2678.018,0.3182182,-0.0449426,-0.5310658,-0.953749,-0.2419966,0.1528184,-58.324067,73.3151488,138.9029754,0.4871876,0.1376788,-0.3334874,-0.9684774,-0.238661,0.0413554,-80.6451996,76.014601,30.4825356,0.620736291862849,0.9957675294922606,0.6062351487021848,0.9983074758514632,-22.3211326,2.6994521999999987,-108.4204398
2698.003,0.3258702,-0.0235743999999999,-0.5160208,-0.9532898,-0.2418806,0.1523116,-58.3296074,73.306671,138.8962096,0.8091516000000001,0.1835344,-0.270891,-0.9676216,-0.2376818,0.040784,-80.64435280000001,76.0103378,30.4665054,0.6107574032429243,0.9952218300132688,0.8728076086096639,0.9972199022752204,-22.3147454,2.7036667999999997,-108.42970420000002
2717.989,0.2938408,0.0525086,-0.4902334,-0.9549984,-0.2435881999999999,0.153739,-58.3384728,73.2985838,138.887274,0.9601826,0.1582176,-0.283488,-0.9681394,-0.2376294,0.0413212,-80.63742219999999,76.0058532,30.45358700000001,0.5739584961424998,0.9974932758183386,1.0135822021111658,0.9977319635784752,-22.2989494,2.7072693999999986,-108.433687
2737.974,0.6036300000000001,-0.0652138,-0.4541964,-0.954706,-0.2429174,0.1538238,-58.3323364,73.2901976,138.886087,1.0074676000000002,0.0911182,-0.3305786,-0.9685738,-0.2370418,0.0414298,-80.6244736,76.000627,30.44585,0.7582324092146155,0.997062771898139,1.0642254000910525,0.99801826101616,-22.292137200000003,2.710429399999998,-108.440237
2757.959,0.7515686,-0.197269,-0.4851884,-0.9548886,-0.2394416,0.1534774,-58.3139274,73.281732,138.89317939999998,1.0198746,0.1233522,-0.2487408,-0.9681228,-0.236698,0.0406831999999999,-80.6145082,75.99737539999998,30.4348962,0.9160667019172348,0.9963432292795892,1.0569919349525048,0.9974682059324398,-22.30058080000001,2.715643399999999,-108.4582832
2777.944,0.6027958000000001,-0.4308232,-0.468422,-0.9559,-0.2404722,0.1544106,-58.2845452,73.2705976,138.9119996,1.1266294,0.403796,-0.0613672,-0.9675364,-0.2359357999999999,0.0382732,-80.62745380000001,75.9993178,30.3984434,0.8765789047426821,0.9977045265834972,1.1983784660098828,0.9966229100742366,-22.342908600000005,2.7287202000000006,-108.5135562
2797.929,0.6222546,-1.0004738,-0.4716679999999999,-0.9578634,-0.2416116,0.1561364,-58.2216218,73.2527998,138.9620698,1.2055542,0.9486862,0.2000607999999999,-0.9664524,-0.2351488,0.0355244,-80.6844712,76.0086972,30.3153228,1.2691017744576674,1.0001285086023095,1.547058744490564,0.9952824637270368,-22.462849400000003,2.7558974000000007,-108.646747
2817.914,0.5527972,-2.1097018,-0.5002148,-0.9592856,-0.2378496,0.1583974,-58.0923784,73.2242278,139.07948319999997,1.2137376,1.901585,0.5764424,-0.9633792,-0.235756,0.0277368,-80.83016660000001,76.02828500000001,30.1417154,2.237552519023882,1.0009450688795465,2.3284051010072364,0.9921943885161212,-22.737788200000004,2.8040572,-108.9377678
2837.9,0.1027877999999999,-3.599604,-0.5994196,-0.9626918,-0.2381804,0.1614068,-57.8903918,73.1777984,139.28078019999998,1.3594178,3.095349,1.181115,-0.9616512,-0.2343434,0.0195046,-81.0782044,76.0644118,29.8607256,3.650618871576298,1.0047674157821995,3.5810940828164286,0.9899849943338334,-23.187812600000004,2.8866134000000017,-109.4200546
2857.885,-0.244829,-5.951340399999999,-0.6956465999999999,-0.9679524,-0.2404392,0.1677605999999999,-57.5656436,73.1025422,139.615973,1.9424524,4.5617782,1.8476828,-0.9621132,-0.2279766,0.0118102,-81.438556,76.1216338,29.4528718,5.996859010182306,1.011378503071308,5.291207178109437,0.988824868511022,-23.8729124,3.0190916000000017,-110.1631012
2877.87,0.07492,-8.987813200000002,-0.7962718,-0.9724404,-0.239558,0.1724348,-57.072251400000006,72.9922028,140.1190736,1.551512,5.6873982,2.4982112,-0.9618932,-0.2237346,0.0035691999999999,-81.9070892,76.1968246,28.942619,9.023327983841078,1.0162490478062942,6.4027140316675615,0.9875770545289312,-24.8348378,3.2046218000000017,-111.1764546
2897.855,0.138577,-13.578978800000002,-0.948792,-0.9762244,-0.2381066,0.1777844,-56.3432582,72.8270828,140.866507,1.1522076,7.4079128,3.3451471999999995,-0.9556522,-0.2206846,-0.0121652,-82.5539352,76.2933,28.2591232,13.612790863560727,1.0204489820673446,8.209431417313226,0.9808775724487944,-26.210677,3.4662172000000027,-112.6073838
2917.84,-0.8088414,-19.180443200000003,-1.0554264,-0.9785726,-0.2435138,0.1800256,-55.37481340000001,72.5915634,141.8875366,1.2373308,9.7775982,4.4520312,-0.95061,-0.2139199999999999,-0.0244805999999999,-83.4179108,76.4175294,27.352068,19.22648045391037,1.0243595662249465,10.814480841679147,0.9746899190390552,-28.0430974,3.8259660000000015,-114.53546860000002
2937.826,-1.3227335999999998,-25.4355794,-1.2861360000000002,-0.9875746,-0.2524452,0.189498,-54.1468126,72.27058099999999,143.1966094,-1.2379961999999998,12.0493874,4.8013192,-0.9556254,-0.2149092,-0.0350972,-84.5480178,76.5485642,26.223427200000003,25.50240124774076,1.036793933996626,13.029698283796977,0.9801212592417532,-30.4012052,4.2779832,-116.9731822
2957.811,-0.881968,-31.763832200000003,-1.7126462,-0.9877182,-0.2579965999999999,0.2104327999999999,-52.6590714,71.851744,144.7747558,-3.8366056,14.204793999999998,5.595693,-0.9588988,-0.2184624,-0.0397716,-85.9273238,76.690596,24.8924972,31.822194465328053,1.0423202250453745,15.741902529956038,0.9842735945974372,-33.26825240000001,4.838852,-119.8822586
2977.796,-0.785747,-38.2901952,-2.543858,-0.9923988,-0.2670714,0.2413802,-50.9539688,71.31808779999999,146.588089,-6.632390599999999,16.147706,5.6810052,-0.9669823999999998,-0.2216034,-0.0310551999999999,-87.5111312,76.828395,23.4073146,38.38264790665537,1.0556736768014252,18.357854836985485,0.9925358705096554,-36.5571624,5.510307200000002,-123.1807744
2997.781,0.6888358,-44.8836454,-3.5586588,-1.0002688,-0.2790454,0.2704338,-49.0688362,70.6591568,148.57346819999998,-9.029427,16.7604562,5.472576600000001,-0.9735496,-0.2283803999999999,-0.035896,-89.2019622,76.9506254,21.8607738,45.0297698373767,1.0730975946748924,19.808900490014963,1.0006222831719866,-40.133126,6.291468600000002,-126.7126944
3017.767,2.4412544000000005,-52.582443,-4.9301732000000005,-1.0126976,-0.2763218,0.2883544,-47.02151859999999,69.8574752,150.7048952,-8.044260999999999,16.5721128,5.272383,-0.9725376,-0.2265492,-0.0655594,-90.8567382,77.0566312,20.3298434,52.86945850560384,1.0886038885656988,19.16097805934587,1.0007257158496328,-43.8352196,7.199156000000002,-130.3750518
3037.752,2.4701908,-61.50899940000001,-6.486702199999999,-1.0277798,-0.291337,0.3145724,-44.8794724,68.8802154,152.947513,-4.895931399999999,17.6913548,4.6854642,-0.960338,-0.2258986,-0.094517,-92.5486342,77.13780799999999,18.6956624,61.8994035125468,1.1136266698040238,18.944860878414246,0.991066453379873,-47.669161800000005,8.2575926,-134.2518506
3057.76,2.6015194,-72.01060079999999,-8.3308846,-1.0415872,-0.3109568,0.3560182,-42.6590822,67.6881178,155.2862122,-3.8274742,20.2436284,3.0868712,-0.9615509999999998,-0.2292905999999999,-0.1071742,-94.4597182,77.16550720000001,16.8150104,72.53756384787162,1.1438299635003972,20.832254399232493,0.9943041858480732,-51.800636,9.477389400000002,-138.47120180000002
3077.722,3.6350882,-83.3259498,-10.4928846,-1.04262,-0.3132998,0.3978744,-40.3762994,66.26368380000001,157.689154,-4.9103784,23.2269812,0.2886228000000003,-0.9644502,-0.2222328,-0.1150658,-96.6123046,77.11963940000001,14.7079702,84.06264570855961,1.1591019227209487,23.74210973812184,0.996389353619116,-56.2360052,10.855955599999998,-142.9811838
3097.707,3.0178258,-93.6634888,-13.229288200000004,-1.0348172,-0.3267008,0.4454804,-38.1677354,64.6055844,160.05228259999998,-7.6427604,25.812195600000003,-1.6024739999999995,-0.984828,-0.2166944,-0.0997802,-98.9527542,77.01918780000001,12.460763,94.6412725666003,1.1730442604269629,26.96755738188284,1.0133107819851714,-60.7850188,12.4136034,-147.5915196
3117.693,3.7173542,-102.68837899999998,-16.30233,-1.0201288,-0.3570368,0.5107953999999999,-36.0929888,62.7171742,162.287512,-15.776046400000002,27.857050800000003,-4.1608014,-1.0006438,-0.2331208,-0.0605756,-101.530098,76.83928979999999,10.134193,104.04079905174122,1.1954287874251814,32.283295797966105,1.0292243318083965,-65.4371092,14.1221156,-152.153319
3137.678,5.5901092,-110.4237214,-19.485201,-0.9867444,-0.3556064,0.5668170000000001,-34.1631474,60.6276242,164.3554044,-22.6847002,28.5504232,-7.7301142,-1.012471,-0.2530918,-0.0258429999999999,-104.1115572,76.55857080000001,7.9403606,112.26896555461418,1.1922256221627348,37.27568850615666,1.0439448480246647,-69.94840980000001,15.930946600000002,-156.41504379999998
3157.663,6.4291944,-116.4976288,-22.6726952,-0.9619824,-0.3570678,0.601812,-32.454621,58.37641119999999,166.20072,-27.1162196,28.2954116,-10.6508206,-1.009585,-0.2579896,-0.0127524,-106.5479342,76.1983842,5.9811342000000005,118.85740685496924,1.1895735517615544,40.61230924808663,1.042105143274382,-74.0933132,17.821973000000003,-160.21958579999998
3177.648,6.752387799999999,-121.8815826,-25.7356368,-0.9411966,-0.3708744,0.631488,-30.9792774,55.9807226,167.8006194,-28.732579999999995,28.8083716,-11.9145516,-1.0138526,-0.2798686,-0.0221804,-108.8887378,75.77865919999999,4.1496678000000005,124.75190547476107,1.1925501895395934,42.396225864210464,1.0520054647847037,-77.9094604,19.797936600000003,-163.65095159999998
3197.633,7.682110199999999,-127.2860092,-28.5087722,-0.91583,-0.37053,0.658819,-29.6765984,53.452143,169.203311,-28.5532496,30.187079400000005,-15.163733,-0.9953638,-0.2904516,-0.0319106,-111.1067646,75.26492479999999,2.4364272,130.66557713314904,1.1874677025338416,44.23218990641424,1.0373666240463688,-81.4301662,21.812781800000003,-166.7668838
3217.619,8.103917800000001,-132.370073,-30.642839400000003,-0.8897684,-0.3626768,0.6907894,-28.5183646,50.806147800000005,170.4567932,-27.8755786,33.790065000000006,-17.9003738,-0.977039,-0.2827525999999999,-0.0404179999999999,-113.339545,74.65573140000001,0.6882265999999999,136.1120616118523,1.183390156309051,47.32060605242424,1.017933128968578,-84.8211804,23.8495836,-169.7685666
3237.604,8.565282800000002,-137.447606,-32.4893164,-0.8660524000000001,-0.358014,0.7178707999999999,-27.484108000000003,48.050071,171.58163759999997,-29.303412200000004,39.573746400000005,-19.7077564,-0.984989,-0.297371,-0.0632341999999999,-115.7553226,73.94975600000001,-1.2259026,141.49474953055508,1.1804911135770568,53.039297063746645,1.0308401456150416,-88.27121460000001,25.899685,-172.8075402
3257.589,8.921325,-142.648346,-33.8241462,-0.8370816,-0.3497276,0.7378298,-26.5485902,45.1903572,172.60345160000003,-29.718429800000003,44.4525098,-21.2638204,-0.978447,-0.2978792,-0.087539,-118.247806,73.1513062,-3.2181808000000003,146.87482262951102,1.169362139385554,57.54442418949103,1.0265250245964002,-91.6992158,27.960949,-175.8216324
3277.574,8.1976282,-147.2552308,-34.7742278,-0.8047242000000001,-0.337865,0.7622106,-25.714288,42.2411652,173.5552948,-30.086035400000004,49.0779416,-22.5132226,-0.946652,-0.274068,-0.1031088,-120.7719758,72.2645218,-5.2443338,151.5273936460104,1.158748805843182,61.81148007951447,0.9909060007717382,-95.0576878,30.0233566,-178.7996286
3297.56,6.7925132,-151.4892762,-35.3175116,-0.7731838,-0.3325716,0.7700777999999999,-24.9856224,39.2187722,174.4461914,-32.0867282,55.6103346,-21.819575800000003,-0.9703492,-0.3060319999999999,-0.1365698,-123.4895538,71.28870380000001,-7.441068400000001,155.6999218522225,1.1408053627862378,67.8097436140012,1.0265887517583077,-98.5039314,32.069931600000004,-181.8872598
3317.545,5.284154600000001,-154.6666016,-35.9506216,-0.733733,-0.3230746,0.784293,-24.3586156,36.138382,175.2696136,-30.5831096,56.956842,-21.456251400000003,-0.9707194,-0.3076618,-0.16205,-126.051828,70.2839964,-9.515145,158.87771125540615,1.1215421625169335,68.11592447848432,1.0311217868009577,-101.6932124,34.1456144,-184.7847586
3337.53,3.964043,-156.9470308,-36.0615272,-0.685883,-0.3222667999999999,0.7857354,-23.8270722,33.0202106,176.039972,-28.603561000000003,53.7170396,-19.3645262,-0.9650156,-0.2940894,-0.174259,-128.302391,69.33300460000001,-11.310679,161.0854365168941,1.0916370728792606,63.86445740957309,1.0237723782739598,-104.4753188,36.312794,-187.350651
3357.515,1.3430348,-157.460367,-36.2391142,-0.6265554,-0.3152346,0.7876106,-23.412016,29.8919124,176.7533418,-28.3023316,44.9707902,-18.0771914,-0.9755606,-0.2921804,-0.181634,-130.10249779999998,68.50861339999999,-12.637018800000002,161.582314367165,1.0546444801631876,56.12645360363514,1.0344461225083306,-106.6904818,38.61670099999999,-189.3903606
3377.5,-1.7678016,-156.2964234,-36.1569342,-0.5612468,-0.3161201999999999,0.7872163999999999,-23.1207426,26.7833876,177.4109712,-29.7096414,32.036386799999995,-17.043789,-1.0074374,-0.3068478,-0.1895591999999999,-131.3682068,67.8708144,-13.3635552,160.43385235314946,1.0171723609041097,46.89865259037117,1.070055315200219,-108.2474642,41.0874268,-190.7745264
3397.485,-4.42176,-153.7003052,-35.848178,-0.4933777999999999,-0.3133172,0.792272,-22.9340604,23.7192758,178.020267,-33.329884400000005,14.4186706,-16.9021834,-0.9775116,-0.280584,-0.1795178,-131.9779084,67.4687958,-13.309835,157.88738912905754,0.9845223427290414,40.05574939600935,1.032706613568152,-109.043848,43.74952,-191.330102
3417.471,-7.368611999999999,-150.4880494,-35.3465264,-0.4319610000000001,-0.3164858,0.7876673999999999,-22.854438,20.7171872,178.58775659999998,-38.2320962,-1.083872800000001,-16.3740246,-0.9682892,-0.2962962,-0.1876459999999999,-132.10783399999997,67.2695894,-12.6330846,154.75892989927684,0.9524565607655816,41.60500741129653,1.029847772385356,-109.253396,46.5524022,-191.2208412
3437.456,-11.3604382,-146.2271576,-35.2236366,-0.3773852,-0.3109278,0.7942124,-22.8935402,17.793687,107.1104098,-39.1120472,-14.5548744,-16.282205400000002,-0.9543556,-0.3006448,-0.1869236,-131.7645386,67.24618699999999,-11.4254774,150.83814421823186,0.9326676912521632,44.796281292788045,1.0179009476640444,-108.8709984,49.4525,-118.5358872
3457.441,-13.952137,-142.07402359999998,-34.9192298,-0.3307913999999999,-0.3224802,0.7965911999999999,-23.0247586,14.950771800000002,35.59865439999999,-39.5166694,-23.3000044,-17.102865,-0.9379862,-0.3124278,-0.1959152,-131.0912842,67.31014580000002,-9.850968599999998,146.96612847382667,0.9208550209579356,48.95881286057843,1.0078749958175963,-108.0665256,52.359374,-45.44962300000001
3477.426,-15.4571428,-137.9034426,-34.5829734,-0.2905144,-0.3236226,0.7974028000000001,-23.2141934,12.1929934,-35.93967260000001,-36.6844656,-27.6821666,-18.040486,-0.9231384,-0.3207914,-0.2062568,-130.178859,67.3989884,-8.0777494,143.0114149068395,0.9082848833300928,49.371160601548894,0.9988160468348314,-106.9646656,55.205995,27.8619232
3497.412,-17.4923772,-133.7056978,-34.215853,-0.2476007999999999,-0.3273686,0.8025556,-23.4687956,9.516572,-107.499005,-30.658307200000003,-29.0635654,-18.7486056,-0.906978,-0.3162562,-0.2229619999999999,-129.10008399999998,67.47529440000001,-6.250356000000001,139.1183721900512,0.9014276718173012,46.21831721378441,0.9860725784476718,-105.6312884,57.9587224,101.248649
3537.382,-18.1763624,-128.58753819999998,-33.5679498,-0.1967728,-0.3321704,0.8054512,-23.8499438,6.4563338,-178.9933806,-23.870925,-29.2137714,-19.4806966,-0.9232654,-0.3184288,-0.2212373999999999,-127.8580216,67.53155960000001,-4.3926096,134.13404632757454,0.8932011783676956,42.45895712082828,1.0013799911449,-104.0080778,61.0752258,174.60077099999998
3557.367,-18.2896882,-124.15427259999998,-32.76317,-0.1545983999999999,-0.3448828,0.8140136,-24.2586698,3.4893352,-178.494751,-20.773381,-28.5882418,-21.430637,-0.9226232,-0.314167,-0.2186389999999999,-126.5304948,67.53568720000001,-2.5076556,129.7005065824233,0.897475878229248,41.32908333863936,0.9988681020976894,-102.271825,64.046352,175.9870954
3577.352,-17.3582268,-119.9659822,-32.181653,-0.1139623999999999,-0.3456962,0.8193128000000002,-24.6657216,0.6095436,-178.0033814,-16.473846799999997,-26.8056662,-21.250066800000003,-0.9151864,-0.3101752,-0.2110509999999999,-125.1978318,67.507762,-0.7091504,125.41452751839942,0.8965303985655145,37.96704765741149,0.9890992498435128,-100.5321102,66.89821839999999,177.294231
3597.338,-16.255937,-116.7411104,-31.368586200000003,-0.0730591999999999,-0.3576322,0.8262604,-25.0728054,-2.1997952,-177.5078828,-14.1160796,-25.1829792,-20.716988,-0.906244,-0.3115874,-0.2049856,-123.9060776,67.4546004,0.995014,121.97020351446407,0.903296565801974,35.5336423189815,0.9799918324058218,-98.8332722,69.6543956,178.5028968
3617.323,-13.7337212,-113.8421694,-30.762985800000003,-0.0377498,-0.3696418,0.8294358,-25.4518618,-4.9439448,-177.008664,-11.6442084,-23.064174,-19.9285956,-0.9089092,-0.3114996,-0.196653,-122.6787872,67.3823624,2.5765,118.72243228231396,0.9088585445650604,32.62962816449562,0.980724394034226,-97.2269254,72.3263072,179.585164
3637.308,-11.1288934,-112.0949938,-30.56415,-0.0043838,-0.377135,0.8385577999999999,-25.7057708,-7.166834199999999,-176.5911622,-10.4265286,-21.6086086,-19.2458918,-0.8916252,-0.3001548,-0.1944366,-121.5299574,67.2961854,4.0504524,116.718923780821,0.9194722452952454,30.7579065518432,0.9606737181049766,-95.8241866,74.46301960000001,180.6416146
3657.293,-7.6464014,-109.9126772,-30.807319,0.0418498,-0.3771392,0.8259806,-25.903857800000004,-9.358627,-176.18672800000002,-8.9103292,-19.305805,-16.329139400000003,-0.8919194000000001,-0.3016324,-0.1966317999999999,-120.5385924,67.2253296,5.32338,114.40434855200692,0.908971580145958,26.809492100654012,0.9618556989472798,-94.6347346,76.5839566,181.510108
3677.279,-5.634577599999999,-107.4004366,-31.227532399999998,0.0912658,-0.3861408,0.8383906,-26.0718188,-11.5152668,-175.80342420000002,-6.906818400000001,-16.756210199999998,-13.4795744,-0.9068348,-0.3058246,-0.2006162,-119.69575340000002,67.17117920000001,6.3937786,111.99000413605712,0.9275413531711888,22.58702385623874,0.9778163938892824,-93.6239346,78.686446,182.1972028
3697.264,-1.3094949999999996,-105.3844286,-31.5670084,0.1337474,-0.3966185999999999,0.8186812,-26.174978600000003,-13.6437592,-175.4336792,-3.9528424,-15.478178999999995,-9.68616,-0.9016402,-0.2956502,-0.1946102,-118.9451506,67.170459,7.3014652,110.01849202670064,0.9194746261350336,18.682095271700085,0.9686264610055416,-92.770172,80.8142182,182.7351444
3717.249,2.454395,-103.2942186,-31.951282400000004,0.186106,-0.3936718,0.808672,-26.2119714,-15.750622399999996,-175.0836762,-2.861219,-15.174294,-6.96695,-0.9190608,-0.3114522,-0.18401,-118.22948139999998,67.2083542,8.144445600000001,108.15083956218352,0.9184570392431208,16.94060698047437,0.9876917064962528,-92.01751,82.9589766,183.2281218
3737.234,5.0049812000000005,-101.1115602,-31.751653600000004,0.2311881999999999,-0.3997081999999999,0.7865018,-26.2177326,-17.8250392,-174.74261180000002,-1.8127908,-13.4081796,-3.3773326,-0.908769,-0.3200714,-0.186806,-117.6444764,67.2821472,8.822385,106.09790266176316,0.9120305424544288,13.945316997524422,0.9814292017741066,-91.4267438,85.1071864,183.5649968
3757.219,7.3723388,-98.9183046,-31.021995200000003,0.2741302,-0.4045372,0.7802686,-26.1922146,-19.860123,-174.4028626,1.934875,-13.390857399999998,0.5760807999999997,-0.910571,-0.3346756,-0.183219,-117.05887,67.417189,9.4178804,103.93048903237774,0.92066106732165,13.542181222420869,0.9872773193167966,-90.8666554,87.27731200000001,183.820743
3777.205,9.978065,-96.7557908,-29.8832954,0.3087746,-0.4049451999999999,0.7524466000000001,-26.1347574,-21.8508268,-174.05626220000002,3.3906224000000003,-13.760851799999998,1.8082766,-0.903856,-0.3376398,-0.1767916,-116.4451142,67.5722168,10.0109928,101.75586557266,0.9085693448822496,14.287309991144326,0.9809238365493012,-90.3103568,89.4230436,184.067255
3797.19,11.17744,-93.3676164,-29.0910068,0.3479663999999999,-0.3976932,0.7466236,-26.0562684,-23.779791,-173.7244538,3.597101400000001,-14.1219754,2.1646342,-0.9175312,-0.3502978,-0.1767408,-115.8062624,67.7287416,10.625384,98.43136509166575,0.9147061259946608,14.73278551055084,0.9979024812289626,-89.749994,91.5085326,184.3498378
3817.175,11.8826172,-90.1241548,-28.1464564,0.3710084,-0.3989117999999999,0.738081,-25.9725532,-25.638983199999995,-173.4016084,5.730123799999999,-13.788216,3.8836346,-0.9126928,-0.3415167999999999,-0.1847312,-115.1892946,67.9103654,11.172715,95.16187722934642,0.9173556669094054,15.42828042693999,0.991850537181646,-89.2167414,93.5493486,184.5743234
3837.16,12.997093799999998,-86.43322620000001,-27.4422226,0.396624,-0.387464,0.7256948000000001,-25.8647568,-27.4273628,-173.0992646,7.385280199999999,-13.208122,4.7603368,-0.9400302,-0.3447612,-0.1721934,-114.56740419999998,68.10609439999999,11.6877398,91.6116947764548,0.9132753645089964,15.86372140605193,1.015956509374806,-88.7026474,95.5334572,184.78700440000003
3857.146,13.047546399999998,-83.05199139999999,-26.6283492,0.4139991999999999,-0.3897156,0.7208736,-25.761403,-29.141243,-172.8098054,6.1996758000000005,-11.931943399999998,3.3075012,-0.929966,-0.3236098,-0.1777914,-114.01702579999998,68.26802219999999,12.155055,88.18696459048223,0.9181134644808124,13.847267510736934,1.00058475189561,-88.2556228,97.4092652,184.9648604
3877.131,14.326639,-80.073073,-25.6128516,0.4361843999999999,-0.3806244,0.7053968,-25.6369758,-30.7940098,-172.5272066,5.1912644,-9.1216182,5.2153546,-0.930896,-0.3272412,-0.1816634,-113.6579866,68.43694620000001,12.4388198,85.28169658129036,0.9125329638588188,11.719772534525562,1.003322359310805,-88.0210108,99.230956,184.9660264
3897.116,13.480657,-77.1237824,-24.152304800000003,0.4673192,-0.3708832,0.6923022,-25.5366832,-32.3870006,-172.2425478,5.645410200000001,-4.027119999999998,6.3899764,-0.9244472,-0.32845,-0.189769,-113.5599382,68.5803162,12.4335254,81.93375221473933,0.9139058588584056,9.429748152162972,0.9992468671198524,-88.02325499999999,100.9673168,184.6760732
3917.101,12.419818,-74.1291856,-22.3722054,0.494567,-0.365538,0.6892596,-25.4677696,-33.911235,-171.9484804,5.7232208,1.1063256000000012,6.8284594,-0.9199688,-0.3245918,-0.1917826,-113.706453,68.6897552,12.1631862,78.42132115268245,0.9237387851146882,8.978144041850541,0.9942248212871372,-88.2386834,102.6009902,184.1116666
3937.086,11.3433688,-71.86133120000001,-20.6628968,0.519003,-0.3625734,0.6829702,-25.436552,-35.3801544,-171.6366,4.2404986000000005,5.963409000000001,7.060064,-0.9225308,-0.3310264,-0.2011024,-114.1216966,68.75752560000001,11.6368182,75.62855440728957,0.9312743304121508,10.168017454842364,1.0005417181364102,-88.68514459999999,104.13768,183.2734182
3957.071,11.3318148,-68.86240760000001,-19.614298,0.5514546,-0.3503066,0.6621004,-25.4072226,-36.796228,-171.329349,3.930418200000001,12.974799600000004,8.2238522,-0.9395634,-0.3367886,-0.202028,-114.8855378,68.78502499999999,10.7411474,72.49249542651185,0.9301579594589728,15.856397979821782,1.018342406312101,-89.4783152,105.581253,182.0704964
3977.057,10.4855096,-65.2310842,-18.5342562,0.5881578,-0.3475667999999999,0.652501,-25.3954112,-38.1454054,-171.03089,4.9644352000000005,20.078027,9.5166022,-0.9336802,-0.3258666,-0.2061502,-115.9931106,68.7698868,9.4543332,68.61893988081148,0.9447168005090624,22.767048611991253,1.0101711052230904,-90.5976994,106.9152922,180.4852232
3997.042,9.593708,-61.658727,-18.328000000000003,0.614221,-0.3402184,0.639051,-25.3862754,-39.4333258,-170.7627382,6.7419514,24.475394,10.9032988,-0.9366378,-0.3238032,-0.2060926,-117.2866056,68.7319,7.927730800000001,65.03655458624628,0.9494220226751432,27.62934571895034,1.0122317128473302,-91.9003302,108.1652258,178.69046899999998
4017.027,9.4106904,-57.6989902,-18.5291292,0.6440724,-0.3373416,0.6047710000000001,-25.366283000000003,-40.6652884,-170.5322632,8.145463000000001,29.5433722,11.780518999999998,-0.9491388,-0.326888,-0.2028344,-118.7822646,68.6508592,6.151295200000001,61.32750763576359,0.9457148481298788,32.8319971421396,1.0241396486967975,-93.4159816,109.3161476,176.68355839999998
4037.012,8.9596184,-52.9181438,-19.2577512,0.6753514,-0.3302596,0.586756,-25.3143112,-41.8267042,-170.3697052,11.2185686,33.1087746,13.1914506,-0.9369558,-0.3179942,-0.2002451999999999,-120.386157,68.54831240000001,4.189415599999999,57.02162472599494,0.9536527252674948,37.36390779721456,1.0095071186030933,-95.0718458,110.3750166,174.5591208
4056.998,7.942111199999999,-48.1046604,-18.9885994,0.699531,-0.3257724,0.5676514,-25.2555752,-42.9039488,-170.2524932,13.7955828,33.1122196,14.2662042,-0.9323508,-0.3218466,-0.1990935999999999,-121.9311536,68.4464462,2.231275,52.323057916048576,0.9579662773212426,38.60390879051469,1.0062313400770024,-96.6755784,111.350395,172.4837682
4076.983,6.1317542000000005,-43.0327908,-19.5858436,0.7204256,-0.3179494,0.5380748000000001,-25.1838478,-43.8985458,-170.2086304,15.272752,30.7757144,13.2664084,-0.9304006,-0.3276582,-0.1972688,-123.282649,68.333348,0.4450284,47.67624946584456,0.9537449116460648,36.82932448904625,1.005942419803957,-98.0988012,112.2318938,170.6536588
4096.968,4.3340612,-37.0826658,-19.435381,0.7409361999999999,-0.31109,0.5103504,-25.0997288,-44.78055880000001,-170.2333892,15.6129972,27.0956684,11.6350664,-0.9167942,-0.3291658,-0.201635,-124.4080214,68.21845379999999,-1.1073676,42.0908805317137,0.9519563915172796,33.36638574587268,0.9947453957009704,-99.3082926,112.9990126,169.1260216
4116.953,1.0492927999999997,-29.69132100000001,-18.6419134,0.7590526000000001,-0.2999329999999999,0.4979113999999999,-25.0266846,-45.5255134,-170.33092040000002,16.8775272,20.53904,11.5461682,-0.9000730000000001,-0.339464,-0.204516,-125.2084104,68.1586408,-2.340047,35.07415705784349,0.9560525175458304,28.98304829742777,0.9834602213007908,-100.1817258,113.6841542,167.9908734
4136.939,-2.1983358,-21.23722,-17.007432,0.7658772,-0.295089,0.4767238,-24.9744882,-46.104052,-170.4894408,17.737326799999998,11.611470399999998,8.779703,-0.9034766,-0.343178,-0.2091164,-125.5387068,68.14895000000001,-3.0853176,27.296610354631685,0.9491633078070812,22.94607137678002,0.9888229240771677,-100.5642186,114.253002,167.4041232
4156.924,-5.7281962,-11.6433328,-15.5632668,0.7701194,-0.2820032,0.4575877999999999,-24.9275568,-46.4960374,-170.73302919999998,17.727204399999998,1.861739,5.759352999999999,-0.896536,-0.3409636,-0.2148454,-125.3874708,68.1969572,-3.3102779999999994,20.263136575694112,0.9391465752348992,18.732057946795628,0.9829504167159806,-100.459914,114.6929946,167.4227512
4176.909,-9.7607998,-0.7929181999999997,-12.6839362,0.764731,-0.2686872,0.4491834,-24.913713,-46.66484,-171.0380494,17.7215216,-8.265881199999999,2.437619,-0.8988305999999999,-0.3394258,-0.219719,-124.7321364,68.30301039999999,-2.9901938,16.024486560674625,0.9266995417288174,19.70581402076405,0.9855875202958893,-99.8184234,114.9678504,168.0478556
4196.894,-14.2542034,10.9220446,-8.968746999999999,0.7512248,-0.2609646,0.446381,-24.9564636,-46.5942536,-171.3888186,17.2367156,-17.702690999999998,-0.4496272000000003,-0.8971682,-0.3383257999999999,-0.214946,-123.6062072,68.4626098,-2.1527488,20.072662891678565,0.9119743525720448,24.71217914178643,0.9826377302713752,-98.6497436,115.0568634,169.2360698
4216.88,-18.5125722,22.600414,-4.6050838,0.7327199999999999,-0.249241,0.443967,-25.0566294,-46.271557,-171.7736514,15.2675752,-27.3034576,-4.8230922000000005,-0.894493,-0.3268946,-0.2108073999999999,-121.9877854,68.6479338,-0.7413554000000001,29.575341743361676,0.8922479316703401,31.65185409691435,0.9754063596537188,-96.931156,114.9194908,171.032296
4236.865,-22.984745,34.2194728,0.5389972000000004,0.7117802,-0.2401428,0.4484768,-25.2359556,-45.6965486,-172.17105439999995,12.298556,-34.4470328,-7.268507400000002,-0.8898648,-0.3249814,-0.2075348,-120.0386444,68.8468948,1.0896993999999998,41.22573637191424,0.8748891687763198,37.29187241522296,0.9698159443090424,-94.8026888,114.5434434,173.2607538
4256.85,-26.976298199999995,45.6751278,6.622603000000001,0.6869674,-0.2374242,0.462594,-25.5059606,-44.864862200000005,-172.5547824,9.5262268,-39.07310199999999,-9.7788302,-0.8846914,-0.3254598,-0.2001808,-117.8544252,69.02329560000001,3.2321801999999997,53.45836543158858,0.8615611807900818,41.389392566548665,0.9636780101977216,-92.3484646,113.8881578,175.7869626
4276.835,-30.2043576,56.7073128,13.12928,0.6573026,-0.2391906,0.4791628,-25.860272,-43.7793198,-172.913077,6.051638800000001,-40.8554382,-10.490067800000002,-0.8848514,-0.3249138,-0.1905084,-115.6215394,69.1819016,5.5009058,65.57743923289564,0.8478536666188099,42.61256487385243,0.9616779232066004,-89.7612674,112.9612214,178.4139828
4296.82,-32.0019238,66.79364559999999,19.45422,0.6238364,-0.2432169999999999,0.501374,-26.2697172,-42.4529092,-173.2455782,0.9436122000000012,-38.7068832,-9.742058,-0.8928872,-0.3173499999999999,-0.1823578,-113.5982086,69.3200898,7.6550178,76.57663413370821,0.8364820685047348,39.92519135981436,0.9649937521272768,-87.3284914,111.772999,180.900596
4316.806,-32.6805966,75.9987574,25.7812308,0.5922788000000001,-0.2545286,0.5221676,-26.7201854,-40.9000894,-173.54437279999996,-4.003681599999998,-33.4648404,-7.578949,-0.901798,-0.3136002,-0.1754712,-111.957991,69.439464,9.5048756,86.65162654006475,0.8296011015163614,34.54512233725988,0.970759939569758,-85.2378056,110.3395534,183.0492484
4336.791,-31.985203199999997,84.5604524,31.4458272,0.5621180000000001,-0.262456,0.5504260000000001,-27.169169600000004,-39.133606,-173.8262056,-8.249873999999998,-26.296721599999994,-4.2526986,-0.9054952,-0.3024426,-0.1672372,-110.8128662,69.5576356,10.9162958,95.72023496696096,0.8293543147147667,27.886617459029058,0.9692065644544716,-83.6436966,108.6912416,184.7425014
4356.776,-30.737255800000003,92.3984986,36.691761,0.5313236,-0.2767408,0.5640126000000001,-27.6124636,-37.1754852,-174.0901338,-12.464636399999998,-18.2959872,-0.0811826000000008,-0.9185098,-0.2867416,-0.152576,-110.2172866,69.698543,11.829272200000002,104.06030349239788,0.8228003714512775,22.13858393893592,0.974248650829243,-82.604823,106.8740282,185.919406
4376.761,-29.0282058,98.9910706,41.0058228,0.496281,-0.2934164,0.6019748,-28.0281984,-35.0469064,-174.34919739999998,-17.318885599999998,-10.3858264,3.4811638,-0.928906,-0.2704278,-0.1422388,-110.1772812,69.85791040000001,12.2518228,111.01056838880854,0.8335236496854783,20.492137268700272,0.9778698420926376,-82.1490828,104.9048168,186.6010202
4396.746,-24.9787986,104.205374,45.273867,0.4614982,-0.3217178,0.62063,-28.391535999999995,-32.778112,-174.58222039999998,-19.3392232,-3.9846993999999993,8.146877,-0.9295074,-0.2704432,-0.132689,-110.57852640000002,70.0586764,12.2447588,116.32894473480331,0.8376541818316673,21.36012612652153,0.977102810251818,-82.1869904,102.8367884,186.8269792
4416.732,-20.4508028,108.4895598,48.5818512,0.4287046,-0.3316025999999999,0.6598316000000001,-28.6675544,-30.394598,-174.808148,-21.1153466,1.6729286,11.005957,-0.9358284,-0.2749782,-0.1229336,-111.3446152,70.27017380000001,11.8841668,120.61681552246854,0.8538885517129738,23.87022500155117,0.9831075601025352,-82.6770608,100.6647718,186.6923148
4436.717,-17.5725938,111.321437,52.3154876,0.3917138,-0.3596876,0.6777991999999999,-28.9203764,-27.919807400000003,-174.99223,-23.2241836,7.0635774,12.7377732,-0.9377172,-0.2700896,-0.1148702,-112.4600968,70.47361459999999,11.1950106,124.25042708751756,0.8615257548238705,27.413640686106213,0.982576766493102,-83.53972040000001,98.393422,186.1872406
4456.702,-14.319181,112.4219192,55.40543279999999,0.3519908,-0.3817576,0.7286826,-29.1267494,-25.3824268,-175.13715180000003,-24.4704582,11.6754142,14.5846806,-0.9343254,-0.2842892,-0.1227732,-113.8858536,70.6583726,10.2022086,126.1486775391538,0.8947707639307175,30.78687268079571,0.9843056237571948,-84.7591042,96.0407994,185.3393604
4476.687,-10.8204474,112.7100724,58.7533072,0.3172207999999999,-0.4065367999999999,0.7455152,-29.2996582,-22.8069644,-175.22277820000002,-23.7948206,14.6303276,15.7054814,-0.925311,-0.3022756,-0.124995,-115.4699554,70.8178314,9.0250838,127.56407648427898,0.90647345197635,32.04531352749186,0.9814248494415454,-86.17029720000001,93.6247958,184.247862
4496.673,-8.737357600000001,112.5410586,60.742398,0.2812618,-0.4213345999999999,0.7891298,-29.440065800000003,-20.2106018,-175.277783,-23.1998374,18.2351448,13.7686308,-0.9350148,-0.3104327999999999,-0.1268512,-117.176062,70.89532160000002,7.7043968,128.18529636206063,0.937740308691292,32.562680408254394,0.9933339954296944,-87.7359962,91.1059234,182.9821798
4516.658,-4.8703636,111.7985826,62.078190600000006,0.2394345999999999,-0.4474208,0.8028109999999999,-29.5275776,-17.6113144,-175.299481,-24.0699122,20.8023718,13.1427876,-0.9419034,-0.3016734,-0.1342018,-119.0254592,70.9283126,6.2505884,127.97009518295732,0.9497472304096496,34.42139177488118,0.9980976797500132,-89.4978816,88.539627,181.5500694
4536.643,-2.4403052,110.6686646,61.79456259999999,0.2052624,-0.4507564,0.8270462000000001,-29.5639676,-15.036081199999998,-175.3184692,-23.3721762,21.1108982,14.4311252,-0.9490766,-0.3010414,-0.142063,-120.9232406,70.9649368,4.730511,126.7756931779186,0.9640121378536476,34.6437009811695,1.005760514809823,-91.359273,86.001018,180.04898020000002
4556.628,-2.0231172,109.9299454,60.528383,0.1710898,-0.4620782,0.8518028,-29.5902568,-12.4899722,-175.3524048,-20.4066112,22.632489400000004,15.0958576,-0.9476948,-0.2855302,-0.1450198,-122.8648178,70.983853,3.1013458,125.50845010375438,0.9840508079703608,34.00800308439994,1.000341777319692,-93.274561,83.4738252,178.4537506
4576.614,0.5387494,108.4043502,58.7418,0.1302972,-0.4808534,0.8745455999999999,-29.5645534,-9.987364,-175.40289,-18.8760242,24.015337,14.8961918,-0.9653978,-0.2817964,-0.1482089999999999,-124.825087,70.9712446,1.4185829999999997,123.29798238592647,1.006492602605086,33.984367449828184,1.016547112031115,-95.2605336,80.9586086,176.821473
4596.599,3.589449,106.6362028,56.4903282,0.0954544,-0.4833976,0.8696062,-29.479922,-7.542471800000001,-175.4719666,-17.074357799999998,22.487558,17.4533408,-0.966955,-0.2728264,-0.1596516,-126.7675598,71.0010846,-0.2828208000000003,120.72829441299189,0.9994997374904908,33.1940215124159,1.0173125625610449,-97.2876378,78.5435564,175.1891458
4616.602,1.6019985999999995,105.0093534,54.292974,0.065708,-0.4851916,0.893016,-29.4304256,-5.1533514,-175.56055,-12.163257399999996,21.5003686,18.8009854,-0.9586972,-0.2703082,-0.1667867999999999,-128.6090592,71.0447554,-1.9814792000000003,118.22545295648128,1.0184331132826347,31.04332025614422,1.0099429097376345,-99.1786336,76.1981068,173.5790708
4636.569,1.2648649999999997,103.0138518,52.52000879999999,0.0221274,-0.505196,0.904577,-29.3971176,-2.8148424,-175.658139,-8.311450999999998,22.4687366,18.6337288,-0.9612482,-0.2778288,-0.177668,-130.407982,71.04976180000001,-3.7177262,115.63652048765852,1.0363262850935318,30.35029145028973,1.0162444894496008,-101.0108644,73.8646042,171.9404128
4656.554,4.1542388,100.6453918,50.66055899999999,-0.0138807999999999,-0.5166058,0.8844312000000001,-29.3221742,-0.5389622000000001,-175.7620666,-5.404068999999998,20.2586662,18.4346454,-0.9663642,-0.2846836,-0.1873826,-132.0328736,71.0583312,-5.332708800000001,112.75302580762704,1.0243499288503517,27.91869748006745,1.024703253597528,-102.7106994,71.5972934,170.4293578
4676.539,2.6088282,99.6530884,47.8479476,-0.0346948,-0.4977464,0.8756416,-29.277464,1.6815995999999998,-175.9028654,-2.235040399999998,18.6860278,18.4659164,-0.954192,-0.2642586,-0.1955368,-133.5403168,71.077742,-6.8881528,110.57563068672806,1.007821124759032,26.36575637116815,1.0092321936463382,-104.2628528,69.3961424,169.0147126
4696.525,-2.3062768,99.067743,46.0409118,-0.0675398,-0.5093344,0.9000538,-29.3368486,3.8695138,-176.06998879999998,-0.0258895999999986,19.6848634,16.149704,-0.9677186,-0.2588324,-0.2028298,-134.95123900000002,71.03862319999999,-8.388105200000002,109.26802906233664,1.0363783085832317,25.46188242521876,1.0220633189014074,-105.6143904,67.1691094,167.6818836
4716.51,-1.5515335999999995,97.2806444,44.794738,-0.1210496,-0.526609,0.8733558,-29.400073,6.020667400000001,-176.245651,1.3910812000000017,18.2818958,14.6981954,-0.970721,-0.2681543999999999,-0.207017,-136.1955078,70.9851822,-9.744057800000002,107.10975484931252,1.02699581203372,23.498931230241777,1.0281352442015397,-106.7954348,64.96451479999999,166.5015932
4736.495,-1.6339373999999995,96.315619,42.8916618,-0.1487744,-0.5121694,0.8638896,-29.4687672,8.131977599999999,-176.4474944,3.586323000000001,17.079897,13.4789986,-0.949008,-0.2651472,-0.2195269999999999,-137.2934722,70.9141328,-10.991567200000002,105.44696708177936,1.015261817158451,22.051485152926546,1.0095104385100928,-107.824705,62.7821552,165.4559272
4756.48,-6.358686799999999,96.0610138,42.0855164,-0.1802654,-0.5044286,0.8602424,-29.637077999999995,10.2279768,-176.6663664,6.4211914000000005,17.2119362,9.7616632,-0.9531788,-0.2639048,-0.2290114,-138.1754334,70.7830858,-12.0706274,105.0682728551248,1.0133907507437,20.803185217137752,1.0152052942939376,-108.5383554,60.555109,164.595739
4776.466,-9.60739,95.209404,42.39796539999999,-0.2278203999999999,-0.5171186,0.8669186,-29.880141,12.315668,-176.8808044,10.7425188,16.4238174,5.618993399999999,-0.9669576,-0.2753196,-0.2409498,-138.7463624,70.5994326,-12.9129846,104.6647983932846,1.034824448951647,20.413636985753904,1.0338591240889448,-108.8662214,58.2837646,163.9678198
4816.436,-8.230916200000001,93.9191284,42.240195,-0.2743188,-0.4967586,0.8325726,-30.1363478,14.7996646,-177.13331,14.265538,14.1556094,2.0803108000000003,-0.951647,-0.2697938,-0.2452346,-139.0077608,70.3997866,-13.5014252,103.3091706217078,1.0075698710154846,20.204319957360827,1.0190979914437082,-108.871413,55.600122,163.63188480000002
4836.421,-12.77089,93.9779618,41.9335032,-0.3024226,-0.4753208,0.8219566,-30.4888992,17.276561800000003,-177.40439780000003,13.5782908,13.3743912,-3.1534144,-0.9509492,-0.2679538,-0.252581,-139.0416932,70.1418582,-13.8326582,103.6984649167902,0.9964948289815456,19.318083326203183,1.0197552556746543,-108.552794,52.8652964,163.5717396
4856.406,-15.629281600000002,93.9762512,42.3305132,-0.3510198,-0.4810423999999999,0.8128250000000001,-30.914370400000003,19.758000400000004,-177.6870148,13.548117199999998,12.197909200000002,-7.4329514,-0.9611920000000002,-0.2653442,-0.2478578,-138.84785159999998,69.8531252,-13.921913999999996,104.24817782922143,1.007621541658772,19.68728612661335,1.0274877587389937,-107.9334812,50.0951248,163.76510079999997
4876.392,-14.0447112,93.133696,42.817154,-0.4064234000000001,-0.4821118,0.8034838000000001,-31.317266600000004,22.2341472,-177.9710664,16.6502082,10.90843,-8.4896368,-0.9535908,-0.2577473999999999,-0.2529958,-138.517166,69.5722734,-13.9299012,103.46230192669957,1.0213706401836895,21.64017585797679,1.0196940770981462,-107.19989939999998,47.3381262,164.0411652
4896.377,-11.821801,91.9028304,42.8109688,-0.4578576,-0.4621402,0.7726029999999999,-31.682113800000003,24.6973822,-178.2576874,17.5768028,8.1961592,-9.7222436,-0.948109,-0.2520774,-0.2565242,-138.042291,69.3174226,-13.8015522,102.07185833524017,1.0100111593159748,21.6943089984349,1.014030747392504,-106.3601772,44.6200404,164.4561352
4916.362,-14.1700988,90.860385,42.7010138,-0.5006543999999999,-0.4639348,0.7583580000000001,-32.074433400000004,26.7287776,-178.5154724,15.6314512,6.2148164,-9.895093,-0.9390542,-0.2548894,-0.2557446,-137.5343594,69.08936159999999,-13.5961548,101.38923928059512,1.020292694796155,19.516123461956767,1.006079866212996,-105.459926,42.360584,164.9193176
4936.347,-13.008959,89.4595534,42.408644,-0.5456396,-0.467729,0.7580178,-32.4547118,28.732796,-178.78142680000002,17.497607600000002,5.138382,-9.1289968,-0.927961,-0.2510507999999999,-0.2583298,-137.00260899999998,68.8864976,-13.403074800000002,99.85358178207665,1.0445496520730837,20.39381827603433,0.9954257417154128,-104.5478972,40.1537016,165.378352
4956.332,-10.9371606,87.74045559999999,42.1562446,-0.579743,-0.4610378,0.739959,-32.8031924,30.7050192,-179.0502166,19.922043,3.1817528,-8.976399599999999,-0.9236612,-0.2440591999999999,-0.2723182,-136.3945554,68.7121446,-13.175815,97.95487731430626,1.0469943269945832,22.081374457968803,0.99341436849953,-103.591363,38.00712539999999,165.8744016
4976.318,-10.7991444,86.2881424,41.1377288,-0.607248,-0.4479346,0.7160114,-33.166031200000006,32.6416484,-179.3392424,19.0453274,0.3862331999999998,-8.5705458,-0.928859,-0.2370747999999999,-0.2707212,-135.7357146,68.58964399999999,-12.8733174,96.20071605470032,1.0402249104453902,20.888463973396195,0.996129244026838,-102.5696834,35.9479956,166.465925
4996.303,-11.1334636,85.49805,39.810199,-0.6276390000000001,-0.4500887999999999,0.709349,-33.5652042,34.5402192,-107.665103,15.2251412,-3.90077,-7.7023204,-0.9304378,-0.2367747999999999,-0.2657082,-135.0358734,68.5404358,-12.4439702,94.96695483142874,1.048659451875317,17.502761801986953,0.9961815362327892,-101.4706692,34.0002166,95.2211328
5016.288,-9.0177912,84.58457659999999,39.2281938,-0.6487978,-0.4532703999999999,0.7028204,-33.9442524,36.4068374,-36.019583000000004,13.3998118,-7.5213336,-6.923518800000001,-0.9346266,-0.2344844,-0.2648912,-134.2773774,68.5532548,-11.9110182,93.67348795437492,1.058465472019357,16.854095287848043,0.9993383626722032,-100.33312500000002,32.146417400000004,24.1085648
5036.273,-6.8203352,82.96631640000001,38.854976,-0.6699282,-0.4422966,0.6738396,-34.2930828,38.2415946,35.6084656,12.8989006,-10.064505,-4.844359,-0.941057,-0.242619,-0.2685548,-133.5134004,68.6259828,-11.3609754,91.86749038253872,1.0480886804345135,17.062933853959183,1.0082529132182263,-99.2203176,30.3843882,-46.969441
5056.259,-7.6256224,81.70128179999999,37.91522679999999,-0.6901262,-0.4297792,0.6526922,-34.680046399999995,40.042266,107.21076979999998,13.3033344,-13.4474702,-2.6714010000000004,-0.948363,-0.2532216,-0.2601642,-132.674515,68.7748522,-10.7412468,90.3925549370402,1.042588816657804,19.10365264133832,1.0154796745564136,-97.9944686,28.732586200000004,-117.9520166
5076.244,-8.156155799999999,80.454358,37.3674784,-0.7090639999999999,-0.4323436,0.6457805999999999,-35.0996928,41.8056128,178.7932892,11.1662384,-16.638177000000002,-1.7662652,-0.9370782,-0.2535505999999999,-0.2524646,-131.7794862,68.97675039999999,-10.0159256,89.08285491945408,1.052010136782588,20.1155041360065,1.0030662161237214,-96.6797934,27.1711376,-188.8092148
5096.229,-7.550898399999999,78.8371416,37.353734,-0.7328342,-0.4293804,0.6278522,-35.521464800000004,43.5379628,178.37046500000002,10.735581200000002,-16.6039354,-0.5512048000000002,-0.935916,-0.2613876,-0.2435094,-130.9076416,69.1882876,-9.3091366,87.56490396299381,1.056225296818174,19.779969696658025,1.0017779516330554,-95.3861768,25.6503248,-187.6796016
5116.214,-6.8557382,77.17966019999999,36.428859,-0.7571169999999999,-0.4193896,0.5977338000000001,-35.9591684,45.2338232,177.9269134,10.380412200000002,-17.5058192,-0.2119564000000001,-0.9384168,-0.271145,-0.240397,-129.9955168,69.40724359999999,-8.5536402,85.61987422845401,1.0518552580747982,20.35317146836086,1.0059505053213305,-94.0363484,24.1734204,-186.4805536
5136.199,-6.1922076,76.65439160000001,34.54983059999999,-0.7686729999999999,-0.4101392,0.583056,-36.438421,46.890956,177.42795719999998,9.5420118,-19.4876138,0.3640497999999999,-0.9373476,-0.2614812,-0.2319678,-129.0318968,69.66095299999999,-7.7248284,84.30854038006082,1.0483447159411068,21.70137352948356,1.0004009203394608,-92.5934758,22.769997,-185.1527856
5156.184,-5.204636,76.07010360000001,33.4308418,-0.7851774,-0.4116626,0.5804646,-36.9449212,48.5125092,176.88049619999998,5.952184200000001,-19.3648558,0.2816047999999999,-0.938402,-0.250993,-0.2197648,-128.1299758,69.91503,-6.8854736,83.25485019543221,1.0596739109568942,20.26093379311295,0.995937933293054,-91.1850546,21.4025208,-183.7659698
5176.17,-3.467232,74.400911,32.4760748,-0.8106785999999999,-0.406505,0.550422,-37.4551888,50.09668739999999,176.2979492,2.5644932000000016,-19.317477,0.3761057999999999,-0.9539296,-0.255713,-0.208217,-127.2665008,70.1679504,-6.017839,81.25400106940543,1.060853658902565,19.490587435764187,1.009319146362616,-89.811312,20.071263,-182.3157882
5196.155,-2.5118402,72.4784424,30.7773394,-0.8262924,-0.3965964,0.5232592,-37.9929344,51.6278032,175.66862500000002,2.1241852000000017,-19.4926158,1.7462415999999998,-0.9559926,-0.2548062,-0.2048262,-126.4306976,70.43924559999999,-5.1712422,78.78247631588668,1.0553899872442225,19.685618944190686,1.010347377400288,-88.4377632,18.8114424,-180.8398672
5216.14,-2.469545,70.85943599999999,29.4492962,-0.8330944,-0.3907216,0.5054803999999999,-38.576432,53.108188,174.9930116,2.418766000000001,-20.3743556,2.5248086,-0.9416132000000002,-0.2584206,-0.2097018,-125.5614564,70.7190368,-4.2956906,76.77512207362781,1.049866697634552,20.672190342211955,0.9986948832560624,-86.9850244,17.6108488,-179.2887022
5236.126,-2.8003866000000004,69.41966239999999,28.8339882,-0.8456982,-0.390543,0.4922028,-39.209909,54.547934,174.2786194,3.057766200000001,-19.4570086,2.6731182,-0.9381474,-0.2613742,-0.206001,-124.7061906,70.9830336,-3.449736200000001,75.22187559717699,1.0535619946923294,19.876384950626903,0.9954262547036824,-85.4962816,16.4350996,-177.7283556
5256.111,-1.214877,67.9935746,27.7781418,-0.8563708,-0.3861842,0.466298,-39.8725014,55.945994600000006,173.50644519999997,4.146073600000001,-19.7888356,2.2027428,-0.9536274,-0.2660282,-0.1938712,-123.7639892,71.2409026,-2.5375068000000005,73.45901765523278,1.048781678056153,20.3381419147226,1.008842040864396,-83.89148780000001,15.294907999999998,-176.043952
5276.096,0.5518208000000001,67.31843280000001,26.103999,-0.8609682,-0.3682355999999999,0.4470152,-40.5765206,57.30650479999999,172.6420166,4.8011050000000015,-20.689468,2.210974,-0.9560302,-0.2691664,-0.1868336,-122.73199459999998,71.50147399999999,-1.5462406000000004,72.20453354627693,1.0376349490787402,21.353994974541063,1.0106191608563335,-82.155474,14.194969199999996,-174.1882572
5296.081,1.566657,66.7110276,24.6454826,-0.8712592000000001,-0.3617088,0.423965,-41.3510612,58.632447,171.66560040000002,5.465594600000001,-21.9452878,1.6173825999999998,-0.9495484,-0.2718882,-0.1722762,-121.55487680000002,71.7570634,-0.4190620000000004,71.13519122200005,1.0342495689180056,22.673427341960476,1.002618794122791,-80.2038156,13.1246164,-172.0846624
5316.067,3.215771,65.685244,23.079095399999996,-0.891314,-0.3586477999999999,0.410697,-42.1787308,59.91351,170.5820678,5.949778800000002,-21.0525516,2.4201138,-0.9573388,-0.2687012,-0.1525246,-120.3893968,72.0164918,0.6823505999999997,69.69603365290078,1.044864066206624,22.010605340256827,1.005963054228156,-78.210666,12.1029818,-169.8997172
5336.052,5.1878324,63.3398964,21.5456188,-0.9072866,-0.3495363999999999,0.3866431999999999,-43.0276696,61.1352424,169.4236084,7.995130400000002,-21.6785918,3.2638716000000003,-0.9609518,-0.2655534,-0.1477472,-119.1556,72.2929308,1.8122508,67.1049161421735,1.046344892265815,23.3353018057474,1.0078572345737464,-76.1279304,11.1576884,-167.6113576
5356.037,5.543950000000001,60.08584119999999,20.1255844,-0.927223,-0.3397826,0.3693538,-43.8980118,62.2852828,168.2289918,11.3906266,-21.614606,4.634722999999999,-0.9470776,-0.2614858,-0.1520422,-117.8931916,72.5832338,2.9018516,63.60882675977949,1.054332460169087,24.86801608819233,0.9942070380983228,-73.9951798,10.297951,-165.32714019999997
5376.022,5.8593748,56.176441,18.527176399999995,-0.9404008,-0.3406735999999999,0.3548628,-44.7813958,63.3463432,167.0207398,13.9981726,-19.7946792,5.6370076,-0.9376656,-0.2675307999999999,-0.1528474,-116.6849748,72.8599946,3.8790712,59.442249804579845,1.0612915589984877,24.89084199967452,0.9869913039428262,-71.90357900000001,9.513651400000002,-163.1416686
5396.007,6.795356000000001,51.71329479999999,17.062243399999996,-0.9515316,-0.3330735999999999,0.3445208,-45.628898,64.3146972,165.845575,15.060633800000002,-16.991148,6.4700180000000005,-0.9353354,-0.2619126,-0.16651,-115.6482392,73.11610879999999,4.6563392,54.87769922363078,1.0653849024874344,23.60895876009636,0.9854826739379642,-70.01934120000001,8.8014116,-161.18923579999998
5415.993,6.938583,46.787458,15.646371599999998,-0.955957,-0.3245304,0.3339746,-46.4285294,65.1853112,164.7302826,17.5870614,-15.967562200000003,6.3965464,-0.9455456,-0.2518468,-0.1675116,-114.6115296,73.361165,5.381262999999999,49.81986656339959,1.0633498012499556,24.60047920560882,0.9927453996288071,-68.1830002,8.1758538,-159.34901960000002
5435.978,6.8732086,41.5104374,14.122216999999996,-0.9621394,-0.325437,0.324789,-47.168647,65.95135959999999,163.6914886,15.617014400000002,-14.215443,6.050072999999999,-0.9469434,-0.242057,-0.16291,-113.6984194,73.586052,6.018145799999999,44.38236612207062,1.0663533000475782,21.96755202022714,0.9908748973268824,-66.5297724,7.634692400000003,-157.6733428
5455.963,7.9379534,36.0984598,12.417872999999997,-0.9603332,-0.3194886,0.3126992,-47.8073692,66.61276699999999,162.7529816,11.6464308,-12.2687518,6.0664166,-0.9491254,-0.2475624,-0.1631032,-112.972359,73.789,6.5423484,38.99119739065365,1.059289200470221,17.971172234274185,0.994348440270894,-65.16498979999999,7.176233000000002,-156.21063320000002
5475.948,8.453150599999999,30.901132,10.916783,-0.9565812,-0.3141172,0.3098192,-48.3341568,67.17434539999999,161.9359742,9.1609184,-10.1089442,6.0366176,-0.948387,-0.2409172,-0.1620271999999999,-112.4295352,73.9745652,6.927708999999998,33.84541128449754,1.053425433629699,14.918241545798953,0.9918325526845144,-64.0953784,6.8002198000000025,-155.0082652
5495.933,8.387875000000001,25.9837858,9.558389999999996,-0.9507642,-0.3170834,0.3097538,-48.7577492,67.63992619999999,161.2421816,6.815553600000001,-7.8200384,6.0410686,-0.949871,-0.2411902,-0.1521577999999999,-112.057938,74.14215540000001,7.1819936,28.9288159264773,1.0490194770220618,12.004136007304044,0.9917558294852016,-63.3001888,6.502229200000002,-154.060188
5515.919,8.551807,21.3081352,8.419019999999998,-0.944253,-0.3172584,0.3045468,-49.0662522,68.02071079999999,160.67865,3.6192444000000017,-4.8036718,6.6146832,-0.9469188,-0.2457452,-0.1479584,-111.946207,74.2934036,7.231229999999999,24.455059321684917,1.0416407124194982,8.940258756065669,0.9894127577745496,-62.87995479999999,6.2726928000000015,-153.44742
5535.904,8.1133712,17.192368600000002,7.129366999999998,-0.940895,-0.3085036,0.306464,-49.2713974,68.3254196,160.2423554,3.2796192000000017,-2.727139,6.8722754,-0.9518946,-0.2516368,-0.1373168,-111.9571658,74.4321548,7.1577498,20.303502262613325,1.036522096018199,8.088347074388858,0.994122885857498,-62.68576839999999,6.1067352,-153.08460559999995
5555.893,6.7302982,13.0993278,5.888601799999997,-0.9410786,-0.309412,0.3062928,-49.3958458,68.5543976,159.9197418,3.4707056000000014,-1.2421884,6.238416599999999,-0.9544002,-0.2503226,-0.1222886,-112.01705499999998,74.5507934,7.0271254,15.860798650501156,1.036908866031051,7.24614870521724,0.9942311841421791,-62.6212092,5.996395799999999,-152.8926164
5575.874,5.3977276,9.3402502,4.825436599999998,-0.9432146,-0.3104702,0.3031804,-49.4450774,68.71707919999999,159.7021056,2.368239400000001,-0.1039022,5.8050072,-0.9575088,-0.2514168,-0.1115898,-112.1413058,74.6538116,6.8507774,11.81780755567721,1.0382503945028674,6.270363794464324,0.9962358118757426,-62.6962284,5.9367324,-152.8513282
5595.859,4.4548722,5.4345922,3.6220703999999975,-0.9461564,-0.3103692,0.3071924,-49.39894700000001,68.8085374,159.60363460000002,2.3479920000000014,0.866606,5.4638602,-0.9595692,-0.2468226,-0.1073099999999999,-112.3173448,74.7456498,6.6206172,7.905698747181669,1.0420691647809948,6.009812033370432,0.9965991579162607,-62.9183978,5.937112399999998,-152.98301740000002
5615.844,3.9417332,1.2271262000000005,2.289224399999997,-0.9502446,-0.3078626,0.3105518,-49.2396422,68.82491,159.63823240000002,2.0362220000000018,1.5752922000000005,4.4458908,-0.9636922,-0.2465738,-0.1059402,-112.5170396,74.8131988,6.3720494,4.720555866025105,1.0460337474437236,5.137479007664117,1.0003622449709506,-63.2773974,5.988288799999998,-153.266183
5635.83,3.4987706000000003,-3.039519,0.9469519999999972,-0.951177,-0.306714,0.311727,-48.9698332,68.76513379999999,159.8023346,0.5562444000000015,1.9333596,3.7023036,-0.9655508000000002,-0.24889,-0.106358,-112.748221,74.862419,6.1212804,4.7304111399633495,1.046892967620855,4.213589814162797,1.002769466849006,-63.7783878,6.097285199999996,-153.6810542
5655.815,3.570711,-7.1627182000000005,-0.3734778000000028,-0.9522034,-0.311174,0.3167254,-48.5902342,68.6283402,160.08152460000002,-0.2202005999999985,1.976873,3.281516,-0.9677568,-0.2463994,-0.1090288,-112.99226079999998,74.9039276,5.873640399999999,8.012115496248484,1.050635784776399,3.837298844320749,1.0045661588447226,-64.4020266,6.275587399999997,-154.2078842
5675.8,3.711946,-11.6695696,-1.7100870000000028,-0.952783,-0.3105876,0.3285863999999999,-48.0799834,68.4085754,160.4953002,-0.5799855999999985,2.254497,2.6435964,-0.9704926,-0.2412033999999999,-0.1084678,-113.2459304,74.93403479999999,5.623522,12.364537811973772,1.0546227404279314,3.5224624831656213,1.005882811496031,-65.165947,6.525459399999997,-154.8717782
5695.785,3.62471,-16.60814,-2.901607200000003,-0.9537478,-0.3101976,0.3309768,-47.4446326,68.1048262,161.04594400000002,-2.1338675999999985,2.0544166,2.2044686,-0.9743546,-0.2449417999999999,-0.1074122,-113.4973144,74.9559768,5.407445999999999,17.244945960680532,1.0561264409098183,3.692384095550093,1.0103963344337905,-66.0526818,6.8511506,-155.638498
5715.77,3.4035166,-21.5398322,-4.358888600000003,-0.952975,-0.3079429999999999,0.3347656,-46.7062682,67.712297,161.71424539999998,-2.6000195999999987,1.9526322,1.869344,-0.9739844,-0.2465802,-0.104769,-113.7324462,74.9717316,5.217249,22.23843983461615,1.0559631853513454,3.7506428008005495,1.0101603584760197,-67.02617799999999,7.2594346,-156.4969964
5735.756,3.3479894000000003,-26.838007800000003,-5.754269400000003,-0.9546472,-0.3154808,0.3493621999999999,-45.861542400000005,67.21948839999999,162.501843,-3.3538819999999987,2.4884106000000004,1.2566257999999997,-0.9720748,-0.2412264,-0.1102939999999999,-114.013899,74.9726076,4.995523199999999,27.65138897095677,1.064393422764966,4.361171882114026,1.007613199242646,-68.15235659999999,7.753119200000003,-157.50631979999997
5755.741,4.2426936,-32.7865502,-7.254572800000003,-0.9560018,-0.3164876,0.3579536,-44.8924766,66.6189362,163.416348,-4.681752199999998,3.0780708,0.5471037999999998,-0.9706864,-0.2374862,-0.1106228,-114.3410964,74.9570558,4.753911,33.846523447927424,1.0687537706646746,5.629622196914452,1.0054199054202375,-69.44861979999999,8.338119600000002,-158.662437
5775.726,5.5105282,-39.3434496,-9.0483468,-0.961562,-0.3190048,0.3671354,-43.8067626,65.8963684,164.446469,-5.933250599999999,3.3365024,0.0835745999999997,-0.9661506,-0.2408819999999999,-0.1190768,-114.7059036,74.926358,4.499902799999999,40.74488344913758,1.0775685334122374,6.807546963581762,1.0028212224033752,-70.899141,9.0299896,-159.9465662
5795.711,7.2198092,-46.5923456,-11.220701400000005,-0.9662694,-0.317573,0.3859196,-42.604534,65.0320992,165.5816374,-5.286876399999999,4.2916882,-0.2612572000000002,-0.9594568,-0.2402079999999999,-0.1265076,-115.1212052,74.8786744,4.180787799999999,48.46520868934958,1.08787090289681,6.814536301132164,0.9971265753092736,-72.51667119999999,9.8465752,-161.4008496
5815.697,8.0896998,-54.2628168,-13.208927200000002,-0.9698728,-0.3257816,0.4126894,-41.3156714,64.01490240000001,166.80603620000002,-4.918784599999998,5.5590666,-0.5828620000000002,-0.9541472,-0.2320426,-0.1456572,-115.6412766,74.8125488,3.7480842,56.43024266915199,1.1032222985195503,7.44562902080655,0.9927017011139044,-74.3256052,10.7976464,-163.05795199999997
5835.682,9.1913194,-62.5661296,-15.139583000000004,-0.9733546,-0.3284124,0.4306742,-39.9502052,62.8388724,168.1112852,-3.2439387999999987,6.634133,-0.2955696000000001,-0.9512814,-0.2311272,-0.1519316,-116.2112122,74.7398636,3.2292392,65.02467146284324,1.1138914437056064,7.390684744208658,0.9906761810220128,-76.26100699999999,11.9009912,-164.882046
5855.667,9.0479292,-71.0455714,-16.835442600000004,-0.9712758,-0.325306,0.4623801999999999,-38.5393944,61.4976018,169.4814422,-3.167674599999999,8.3620844,-0.4378504000000001,-0.9528032,-0.2302984,-0.1591274,-116.8899262,74.6473038,2.5962657999999994,73.57153230631128,1.1238310027106746,8.952671716140868,0.99307241448122,-78.3505318,13.149702,-166.8851764
5875.652,7.9635254,-79.619816,-18.715478600000004,-0.965965,-0.3327748,0.4914758,-37.1419938,59.9836294,170.8809814,-3.0455031999999984,10.6666584,-0.5841354000000002,-0.9551458,-0.2304917999999999,-0.1642938,-117.7011826,74.52887439999999,1.8227742,82.17665103846322,1.1337441998641844,11.108280934916705,0.996204006136956,-80.5591888,14.545245000000005,-169.0582072
5895.638,7.2025352,-87.6296526,-20.894624400000005,-0.957179,-0.3391654,0.5241746,-35.7915758,58.3003348,172.2641114,-5.345657399999999,12.6110368,-1.4243784000000002,-0.9547028,-0.2323297999999999,-0.1686552,-118.6363204,74.37368180000001,0.9675799999999996,90.37376752642882,1.14279649014307,13.771098577655868,0.996934876901656,-82.84474459999998,16.073347000000002,-171.2965314
5915.623,6.9674184,-95.746187,-23.39228480000001,-0.946015,-0.3439332,0.5517336,-34.499773600000005,56.444622800000005,173.606836,-7.194745799999998,14.098773599999998,-2.2669710000000003,-0.9588638,-0.2284638,-0.1592402,-119.6294708,74.19218459999999,0.0880507999999997,98.80828018118692,1.1478869245950143,15.989963779368466,0.998485320952151,-85.12969720000001,17.7475618,-173.5187852
5935.608,6.681123,-103.3924928,-26.169565400000003,-0.9309806,-0.3502624,0.5802584,-33.2934958,54.420305600000006,174.8863924,-12.001250599999995,15.4167248,-3.5775010000000003,-0.9612010000000002,-0.2233566,-0.1557582,-120.7209596,73.97636419999999,-0.7954918000000003,106.86201909548618,1.1515678170219417,19.862123072016654,0.9990276022371956,-87.42746380000001,19.5560586,-175.68188419999998
5955.593,6.2650514,-110.5781664,-29.401658000000005,-0.9163348,-0.3663708,0.6092902,-32.2051958,52.229831,176.0756654,-15.0240972,16.188318000000002,-4.237717999999999,-0.95682,-0.2243115999999999,-0.1577834,-121.861879,73.73757179999998,-1.6690998000000004,114.59161944304522,1.1597980757872122,22.48873918635049,0.9953470789679952,-89.6566832,21.5077408,-177.74476520000002
5975.578,6.302358,-116.99621299999998,-32.766085800000006,-0.8939651999999999,-0.3689554,0.6394192000000001,-31.223832800000004,49.887819,177.1622926,-18.756117,16.606383599999997,-5.1029486,-0.9535304,-0.2287493999999999,-0.1583152,-123.0243806,73.47444300000001,-2.4897856000000003,121.66120972337276,1.1593786177642056,25.565679838452954,0.9932825450371912,-91.8005478,23.586624000000004,-179.6520782
5995.564,5.1551458,-122.9182146,-35.7129776,-0.8682395999999999,-0.3825176,0.6710138,-30.3690186,47.4068046,178.1530396,-19.9873538,17.3297128,-5.5641706,-0.9570468,-0.2332386,-0.1618088,-124.18972800000002,73.1909866,-3.2899356000000006,128.1049561013508,1.1620754007844585,27.032818057368026,0.9982589391924522,-93.8207094,25.784182,-181.4429752
6015.549,4.4536144,-128.4548342,-38.6654312,-0.8437498,-0.3967992,0.7004694,-29.6279202,44.7972922,107.05542919999998,-20.7681944,18.2066458,-5.8010396,-0.9589224,-0.2451112,-0.1632132,-125.35302900000002,72.8859894,-4.0748616,134.2218114929735,1.1661992584704557,28.221479592034456,1.0031202411682458,-95.7251088,28.0886972,-111.1302908
6035.534,3.8591151999999993,-133.66977400000002,-41.71488860000001,-0.8119376,-0.4036048,0.7345198,-28.9875796,42.0636764,35.865603799999995,-19.5977644,19.3372974,-5.7776652,-0.959248,-0.2515962,-0.167782,-126.5062714,72.5618148,-4.876201,140.08080947170586,1.166901382923527,28.13156332977684,1.005787339790296,-97.5186918,30.49813840000001,-40.7418048
6055.519,2.8618466,-138.3086,-44.6175604,-0.776119,-0.4110678,0.7630654,-28.450440800000003,39.2205566,-35.4082212,-19.57171,20.6351606,-6.1801142,-0.9618264,-0.2640396,-0.1716434,-127.6547592,72.20826100000001,-5.676365200000001,145.3553772516503,1.1634458487763837,29.10421785303522,1.0120713368476948,-99.2043184,32.9877044,29.731856
6075.504,1.6295504,-143.1869294,-47.089216400000005,-0.745382,-0.4261187999999999,0.7959491999999999,-28.0057096,36.2692852,-106.7416838,-19.907644,21.5644754,-6.529268400000001,-0.9615864,-0.2626507999999999,-0.1764204,-128.802423,71.83599999999998,-6.470456799999999,150.7399963071273,1.1707718337140165,30.06613102391426,1.0123033166703348,-100.7967134,35.56671480000001,100.271227
6095.49,1.2021762,-148.11426999999998,-49.5253958,-0.7139716,-0.4331176,0.8164604000000001,-27.6275468,33.21580659999999,-178.1245634,-20.0422844,22.3095774,-7.0229484,-0.9644542000000002,-0.258294,-0.176099,-129.9237716,71.4485014,-7.23625,156.17953462088238,1.1678843631988916,30.80149691112652,1.0138533188457983,-102.2962248,38.2326948,170.8883134
6115.475,0.989464,-152.733078,-51.87746940000001,-0.6745876,-0.4347393999999999,0.840931,-27.3022874,30.0644566,-177.5489988,-23.529202999999995,22.0069216,-8.0836682,-0.966647,-0.2563894,-0.1842742,-131.0284882,71.04729599999999,-7.9119124,161.30605687856027,1.1624249320911522,33.21556387736699,1.0169065482270236,-103.7262008,40.9828394,169.6370864
6135.46,0.4479996,-157.1520782,-54.3641402,-0.6348734,-0.4403112,0.8613783999999999,-27.0352304,26.8190576,-177.0153776,-27.6525016,19.5954428,-9.7977306,-0.9728480000000002,-0.2660692,-0.1870102,-132.0018678,70.6500214,-8.3639134,166.29021656701806,1.1571131901674787,35.27942386400678,1.0257674518119009,-104.9666374,43.8309638,168.65146420000002
6155.445,1.0660219999999998,-161.3781982,-56.8168754,-0.5883284000000001,-0.4446413999999999,0.8662569999999998,-26.8007924,23.4850278,-176.5191008,-32.55586459999999,13.9358044,-11.7033578,-0.985869,-0.2641238,-0.189344,-132.7465518,70.30610499999999,-8.4693768,171.09125222349064,1.1376455822836564,37.2969107021401,1.038051163104902,-105.9457594,46.821077200000005,168.049724
6175.431,2.0803056,-164.76783139999998,-58.9214196,-0.523401,-0.444942,0.8798244000000001,-26.5854078,20.0714168,-176.0572082,-35.030897800000005,5.516964800000001,-13.3202368,-1.0034722,-0.2560472,-0.1888886,-133.1307926,70.06161499999999,-8.1381084,174.99857034652447,1.1162495083987094,37.88178202891937,1.0527086624563513,-106.5453848,49.9901982,167.9190998
6195.416,2.625109,-167.39374700000002,-60.4382774,-0.4513636,-0.4437595999999999,0.8771660000000001,-26.3970766,16.5961236,-175.6232482,-41.190448,-4.3947276,-15.7254482,-1.009964,-0.2535396,-0.1918076,-133.14622519999998,69.91838539999999,-7.282272000000001,177.98972753235296,1.081698605690661,44.30864879693115,1.058819987288642,-106.74914859999998,53.3222618,168.3409762
6215.401,2.0288669999999995,-168.9368988,-61.4393746,-0.3713468,-0.445827,0.883924,-26.2544782,13.0774962,-175.2126374,-47.2754608,-13.9599894,-19.2874414,-1.0197278,-0.2692616,-0.1914512,-132.75224020000002,69.8466996,-5.862050600000001,179.7737156224576,1.057346583469791,52.93255986308316,1.071914249046462,-106.497762,56.7692034,169.3505868
6235.386,2.9842724,-170.0961244,-61.6339622,-0.2973374,-0.4484778,0.8686316,-26.126753,9.5344626,-174.8103822,-52.1103256,-22.0132042,-22.446067,-1.0113582,-0.2842217999999999,-0.1925618,-132.0115388,69.8238494,-3.9698756,180.9429266761448,1.021793875030654,60.85961811462016,1.0680390850159558,-105.8847858,60.2893868,170.8405066
6255.371,3.6849994,-170.2538086,-61.753554400000006,-0.2191996,-0.4345335999999999,0.853853,-26.008103,5.980789,-174.42008679999998,-52.5006906,-26.6313026,-24.7108662,-0.9941582,-0.2957478,-0.1869438,-131.0037628,69.813797,-1.785725,181.1448040778901,0.9828188336504952,63.84493480303663,1.053928494818562,-104.9956598,63.83300799999999,172.63436180000002
6275.357,1.855888,-169.43750919999997,-61.79449900000001,-0.1510832,-0.4306473999999999,0.8385714,-25.9534128,2.4399478,-174.04546820000002,-53.0582262,-29.134571800000003,-27.557661,-0.9814546,-0.3269766,-0.1734146,-129.7697386,69.7689194,0.6472002,180.36372681564777,0.954717397635007,66.50882137920235,1.048922996364309,-103.8163258,67.3289716,174.6926684
6295.342,3.2330146,-167.886734,-61.857907,-0.0885942,-0.4311636,0.8271718,-25.8981898,-1.0754452,-173.689029,-48.10437399999999,-30.0691304,-29.279362,-0.9557824,-0.3464399999999999,-0.169196,-128.33473039999998,69.68011019999999,3.1880454,178.9491785256675,0.936997422063604,63.83936434576337,1.0306153289010211,-102.4365406,70.7555554,176.87707440000003
6315.327,4.876208,-165.6189208,-61.750714,-0.0283248,-0.4190801999999999,0.7981684,-25.832433200000004,-4.5502766,-173.35336,-35.7140858,-31.4089406,-29.4607628,-0.9388878,-0.3627424,-0.1575124,-126.5928922,69.57440799999999,5.7914694,176.82351373877214,0.9019441795841028,55.94599198246424,1.0187750025890705,-100.760459,74.1246846,179.1448294
6335.312,4.2046668,-162.33824140000002,-61.504335000000005,0.0309112,-0.4045232,0.79161,-25.7929476,-7.966973,-173.0440278,-22.6719898,-32.2033296,-30.0198078,-0.9271698,-0.3569078,-0.1466924,-124.5748976,69.4436678,8.4144724,173.64955245417687,0.8895172363274813,49.52032329424437,1.004263748200959,-98.78195,77.41064080000001,181.4585002
6355.298,4.276650399999999,-158.4113158,-60.4298622,0.0794448,-0.4081883999999999,0.7839878,-25.773258400000003,-11.3023566,-172.74687820000003,-10.2121532,-32.6361494,-30.1996924,-0.938967,-0.3646994,-0.1432172,-122.3260512,69.2844546,11.0213996,169.6001266439449,0.8874492192178886,45.62266697261361,1.0174359173064411,-96.5527928,80.58681120000001,183.7682778
6375.283,7.766071800000001,-154.4981628,-58.9122712,0.1240081999999999,-0.3956503999999999,0.7474290000000001,-25.705084,-14.5541788,-172.45298780000002,0.8912738000000019,-32.244882399999995,-30.3520186,-0.9350044,-0.3685688,-0.1431858,-119.9320434,69.080881,13.55153,165.53141658827306,0.8547323456664081,44.29189364964137,1.0151740548666717,-94.2269594,83.6350598,186.0045178
6395.268,6.8070944,-149.48497319999998,-57.25007860000001,0.1751314,-0.3706395999999999,0.7254512,-25.6593568,-17.7077076,-172.174341,11.2122462,-31.7328562,-29.9542662,-0.9275016,-0.367403,-0.1369588,-117.430281,68.847092,15.9815566,160.21755598710587,0.8332611619027734,45.05492970852085,1.006976611103257,-91.7709242,86.5547996,188.1558976
6415.253,5.4449408,-144.067331,-54.9952072,0.2170652,-0.3610571999999999,0.7029522,-25.6561364,-20.7455938,-171.897403,17.849597800000005,-30.423242,-30.2798334,-0.9248854,-0.3584766,-0.1424374,-114.94609540000002,68.5622318,18.2597972,154.30332484023148,0.8195251052943529,46.48709612509782,1.0021012368016915,-89.289959,89.3078256,190.1572002
6435.238,4.731207400000001,-137.59033219999998,-52.75808400000001,0.2588162,-0.3483176,0.6858584000000001,-25.671495200000003,-23.6483758,-171.6340912,23.4071522,-29.351803,-29.826269,-0.938435,-0.3678742,-0.1427794,-112.4942764,68.241173,20.390769,147.43438969833062,0.8116111881330618,47.94819533543608,1.0180263421518128,-86.82278120000001,91.8895488,192.0248602
6455.224,3.7284764,-131.17637340000002,-50.1415314,0.2938179999999999,-0.3325846,0.6616844,-25.7166692,-26.4144238,-171.37229299999998,26.3566114,-28.539594,-29.0102808,-0.9073996,-0.3484321999999999,-0.1397722,-110.1266724,67.9053406,22.3765254,140.48243892308665,0.796723150463522,48.48479949706191,0.9819955702394184,-84.4100032,94.3197644,193.7488184
6475.209,1.5209932,-123.5054932,-47.77286,0.3330282,-0.3147448,0.6505759999999999,-25.7992406,-29.0265062,-171.131967,29.3702584,-27.6046926,-26.292211,-0.9119252,-0.3453232,-0.1364099999999999,-107.8637818,67.5915084,24.1915328,132.43174250710928,0.7957519732292719,48.12391807918165,0.98461331036772,-82.0645412,96.6180146,195.3234998
6495.201,-0.5614602,-115.6189788,-45.0055916,0.3700744,-0.3063924,0.627925,-25.9269758,-31.479233,-170.9030698,29.239145,-26.176383,-25.2834098,-0.9287038,-0.351419,-0.1401836,-105.7612214,67.26787240000002,25.8431478,124.07081353637132,0.7906460459258112,46.68384558290426,1.0028147901803204,-79.8342456,98.7471054,196.7462176
6515.179,-2.3391426,-106.6805298,-42.408226000000006,0.4054238,-0.2923052,0.6125556000000001,-26.0780356,-33.753040600000006,-170.70229479999998,28.859995000000005,-23.965402,-21.3301792,-0.9063602,-0.3358259999999999,-0.1340078,-103.8826554,66.9967724,27.2665528,114.82449503036754,0.7905916459493106,43.153404838155495,0.9758206827490796,-77.8046198,100.749813,197.96884760000003
6535.164,-3.4904188,-97.2915664,-39.3163154,0.4403246,-0.2877608,0.5807582,-26.252268800000003,-35.84106379999999,-170.5193084,29.248873000000003,-20.3910598,-18.4403564,-0.9107734,-0.3270242,-0.1408115999999999,-102.2601748,66.75676539999999,28.410281,104.9933548973328,0.7835637295389827,40.14148272917091,0.9778961704740234,-76.007906,102.5978292,198.9295894
6555.15,-4.0588924,-86.510054,-36.421328200000005,0.4848664,-0.275826,0.5619234000000001,-26.41357,-37.725062,-170.3809844,28.839464400000004,-17.702049,-16.7557972,-0.922365,-0.3311278,-0.1407412,-100.8260058,66.5280302,29.3615788,93.95199411640932,0.7917912070694648,37.76021696819016,0.990056007776974,-74.4124358,104.2530922,199.7425632
6575.135,-5.773818,-75.4731598,-33.21300860000001,0.521611,-0.2676338,0.5404204,-26.5862164,-39.3959718,-170.2850006,26.749877000000005,-14.5347354,-15.395613799999998,-0.9050184,-0.3164296,-0.1423618,-99.6284946,66.3111326,30.1054568,82.65977718792335,0.7973456558855764,34.11509016464551,0.9692537738868804,-73.0422782,105.7071044,200.3904574
6595.12,-7.429927999999999,-63.9634492,-29.635069400000003,0.5538116000000001,-0.2691716,0.521105,-26.7739448,-40.835485,-170.2266754,25.405629800000003,-10.3514282,-11.7196478,-0.897981,-0.3061426,-0.1362206,-98.6944156,66.15447079999998,30.592884400000003,70.88556977262002,0.8066666347172914,29.83200019895495,0.9584619031344545,-71.9204708,106.9899558,200.8195598
6615.105,-8.3798226,-52.5380642,-25.96785400000001,0.5816336,-0.2729572,0.4952738,-26.9658752,-42.0491758,-170.20292039999998,21.5989296,-6.724058600000001,-8.5642784,-0.9091234,-0.3224394,-0.130011,-98.0179918,66.041359,30.880957,59.201343380502,0.8112332677148046,24.188294450719276,0.9733321032519784,-71.0521166,108.0905348,201.0838774
6635.09,-9.594488,-40.5091238,-22.5730588,0.614202,-0.2683508,0.4780965999999999,-27.1425586,-43.0311308,-170.2391386,17.014981800000005,-3.5169422,-4.6032034,-0.882113,-0.3251678,-0.1205092,-97.601317,65.9911286,30.9846042,47.35595310638492,0.8233059015919902,17.97409162194974,0.9478290511534662,-70.4587584,109.0222594,201.2237428
6655.076,-11.335294,-28.4421174,-18.93987760000001,0.640217,-0.27114,0.4654914,-27.3184562,-43.7733564,-170.3308806,13.540417800000004,0.2147163999999998,-1.0470365999999998,-0.8743314,-0.3330436,-0.116586,-97.4413698,65.99505919999999,30.8827518,36.00224848207124,0.8367060117884657,13.582536691381527,0.942849792874199,-70.12291359999999,109.7684156,201.2136324
6675.061,-12.7240736,-16.3205728,-15.2850206,0.6612707999999999,-0.2806546,0.4504442,-27.4869304,-44.2663992,-170.4787444,11.558853000000004,2.586134,2.3529304,-0.8759666000000002,-0.3442456,-0.1108997999999999,-97.4374574,66.054332,30.6517402,25.72732011385448,0.8479068656093308,12.076069443689416,0.9476926100139011,-69.950527,110.3207312,201.1304846
6695.046,-13.9530442,-3.895574,-11.844153400000003,0.6805391999999999,-0.2808484,0.4498848,-27.6259342,-44.508635600000005,-170.701596,10.174954000000003,4.2931782,5.2087498,-0.8743156000000001,-0.3584986,-0.1045542,-97.543097,66.1571426,30.3290724,18.712212830110747,0.8627895222997553,12.21032933372689,0.9507263514508052,-69.9171628,110.6657782,201.0306684
6715.031,-15.7020508,8.286212,-7.682413000000002,0.6905276,-0.2856276,0.4573606,-27.7603942,-44.495182,-170.97983100000002,9.974862600000003,5.8094448,5.7352098,-0.8749584,-0.3610258,-0.103201,-97.7220278,66.2638672,29.9301166,19.345159036236783,0.8761222578361311,12.889537005771071,0.9521251369421984,-69.9616336,110.7590492,200.9099476
6735.017,-16.670454,19.4856812,-2.959948000000003,0.689558,-0.298538,0.4643658,-27.900227,-44.234703,-171.2832032,8.771994200000004,4.553853599999999,6.397857,-0.8849326,-0.3743524,-0.097763,-97.8606538,66.38138119999999,29.5992626,25.813893556704176,0.8833180452235989,11.773616226441035,0.965817286083408,-69.9604268,110.6160842,200.8824658
6755.002,-17.3683706,29.8041728,1.847716599999997,0.685353,-0.300238,0.4687176,-28.04264060000001,-43.7469344,-171.6036774,7.573137400000003,3.0809008,6.7452392,-0.8888073999999999,-0.3901222,-0.0996822,-97.9573182,66.5007202,29.3400898,34.54508749771984,0.8829200302421278,10.599179764676892,0.9757614801909532,-69.91467759999999,110.2476546,200.9437672
6774.987,-18.8346896,39.72437480000001,7.022295999999997,0.6783916000000001,-0.3033644,0.491702,-28.2106406,-43.0363768,-171.9294616,6.688405600000003,2.5720254,6.3923454,-0.8884844000000001,-0.393561,-0.1015727999999999,-98.0484864,66.611113,29.1064682,44.52060339540379,0.8910757425392749,9.60271648239485,0.977042385705042,-69.8378458,109.6474898,201.0359298
