Timestamp (ms),Wrist Gyroscope X (deg/s),Wrist Gyroscope Y (deg/s),Wrist Gyroscope Z (deg/s),Wrist Accelerometer X (g),Wrist Accelerometer Y (g),Wrist Accelerometer Z (g),Wrist Roll (deg),Wrist Pitch (deg),Wrist Yaw (deg),Arm Gyroscope X (deg/s),Arm Gyroscope Y (deg/s),Arm Gyroscope Z (deg/s),Arm Accelerometer X (g),Arm Accelerometer Y (g),Arm Accelerometer Z (g),Arm Roll (deg),Arm Pitch (deg),Arm Yaw (deg),Wrist Gyroscope Magnitude (deg/s),Wrist Accelerometer Magnitude (g),Arm Gyroscope Magnitude (deg/s),Arm Accelerometer Magnitude (g),Difference Roll (deg),Difference Pitch (deg),Difference Yaw (deg)
0.0,1.7546,-0.342616,-0.260305,-0.956001,0.297139,0.010793,88.70005,73.174698,-55.722317,-1.241519,1.171377,0.02257,-0.998644,0.095871,0.028296,75.514778,84.3386,83.584602,1.8065894875374984,1.0011723059348974,1.707045080948362,1.003634271531717,-13.185271999999998,11.163901999999991,139.306919
19.986,1.3463195,-0.1384044999999999,-0.2996675,-0.9600935,0.2947065,0.010505,88.7082405,73.17808550000001,-55.722525,-0.0042794999999999,0.7796514999999999,0.2390449999999999,-1.0002025,0.0942855,0.0277585,75.56751650000001,84.33664300000001,83.6252745,1.3861935695481888,1.0043613915864646,0.8154859211522293,1.005020064893607,-13.140724,11.1585575,139.3477995
39.972,1.0018616666666669,0.0330726666666666,-0.288883,-0.9596936666666668,0.2926226666666666,0.0088993333333333,88.72194933333333,73.18141933333334,-55.71285666666666,0.7868213333333333,0.5003319999999999,0.1736303333333333,-1.001826,0.0961279999999999,0.027544,75.59593733333334,84.33536766666667,83.63386000000001,1.043203713617602,1.0033539540067604,0.9484552775254554,1.0068041510621617,-13.126012000000005,11.153948333333338,139.34671666666665
59.958,0.74957725,0.2080605,-0.2566475,-0.95972175,0.292158,0.0060095,88.74538225,73.183998,-55.69157825,0.7857227499999999,0.1714502499999999,-0.003528,-1.00104025,0.097527,0.0260175,75.575739,84.33600975,83.599573,0.8191600360332909,1.0032239273847652,0.8042187978881276,1.0061162995177608,-13.16964325,11.152011750000003,139.29115124999998
79.944,0.4307634,0.243943,-0.2284006,-0.958758,0.2908696,0.0038288,88.7655808,73.1864456,-55.6703806,0.4492304,0.0750341999999999,-0.1118976,-0.9991244,0.0996646,0.0244052,75.55440080000001,84.3372206,83.57322380000001,0.5451899926712889,1.001916506739758,0.4689980344730242,1.004379516395849,-13.21118,11.150775,139.2436044
99.929,0.0197955999999999,0.2959818,-0.1105424,-0.959006,0.289398,0.002516,88.79345099999999,73.18943479999999,-55.6444444,0.1949045999999999,-0.1249004,-0.1289836,-0.9972234,0.1016004,0.0213722,75.55739760000002,84.3377944,83.5720154,0.3165702353481135,1.001723535061446,0.2649994001696606,1.0026135455501086,-13.236053399999998,11.148359600000004,139.2164598
119.915,-0.3846357999999999,0.2414572,0.0499632,-0.9572686,0.2895306,0.001222,88.81218879999999,73.188835,-55.62183159999999,-0.465868,-0.0468897999999999,-0.1557493999999999,-0.9956506,0.1039255999999999,0.018581,75.5792602,84.33827819999999,83.602864,0.4568835731646739,1.0000963124451163,0.4934465749890255,1.0012321914404871,-13.232928599999996,11.149443200000002,139.2246956
139.901,-0.8716723999999999,0.1820142,0.1474146,-0.9567812,0.2901364,0.0018028,88.8161484,73.1858444,-55.6063614,-1.266918,0.1360579999999999,-0.0926935999999999,-0.9939998,0.1033815999999999,0.0176162,75.6272628,84.33877559999999,83.6760498,0.902592380987431,0.999806303924035,1.2775699986963376,0.999516727284261,-13.188885599999995,11.152931199999998,139.2824112
159.887,-1.357622,0.1163883999999999,0.1569948,-0.9547868,0.2882296,0.003243,88.8032166,73.1833588,-55.5980194,-1.7979286,0.4915884,0.1027364,-0.9933046,0.1036144,0.0204077999999999,75.7262024,84.33662580000001,83.81126099999999,1.3716162443502915,0.9973488120108228,1.8667515029048405,0.998902623166723,-13.077014199999995,11.153266999999996,139.4092804
179.873,-1.4111214,0.2091337999999999,0.1631912,-0.9548006,0.2880884,0.0066384,88.7887328,73.18084859999999,-55.58738100000001,-2.2328502,0.7221044,0.2085186,-0.9940126,0.101133,0.023962,75.84151139999999,84.33452,83.97192079999999,1.4358384030237663,0.997338047168301,2.355957297296656,0.9994313933891408,-12.947221399999998,11.1536714,139.5593018
199.859,-1.7140186,0.4776008,0.0464235999999999,-0.9546612,0.289834,0.0080369999999999,88.7831588,73.1798216,-55.5589088,-2.32296,0.7935706,0.2254013999999999,-0.9953378,0.0974366,0.0264394,75.949504,84.3342208,84.127246,1.7799206263043192,0.9977205759682618,2.4650970061858253,1.0004450354720944,-12.8336548,11.154399199999997,139.6861548
219.845,-2.2155208,0.7849107999999999,-0.1508896,-0.9539444,0.2885514,0.008503,88.7866056,73.1834548,-55.509259,-2.2220564,0.6885254,0.2191507999999999,-0.9953314,0.0953762,0.0287032,76.02279519999999,84.33433219999999,84.2458404,2.355288740383531,0.996666508789334,2.336584889184803,1.0003024987685676,-12.7638104,11.150877399999995,139.7550994
239.831,-2.2317312,0.9964842,-0.2543412,-0.9533174,0.286756,0.0086471999999999,88.80308199999999,73.1900848,-55.4445702,-2.136794,0.6613358,0.1536732,-0.9946012,0.0965662,0.029491,76.08611140000001,84.334761,84.3527312,2.4572941126207337,0.9955490157428712,2.242068038930995,0.9997131073987576,-12.716970599999998,11.144676199999996,139.7973014
259.817,-2.1043046,1.0989032,-0.3266912,-0.9543152,0.2887896,0.0074912,88.83095080000001,73.19718780000001,-55.3710662,-2.0806998,0.7058709999999999,0.0836382,-0.993968,0.0958668,0.026693,76.16954799999999,84.33751980000001,84.4785674,2.396333289154253,0.9970822694726048,2.198763487704005,0.9989371074373202,-12.6614028,11.140331999999995,139.8496336
279.802,-2.1384228,1.0819008,-0.449141,-0.954752,0.289999,0.0081242,88.8554046,73.20606380000001,-55.301872200000005,-1.853199,0.7207276,0.1572086,-0.994361,0.0959756,0.0247366,76.273883,84.3390702,84.62072119999999,2.438255329222409,0.9978561039201194,1.9946201019032967,0.9992882534563888,-12.5815216,11.133006399999996,139.92259339999998
299.788,-2.1601232,1.0345084,-0.5397816,-0.955077,0.2887524,0.009343,88.873564,73.2173538,-55.239740000000005,-1.4884304,0.742323,0.2303186,-0.994753,0.0982116,0.025522,76.3906936,84.33790139999999,84.7680968,2.4551382943833047,0.9978162737116288,1.6791411940272083,0.9999152073388824,-12.4828704,11.120547599999998,140.0078368
319.774,-1.9543198,1.0077942,-0.5365894,-0.9561652,0.2901042,0.011754,88.889238,73.2278412,-55.1822516,-1.3120244,0.8791482,0.167343,-0.996109,0.0989877999999999,0.026432,76.5291106,84.3381302,84.93368819999999,2.2633919710067985,0.9992749837080284,1.5881792289938816,1.001364256928437,-12.3601274,11.110289,140.1159398
339.76,-1.925184,0.9210656,-0.5365721999999999,-0.9574746,0.2915573999999999,0.0126098,88.8980896,73.2376082,-55.1305646,-1.2863996,0.8791886,0.0777487999999999,-0.9968288,0.09711,0.0257678,76.66392060000001,84.341327,85.095143,2.20059196562475,1.0009607056203356,1.560077370245322,1.0018792283136126,-12.234169,11.1037188,140.2257076
359.746,-1.7268938000000005,0.7846230000000001,-0.5572946,-0.9565766,0.2919182,0.0138198,88.8994094,73.24727619999999,-55.0908384,-1.2100218,0.732696,0.0079187999999999,-0.997456,0.09685,0.0260913999999999,76.7657318,84.34526819999999,85.2219374,1.97696047502134,1.0002229821548994,1.414587887790886,1.002486486487454,-12.1336776,11.097992,140.3127758
379.732,-1.6687944,0.6858034,-0.5604772,-0.956505,0.2913536,0.0136834,88.8956192,73.257161,-55.0590062,-0.9505018,0.5212756,-0.079109,-0.996222,0.0984603999999999,0.0263502,76.8280228,84.348854,85.3038054,1.8892685739837944,0.9999879852745832,1.086940732901109,1.0014225165694048,-12.0675964,11.091693,140.3628116
399.718,-1.4665494,0.4276457999999999,-0.4536469999999999,-0.957013,0.2904422,0.0132528,88.8798204,73.2653062,-55.0453,-0.8532643999999999,0.5506888,-0.1720144,-0.9954208,0.0992454,0.0242706,76.90563660000001,84.3541656,85.39898980000001,1.5935632003491422,1.0002030745891954,1.0300035167707728,1.0006504287303135,-11.9741838,11.0888594,140.4442898
419.704,-0.991216,0.0866652,-0.3212203999999999,-0.9571212,0.290679,0.0132844,88.8512696,73.2704728,-55.0560994,-0.8365015999999998,0.5553506,-0.1735932,-0.9947712,0.0980804,0.0226841999999999,76.99112540000002,84.3603028,85.501683,1.0455632744713252,1.0003758032928425,1.018962126287901,0.999852028123782,-11.8601442,11.089829999999996,140.5577824
439.69,-0.588028,-0.1418965999999999,-0.2446398,-0.9559792,0.2907316,0.0134986,88.815619,73.2737458,-55.0838034,-0.6729816,0.5255718,-0.1058176,-0.9952806,0.0970616,0.0232618,77.072064,84.36539619999999,85.5965668,0.6525030311190899,0.9993014091219726,0.8604227538620536,1.0002727319437237,-11.743554999999995,11.091650399999995,140.68037020000003
459.675,-0.4077222,-0.1747087999999999,-0.163983,-0.9568632,0.2911976,0.0150496,88.7788118,73.2752334,-55.1161398,-0.3005954,0.4263408,-0.1190367999999999,-0.9963666,0.0968018,0.025144,77.12932559999999,84.3701966,85.660289,0.4729175207784968,1.0003048116550075,0.5350643251049728,1.0013736619338458,-11.649486199999998,11.094963199999995,140.7764288
479.661,-0.3155546,-0.203198,-0.0327284,-0.9577856,0.2913599999999999,0.0147436,88.743123,73.27414239999999,-55.148545,-0.1374757999999999,0.3551546,-0.1968443999999999,-0.9972230000000002,0.0965416,0.0262287999999999,77.16573919999999,84.37624980000001,85.69985199999999,0.3767429905807406,1.0012298831478812,0.428698149399038,1.0022284880250614,-11.577383799999998,11.102107399999998,140.848397
499.647,0.0084678,-0.2796177999999999,0.121289,-0.9575634,0.2910066,0.012161,88.7144806,73.2701308,-55.1799666,-0.0427578,0.2592396,-0.2212932,-0.9972498,0.097208,0.0259416,77.18677799999999,84.3819368,85.7220412,0.3049079192718352,1.0008798110583106,0.3435172194159123,1.0023120898575453,-11.527702599999998,11.111805999999996,140.9020078
519.633,0.1511104,-0.4267649999999999,0.2403726,-0.9576142,0.290181,0.0094542,88.68476860000001,73.2642012,-55.2150414,-0.019879,0.2425145999999999,-0.2334816,-0.9960826,0.0980436,0.0238302,77.21738260000001,84.38744980000001,85.7532486,0.5125833639945018,1.000659457907774,0.3372271688235098,1.0011797900256276,-11.467386,11.1232486,140.96829
539.619,0.2039515999999999,-0.6732528,0.340629,-0.957627,0.28913,0.0084298,88.642311,73.256787,-55.2637428,0.036663,0.3544766,-0.126111,-0.9941446,0.1000621999999999,0.0221796,77.2869368,84.390207,85.82233579999999,0.781596893220156,1.0003582805960274,0.3780235704788261,0.9994137602785744,-11.3553742,11.133419999999996,141.0860786
559.605,0.3980308,-1.1125866,0.564639,-0.95871,0.2871608,0.0127698,88.5670118,73.2459136,-55.3498414,0.0167106,0.6817454,0.0646466,-0.9917166,0.1005624,0.0211142,77.4333068,84.3903032,85.9689422,1.3096162264454425,1.000874246321025,0.6850074579631086,0.997025787254753,-11.133705,11.1443896,141.31878360000002
579.591,0.465522,-1.8949478,0.926751,-0.9585882,0.2853618,0.0125612,88.443446,73.228401,-55.4874382,-0.0788846,1.652518,0.4383093999999999,-0.9863982,0.102725,0.0165448,77.8077178,84.3859604,86.34632260000001,2.160186407051447,1.000240210061523,1.7114770376985835,0.9918707400640872,-10.6357282,11.1575594,141.8337608
599.576,-0.0645066,-3.0509058,1.4075648,-0.957922,0.2839624,0.012554,88.23608820000001,73.2012236,-55.7008302,-0.5113717999999999,3.3496484000000004,0.9334162,-0.9823924,0.1056484,0.0068597999999999,78.5735686,84.37678980000001,87.1251664,3.360569292265261,0.9992030852703369,3.514670869922281,0.9880806995667712,-9.6625196,11.175566200000002,142.8259966
619.562,-0.8396554,-4.5505418,1.7939652,-0.9581042,0.2852949999999999,0.015159,87.9141538,73.164331,-56.01699219999999,-1.4780414,5.0396884,1.3377431999999998,-0.980426,0.1056778,0.0003711999999999,79.68954599999999,84.36451559999999,88.274965,4.9629389481543535,0.9997933238242992,5.419651503404509,0.9861050028664696,-8.224607800000001,11.2001846,144.2919572
639.548,-2.0414884,-6.3119106,2.3748802,-0.959847,0.2907346,0.0253088,87.44116799999999,73.11090540000001,-56.4635734,-2.57587,6.8270496,1.8167016,-0.9789098,0.1054198,-0.0026408,81.1450286,84.3462996,89.787941,7.046129879166219,1.0032314819639585,7.519582249114822,0.9845733617119244,-6.2961394,11.235394199999998,146.2515144
659.534,-5.9909484,-8.7117262,2.9990954000000003,-0.9620322,0.2978298,0.038858,86.72000879999999,73.0372162,-57.0854286,-4.2032856,9.5830174,2.4401492,-0.976132,0.1109066,-0.0074816,83.1198318,84.3152312,91.855394,10.990004974226816,1.0078286003923882,10.7450528357068,0.982440802128108,-3.6001769999999995,11.278015,148.9408226
679.52,-11.3904246,-11.6043112,3.2754662000000003,-0.961252,0.3023144,0.0447662,85.7086654,72.9486314,-57.898169,-6.5115656,12.5820642,3.0745906,-0.9795912,0.1192048,-0.0136048,85.61894520000001,84.26388539999999,94.4962068,16.58705790132997,1.0086641743483309,14.496962904471864,0.9869112391920156,-0.0897201999999964,11.315254,152.39437579999998
699.506,-15.179536,-14.0464972,3.6501946,-0.957593,0.3053388,0.0509148,84.476567,72.84200760000002,-58.863354400000006,-9.592964599999998,14.9886648,3.3740956000000004,-0.980588,0.1203496,-0.007872,88.4073654,84.19453419999999,97.4907106,21.00110276587334,1.0063838498771132,18.11269067315929,0.987977135539158,3.9307984000000062,11.352526599999996,156.354065
719.492,-18.3187748,-16.0824772,4.3224474,-0.9518116,0.3089168,0.0614236,83.06514419999999,72.709015,-59.9517882,-11.691527,17.3482156,4.227222,-0.9780098,0.122841,-0.0065546,91.4859268,84.09121239999999,100.8198808,24.756961335903117,1.0025705809835834,21.342956541517303,0.9857160052257444,8.420782600000004,11.382197399999995,160.771669
739.478,-20.3428216,-18.015348,5.2700778,-0.9446816,0.3123874,0.0713306,81.5182264,72.5418886,-61.1411528,-13.5851676,19.3263614,4.9679504,-0.9818594,0.1239178,-0.0142282,94.791159,83.95499720000001,104.41550320000002,27.679538909248173,0.9975456217906428,24.14012333979178,0.9897504454156312,13.2729326,11.413108599999996,165.556656
759.463,-18.5951816,-19.4202642,6.4221648,-0.9367046,0.3129912,0.0728624,79.9717846,72.3379992,-62.3673834,-16.494797,19.1481162,5.0854758,-0.9830842,0.1156336,-0.0210132,97.8967132,83.8059722,107.8694934,27.64365462548574,0.9902968889541964,25.779657604248683,0.9900844551414996,17.9249286,11.467972999999995,170.2368768
779.45,-12.8656482,-20.180708,7.8072672,-0.9311536,0.3165934,0.084718,78.5347576,72.09234339999999,-63.59662999999999,-18.3709738,17.615090799999997,4.9330018,-0.979232,0.1080243999999999,-0.0165368,100.5228744,83.6546218,110.8805194,25.17417923427938,0.9871451500364676,25.92525041366687,0.9853111420123088,21.9881168,11.5622784,174.4771494
799.435,-7.355623,-21.9577602,9.3615964,-0.9401864,0.328863,0.1105647999999999,77.1349438,71.79384780000001,-64.897213,-18.7698656,15.8483884,4.3785228,-0.9772284,0.1098238,-0.0287781999999999,102.7759612,83.5053298,113.5246844,24.977748294738777,1.0021606231103874,24.952970392909894,0.9838011982144764,25.6410174,11.711481999999998,178.4218974
819.421,-3.3614098,-25.1245246,11.043523400000002,-0.9550548,0.3412424,0.1411718,75.6755886,71.432213,-66.3379624,-19.4086718,14.017764799999998,3.6550052,-0.9822586,0.1122325999999999,-0.04287,104.6651122,83.3650008,115.8156862,27.649597127370384,1.0239655871541973,24.218863186373166,0.9895786733134058,28.9895236,11.9327878,182.15364860000005
839.407,0.6794491999999999,-29.3768866,13.059682,-0.9727924,0.3493658,0.1680488,74.1333462,70.995273,-67.94438339999999,-20.1015616,12.3431472,3.2818979999999995,-0.9897524,0.1176994,-0.0480866,106.1835508,83.22988419999999,117.74815680000002,32.156156665027055,1.0471971709706056,23.81589628886275,0.9978854058285852,32.0502046,12.2346112,185.6925402
859.393,3.480034,-34.506032399999995,15.3547918,-0.9880606,0.3737204,0.2097276,72.47818120000001,70.4679596,-69.7253922,-19.5587294,11.155711,2.8448722,-1.007733,0.1217572,-0.0480276,107.4683622,83.10492380000001,119.43515320000002,37.92817606809419,1.0769941285124447,22.69552998923529,1.0161974539441632,34.990181,12.6369642,189.1605454
879.379,0.7651247999999999,-40.6409652,17.763232,-0.9982196,0.3977989999999999,0.2505074,70.57314579999999,69.83372940000001,-71.7093612,-19.6509146,9.7947052,1.2647544000000004,-1.0218766,0.1204148,-0.0491092,108.5853376,83.01823099999999,120.955252,44.35995806392303,1.103376804033835,21.993051135841057,1.0301180627536048,38.0121918,13.1845016,192.6646132
899.365,-2.7624258,-47.0189048,20.5930482,-0.9972292,0.4085461999999999,0.2834534,68.44423280000001,69.0737914,-73.853131,-20.0495558,8.2797354,0.0666586000000004,-1.0268882,0.1174998,-0.0447746,109.4756316,82.96451859999999,122.255638,51.40507795013535,1.1143257624405172,21.692006579389577,1.0345580424047942,41.0313988,13.8907272,196.108769
919.351,-5.3694294,-53.8666892,24.1419398,-0.9967286000000002,0.4261154,0.3134082,66.17473820000001,68.1607298,-76.0933426,-20.330355,6.86293,-1.3959421999999997,-1.0258195999999995,0.1135183999999999,-0.0426914,110.1967652,82.948448,123.3915144,59.27296377571991,1.128391304469491,21.50283230731863,1.0329641012720043,44.022027,14.7877182,199.484857
939.336,-9.1946972,-61.22408660000001,27.9535544,-0.993549,0.4497408,0.3409882,63.79117120000001,67.07604800000001,-78.397847,-20.8628674,5.2962002,-3.4142855999999995,-1.0194982,0.1026991999999999,-0.0421164,110.787755,82.98533460000002,124.4067626,67.92887780758451,1.142663272852016,21.793722005816957,1.0255230356422227,46.9965838,15.909286599999998,202.8046096
959.322,-13.5700818,-68.8847816,31.9439738,-0.9900272,0.4624868,0.3622046,61.3110152,65.8055838,-80.730829,-20.4007454,4.0231536,-5.2072284,-1.0103268,0.0951354,-0.0409274,111.3099642,83.06751399999999,125.3431518,77.13415403226689,1.1511907179851826,21.43575063706845,1.015621011599386,49.998949,17.261930200000002,206.0739808
979.308,-17.048194799999997,-76.9700842,36.292907,-0.9911828,0.475201,0.3865923999999999,58.7986336,64.3360648,-83.05879680000001,-18.949317200000003,3.4145618,-5.846803400000001,-1.0043232,0.0929232,-0.0450502,111.838489,83.1645722,126.2562042,86.78830512346975,1.1652094305980365,20.1226480521448,1.009618408942963,53.0398554,18.8285074,209.315001
999.294,-18.8018132,-85.5613616,40.6160584,-0.9948806,0.4889662,0.4134138,56.3289466,62.664888,-85.34580700000001,-17.8216114,2.8874056,-6.0833944,-1.0061015999999998,0.089713,-0.0438644,112.3357682,83.2703156,127.11493679999998,96.56044209926682,1.1831256581738223,19.0513682295386,1.0110454675626213,56.0068216,20.6054276,212.4607438
1019.28,-17.1264148,-94.0186706,45.322783,-0.9972536,0.506092,0.4378111999999999,54.0243652,60.7863746,-87.5390594,-16.8540346,2.1273706,-6.0248078,-1.009702,0.0895542,-0.040876,112.7309586,83.3798568,127.851471,105.76851688549884,1.2009673192982395,18.02449713569514,1.0144894927586192,58.7065934,22.5934822,215.3905304
1039.266,-18.7712662,-102.0836884,49.971135200000006,-0.9970118,0.5248818,0.4648616,51.8455742,58.7062362,-89.5964218,-15.7131556,1.955442,-5.7324726,-1.0080046,0.0912902,-0.036953,113.0969986,83.48335259999999,128.53583680000003,115.19789158346708,1.2188641189505252,16.840078813204112,1.0128043732361152,61.2514244,24.7771164,218.1322586
1059.252,-21.7417344,-110.3531434,54.279149800000006,-0.9931826,0.5278366,0.4839483999999999,49.7638474,56.433348,-91.5277724,-15.8586566,2.753221,-5.3523316,-1.0009036,0.098261,-0.039209,113.57205960000002,83.5669494,129.3327378,124.88693036499836,1.2244301560746045,16.962448779227696,1.006479302467249,63.8082122,27.133601400000003,220.8605102
1079.237,-20.138197,-118.755884,58.9619912,-0.9915242,0.5385536,0.5153158,47.8770866,53.9577132,-93.3160796,-16.7969406,4.178955,-4.8597294,-0.9962706,0.0981968,-0.0472568,114.2691696,83.6252136,130.3713684,134.10825242803347,1.240447738918589,17.978260434568682,1.0022130138353025,66.392083,29.6675004,223.687448
1099.223,-19.441972,-126.6345476,63.746747600000006,-0.9794066,0.5550672,0.5451392,46.17947,51.284522,-94.9466262,-17.133205799999995,5.7472718,-3.5273064,-0.9964854,0.1008503999999999,-0.0499184,115.1141542,83.6413086,131.56557619999998,143.10117662228902,1.2508051934718052,18.412489363682187,1.0028189279485502,68.93468419999999,32.3567866,226.5122024
1119.209,-23.5333932,-133.5477434,67.84393320000001,-0.9573484,0.5643016000000001,0.5708721999999999,44.567422400000005,48.4422392,-96.4245574,-18.3516858,8.025133,-2.7512934,-1.0006506,0.0998872,-0.0447916,116.20059820000002,83.622664,133.02770700000002,151.6298771178824,1.2493387544929355,20.217733471942257,1.0066207644563865,71.6331758,35.180424800000004,229.4522644
1139.195,-24.885104,-139.89179099999998,71.216224,-0.930696,0.561406,0.5893284,43.0800414,45.4550268,-97.764543,-19.2951222,10.1031936,-2.8664486,-1.0032518,0.0958274,-0.048189,117.6068772,83.5846148,134.83054520000002,158.93625184675983,1.236397874593191,21.96799465605488,1.008969397214306,74.5268358,38.129588,232.5950882
1159.181,-20.9875918,-145.6551118,75.276584,-0.9040182,0.5743386,0.621668,41.8242308,42.3186834,-98.9572844,-18.426625800000004,11.9603308,-2.758156,-1.0004906,0.0896208,-0.0554654,119.3175446,83.5217242,136.9220124,165.2950534702808,1.2383799237734758,22.14040369412876,1.0060267089288235,77.4933138,41.2030408,235.8792968
1179.168,-18.8320962,-150.61582040000002,79.0378542,-0.8652116,0.5802064,0.6450518,40.752143,39.0536658,-100.0144164,-17.8764602,13.9285752,-1.5429964000000005,-1.0012096,0.0915382,-0.0508913999999999,121.129239,83.4107652,139.1052064,171.13373600372188,1.225284621652765,22.714618074593552,1.0066726577122078,80.37709600000001,44.3570994,239.1196228
1199.153,-16.1170764,-155.0445496,82.7651324,-0.8304552,0.5926248000000001,0.6655135999999999,39.862233,35.6736804,-100.9473646,-17.734957799999997,16.5788612,-1.5957748000000005,-1.00015,0.089582,-0.0536567999999999,123.2300278,83.2646912,141.57735900000003,176.48977209328544,1.218100301521611,24.329690998221928,1.005586400768348,83.3677948,47.59101080000001,242.5247236
1219.139,-13.0920004,-159.1950288,86.4441164,-0.7943494,0.6018028,0.6898174,39.136345,32.179483399999995,-101.7781142,-17.267580000000002,19.5219196,-0.7185288,-0.9918286,0.0911564,-0.0607167999999999,125.5256012,83.05732880000001,144.23737780000002,181.62335458107577,1.2120254224689184,26.072800915162404,0.9978577006974292,86.3892562,50.8778454,246.015492
1239.125,-9.0419582,-163.2156586,90.0505494,-0.7523462000000001,0.6076994,0.7189691999999999,38.5776604,28.5594762,-102.5249282,-17.2027838,22.770285,1.74196,-0.9886874,0.1055791999999999,-0.0663187999999999,127.8021836,82.7519942,146.879315,186.62853390509216,1.205089239833897,28.59118874919977,0.9965179003032713,89.2245232,54.19251800000001,249.4042432
1259.11,-6.4439718,-167.287851,92.7928834,-0.7034206000000001,0.6139006,0.7477468,38.1387398,24.8254984,-103.2182464,-18.5827528,25.6257326,4.7584664000000005,-0.9987708,0.1128454,-0.069136,129.8847962,82.35075200000001,149.3562864,191.40864419989865,1.196160425735177,32.00999649160461,1.0075003631412744,91.7460564,57.5252536,252.5745328
1279.096,-3.6595362000000007,-171.4605102,95.0023636,-0.650515,0.6246643999999999,0.7741336,37.812687,20.9817058,-103.8803542,-18.952107,27.739023,7.0505596,-1.0105706,0.1111408,-0.0779122,131.7927842,81.88037080000001,151.66636640000002,196.05496130633884,1.1885529893535751,34.327046878622255,1.0196448038007355,93.9800972,60.898665,255.5467206
1299.082,-5.8813254,-175.2845734,95.847029,-0.5872254,0.6280498,0.7896866,37.4854714,17.0472774,-104.5392136,-16.8900534,28.0565668,9.8606244,-1.0206842,0.1142763999999999,-0.07846,133.3124054,81.3599622,153.5452818,199.86476585083105,1.1674267205716853,34.20053739366663,1.030054029323996,95.826934,64.3126848,258.08449540000004
1319.068,-7.408169200000001,-179.1748962,95.1825088,-0.513924,0.6061854,0.8072583999999999,37.1654342,13.0444846,-105.2215058,-14.443668,26.8677786,12.0541,-1.0344434,0.1171502,-0.083683,134.404776,80.8214902,154.9449462,203.02274350584145,1.1328039288948992,32.79936583232734,1.04441378852091,97.2393418,67.7770056,260.166452
1339.054,-5.9625098,-182.9924224,94.70941,-0.4408115999999999,0.5987022,0.8239913999999999,36.9161948,8.9833396,-105.9280396,-10.8254044,22.9845882,12.938282,-1.0481048,0.113423,-0.0883312,135.0589598,80.328317,155.82864679999997,206.13502982628452,1.109829274372126,28.51104726695676,1.0579181677263512,98.142765,71.34497739999999,261.7566864
1359.04,-10.6720382,-185.6462646,93.8152586,-0.360294,0.590521,0.8211051999999999,36.617958,4.8874066,-106.6552322,-6.715519400000001,16.706453000000003,12.294997,-1.0641364,0.0967888,-0.0963184,135.3151456,79.94122139999999,156.2244904,208.2780130149612,1.073657565215297,21.802998048043637,1.0728614000834218,98.6971876,75.0538148,262.8797226
1379.026,-19.667527,-187.130487,92.0795592,-0.2776258,0.5620898000000001,0.8007987999999999,36.1894216,0.7837468,-107.398082,-0.3874842000000004,9.4088784,9.2306226,-1.0647284,0.078182,-0.1012968,135.37301,79.70979,156.2895112,209.48335496076817,1.0170052832562473,13.186414612580135,1.072389869674644,99.1835884,78.92604320000001,263.68759320000004
1399.012,-21.8792658,-188.158618,90.6686156,-0.1927632,0.517582,0.785596,35.7672276,-3.325314,-108.1439666,5.638181399999999,2.3225124000000004,4.431357800000001,-1.0617068,0.0610079999999999,-0.1135502,135.430255,79.6513016,156.2294404,210.00753713721213,0.9603175793529138,7.537909876025353,1.069503133773006,99.6630274,82.97661559999999,264.373407
1418.997,-22.6140912,-188.0813628,89.7507598,-0.1075041999999999,0.5037027999999999,0.7603962,35.379501,-7.4126442,-108.8782028,12.2324584,-5.634925,0.7055830000000002,-1.0637556,0.0411038,-0.116922,135.3395324,79.7661256,155.883429,209.6215519410741,0.9184095190708336,13.486410405784206,1.070951097384843,99.9600314,87.1787698,264.76163180000003
1438.983,-30.204325600000004,-186.392813,87.55797720000001,-0.0264336,0.4906086,0.7290388,34.8938032,-11.4338104,-109.6059234,19.5708098,-12.2347402,-3.5100428,-1.0684262,0.0273503999999999,-0.1139064,135.22058099999998,80.0398866,155.3591308,208.13692943434975,0.8791433930300335,23.34578900887918,1.074828943221925,100.3267778,91.473697,264.96505420000005
1458.969,-34.744228,-184.3142516,84.21890859999999,0.041256,0.4486882,0.696999,34.3683272,-15.3875204,-110.3385972,26.440807199999995,-15.0988416,-8.275600800000001,-1.0506068000000002,0.0405804,-0.1081156,135.3494354,80.41540239999999,154.9481994,205.6008980718694,0.8299582907328779,31.552763296586605,1.0569344350685903,100.9811082,95.8029228,265.2867966
1478.955,-31.1450126,-181.561496,81.4083296,0.1043293999999999,0.4163222,0.6636814,33.957466,-19.255981400000003,-111.0650636,30.0698898,-16.1141864,-9.8198844,-1.0394986,0.0585523999999999,-0.1106278,135.5593596,80.81503599999999,154.54719219999998,201.3998628794826,0.7903681411995046,35.500639508992684,1.0470072746072778,101.6018936,100.0710174,265.6122558
1498.941,-30.13609300000001,-177.3313752,78.086151,0.1620614,0.4109176,0.6364599999999999,33.613306400000006,-23.0067778,-111.7911592,32.1946892,-16.3757278,-8.6871358,-1.0369199999999998,0.0657413999999999,-0.1158162,135.6790648,81.193785,154.01241439999998,196.09193688069536,0.7747247917549301,37.15008481917546,1.0454369470496054,102.0657584,104.2005628,265.8035736
1518.927,-33.2421306,-172.4765686,73.76352220000001,0.2106712,0.387433,0.6042332,33.2579926,-26.636013,-112.5319322,34.7295678,-13.8120884,-8.345615800000001,-1.0240676,0.0768394,-0.122311,136.01353139999998,81.51963939999999,153.644931,190.5105329639489,0.7480537707816732,38.29576959176328,1.0342043915412078,102.7555388,108.1556524,266.1768632
1538.913,-32.1847446,-167.44816899999998,68.9223198,0.261455,0.3560178,0.5710762,32.978418,-30.1424066,-113.302199,35.482801800000004,-8.961359400000001,-7.752686199999999,-0.9916136,0.0912282,-0.1346902,136.7396758,81.750424,153.659198,183.91583198037424,0.7219663545819016,37.40908083861086,1.0048689298392304,103.7612578,111.8928306,266.961397
1558.898,-28.7401034,-161.570868,63.9822006,0.3148172,0.3392718,0.5324584000000001,32.830591600000005,-33.4998114,-114.1089646,36.3707816,-4.942151000000001,-5.8042312,-0.9805564,0.1026879999999999,-0.147356,137.6804596,81.8809492,153.872757,176.13875474561172,0.7054978181551238,37.16110480764469,0.9968698358667292,104.849868,115.3807606,267.9817216
1578.884,-28.3089,-154.473883,58.2279884,0.369604,0.3246446,0.5036419999999999,32.7624078,-36.6972388,-114.9657104,37.8252662,-0.7362448,-4.8925766,-0.9686808,0.1123112,-0.162393,138.9528016,81.9208694,154.39219680000002,167.49350131100078,0.7040287616917081,38.147478623013306,0.9885988996469092,106.1903938,118.6181082,269.35790720000006
1598.87,-28.9125382,-146.586203,51.5880126,0.4210484,0.3057712,0.4672945999999999,32.7635354,-39.7110926,-115.8910416,38.9560936,5.4764656,-4.8990502000000005,-0.9618652,0.1240726,-0.1729452,140.7575654,81.85193340000001,155.4277864,158.0657231000492,0.6993868922714809,39.643027090549786,0.9851338565113068,107.99403,121.563026,271.31882800000005
1618.856,-25.7156772,-137.7078492,44.7177954,0.4695591999999999,0.2865822,0.4339074,32.909710000000004,-42.52101,-116.884674,39.2432838,13.1731136,-4.797146,-0.9484314,0.1360754,-0.185513,143.0897004,81.64203660000001,156.9921906,147.05247026344304,0.7006360192255605,41.67227921617875,0.9759373484809974,110.1799904,124.1630466,273.8768646
1638.842,-19.7510414,-127.6953096,38.369562,0.5180562,0.2671316,0.3979515999999999,33.246477600000006,-45.1138582,-117.9322906,39.0552452,21.8495476,-2.478563,-0.9441508,0.1400256,-0.194596,145.6530184,81.2487612,158.7965454,134.79027790718516,0.7057669544683712,44.82028762180981,0.974112675726992,112.4065408,126.3626194,276.728836
1658.828,-16.374617399999998,-116.1284548,32.2458884,0.5703342,0.270221,0.3633826,33.7113388,-47.4483476,-119.0165802,38.3717224,30.573130400000004,0.3968454000000001,-0.9286672,0.1345036,-0.2069164,148.3155428,80.6640336,160.71743759999998,121.62953353498187,0.7282495468679675,49.06386520311631,0.9608997779986006,114.604204,128.1123812,279.7340178
1678.814,-15.861755399999998,-103.596686,25.9031862,0.6194453999999999,0.268805,0.3316148,34.226838599999994,-49.491857200000005,-120.1191696,37.0278006,38.37276,2.6613028,-0.9296906,0.1295607999999999,-0.2101256,150.9566866,79.91579440000001,162.6476012,107.95760135286396,0.7522879150865046,53.39109719685716,0.9619061182882456,116.729848,129.4076516,282.7667708
1698.8,-12.5195508,-90.519851,20.2592856,0.6700609999999999,0.250774,0.3008087999999999,34.809380999999995,-51.2437958,-121.1981094,34.826914800000004,43.494361,4.9445174000000005,-0.9104136,0.1179854,-0.2138878,153.36533219999998,79.04996779999999,164.3896454,93.60032708446242,0.77611550490532,55.938552766439024,0.9426141674444322,118.5559512,130.2937636,285.5877548
1718.786,-7.598574200000002,-76.6640396,15.8207152,0.7209082,0.2557702,0.2745125999999999,35.4477668,-52.7023514,-122.2006638,31.2988562,42.566162000000006,7.4728064,-0.896279,0.1116352,-0.2158884,155.2136324,78.1776472,165.6362304,78.6473669432282,0.8127017876158757,53.36046647407052,0.9286475461522526,119.7658656,130.8799986,287.8368942
1758.757,-6.212130999999999,-58.696048,10.5734582,0.7643408,0.2530721999999999,0.2456671999999999,36.071157,-53.9036162,-123.1625564,27.332715200000003,36.5364856,7.721968599999999,-0.8941665999999999,0.1047182,-0.2173884,156.5607148,77.4178206,166.4544006,59.963444203002645,0.8417925932872776,46.27765010523659,0.9261519996314644,120.4895578,131.3214368,289.616957
1778.743,0.0279278000000005,-39.9187496,5.9300604,0.7913474,0.2453176,0.2355755999999999,36.6474502,-54.7389952,-123.9045502,20.1057214,26.081119,6.373915800000001,-0.8997376000000001,0.1007803999999999,-0.2197416,157.4093048,76.8454268,166.8726868,40.356820562789146,0.8613404063852339,33.54238518549432,0.931649509551999,120.7618546,131.584422,290.777237
1798.729,6.085315800000001,-20.923476,2.0101068,0.801511,0.2550282,0.2401905999999999,37.1512642,-55.232798,-124.3973344,11.9586074,15.520523999999998,4.863668800000001,-0.8946500000000001,0.0944854,-0.2249594,157.8070618,76.4810866,166.99624939999998,21.882948742244768,0.8747289810247515,20.1878733495632,0.927325641272536,120.6557976,131.71388459999997,291.3935838
1818.715,8.442642000000001,-1.9621502000000024,-1.9130096,0.7968794000000001,0.2697586,0.2447461999999999,37.4925338,-55.390435,-124.6255342,3.6815974,6.2933332,2.4249944,-0.8973418000000001,0.0982226,-0.2272991999999999,157.8936248,76.30722799999998,166.9712768,8.876251634401552,0.876177597769288,7.683801144091404,0.9308785696849188,120.401091,131.69766299999998,291.596811
1838.701,10.154092600000002,16.8519358,-6.140390200000001,0.7823985999999999,0.267727,0.2469313999999999,37.654589,-55.20926060000001,-124.5879106,-3.9236172,0.6175037999999999,-0.4927564,-0.90015,0.1001212,-0.229002,157.8686552,76.2613128,166.9881318,20.610621740863436,0.8630182107678377,4.002360771456171,0.9342035073759036,120.2140662,131.47057339999998,291.5760424
1858.687,14.3044288,32.3139354,-8.9397942,0.7649826000000001,0.270409,0.2641882,37.6297926,-54.6389252,-124.1887056,-11.574193,-2.3563072,-2.7603198,-0.8955259999999999,0.0998606,-0.2351342,157.77872000000002,76.2839506,167.0950532,36.4517081172885,0.8532964377067328,12.12985954660205,0.93125026073446,120.1489274,130.9228758,291.2837588
1878.673,14.987292399999998,47.105648,-12.1135792,0.7449056,0.2764651999999999,0.2840064,37.4577146,-53.8012604,-123.5841798,-16.763003,-2.8157398,-4.6890872,-0.8881576000000001,0.0982006,-0.2426884,157.7145294,76.344992,167.3736696,50.89498804418441,0.8437872924874846,17.632759255672863,0.9259400303327858,120.2568148,130.1462524,290.9578494
1898.659,15.024662799999998,61.053755,-15.8004858,0.7239098,0.2778846,0.2932099999999999,37.1599058,-52.693006,-122.8141664,-21.2706984,-4.888958199999999,-5.722698800000001,-0.8891924,0.1017851999999999,-0.239337,157.5614592,76.45284260000001,167.65411999999998,64.83021551228818,0.8289978006926194,22.563107149961223,0.9264478132770352,120.40155339999998,129.1458486,290.4682864
1918.645,15.172734,74.46569339999999,-19.8125668,0.7099553999999999,0.2765914,0.3016118,36.7676008,-51.310961,-121.9117066,-25.2224108,-6.7739752,-5.964951000000001,-0.8888916,0.1079328,-0.2317574,157.2657622,76.5991348,167.8701234,78.5359099634175,0.8194566190118668,26.788754861071325,0.9249266232091928,120.4981614,127.9100958,289.78183
1938.63,15.208057399999998,87.90163559999999,-23.810293,0.698468,0.2772388,0.3150141999999999,36.3021452,-49.656514400000006,-120.8982972,-29.7316334,-9.1872248,-5.898163800000001,-0.8939816,0.1069402,-0.2284832,156.79398500000002,76.7906982,167.9975526,92.330453284833,0.8148330169127168,31.672755806360787,0.9288939014746732,120.49183979999998,126.4472126,288.8958498
1958.616,14.724704400000002,100.940361,-28.6701128,0.676108,0.2874614,0.3361097999999999,35.8017898,-47.72227,-119.8265976,-34.833778,-11.6742032,-4.858368400000001,-0.9050044,0.1056572,-0.2226176,156.0494262,77.0225236,167.9494142,105.96107193890796,0.807914526302133,37.05783120500029,0.9379525594404868,120.2476364,124.7447936,287.7760118
1978.602,12.0173148,112.52424,-33.647283,0.645189,0.306037,0.3576845999999999,35.270604,-45.5297224,-118.746115,-39.5006676,-13.8347614,-1.6600898000000002,-0.9379296,0.1074498,-0.1982712,154.83718860000002,77.279245,167.5184784,118.060408672264,0.7986649886949847,41.886265791840216,0.964659972646134,119.56658459999998,122.8089674,286.2645934
1998.588,9.5023888,122.8107726,-38.767972,0.6177234,0.3044045999999999,0.3721078,34.7243294,-43.098462600000005,-117.6798598,-42.8305596,-13.3003212,2.7315256000000003,-0.9453372,0.1058737999999999,-0.1802909999999999,153.1899016,77.490535,166.71067499999998,129.13456900655245,0.7827570339700308,44.931243158583726,0.9681820737398932,118.4655722,120.5889976,284.39053479999995
2018.574,13.053007400000002,133.0211594,-43.2697272,0.5869676,0.3056418,0.3901503999999999,34.287782400000005,-40.4408272,-116.624385,-46.4042374,-13.2105962,8.678102800000001,-0.943262,0.1005997999999999,-0.1778928,151.0083068,77.63583220000001,165.4278656,140.4894271547403,0.7682221084928238,49.02226605168698,0.965147330046496,116.7205244,118.0766594,282.05225060000004
2038.56,17.6971978,142.54663699999998,-47.8727622,0.536455,0.331222,0.440493,34.0002222,-37.5579892,-115.5936034,-46.8546432,-12.4562896,15.3143864,-0.9717004,0.098891,-0.1680254,148.33686819999997,77.69482719999999,163.6523804,151.40850666537807,0.7691073158916122,50.843359161318986,0.991066916149621,114.336646,115.2528164,279.24598380000003
2058.546,15.496858800000002,149.666449,-52.3694648,0.4884334,0.3610036,0.4785617999999999,33.746644,-34.500927,-114.6163314,-44.7515876,-10.803811,19.8853112,-1.0108338,0.0931874,-0.134771,145.43475039999998,77.6741942,161.59779980000002,159.3196768524691,0.7732478140077474,50.14830531897404,1.0240273849766908,111.6881064,112.1751212,276.2141312
2078.532,16.127865399999997,155.40026559999998,-57.1579818,0.4442382,0.3411122,0.4859535999999999,33.5683518,-31.291362400000004,-113.6964326,-40.9665332,-9.9393408,23.7615426,-0.9904546,0.0938528,-0.1363652,142.3914246,77.569075,159.3194186,166.36221167789333,0.7415227661245742,48.39068344936721,1.004193273478786,108.8230728,108.8604374,273.0158512
2098.517,25.046614,162.1631472,-60.5214362,0.3947304,0.3577365999999999,0.5121969999999999,33.620751199999994,-27.9263088,-112.7895158,-35.2104198,-10.2381,26.4602202,-0.9971412,0.1023528,-0.1412314,139.3101564,77.40578919999999,156.8824282,174.891576190463,0.7390083426272804,45.21875282595397,1.012281075962225,105.68940519999998,105.332098,269.67194400000005
2118.503,26.963515399999995,168.1018708,-64.393579,0.3233604,0.4086947999999999,0.5808538000000001,33.7735428,-24.4124428,-111.9029526,-28.640107,-7.058493599999999,24.7789462,-1.0420294,0.1126792,-0.1216324,136.6936708,77.209845,154.7875674,182.02143595086588,0.7803746054361586,38.52368408726227,1.055138054145883,102.920128,101.6222878,266.69052
2138.489,19.9772178,171.1128418,-68.3393232,0.2686005999999999,0.4214382,0.5981138,33.857376800000004,-20.8042352,-111.0679534,-24.752868,-4.285350599999999,19.726922,-1.052135,0.1110589999999999,-0.0929324,134.6809358,77.0385422,153.2321138,185.33471600144028,0.7794206543901951,31.940885328751115,1.0620539490420249,100.823559,97.8427774,264.3000672
2158.475,18.6221544,174.7941284,-71.6574384,0.2079594,0.4186402,0.6007014,33.975643000000005,-17.091663,-110.2617934,-23.061562,-0.5153839999999992,15.550002999999998,-1.019337,0.1064578,-0.1081924,133.26159360000003,76.8708786,152.2487794,189.8277125070597,0.7611497231598787,27.819127517722567,1.0305759448811136,99.2859506,93.9625416,262.5105728
2178.461,21.8491066,179.6641448,-73.39046599999999,0.142224,0.4553068,0.6547014000000001,34.200978,-13.2685184,-109.4343474,-18.314411,4.504355400000001,10.1506104,-1.0454602,0.1070581999999999,-0.1006858,132.5849304,76.71173999999999,151.9302826,195.30168684788845,0.8100406603771197,21.41825761678616,1.0557396072388874,98.3839524,89.9802584,261.36463000000003
2198.447,19.0861464,182.052667,-76.001666,0.0616194,0.46158,0.7092644,34.42498020000001,-9.3790606,-108.6193496,-13.511257,8.502295200000002,3.9165538,-1.0600302,0.084692,-0.0864654,132.62783799999997,76.5954344,152.251706,198.20118006962187,0.8484745346583596,16.4372285698133,1.066917534382672,98.2028578,85.974495,260.8710556
2218.433,18.4859784,182.9348326,-76.7815672,-0.0071417999999999,0.4695598,0.6973581999999999,34.691229199999995,-5.4684142,-107.8002152,-5.942399,6.633927000000002,-0.5386713999999999,-1.0255199999999998,0.0647656,-0.0883284,132.9942016,76.5737714,152.748227,199.25434358498535,0.8407412623337336,8.922514230513055,1.031352393505692,98.3029724,82.04218560000001,260.5484422
2238.419,23.5172818,185.2212248,-78.6720626,-0.080394,0.4791093999999999,0.6985812,35.1105826,-1.5014308,-106.9678498,5.773318400000001,1.1917166000000008,-4.5503368,-1.010863,0.0722436,-0.103952,133.5043486,76.67902360000001,153.15136420000002,202.60616499359307,0.850896412848121,7.446942916118558,1.0187586371726918,98.393766,78.1804544,260.119214
2258.405,29.500052000000004,187.3753416,-80.512735,-0.174388,0.5264824,0.7207786,35.7023192,2.5054982,-106.1051958,16.1379278,-9.809185199999998,-9.6207518,-1.0288564,0.090817,-0.071183,133.80039979999998,76.99704119999998,153.123706,206.0632723337655,0.9094595550499868,21.194614720799127,1.0353068331653954,98.0980806,74.491543,259.2289018
2278.39,29.6129328,186.798059,-83.7029938,-0.267544,0.508239,0.730089,36.3575468,6.5208856,-105.25547960000002,18.998482000000003,-16.7925132,-12.988227599999998,-1.0080686,0.1274514,-0.0574539999999999,133.8847076,77.44701380000001,152.8213744,206.82512373081667,0.9289330551649024,28.489030767400635,1.0177166225349374,97.5271608,70.9261282,258.076854
2298.376,33.2139682,186.3192596,-85.6887786,-0.3501462,0.5593904000000001,0.7177992000000001,37.1469182,10.5416824,-104.3861284,20.7742728,-28.3830342,-18.2677816,-1.0110564,0.1444488,-0.0740182,133.53515940000003,78.1230042,152.0390624,207.7512959272279,0.9750670092394882,39.63431449328332,1.0240015594390663,96.3882412,67.5813218,256.4251908
2318.362,31.1527172,185.9117126,-89.897798,-0.4507991999999999,0.5789778,0.7236378,37.9580022,14.5912686,-103.521074,19.0035198,-42.0179046,-22.7347782,-1.036575,0.1386338,-0.0337978,132.250789,79.0381654,150.34423199999998,208.84269380578525,1.030575992929352,51.41505821806378,1.046350492145094,94.2927868,64.44689679999999,253.865306
2338.348,27.254653799999996,183.870642,-91.5900084,-0.5739158,0.6021454,0.7236142,38.756822,18.611043,-102.6357484,17.0589724,-50.8222634,-22.0483494,-1.0047398,0.1919566,-0.0284726,129.7250948,80.0329956,147.4355192,207.21959072916368,1.1025316043871214,57.96585812103036,1.0233084046065293,90.9682728,61.4219526,250.0712676
2358.334,26.778502600000003,179.1330504,-93.0581388,-0.6670027999999999,0.5669106,0.7220702,39.601885800000005,22.5635942,-101.7584688,13.716708399999998,-50.0541978,-21.5529854,-0.9866416,0.1973242,-0.090264,126.7444322,80.99447620000001,144.13884579999998,203.6309287510795,1.1347536020336044,56.19699268096799,1.0102208057905957,87.1425464,58.430882,245.8973146
2378.32,31.6897928,174.9857084,-93.9240294,-0.7320918000000001,0.6149534,0.7131833999999999,40.604727,26.4558388,-100.8567934,8.420176799999998,-58.5251566,-20.8378144,-1.0257558,0.151323,-0.1006038,121.9980318,82.0088804,139.1716432,201.1118206637512,1.1927936325426791,62.69216730474892,1.0417268049431578,81.3933048,55.55304160000001,240.0284366
2398.305,25.2654924,169.62308339999998,-95.3934708,-0.8240974,0.6274674,0.7212978,41.533528,30.2776582,-99.9535004,7.0362372,-60.4133242,-16.9179384,-1.0115545999999995,0.1448596,-0.0499098,115.347867,82.89559299999999,132.3253816,196.24028587323315,1.2621895178753308,63.13077707849924,1.023092371503844,73.814339,52.61793479999999,232.278882
2418.291,21.380344,160.74106139999998,-94.0761032,-0.9124148,0.6009884,0.6966938,42.4241416,33.937949200000006,-99.0581436,9.4505202,-50.0177406,-13.410306,-0.9502404,0.1853204,-0.119317,108.8512238,83.55674259999999,125.593561,187.47032064530623,1.2957893637285498,52.63955749997459,0.9754675878456034,66.4270822,49.6187934,224.6517046
2438.277,24.5855994,149.9990006,-91.2272292,-0.9678938,0.5868392,0.6624442,43.4132666,37.3889832,-98.1752412,4.184657199999999,-39.4240774,-11.038324200000002,-0.9497378,0.1364034,-0.1569728,103.0093368,84.0298856,119.6333652,177.27537681913248,1.3114995130951137,41.15353977323225,0.972238775312032,59.59607020000001,46.6409024,217.8086064
2458.263,25.3759124,139.6734132,-87.2187866,-0.996246,0.5848249999999999,0.6744354,44.460675,40.6235734,-97.2831344,3.161281,-33.20066680000001,-3.1214135999999995,-0.9704391999999998,0.1258836,-0.1321848,97.668051,84.2769544,114.1983188,166.61247258547826,1.3376806352467543,33.496584846635464,0.9874572107168188,53.207376,43.65338100000001,211.4814532
2478.249,18.2376976,127.6735384,-82.304428,-1.0313106,0.5828331999999999,0.6603812,45.38759,43.602324,-96.402072,9.2070512,-22.0470752,-1.4564297999999996,-0.958438,0.1241512,-0.1243905999999999,93.916423,84.3885436,110.242287,152.9940027900849,1.3562446025728692,23.936676971463783,0.974417744950183,48.528833000000006,40.7862196,206.644359
2498.235,17.57148,114.1800584,-75.9461272,-1.0384924000000002,0.5394278,0.6114474000000001,46.293410400000006,46.2944588,-95.566838,12.7746352,-8.263276399999999,-0.4742985999999997,-0.934365,0.1415498,-0.1716997999999999,92.7989012,84.4130568,108.860834,138.2521496480123,1.320347204047996,15.221629364750603,0.960497329733446,46.5054908,38.118598000000006,204.427672
2518.221,21.5600826,102.5584762,-68.9822394,-1.00701,0.5449594,0.5982382,47.2976608,48.7142722,-94.7318436,10.2163086,-1.5026408,1.906374,-0.9750952,0.1193006,-0.1461218,93.0119964,84.372763,108.866324,125.46564292595684,1.291874154740933,10.500721528168176,0.9931741351135964,45.7143356,35.6584908,203.5981676
2538.207,19.8705288,93.1902694,-63.4757492,-0.9619392,0.5439176,0.6009874,48.2889382,50.9076942,-93.8910492,11.442214,4.012615800000001,2.9003602,-1.0172996,0.1073402,-0.0988207999999999,94.3310486,84.3025894,109.9578278,114.49207379612577,1.2579186122500772,12.46745507591464,1.0277090761537722,46.0421104,33.39489519999999,203.848877
2558.193,15.3304164,84.53725879999999,-58.13168800000001,-0.9356368,0.5559482,0.579406,49.2155502,52.890789600000005,-93.0351106,11.926622,6.5470136,-2.2220726,-1.0306272,0.094212,-0.0606108,96.0253038,84.3407502,111.4184326,103.73457929805716,1.232966315611858,13.785692077264011,1.0366976393338996,46.80975360000001,31.4499606,204.4535432
2578.179,13.2375572,77.4591856,-52.182719600000006,-0.9147112,0.5469768,0.5314182,50.1550102,54.6683034,-92.1399324,10.421874399999998,9.431465,-3.996257,-1.0089806,0.1055004,-0.0432871999999999,98.243866,84.40319980000001,113.4370436,94.33024212462692,1.1909179243066752,14.612941800529054,1.0154043368335397,48.088855800000005,29.734896400000004,205.576976
2598.165,12.3672514,72.88795300000001,-46.3333482,-0.8823332,0.5429028,0.5016708,51.1782386,56.27097,-91.1338534,5.2865258,8.631513,-5.694114000000001,-1.0350602,0.0745086,-0.0148095999999999,100.3075272,84.5100128,115.4031936,87.24896420670825,1.1510555667050657,11.61349671495328,1.037844146946043,49.12928860000001,28.2390428,206.537047
2618.15,10.850966199999998,70.069464,-41.8203028,-0.8634762,0.5335774,0.4769237999999999,52.2841864,57.744978200000006,-90.0162248,4.2703086,4.4495476,-9.5671396,-1.0473762,0.0521416,0.0180168,101.522499,84.7198364,116.53878020000002,82.31895880661105,1.1214955643084996,11.38262577394987,1.0488280392224647,49.2383126,26.9748582,206.555005
2638.136,11.1635378,67.81374819999999,-38.2425166,-0.8685,0.5256017999999999,0.4532999999999999,53.508675200000006,59.1183668,-88.78802499999999,6.3413694,-1.0344888000000003,-13.0403508,-1.0521470000000002,0.0413614,0.0374472,101.6147688,85.024112,116.506749,78.64997836647069,1.111769037238958,14.537327193526409,1.053625345085624,48.1060936,25.9057452,205.294774
2658.122,12.980432400000002,65.9588044,-35.0579424,-0.8812317999999999,0.5154432,0.3984333999999999,54.8848204,60.397254,-87.446985,10.4397682,-6.917399400000001,-14.5367802,-1.0409288,0.0461658,0.0412346,100.3160734,85.3702378,114.9980758,75.81632296867309,1.0959016160189927,19.18742174217171,1.0427676347088262,45.431253000000005,24.9729838,202.4450608
2678.108,14.504603800000002,64.4649056,-32.3465028,-0.8961488,0.4950412,0.3673016,56.4175986,61.604837,-85.9813844,15.1461008,-12.950706,-16.341450400000003,-1.0439352,0.0349492,0.042949,97.311386,85.7645386,111.6857192,73.56904123884104,1.087685123002719,25.771460116141206,1.0454026807793635,40.8937874,24.1597016,197.6671036
2698.094,16.6825502,62.727250000000005,-30.3283608,-0.9129244,0.4808855999999999,0.341526,58.1016616,62.74541839999999,-84.4163194,20.3150916,-18.5144314,-16.795038,-1.0360354,0.0397344,0.0478148,92.3985686,86.15459,106.3594146,71.64373554298378,1.0868863459804434,32.21118467556169,1.0378990450402967,34.296907,23.4091716,190.775734
2718.083,18.9954906,60.07281880000001,-28.5103596,-0.9311512,0.4612218,0.3112722,59.907991,63.81460400000001,-82.786815,24.4053836,-21.6059006,-15.164075000000002,-1.027403,0.05767,0.0406588,86.05836940000002,86.4643326,99.5228484,69.15499133275655,1.0847389034000394,35.94978247508397,1.029823233048488,26.150378400000005,22.6497286,182.3096634
2738.066,20.4510964,56.6877738,-26.269446800000004,-0.942181,0.444252,0.2794622,61.801654000000006,64.7954658,-81.1112276,25.454142,-23.5213002,-14.915990400000002,-1.0131574,0.072658,0.0349426,78.6088036,86.70401159999999,91.5553786,65.7406638051373,1.07850081014983,37.73130898428487,1.016360215392909,16.807149600000002,21.9085458,172.66660620000002
2758.051,21.5118332,52.9261374,-24.5127428,-0.9476596,0.4204879999999999,0.2452328,63.742037200000006,65.6968444,-79.4236574,23.6015918,-23.8634084,-15.363037600000002,-0.9998558,0.0777076,0.0304364,70.3597062,86.86957240000001,82.8253632,62.16759241990358,1.0653675430629563,36.912332901864,1.0033326797908857,6.617669000000002,21.172728,162.2490206
2778.037,24.6565006,48.7724814,-22.7770124,-0.9576524,0.4062343999999999,0.2241407999999999,65.7351028,66.5114958,-77.7589434,20.9076186,-22.7493462,-12.401943,-0.9966544,0.077903,0.0272772,62.26137080000001,86.90702959999999,74.3001924,59.20718079440111,1.064125746889793,33.29368496015076,1.000066455835911,-3.4737319999999983,20.395533800000003,152.0591358
2798.023,25.7920796,44.137908800000005,-21.342872,-0.9648652,0.3898834,0.2136966,67.6802704,67.2438262,-76.1768846,19.4160952,-21.0636456,-10.698749600000005,-0.9961966,0.0799938,0.025821,54.8702308,86.8632476,66.5117302,55.39769443341698,1.0623747722052514,30.57981624832567,0.9997366642926524,-12.8100396,19.6194214,142.6886148
2818.009,25.7871782,38.5444354,-19.8166276,-0.9761812,0.3734928,0.1934229999999999,69.5003234,67.893695,-74.73501300000001,18.0749952,-17.2046136,-9.000655600000002,-0.9856142,0.0881424,0.0206084,49.042918400000005,86.797145,60.3142982,50.43164472095283,1.062938880563826,26.527645614248154,0.9897621633857095,-20.457405,18.90345,135.0493112
2837.995,26.7851628,31.0406942,-17.2561266,-0.9947714,0.364316,0.1794632,71.10583940000001,68.4338774,-73.5483354,16.3235702,-11.1478866,-6.225665400000002,-0.9763694,0.096107,-0.0091277999999999,45.5102584,86.75121440000001,56.4484496,44.4830703512656,1.0744781646307195,20.72421842660284,0.9811305098906056,-25.595581,18.317337,129.996785
2857.981,25.6328468,21.4890872,-14.0468362,-1.0104129999999998,0.3632288,0.1623356,72.3442502,68.84389639999999,-72.7329454,14.2475232,-3.2659294,-0.3223876000000015,-0.9654254,0.1168044,-0.0345849999999999,45.3004706,86.7097914,55.950588800000006,36.27860679506732,1.0859200885635183,14.620606893865808,0.9730804658657576,-27.0437796,17.865895000000002,128.6835342
2877.967,23.5482144,10.507368,-10.4623564,-1.018196,0.3686634,0.1757852,73.0701124,69.10839539999999,-72.4154618,11.4493436,5.2949248,4.087935799999999,-0.9709292,0.1384314,-0.0524122,48.3279022,86.69927200000001,58.749601600000005,27.82775745827199,1.097057990014475,13.260275887531062,0.9821475462614768,-24.7422102,17.5908766,131.16506339999998
2897.953,20.6943702,-1.2775513999999994,-6.2387234,-1.0222194,0.3968306,0.2008353999999999,73.26114479999998,69.2188994,-72.61511240000002,5.7230382,12.5518046,8.226028399999999,-0.9844078,0.1447276,-0.0544969999999999,53.8744728,86.69680919999999,64.1859916,21.652038361687744,1.1147833353283856,16.061398077155268,0.9964811678660064,-19.386672,17.4779098,136.80110399999998
2917.939,15.715049,-12.7447186,-1.5072756000000005,-1.0128236,0.4279106,0.2367549999999999,72.8751342,69.1652038,-73.32531300000001,-0.9021477999999998,16.6445628,10.9424438,-1.0064098,0.1274446,-0.0394031999999999,60.5500946,86.679048,70.8869224,20.28946763717428,1.1247097653769704,19.93971960114653,1.0152120092746342,-12.325039600000002,17.5138442,144.2122354
2937.924,8.089273799999997,-22.7145408,3.0629112,-0.9977668,0.4548954,0.2595615999999999,71.9351364,68.95091399999998,-74.464853,-8.2017494,18.1908264,10.950568,-1.0063352,0.1183988,-0.0331889999999999,68.4195626,86.62153459999999,79.005835,24.305722358846207,1.1268720585399037,22.76158601367579,1.0138196685414425,-3.5155738,17.6706206,153.470688
2957.91,1.0592361999999995,-32.461643599999995,8.8905546,-0.9965724,0.4875286,0.3034194,70.5110536,68.54561319999999,-75.97206120000001,-15.917945800000002,17.8534302,9.6079502,-1.0124548,0.1144584,-0.0244623999999999,75.6670814,86.52502580000001,86.65666819999998,33.673762005994995,1.1501756459585115,25.776708002452324,1.019197653248554,5.1560278,17.9794126,162.6287294
2977.896,-5.469768,-43.2512782,15.4173682,-0.996921,0.514078,0.3250186,68.67427219999999,67.92749479999999,-77.7876282,-23.9634612,16.1728756,9.1664568,-1.009993,0.1143352,-0.0161013999999999,81.6712722,86.366188,93.224791,46.24161188931448,1.1678033912739594,30.328753817511974,1.016571518925255,12.997,18.438693200000003,171.0124192
2997.882,-10.4461336,-54.918299000000005,22.7281028,-1.0049376,0.537264,0.3438723999999999,66.4876184,67.0570604,-79.8769272,-28.840189200000005,14.3733822,8.355167599999998,-1.0068726,0.1081102,-0.0188199999999999,86.5387208,86.1862898,98.7531678,60.34656518087685,1.1902942548258897,33.289029042361136,1.0128348534557845,20.0511024,19.129229400000007,178.630095
3017.868,-15.964667400000002,-67.7992202,30.5062448,-1.0213508,0.5601666,0.3713465999999999,63.9865296,65.8945482,-82.2024444,-30.2245968,13.41989,7.440178599999998,-0.9898532,0.107615,-0.0403603999999999,90.8794464,86.0008956,103.7818422,76.04101417470862,1.222637466196648,33.89654786161222,0.9965035412196988,26.8929168,20.106347400000008,185.9842866
3037.854,-21.264123,-82.4956564,39.258664,-1.040091,0.581284,0.419927,61.23097,64.3938998,-84.7187332,-29.6896596,13.9262832,8.542164199999998,-0.9831374,0.1114948,-0.0376607999999999,94.177652,85.78506000000002,107.6808656,93.80265961523098,1.2633364802244886,33.887841774746235,0.9901558329689524,32.946682,21.391160200000005,192.3995988
3057.84,-24.65874,-98.1218948,48.50936900000001,-1.0559614,0.5987014,0.462852,58.3571754,62.5201868,-87.3318862,-28.4165068,15.616307799999998,9.550533399999996,-0.9881222,0.1124478,-0.0368829999999999,97.4408434,85.528395,111.5212678,112.20124142944242,1.2991265598685602,33.80206526594643,0.9951835737926344,39.083668,23.00820820000001,198.853154
3077.826,-28.867501,-113.2599564,58.1856804,-1.0747202,0.6258736,0.5082214,55.482981800000005,60.2549036,-89.9078156,-27.8708456,18.0247876,8.864132999999999,-0.9924904,0.102682,-0.0306129999999999,100.8045396,85.2664688,115.453853,130.56310252642533,1.3435141468860534,34.354764681566984,0.998257453258006,45.32155780000001,25.011565200000003,205.36166860000003
3097.811,-36.4006748,-127.8798004,67.3396904,-1.08532,0.6376064,0.552064,52.6186552,57.6049592,-92.367508,-29.6529356,22.3342538,8.602918399999998,-0.9886864,0.1065262,-0.0327277999999999,104.6562302,84.967099,119.91383059999998,149.03988184176424,1.374494846777157,38.10676695152215,0.9949471029779624,52.03757499999999,27.3621398,212.2813386
3117.797,-40.6897956,-142.2436204,76.2206634,-1.084054,0.6416418,0.5954586000000001,49.8872504,54.5836908,-94.6454956,-32.0658948,27.1623158,8.443169,-1.0007612,0.0986798,-0.0276353999999999,108.9711518,84.6215362,124.8899368,166.4286530006332,1.393358610960294,42.86373889088723,1.0059942334261365,59.0839014,30.0378454,219.5354324
3137.783,-41.895085,-155.4154024,84.5743162,-1.0661854,0.6484844,0.627488,47.3983344,51.22479559999999,-96.6821534,-33.8463826,31.6091176,7.854056599999998,-1.0118022,0.0828702,-0.0136051999999999,113.474167,84.23439640000001,130.09487,181.8294816882255,1.3967907911926252,46.97233372563275,1.0152813715615587,66.07583259999998,33.0096008,226.7770234
3157.769,-44.8440094,-166.2731996,91.4402312,-1.0305430000000002,0.6559336,0.6618828000000001,45.1304434,47.5867608,-98.4536484,-34.373354,36.4095792,6.5139022,-1.0107752,0.0538922,-0.0072385999999999,118.21168819999998,83.8105118,135.5502608,194.9848147066796,1.38937273738684,50.4937208433044,1.0122367665155418,73.08124480000001,36.22375100000001,234.0039092
3177.755,-47.8295258,-175.691678,96.8057936,-0.984842,0.6425288,0.6892545999999999,43.0532782,43.720725400000006,-99.9846634,-32.0850712,39.8197846,5.811251799999999,-1.0103491999999998,0.0412664,-0.0106495999999999,122.9420532,83.33231800000001,140.9568266,206.21976367757367,1.363021983467105,51.46686008474259,1.011247662884696,79.888775,39.61159260000001,240.94149
3197.741,-44.3263748,-183.7738436,101.773204,-0.925615,0.6245958,0.70692,41.275479,39.6566194,-101.2879074,-27.8476692,41.0980996,4.871592799999999,-1.0218926,0.029736,-0.0095511999999999,127.37330619999996,82.824231,145.98181440000002,214.69848193886455,1.3215971125886437,49.8826511626353,1.0223697672819752,86.0978272,43.1676116,247.2697218
3217.727,-39.7337232,-189.7020632,106.1079696,-0.8568078,0.6195804,0.7151516000000001,39.7999532,35.4384652,-102.37623299999998,-24.4932866,40.8800614,3.841381599999999,-1.032289,0.0264222,-0.0041075999999999,131.34546959999997,82.3014238,150.4819518,220.96276327541148,1.2764957066859095,47.81063397544868,1.0326352621093278,91.5455164,46.8629586,252.8581848
3237.713,-38.3768134,-193.7127688,109.0572022,-0.7898213999999999,0.6134527999999999,0.7352176,38.517665,31.1126652,-103.2894608,-20.0265574,39.6589844,2.214231799999998,-1.0413564,0.0227498,-0.0110351999999999,134.92139579999997,81.78832259999999,154.49721979999998,225.5900927669306,1.2412441746391238,44.48371463130152,1.0416633241407895,96.4037308,50.6756574,257.7866806
3257.698,-33.568349600000005,-196.86326000000005,110.5395264,-0.7244154,0.584738,0.735845,37.4564934,26.700813,-104.0739382,-13.8798894,35.2138104,1.1687189999999985,-1.0466102,0.0248016,-0.0222827999999999,137.8700776,81.3260668,157.75888060000003,228.2563561643612,1.1866608885550074,37.86858429812688,1.0471411334115568,100.4135842,54.6252538,261.8328188
3277.684,-26.7882516,-198.6437836,111.9184312,-0.6621104,0.5822394,0.7473512,36.6349152,22.222816400000003,-104.74581,-6.3865536,30.5800064,1.2538553999999986,-1.0443746,0.0345124,-0.0357033999999999,140.2390656,80.9092944,160.28606259999998,229.5706828603724,1.1558229608560129,31.264948611405444,1.045554467089343,103.6041504,58.686478,265.03187260000004
3297.67,-24.8418542,-199.2817078,111.72326819999998,-0.6022460000000001,0.5708262,0.7499663999999999,35.934049200000004,17.715099199999997,-105.3403854,0.1135517999999997,23.9906742,1.264625599999999,-1.0435076,0.0421302,-0.0464255999999999,142.02502760000002,80.5800432,162.09320680000002,229.80949815242136,1.1184777137929034,24.02425067489108,1.0453891148013548,106.0909784,62.864944,267.4335922
3317.656,-20.7804736,-199.634845,110.4067216,-0.5532130000000001,0.5425364,0.7464242,35.3703538,13.1962454,-105.8942962,7.2702328,15.4890888,1.9252829999999983,-1.0345404,0.0693478,-0.0781105999999999,143.14911519999998,80.3527284,163.08575439999998,229.07541028158005,1.0758900757231662,17.218445674641202,1.0398000877232891,107.77876139999998,67.156483,268.9800506
3337.642,-11.315454,-200.1280852,108.9865616,-0.49433,0.5080026,0.743117,35.0404266,8.6708158,-106.4317992,13.216168,4.212648,3.9061673999999984,-1.04188,0.0851358,-0.0963007999999999,143.3325014,80.2663118,163.0044982,228.16082177805015,1.0269623489669717,14.41081689332533,1.0497789686035246,108.2920748,71.595496,269.4362974
3357.628,-6.720176,-199.5164704,107.8669312,-0.4263358,0.5185344,0.7517252,34.8484062,4.1660834,-106.9546186,16.510828800000002,-4.589429600000001,2.659264799999998,-1.0458278,0.0952984,-0.1056197999999999,143.0370668,80.32805959999999,162.371051,226.90803769996907,1.007834765554374,17.341915147779517,1.055458722284979,108.1886606,76.1619762,269.3256696
3377.614,-6.5782252,-198.5471254,105.0316742,-0.3465428,0.4941896,0.7554219999999999,34.7015106,-0.2918889999999997,-107.496031,17.9798038,-13.6949978,-0.5170532000000009,-1.0485745999999998,0.097025,-0.1024204,142.3854616,80.573961,161.3466828,224.7128982427137,0.9669424342038154,22.607380508146655,1.058022911248296,107.683951,80.86585,268.8427138
3397.6,-3.8734496,-197.5615084,102.1180786,-0.2776594,0.483081,0.7508476,34.6547936,-4.7014136,-108.067607,20.1236548,-21.5811004,-2.6596116000000007,-1.0469556,0.0928338,-0.1199517999999999,141.3870698,80.9611162,159.9268556,222.42674117570212,0.9350048734606252,29.627333846421244,1.0578858998573712,106.7322762,85.66252979999999,267.9944626
3417.586,-4.477678,-196.4162966,99.4617722,-0.2049278,0.4762908,0.7560534,34.6447204,-9.0621676,-108.67295519999998,22.176371,-23.676971400000003,-4.2457302000000015,-1.0422268,0.0747512,-0.125278,140.4344178,81.398575,158.5109682,220.20911720338813,0.9167688220206008,32.71722222831961,1.052387296494822,105.7896974,90.4607426,267.1839234
3437.571,-10.724002,-194.9786532,96.2345796,-0.1334566,0.4723588,0.7456927999999999,34.563639,-13.3631306,-109.3207076,23.6920544,-22.1755156,-6.9335902,-1.03554,0.0609384,-0.144627,139.90871280000002,81.8360108,157.4959658,217.6988142672592,0.8927436653333587,33.18345381180113,1.0473650506502308,105.3450738,95.1991414,266.8166734
3457.557,-14.4838304,-193.925821,92.7396774,-0.0597052,0.4332344,0.7347038,34.4659124,-17.6082766,-110.019693,26.229934,-19.975602,-6.4125434000000014,-1.0358616,0.0541648,-0.1455666,139.54375,82.2295746,156.592502,215.4475647526239,0.8550125320630336,33.58801610342063,1.047441031728832,105.0778376,99.8378512,266.61219500000004
3477.543,-14.381328,-192.5082184,90.41871799999998,0.0154453999999999,0.4198786,0.703331,34.4293676,-21.8045522,-110.753833,28.6145962,-14.5313282,-5.181040200000001,-1.0397264,0.0499118,-0.1597944,139.616562,82.51451420000001,156.08243720000002,213.17077968462092,0.8192747369961557,32.508426484516065,1.0531174791577431,105.1871944,104.3190664,266.83627020000006
3497.529,-16.8819238,-190.53904100000003,87.9825196,0.101728,0.3982488,0.6662008,34.405901799999995,-25.9269566,-111.526181,30.8585846,-7.2672284,-4.570645400000001,-1.02677,0.0569674,-0.1438096,140.2663668,82.6793914,156.1113526,210.54939860173687,0.7827989515872387,32.03054247910367,1.038355969123749,105.860465,108.606348,267.6375336
3517.515,-20.642144,-187.8358488,85.08346859999999,0.1930851999999999,0.3880402,0.625204,34.3815534,-29.960799400000003,-112.3459778,31.9766934,-1.3469072,-4.930150200000001,-1.024062,0.0716088,-0.1372421999999999,141.4742982,82.7502776,156.6823882,207.23802940662307,0.7607477458994407,32.38254870756123,1.0356960082680051,107.0927448,112.711077,269.028366
3537.501,-22.9372838,-184.7203856,81.2747756,0.27726,0.363375,0.5732424,34.3983046,-33.897432,-113.2331436,34.907039,4.6543282,-4.323249400000001,-1.0143362,0.0796482,-0.126116,143.152939,82.71486200000001,157.6706816,203.1091553651996,0.7331584735804122,35.4803414317765,1.0252448526326186,108.7546344,116.612294,270.9038252
3557.487,-23.617219400000003,-180.6247466,77.2373154,0.3509392,0.3535582,0.5141032,34.500942200000004,-37.7196598,-114.1974974,38.5636148,13.676570800000002,-4.257052200000001,-1.0039892,0.0872584,-0.1469793999999999,145.5962618,82.5103972,159.357614,197.8602411468788,0.7158657856987719,41.13785931139,1.0184357054382769,111.0953196,120.23005700000002,273.55511140000004
3577.472,-28.12513,-175.4677978,72.17359919999998,0.4171804,0.3362756,0.4530495999999999,34.6416374,-41.4028228,-115.2693632,43.276209,24.6887232,-3.5751326000000008,-0.9828462,0.1004034,-0.1578863999999999,148.5947602,82.08676599999998,161.5134094,191.80458655564215,0.7016941679675555,49.95142532266204,1.0004976816019917,113.9531228,123.4895888,276.7827726
3597.459,-31.5142684,-169.23386539999998,66.3979294,0.4814402,0.3105158,0.4003452,34.8472328,-44.9401884,-116.4555158,46.0256486,36.3639468,-1.980470200000001,-0.9720274,0.1134044,-0.1708062,151.8961548,81.4223892,163.92377919999998,184.5045672595124,0.6989141631049696,58.690878491780985,0.9934146074266073,117.048922,126.3625776,280.379295
3617.444,-30.151863799999997,-161.7350404,60.2271836,0.5445110000000001,0.2666592,0.3290516,35.2088074,-48.29179739999999,-117.7556866,47.589341000000005,44.6813202,0.2585303999999988,-0.9512084,0.1041224,-0.1833313999999999,155.1425446,80.573532,166.24996040000002,175.19894927821767,0.6898364396929174,65.27811723385513,0.974294255673449,119.9337372,128.8653294,284.005647
3637.43,-28.2344432,-151.60117799999998,54.8914346,0.6091022,0.2619118,0.2711826,35.7074272,-51.4134084,-119.1251736,46.9162064,48.6179328,1.5189071999999988,-0.9300804,0.1036842,-0.1967078,158.1653778,79.6303008,168.366626,163.68619534416388,0.7163402009986876,67.5806251213684,0.9562917558855352,122.4579506,131.04370920000002,287.49179960000004
3657.416,-31.553232,-139.0792176,48.7494478,0.6703772,0.2426574,0.2005004,36.2112282,-54.2539678,-120.5368726,43.5372132,43.6193356,2.888860799999999,-0.915532,0.102049,-0.1909701999999999,160.4853882,78.77101139999999,169.84246819999998,150.7154400805667,0.740600171789583,61.69668457971999,0.940788211402035,124.27416,133.02497920000002,290.3793408
3677.402,-29.0461104,-123.918982,42.4727286,0.7311474,0.2007793999999999,0.1392922,36.765464,-56.7646336,-121.9173354,36.8846056,30.4956212,3.5028297999999998,-0.9032076,0.0960812,-0.191113,161.9262392,78.15563060000001,170.56213979999998,134.1772085863116,0.7709028505408188,47.98673628461524,0.9281916528714316,125.1607752,134.9202642,292.4794752
3697.388,-19.6657956,-105.8303224,36.245741800000005,0.7801600000000001,0.1844404,0.0882445999999999,37.448938,-58.89335139999999,-123.1970368,29.3766676,14.0077782,2.801460999999999,-0.8898111999999999,0.08765,-0.2062821999999999,162.6766358,77.852147,170.73088980000003,113.58060773961894,0.8065079021195763,32.665802196116445,0.91760494777561,125.2276978,136.7454984,293.9279266
3717.374,-13.203600999999995,-84.819539,29.7633582,0.8029375999999999,0.1982492,0.0657531999999999,38.116777,-60.602738,-124.2839112,19.988621,-1.6898322,1.070470199999999,-0.8827829999999999,0.095045,-0.2082566,162.86084599999998,77.85644540000001,170.51441319999998,90.85453630326464,0.8296595796497741,20.08846457036689,0.9119814628365864,124.744069,138.4591834,294.7983244
3737.36,-7.170010799999998,-62.4518736,22.8668796,0.8128662,0.1780698,0.051512,38.6848006,-61.8704482,-125.1031404,9.5334748,-13.751800800000002,-0.6197026000000011,-0.8771846,0.097163,-0.2078136,162.626233,78.0999054,170.0836088,66.89200067021011,0.8337348492887171,16.744646855564394,0.9066862541095017,123.9414324,139.9703536,295.1867492
3757.346,5.0935862,-39.4914356,16.2425734,0.8130302,0.1608206,0.0616616,39.2092862,-62.693320400000005,-125.5861162,0.127993,-20.685043,-1.8229960000000007,-0.8596408,0.0941794,-0.2141282,162.11380300000002,78.47431179999998,169.5605316,43.0039451304199,0.8310737177958163,20.76561341583518,0.8909000788215478,122.9045168,141.1676322,295.1466478
3777.332,17.2410796,-17.3153438,10.1361978,0.7940932,0.17568,0.0993872,39.657321,-63.10058300000001,-125.7041368,-7.1294978,-22.093288800000003,-2.698326200000001,-0.8510998000000001,0.088159,-0.2194259999999999,161.4988982,78.87301620000001,169.0801056,26.45408215241004,0.819344425873564,23.37143797805383,0.8833406185141948,121.8415772,141.9735992,294.7842424
3797.317,21.330943,3.1918898,4.7244938,0.7716215999999999,0.1969956,0.1373,39.8744384,-63.127949,-125.464969,-12.4096358,-19.2179792,-4.0444072,-0.8468676,0.0854782,-0.2224191999999999,160.9986786,79.21939540000001,168.8236756,22.07981275805643,0.8081203190156276,23.231164732309185,0.8797508483278889,121.1242402,142.34734440000005,294.2886446
3817.303,23.961603000000004,21.6702194,-0.1811181999999998,0.7620262,0.1883098,0.1736898,39.8397934,-62.81986860000001,-124.8826402,-16.183562000000002,-14.34377,-5.600052400000001,-0.8445418,0.0793268,-0.2298674,160.7646454,79.47639919999999,168.913791,32.3077332998791,0.8039357293257465,22.338576581857,0.8788530108773821,120.92485200000002,142.2962678,293.79643120000003
3837.289,27.9052918,38.337611,-4.7518392,0.7544466,0.1910126,0.2129804,39.6217034,-62.203891,-124.0033098,-19.1902746,-10.092178800000005,-8.049398,-0.8466020000000001,0.0755198,-0.2339718,160.88393860000002,79.6641694,169.42364519999998,47.655615654538806,0.8068681034682682,23.128154278216385,0.8815786917747503,121.2622352,141.86806040000002,293.426955
3857.275,28.390736600000004,53.252495,-8.930639,0.7501348,0.2104856,0.2458202,39.2197092,-61.3117608,-122.8969454,-22.193238200000003,-6.961784,-11.070633400000002,-0.8672692,0.0738192,-0.2333801999999999,161.377118,79.8125642,170.3744478,61.00506914481718,0.8169663253197403,25.75975896901582,0.9011500747984876,122.15740879999998,141.124325,293.27139320000003
3877.261,25.3424566,67.131283,-13.476380999999998,0.7525294,0.2168462,0.2527054,38.627718400000006,-60.14117660000001,-121.6318788,-25.7561194,-5.879019,-13.3103562,-0.8841376000000001,0.0772328,-0.2226397999999999,162.0641906,79.96044320000001,171.5953248,73.01001375569061,0.8229111686615755,29.58219283826498,0.9150041976262404,123.4364722,140.10161980000004,293.22720360000005
3897.247,24.9630338,80.5175706,-18.4332472,0.7524084,0.2158507999999999,0.2633734,37.947198400000005,-58.6980102,-120.25893720000002,-30.8595122,-6.271524000000001,-14.3034372,-0.8975196000000001,0.0818448,-0.213855,162.73085020000002,80.1255128,172.89971020000002,86.29030556303665,0.8258786327776981,34.586555512783704,0.9262688404001294,124.7836518,138.823523,293.1586474
3917.233,24.678357,93.6993974,-24.0175302,0.7425402,0.2319836,0.2615117999999999,37.2458892,-56.9611268,-118.8445878,-38.0167938,-8.332318800000001,-13.5396816,-0.9181742,0.0875294,-0.1968834,163.0749634,80.33394940000001,174.02269600000002,99.82705111466774,0.8207135680761224,41.20712469034852,0.9431162868944424,125.8290742,137.29507619999998,292.8672838
3937.219,22.3346332,106.174341,-30.2282496,0.7302504,0.2367169999999999,0.27508,36.5343994,-54.9414812,-117.4456482,-45.0610722,-9.3886204,-9.8178266,-0.9469072,0.0927634,-0.1807914,162.8077454,80.5484634,174.6687928,112.63025171259596,0.815456676463661,47.06417044819314,0.9684646736486364,126.273346,135.4899446,292.114441
3957.205,20.3680882,118.1511338,-37.6827518,0.7068352,0.2458694,0.2841738,35.8710884,-52.6260522,-116.119696,-50.0213936,-11.0764278,-2.8916970000000006,-0.9818574,0.088013,-0.1540288,161.56085520000002,80.763774,174.4224304,125.67632719955212,0.8005139039528545,51.31460788152378,0.997755036736573,125.6897668,133.3898262,290.5421264
3977.19,19.433294,130.0717058,-45.448782,0.6695048,0.2586496,0.293678,35.2940636,-50.0171464,-114.8840592,-52.67519,-12.6833628,5.909486799999999,-0.9879912,0.0756456,-0.1443638,159.1716646,80.94336539999999,173.071875,139.14702063176097,0.7754889170627778,54.50197581456931,1.0013439842667653,123.877601,130.9605118,287.95593419999994
3997.176,18.0257418,141.9451952,-53.00233539999999,0.631325,0.2677348,0.3031358,34.7847108,-47.1120278,-113.72845,-51.95532539999999,-11.8900244,14.4397856,-0.998073,0.0614124,-0.1424228,155.9366364,81.03307939999999,170.84844660000002,152.58641278193963,0.7497629572055957,55.21988705010584,1.0100522017017737,121.1519256,128.14510719999998,284.57689659999994
4017.162,16.8504902,152.66813059999998,-60.300049,0.5913742,0.2626332,0.362409,34.35358659999999,-43.9402198,-112.6626344,-47.9915726,-10.2108342,22.5091044,-1.0341045999999998,0.055579,-0.1105381999999999,151.9835206,81.0220504,167.8176422,165.00785748042833,0.7416467659532265,53.982515285702085,1.041479737028714,117.629934,124.9622702,280.4802766
4037.148,18.3787056,162.3234864,-67.4364618,0.5424488,0.2795598,0.3905888,34.065820200000005,-40.5201362,-111.6975588,-41.3735386,-9.8478518,29.2501652,-1.0510556,0.0507956,-0.0798024,147.51981500000002,80.9203248,164.13484499999998,176.73247419952372,0.7245439897500496,51.617071261238216,1.0553039800533683,113.4539948,121.440461,275.8324038
4057.134,22.2912542,170.8664796,-73.9577408,0.477664,0.2964402,0.4158166,33.9541678,-36.8751098,-110.8124468,-36.12265359999999,-7.7180084,29.971764,-1.0127061999999998,0.0547576,-0.0895093999999999,143.30426619999997,80.7348314,160.5954498,187.51533614333044,0.6992446881511507,47.56806065039606,1.0181277792912635,109.3500984,117.6099412,271.4078966
4077.12,24.8913578,178.093747,-80.1878586,0.4129848,0.3187069999999999,0.4613253999999999,33.9823668,-33.020202600000005,-109.9978272,-30.7661934,-2.1526436000000007,28.265295400000003,-1.0315452,0.0675616,-0.0752968,139.8665984,80.45195939999999,157.73545840000003,196.89351203247207,0.6963847511004243,41.83442906081169,1.0364939351138722,105.8842316,113.472162,267.73328560000004
4097.106,26.86711,183.0425568,-85.4700502,0.3426403999999999,0.3299718,0.5530868,34.1321646,-29.0184486,-109.2500794,-27.8709128,1.1685361999999992,23.90604,-1.0703344,0.0781952,-0.0433024,137.2031982,80.1695864,155.6025116,203.79290635550555,0.7295127420694172,36.737610233077405,1.0740602008137905,103.0710336,109.188035,264.852591
4117.092,33.216344,185.7081726,-90.2357712,0.2722544,0.3556894,0.5771998,34.490274,-24.913499,-108.57224580000002,-23.5727026,4.627158,20.8512544,-1.045489,0.0628578,-0.0551857999999999,135.3532164,79.8601518,154.204654,209.12519045590005,0.7306141366766455,31.80971092415852,1.0488297405506195,100.8629424,104.7736508,262.7768998
4137.078,36.66898719999999,187.400534,-95.6154144,0.17502,0.4147895999999999,0.6131922000000001,34.9903336,-20.7189814,-107.9602936,-19.046278,11.430596,15.9279448,-1.0048454,0.0621652,-0.0675836,134.60154719999997,79.51587839999999,153.82955940000002,213.5553376449361,0.76071485249665,27.333471351446512,1.0090323745951664,99.6112136,100.2348598,261.78985300000005
4157.063,32.598264799999995,188.525711,-100.2735124,0.0884334,0.4428124,0.6466648,35.4552598,-16.4607086,-107.3897094,-14.607090199999998,17.869442199999998,12.449736199999998,-1.0305584,0.074633,-0.0692916,134.67359019999998,79.12687839999998,154.20270399999998,216.0077958432505,0.7887196278706141,26.22365306549923,1.0355781121335657,99.2183304,95.587587,261.59241340000005
4177.049,32.6190038,188.0833374,-102.35589,0.0094666,0.4479598,0.7238516,35.9622156,-12.2041742,-106.8337296,-11.9037072,15.4233752,7.305852799999999,-1.0452058000000002,0.0636264,-0.073277,135.0476776,78.8501558,154.8265138,216.60117597584448,0.8513041393968198,20.80755230195456,1.049701386995178,99.085462,91.05433,261.6602434
4197.035,36.09711119999999,186.1238282,-105.4401368,-0.0667108,0.496902,0.7304848,36.588217400000005,-7.950787200000001,-106.3200578,-4.307342,10.4544658,4.728584399999999,-1.013945,0.0625826,-0.0858482,135.4233276,78.68055419999999,155.296222,216.93940008493385,0.8859853110925034,12.255960211107777,1.0194954429966816,98.8351102,86.6313414,261.61627980000003
4217.021,32.1230374,184.7090882,-109.519777,-0.1665668,0.5490508000000001,0.7387630000000001,37.1790826,-3.6823264,-105.84944620000002,1.1490893999999998,6.223222599999998,1.8280816,-0.9986918,0.1031876,-0.082937,135.7204926,78.599878,155.577768,217.12650310270024,0.9353994066771052,6.58716845955845,1.0074281801448677,98.54141,82.2822044,261.4272142
4237.007,25.0740478,183.9262086,-111.182799,-0.2474812,0.5730814,0.7481746,37.6654404,0.5892760000000002,-105.3773468,3.9450978,-0.0304142000000013,1.0525368,-1.03272,0.1337014,-0.0924276,135.6358796,78.605565,155.4145904,216.37738531676968,0.9743892792229192,4.08320405937307,1.0454326970224912,97.9704392,78.016289,260.7919372
4256.993,26.070978000000004,180.9945254,-112.3232194,-0.3098912,0.5467418,0.7963214000000001,38.20300519999999,4.8247016,-104.922397,5.2610030000000005,-13.2441192,-2.8942054,-1.047403,0.1213616,-0.0932543999999999,134.9293884,78.8589998,154.5892822,214.6047989561936,1.0144392164159666,14.541707975585496,1.058526365039114,96.7263832,74.0342982,259.5116792
4276.979,32.9093372,178.0041444,-114.344725,-0.380002,0.5811995999999999,0.7474753999999999,38.9138992,9.03257,-104.488028,7.911925999999999,-24.1939888,-5.6333374,-1.0400802,0.0976216,-0.094273,133.55100720000002,79.2909898,153.0272674,214.11028941609737,1.0202519143080888,26.070714553809992,1.0488966573250198,94.637108,70.25841979999998,257.5152954
4296.965,33.94588280000001,177.216748,-116.1014266,-0.4626404,0.6155398,0.7337958,39.6898094,13.2501188,-104.0278426,10.6772176,-29.9333888,-7.450255200000001,-1.0164964,0.1046626,-0.0662172,131.6993714,79.806537,150.93175359999998,214.5638366298525,1.0636642615007048,32.642258550456376,1.0240136271688771,92.009562,66.5564182,254.9595962
4316.951,30.0432704,176.7164338,-115.6732268,-0.5389446,0.6340858,0.7312329999999999,40.4419572,17.4476254,-103.4989746,15.6407104,-32.4236488,-10.1058394,-1.0079486000000002,0.111602,-0.092247,129.90301359999998,80.3903536,148.79088140000002,213.3344591706683,1.107803134099105,37.39054443707663,1.018295092620484,89.4610564,62.9427282,252.289856
4336.936,31.291888600000004,173.204828,-114.324513,-0.617665,0.5976594000000001,0.740413,41.2748484,21.5665994,-102.9240768,16.125218200000003,-38.5570946,-13.6244986,-0.9893068,0.0959874,-0.0948614,127.69764560000002,81.0951738,146.226996,209.87898657881772,1.1344241804556,43.95792497482522,0.998468933264806,86.4227972,59.5285744,249.1510728
4356.922,37.7979502,168.683667,-113.7110654,-0.6981522,0.6080248,0.6802146,42.2770556,25.6028846,-102.3198058,18.5085568,-38.5476418,-11.640364000000002,-0.9861742,0.1001806,-0.0873984,124.9778748,81.7396394,143.100348,206.91319664606127,1.1488265986792958,44.31687530966538,0.9950950636419416,82.7008192,56.136754800000006,245.4201538
4376.921,39.2383386,164.4149414,-113.016319,-0.7813508,0.6408558,0.6851961999999999,43.3691844,29.5619246,-101.659854,23.2037922,-34.010503400000005,-10.707964999999998,-0.9700868,0.1229176,-0.0767686,122.225885,82.2881256,139.85325640000002,203.33373682683217,1.2209418747625622,42.54163640979761,0.9808519530846436,78.8567006,52.726201,241.5131104
4396.894,33.8432942,158.4373322,-111.6428128,-0.8597102,0.6437694,0.6743228,44.4116846,33.4067084,-100.960472,27.5292928,-27.4045184,-9.4071148,-0.965544,0.149628,-0.1289032,120.03881219999998,82.73097379999999,137.09113480000002,196.7533340171311,1.2681687218033095,39.967028907143565,0.9855352805913344,75.6271276,49.32426540000001,238.0516068
4416.88,35.413251200000005,149.5677642,-108.9464566,-0.9211258,0.6033912,0.6502636,45.5317888,37.0805294,-100.2390578,23.3935412,-25.335537800000004,-8.539299,-0.980499,0.1358642,-0.1266824,117.8736542,83.1280974,134.4350404,188.3983674399457,1.2788261919229054,35.52558054279659,0.9979407799626188,72.34186539999999,46.047568,234.6740982
4436.866,40.6477214,140.9108534,-105.675926,-0.9623632,0.6142196,0.5985936000000001,46.8170236,40.5878746,-99.4822174,21.5223572,-20.7310052,-6.5507536,-1.0110446,0.1093736,-0.116282,115.9610306,83.44637279999999,132.07276000000002,180.76367775879584,1.2890783310952674,30.5924632675228,1.0235698662475952,69.144007,42.85849820000001,231.5549774
4456.852,37.427746,134.36817000000002,-101.1781112,-0.9914038,0.6416198,0.6034934,48.1216104,43.9315078,-98.6268478,22.3848258,-15.727302600000002,-8.252283199999999,-0.9981674,0.1006468,-0.109022,114.721788,83.74407479999999,130.3727692,172.31555781701485,1.3261831495875824,28.57496546246932,1.0091351412258915,66.6001776,39.812567,228.999617
4476.838,29.3310492,126.671057,-96.5800904,-1.0083628,0.6157687999999999,0.580719,49.3388664,47.0819924,-97.7101532,23.198563,-9.9680672,-7.62595,-0.9823154,0.1210208,-0.1276605999999999,114.3226868,83.9644164,129.5018402,161.96783937048193,1.3165110362007149,26.37595121263278,0.9979412847969364,64.9838204,36.882424,227.2119934
4496.824,30.460575400000003,117.7309356,-90.0456422,-1.0085308,0.5693239999999999,0.5298932000000001,50.662367200000006,49.9978364,-96.705739,17.031717200000003,-9.2888096,-10.1781754,-1.0076928,0.0865174,-0.1035604,114.1646318,84.2284744,128.9963898,151.31634918329496,1.273597658183651,21.907912475610114,1.016688150871623,63.50226459999999,34.230638,225.7021288
4516.81,31.852953600000006,110.2600112,-83.66216299999999,-0.9998441999999998,0.5795627999999999,0.4981937999999999,52.1356742,52.6970636,-95.5879244,17.6460828,-8.7621234,-10.8120628,-1.0286028,0.065056,-0.070375,114.0594086,84.5108246,128.5327088,142.02548447622507,1.2584826283171011,22.47353436049673,1.0330579092813916,61.9237344,31.813761000000007,224.1206332
4536.795,29.3968834,104.2549254,-78.864911,-0.9887334,0.5694102,0.4684549999999999,53.6879752,55.2090694,-94.34014,22.7385796,-8.9889032,-13.4288076,-1.022228,0.0711168,-0.0501374,114.0337952,84.8434982,128.0485094,133.98858313614144,1.2333984754184677,27.895810734271983,1.0259246766234835,60.34581999999999,29.6344288,222.3886494
4556.781,27.39951180000001,97.7107162,-73.99067840000001,-0.9937472,0.5609846,0.4513876,55.320043,57.5342304,-92.9936374,26.6289628,-8.2164498,-14.0480132,-1.0040302,0.0891904,-0.0462432,114.1696046,85.1700684,127.64934399999996,125.5895608611142,1.22718702094618,31.20830629795661,1.0090441038480134,58.8495616,27.635838000000007,220.6429814
4576.767,24.5213208,91.1924576,-69.10285780000001,-0.9923048,0.5330204000000001,0.399319,57.01738339999999,59.6815914,-91.5310718,24.7483066,-8.3637812,-15.4404098,-1.0159372,0.0628534,-0.0427878,114.4570024,85.5388122,127.4394136,117.0152317137873,1.1950879577170042,30.34530886843983,1.0187785530056273,57.43961900000001,25.857220800000004,218.9704854
4596.753,20.743872400000004,85.359935,-63.9620688,-0.9970754,0.5155722,0.3678132,58.77319179999999,61.6512836,-89.95069140000001,26.033318,-8.5184198,-15.3640038,-1.0128954,0.0647526,-0.0382648,114.78942120000002,85.9057998,127.2485962,108.66357711085918,1.1812114953691568,31.40620535411068,1.01568409727974,56.01622940000001,24.254516200000005,217.1992876
4616.739,19.462725400000004,79.1771866,-59.5406644,-1.0050908,0.4935716,0.3416262,60.5962432,63.45487000000001,-88.2963106,27.2856778,-7.345821000000001,-14.9950552,-1.0082942,0.0870462,-0.0482126,115.4033206,86.2386322,127.3148956,100.95996867610674,1.1706959046215375,31.989388547149524,1.0131923260106346,54.8070774,22.7837622,215.61120620000003
4636.725,18.828603600000005,71.22115640000001,-54.4798642,-1.0207548,0.4990474,0.3414761999999999,62.4293204,65.067926,-86.6435074,25.3472214,-4.5384604,-13.404254599999998,-0.9961072,0.1141456,-0.0612564,116.4800462,86.49714060000001,127.8842636,91.62436922418422,1.186420947360691,29.030213517723343,1.0044954546597809,54.05072580000001,21.4292146,214.527771
4656.711,13.915342600000002,61.137237600000006,-46.997793,-1.0251367999999998,0.5634758,0.332663,64.1235244,66.4426498,-85.0580612,19.3012254,-2.56013,-11.8397472,-1.0141912,0.1013192,-0.044064,117.7534914,86.7197708,128.7721344,78.35937166609415,1.216172318164198,22.78752249189045,1.0201916518684515,53.629967,20.277121,213.8301956
4676.696,0.5866302000000019,50.971897600000005,-37.5195358,-1.0068826,0.6242146,0.3286576,65.48287280000001,67.5472426,-83.56560520000001,14.6192064,-3.3445766,-12.1069556,-1.0257109999999998,0.1015094,-0.0066108,118.5487764,86.9672944,129.2756408,63.29450249890522,1.229419478889805,19.27396592036626,1.030742895433192,53.0659036,19.420051800000003,212.841246
4696.682,-12.002835,42.169368,-28.0543552,-0.9749783999999998,0.6526974,0.3091975999999999,66.53023060000001,68.3951032,-82.15624700000001,11.301789,-5.8731680000000015,-10.2006198,-1.0369594,0.1000384,0.0243989999999999,117.6614122,87.2137864,128.16270300000002,52.05161372373018,1.213342462901171,16.318001754531622,1.0420593984624484,51.131181600000005,18.8186832,210.31895
4716.668,-23.7573752,35.040796400000005,-18.5400606,-0.9451681999999998,0.6497846,0.2925549999999999,67.3099776,68.9925612,-80.7935592,7.378735600000001,-8.017849800000002,-8.4900658,-1.0194098,0.1035176,0.0082104,113.7428224,87.485112,124.0623674,46.21692477644419,1.183702403779514,13.813503239888028,1.0246851440876656,46.4328448,18.4925508,204.8559266
4736.654,-35.814874399999994,29.255961000000003,-9.3119082,-0.9307061999999998,0.6174242000000001,0.2521358,67.8221816,69.3675568,-79.4668976,2.2190384,-8.461869600000002,-5.0255952,-1.0032136,0.110573,-0.02191,109.2711626,87.6959976,119.5118942,47.17338356156492,1.1449887052306322,10.088804471409968,1.0095266037375934,41.448981,18.328440800000003,198.9787918
4756.64,-42.8973662,24.3760632,-1.626444,-0.9377206,0.515413,0.1834324,68.13539720000001,69.5651474,-78.20456700000001,-3.7090478,-7.1721336,0.6493775999999997,-0.9990317999999998,0.1352544,-0.053689,104.8612108,87.7719376,115.1415772,49.36620102977778,1.085641713275204,8.100507837556579,1.0095745632946582,36.7258136,18.206790200000004,193.3461442
4776.626,-36.5473812,17.6261724,5.098275599999999,-0.9694308,0.4228187999999999,0.1484872,68.3855956,69.58984079999999,-77.1488526,-10.6710424,-4.0370430000000015,8.136563599999999,-0.9985456,0.1542342,-0.0817658,100.7546082,87.6508912,111.2145524,40.8948094523766,1.0679982500856076,14.01329830208762,1.0136898686376616,32.3690126,18.061050400000006,188.363405
4796.612,-28.4581016,8.178501800000001,10.5208018,-1.0091655999999998,0.3737064,0.1615733999999999,68.4179504,69.440993,-76.4950364,-18.4896214,1.5134601999999986,12.5964792,-0.9963988,0.1494866,-0.1119497999999999,98.4517564,87.3911744,109.248436,31.423537497923576,1.0881992672355,22.423825488269262,1.0137502502791502,30.03380600000001,17.9501814,185.74347240000003
4816.598,-23.595378,-3.445799,14.9816776,-1.0401626,0.3537519999999999,0.1828139999999999,68.04252019999998,69.1323382,-76.37294019999999,-27.2440576,5.631398799999999,14.9436068,-1.0025688,0.1246058,-0.0969294,99.2732666,87.028328,110.61652680000002,28.16142854014382,1.1137772086637254,31.579466606479688,1.0149217273816935,31.2307464,17.895989800000002,186.989467
4836.584,-19.100017599999997,-15.7415972,19.4482948,-1.0446736,0.3404645999999999,0.2112908,67.2376222,68.6499024,-76.7984194,-34.95204639999999,8.3963592,15.4717126,-1.0045046,0.0989452,-0.0755102,100.8258468,86.6446976,112.8703156,31.47768614995493,1.1188846573953724,39.134617490658776,1.0121864622332388,33.588224600000004,17.994795200000002,189.66873500000003
4856.569,-14.531592199999997,-27.377290800000004,24.1672928,-1.0343822,0.359894,0.25526,66.082898,67.97148899999999,-77.6854448,-39.5661196,9.8380096,14.7596362,-0.9984647999999998,0.083421,-0.0609867999999999,102.4050414,86.27490839999999,115.2438782,39.30319662184995,1.1245567546873034,43.36024808332567,1.003797992553422,36.3221434,18.3034194,192.929323
4876.555,-12.971529,-38.0610788,28.359202000000003,-1.0207766,0.3816914,0.3050732,64.6125176,67.10592799999999,-78.9376558,-42.9657778,11.5965648,13.4347562,-0.9920436,0.0754238,-0.0591758,104.1644638,85.9329604,117.86677240000002,49.20518897529462,1.1316990983913346,46.48689117668561,0.9966649533384024,39.5519462,18.8270324,196.8044282
4896.541,-12.389349199999998,-48.4518256,33.3601594,-1.0093,0.4138186,0.3402733999999999,62.93638000000001,66.032849,-80.4231508,-45.2482064,12.518539199999998,13.0540776,-0.9945546,0.073414,-0.0556042,105.793759,85.5958496,120.4061614,60.11635062747709,1.1426803185727494,48.72907702907741,0.9988094386992948,42.857379,19.5630006,200.8293122
4916.527,-12.162995,-58.935324,39.665329400000005,-1.006523,0.4559941999999999,0.372222,61.1489318,64.720471,-82.0425142,-43.8035362,13.374602599999998,12.3456906,-1.0036056,0.071675,-0.0542143999999999,107.4110274,85.2691728,122.9056196,72.07391496766014,1.1660053504365406,47.43464825128954,1.0076213113782977,46.2620956,20.548701800000003,204.9481338
4936.513,-12.3679438,-69.86497940000001,46.080661,-1.0101936,0.4917398,0.4016324,59.2906752,63.161025200000005,-83.7578308,-39.4269492,14.071144399999998,11.5581126,-1.0095602,0.0771788,-0.0419474,108.952777,84.951906,125.2435056,84.60206084132528,1.193150336342726,43.42892348216003,1.0133745353817805,49.6621018,21.790880800000004,209.0013364
4956.499,-11.541840399999998,-81.11065060000001,52.835128,-1.0165441999999998,0.5328986,0.4404516,57.4285132,61.3416312,-85.5334258,-35.73968000000001,15.3666014,10.3410862,-1.0119888,0.0758796,-0.0399916,110.64755839999998,84.6487474,127.662425,97.48693487514488,1.229365950552625,40.25413306586931,1.015617237492629,53.2190452,23.307116200000003,213.1958508
4976.484,-13.870216799999998,-92.1948654,59.6685408,-1.0199146,0.5664923999999999,0.4776884,55.556944,59.261611,-87.31044899999999,-30.91993620000001,16.1353492,9.3896184,-1.0106482,0.0752302,-0.0382826,112.4117108,84.3556002,130.055615,110.69151223740865,1.2606845910240514,36.11865005943093,1.0141671088228212,56.85476679999999,25.093989200000003,217.366064
4996.47,-16.574856399999998,-103.3656708,66.49567479999999,-1.0209503999999998,0.5915416,0.5120724,53.7096738,56.92080060000001,-89.0517392,-26.5230102,18.6312404,8.214068999999999,-1.003016,0.0832864,-0.0317042,114.9024198,83.9897966,133.17932580000002,124.01960543285868,1.2862656516569506,33.43746578986896,1.0069671677758911,61.192746,27.068996,222.23106500000003
5016.456,-17.935655399999995,-114.6965348,73.2048478,-1.0142916,0.6070993999999998,0.5427726,51.934499,54.3200934,-90.736903,-25.6112396,21.4770186,7.3893038,-1.004387,0.091399,-0.024737,117.5760038,83.6013322,136.4714844,137.2440620616292,1.3007533304288248,34.23156047337089,1.0088403947795703,65.6415048,29.281238799999997,227.2083874
5036.442,-20.215466,-125.6766786,80.33918000000001,-1.0021175999999998,0.638507,0.5827358,50.2473072,51.450125,-92.3222012,-25.4237496,23.8671154,6.7769276000000005,-1.0129364,0.0827782,-0.0203574,120.3628234,83.1974564,139.8761872,150.52467057793964,1.3234469713140755,35.523696160957954,1.0165169966975272,70.1155162,31.7473314,232.19838840000003
5056.428,-25.8425264,-136.154236,86.6514052,-0.9813358,0.6483546,0.6132236,48.5816708,48.3374832,-93.7990934,-22.0820492,26.6080406,6.3175416,-1.0088464,0.0749262,-0.0160908,123.2872238,82.76510479999999,143.3552856,163.4450310490135,1.3264338744542676,35.14990829732276,1.011752888843931,74.70555300000001,34.427621599999995,237.154379
5076.414,-27.8577454,-146.3625278,92.5001418,-0.9554849999999998,0.6560992000000001,0.648331,47.0116856,44.9912338,-95.1638426,-19.9333662,30.603351999999997,5.7889870000000005,-1.0044732,0.0731788,-0.0221962,126.4714692,82.280417,147.0560792,175.36909578314277,1.3280628114011173,36.97859667679906,1.0073798774951386,79.45978360000001,37.2891832,242.2199218
5096.4,-29.1525758,-155.43131739999998,97.5380034,-0.9211188,0.6739674,0.6799261999999999,45.5587064,41.4375862,-96.4094406,-19.017516,33.473108,6.171800599999999,-1.009704,0.0650258,-0.0323772,129.1877672,81.8017258,150.18494260000003,185.8021238084557,1.3285298406218204,38.98981914084855,1.0123135904261484,83.6290608,40.3641396,246.5943832
5116.386,-34.0066558,-163.6011598,101.286038,-0.8858615999999999,0.676125,0.7026646,44.1401594,37.7131016,-97.5481216,-14.7788032,36.2491066,6.2055162,-1.0081758,0.0556418,-0.0410272,131.9510118,81.270996,153.27914420000002,195.39870424427656,1.3174343741047292,39.63482287876352,1.010543262187582,87.8108524,43.5578944,250.8272658
5136.372,-36.0303024,-171.46806959999998,104.3592224,-0.8451773999999999,0.6603806,0.7296258,42.7969672,33.8194096,-98.5937118,-9.9580378,36.8012504,5.8475462,-1.0057078,0.0565932,-0.0571949999999999,134.6394928,80.72075500000001,156.20302120000002,203.9370708903081,1.2972205604108964,38.57056318477685,1.00892132363831,91.8425256,46.9013454,254.796733
5156.358,-35.0370332,-178.797809,107.260231,-0.7968917999999999,0.6513906,0.7445028,41.578253800000006,29.7624974,-99.5540724,-6.0025228,34.1649498,5.853471399999999,-1.0220838,0.062989,-0.063696,136.936383,80.196614,158.6532654,211.4261274129377,1.2702876343110012,35.17864696419773,1.026001992570892,95.3581292,50.4341166,258.2073378
5176.343,-37.0776522,-184.6657562,109.32091520000002,-0.7423219999999999,0.6464736,0.7491435999999999,40.4207794,25.5707806,-100.429634,0.0113484000000003,28.54305040000001,6.1951956,-1.0410912,0.0624796,-0.063595,138.68084720000002,79.74610279999999,160.42380980000002,217.77799775401465,1.2370069525277212,29.20764118249508,1.044901388246087,98.2600678,54.1753222,260.85344380000004
5196.329,-39.8043886,-189.7909606,110.1284012,-0.6814105999999999,0.6191692,0.7514634,39.2915862,21.2704102,-101.242163,7.5947254,20.657944,4.934421,-1.0493874,0.060051,-0.0741596,139.978836,79.424144,161.587973,223.00955770584972,1.1884393739524788,22.55613031558787,1.0537170797476525,100.6872498,58.1537338,262.83013600000004
5216.315,-35.9734314,-194.185736,110.6766586,-0.6058585999999999,0.593113,0.7673202,38.318824,16.865127400000002,-101.9954162,14.687275199999998,9.3212234,3.6149268,-1.0503442,0.0655332,-0.080933,140.6517182,79.286342,161.9733886,226.38796476715177,1.1435156156743116,17.767075005261862,1.0554940498481646,102.3328942,62.421214600000006,263.9688048
5236.301,-32.8200294,-197.099945,110.456166,-0.5274643999999999,0.598071,0.7582623999999999,37.4804642,12.4011576,-102.699588,21.2515088,-2.4525104000000013,1.838102,-1.0578668,0.0720092,-0.087427,140.7622988,79.3484712,161.6537506,228.31142603084817,1.100395147918292,21.471377517546227,1.0639130470841496,103.2818346,66.9473136,264.35333860000003
5256.287,-33.9472862,-198.5039518,108.78262320000002,-0.4540185999999998,0.5814796,0.7566368,36.68023380000001,7.923512,-103.37109540000002,26.32984,-14.4074436,-0.112605,-1.0562328,0.0691354,-0.0983214,140.2905704,79.6140078,160.63849179999997,228.88839252097216,1.0567642411987452,30.01412309894804,1.0630496362009445,103.6103366,71.69049580000001,264.0095872
5276.273,-33.0709488,-199.3836882,106.6530182,-0.3819429999999998,0.5579862,0.7549336,35.9508758,3.4488658,-104.0202928,29.858014200000003,-22.7540432,-2.7885302,-1.0494862,0.080121,-0.1165786,139.47283339999998,80.0252596,159.20044539999998,228.52222882235452,1.0134859619394834,37.643371190571926,1.0589765004991376,103.5219576,76.5763938,263.2207382
5296.259,-29.9013116,-199.8624632,104.6429368,-0.3090731999999999,0.5332006,0.7531686,35.336612,-1.0173684,-104.652063,30.8441992,-28.4653144,-5.1761502,-1.0478774000000002,0.0954392,-0.1243894,138.38043539999998,80.5403506,157.4647948,227.57248703193548,0.973186550885574,42.28984841629357,1.059541603317095,103.04382340000002,81.55771899999999,262.11685780000005
5316.245,-28.8990304,-199.5614532,102.2928208,-0.2457399999999999,0.5291613999999999,0.7490754,34.7937096,-5.457967399999999,-105.2751434,29.3231142,-30.1995048,-6.4536892,-1.0535766,0.0962958,-0.1303753999999999,137.1492188,81.08773060000001,155.6204528,226.1056141465241,0.9494808527480266,42.585269998459104,1.0659710493678334,102.3555092,86.54569799999999,260.8955962
5336.231,-31.8908098,-198.8619842,99.2465394,-0.1880337999999999,0.506473,0.7426564,34.2414268,-9.8583612,-105.902655,27.5164882,-28.2350762,-7.9297372,-1.0436304,0.089871,-0.1414331999999999,136.1196136,81.61437839999999,154.0171782,224.5283681242452,0.9183736375421496,40.215138728364586,1.056997899008035,101.8781868,91.4727396,259.9198332
5376.202,-32.478978,-198.2679596,95.3354388,-0.1012053999999999,0.4750341999999999,0.7247092,33.629026,-15.0678842,-106.69502260000002,26.840039,-23.886221,-9.1337354,-1.0406098,0.0918176,-0.1407898,135.42682480000002,82.0837554,152.7707274,222.3823592532921,0.8724124304040148,37.07242060534456,1.0540972418661572,101.7977988,97.1516396,259.46575
5396.188,-32.7709274,-197.1677978,90.8498064,-0.0083825999999999,0.4374197999999999,0.6939946,33.0802734,-20.2140138,-107.5262114,26.8596458,-19.206315600000003,-9.5242804,-1.0365266,0.0918356,-0.1265988,135.1124176,82.4901076,151.9080382,219.5512730431669,0.8203870149167161,34.366190486669964,1.0482597130942122,102.0321442,102.7041214,259.4342496
5416.174,-32.751379,-195.0253236,85.7184846,0.085859,0.4074968,0.6565228000000001,32.6067168,-25.2589922,-108.407518,29.2269566,-13.779091200000002,-8.4717158,-1.0258854,0.0909472,-0.121665,135.25771179999998,82.80017380000001,151.46235040000002,215.53465678123965,0.7774622799924638,33.4043158138611,1.0370702094583566,102.650995,108.059166,259.8698684
5436.16,-33.636097,-192.0156098,79.6381884,0.1781036,0.3758958,0.6104765999999999,32.2134478,-30.1807782,-109.3664322,34.0979818,-4.280830600000002,-8.8986962,-1.0048496,0.0903746,-0.1336746,137.1614412,82.9559874,152.5217346,210.5792546284965,0.7387152522712387,35.49907981228418,1.0177225484533985,104.9479934,113.1367656,261.8881668
5456.146,-33.4710014,-188.06333,72.7164468,0.2691274,0.3331524,0.5581424,31.9419234,-34.9545426,-110.4290848,39.3079572,7.955207999999999,-8.230768999999999,-0.9908634,0.0903448,-0.1340236,140.1932344,82.8941864,154.61499940000002,204.39130524712868,0.703521867275126,40.94076686985304,1.0039595538185588,108.251311,117.848729,265.0440842
5496.118,-28.8522228,-180.7960754,66.0995622,0.351881,0.2900308,0.5046708,32.0192886,-39.378931,-111.6770644,43.40749,23.5752438,-6.544499399999999,-0.9622664,0.0891136,-0.1454482,144.2615022,82.5339326,157.6734222,194.65051698769,0.6801696255216635,49.82803207759803,0.9772681500781452,112.2422136,121.9128636,269.3504866
5516.104,-23.8703212,-172.29492800000003,59.7710062,0.4225858,0.2799714,0.4548757999999999,32.3342758,-43.59535519999999,-113.0380264,46.1075364,36.9612556,-4.826185,-0.9288402,0.086653,-0.1667325999999999,148.9379822,81.9002168,161.29425659999998,183.92364619829823,0.6810835019329422,59.2902301400499,0.9476563825816824,116.6037064,125.495572,274.332283
5536.089,-23.9706794,-162.601718,53.3457422,0.4835116000000001,0.267445,0.3895064,32.8050774,-47.5968116,-114.52957139999998,47.0885362,45.293584,-3.4652204,-0.9127828,0.0876836,-0.1807816,153.7552978,81.09037479999999,165.04085999999998,172.79953813108983,0.6760366343627542,65.42818005603047,0.9346351376785274,120.9502204,128.6871864,279.5704314
5556.075,-24.881005800000004,-151.0217208,47.5410188,0.5552152,0.2374062,0.3134422,33.378445000000006,-51.3459044,-116.1100754,44.9980598,45.625811,-0.762907,-0.9039348,0.0929434,-0.182411,157.222592,80.2369798,167.64106139999998,160.2709364531035,0.6803467019471175,64.08683205045125,0.9268281238587875,123.844147,131.58288420000002,283.7511368
5576.061,-21.4627732,-137.01200260000002,42.2442468,0.6404110000000001,0.2106134,0.2444304,34.100687400000005,-54.805343400000005,-117.73080140000002,39.5193148,38.2962632,1.8764634,-0.8990268,0.0997368,-0.1845878,159.5637022,79.48669600000001,169.21619879999997,144.97419038434518,0.717098649855597,55.06270182470811,0.9231843111217392,125.4630148,134.2920394,286.9470002
5596.047,-19.689807,-122.2384904,37.075092,0.7010196000000001,0.216507,0.1800756,34.8601508,-57.254159400000006,-119.1149094,31.6322138,24.3169808,2.6580346,-0.8987854000000001,0.1025394,-0.1912692,160.8447784,78.98688519999999,169.8782746,129.2458876783962,0.7554673933059719,39.987218621095366,0.9246152879301532,125.9846276,136.2410446,288.993184
5616.033,-17.8724622,-104.7936662,31.24435620000001,0.7590716000000002,0.2003612,0.1195778,35.612091799999995,-59.3379866,-120.4207214,22.7204422,8.367647199999999,2.6371464,-0.905507,0.1016504,-0.1942854,161.25946040000002,78.78864460000001,169.841443,110.80319117732996,0.7941241430940381,24.355503578498254,0.9316772764870463,125.6473686,138.1266312,290.2621644
5636.019,-10.371966,-84.65761119999999,25.3964066,0.8089226,0.1872406,0.0852404,36.3769394,-61.0111754,-121.5489806,13.2184158,-4.733431600000001,1.935998,-0.8985572,0.0997942,-0.1965618,161.0790984,78.84191460000001,169.39195560000002,88.9913831839243,0.8346740327045523,14.173213440485972,0.9252029319261368,124.702159,139.85309,290.9409362
5656.005,0.2576181999999996,-62.80490460000001,19.4422336,0.8386246000000002,0.183734,0.0741333999999999,37.1478898,-62.2553366,-122.4260862,4.044508,-13.957436800000002,0.8459489999999998,-0.889198,0.101828,-0.197607,160.4959442,79.0735934,168.7189728,65.74589611762123,0.8617106030894133,14.556226045876702,0.9165645374096688,123.3480544,141.32893,291.14505900000006
5675.991,8.454298,-40.3788066,13.286741600000004,0.8392746000000001,0.194735,0.0772966,37.8176728,-63.062529,-122.9946714,-3.633756800000001,-18.3737264,-0.2603954,-0.8756524000000001,0.1021966,-0.2043798,159.7064484,79.3865984,167.9919372,43.34121225183,0.8650308311278391,18.73141254865592,0.9049764490445928,121.8887756,142.4491274,290.9866086
5695.977,15.287556599999998,-18.5790328,6.9740542,0.8214972000000001,0.1950904,0.0972842,38.3450074,-63.454795,-123.242555,-9.1872286,-17.7333412,-1.4552426,-0.866115,0.0932822,-0.2165578,158.9815704,79.68532280000001,167.4420136,25.050494577277654,0.8499306614951835,20.02484183430996,0.8976380355146945,120.636563,143.14011779999998,290.68456860000003
5715.963,23.2426032,1.7125802000000008,1.2710604,0.797388,0.1956666,0.1442819999999999,38.7216706,-63.46077280000001,-123.1431044,-13.2414512,-13.678408800000003,-3.0224572000000003,-0.8637522000000001,0.0841768,-0.221887,158.5163208,79.9144182,167.237146,23.340246978010544,0.8336248175429759,19.27615482163729,0.8957608148563322,119.7946502,143.375191,290.3802504
5735.949,26.6184296,19.9873948,-4.022519,0.7769760000000001,0.205706,0.1901986,38.8902214,-63.116488,-122.7330368,-17.4870452,-9.909073200000002,-4.990674,-0.8661898000000001,0.0809686,-0.2191454,158.31808180000002,80.0872392,167.3894624,33.529351386010795,0.8259432005010757,20.709739459589475,0.897142903974144,119.4278604,143.2037272,290.1224992
5755.935,25.968542000000003,36.5689228,-8.7128322,0.7584332,0.2109388,0.2184774,38.8012566,-62.4660166,-122.0449632,-21.9798366,-7.679163000000001,-7.157667999999999,-0.8685096,0.078143,-0.2154086,158.3525636,80.23530120000001,167.86902479999998,45.68987561050567,0.8169751957791864,24.35805765124741,0.8982294354423708,119.551307,142.70131780000003,289.913988
5775.92,26.6673118,51.82132360000001,-12.7591052,0.7508736,0.20768,0.2452146,38.519693,-61.5390764,-121.1167924,-25.9795628,-6.3962080000000014,-8.983584,-0.8954772,0.0783768,-0.2022816,158.544101,80.3821304,168.5894838,59.66062238863256,0.8167449697611366,28.223287220723662,0.9213795006383853,120.024408,141.9212068,289.70627620000005
5795.906,27.325609199999995,65.447087,-16.443426,0.7497206000000001,0.2170904,0.275709,38.0917558,-60.3453578,-119.998436,-29.9867036,-7.006080800000002,-8.939213599999999,-0.9254326,0.0854496,-0.1794914,158.56879279999998,80.55354299999999,169.2234986,72.80382114665527,0.8277829863663061,32.06551263829734,0.946543339713972,120.477037,140.8989008,289.2219346
5815.892,24.018464,77.3040062,-20.5822894,0.7560986000000002,0.229729,0.2903946,37.5311638,-58.9123704,-118.788031,-34.90042580000001,-10.325794000000002,-6.4606256,-0.9423318,0.0917714,-0.1589796,158.006717,80.777513,169.36364759999998,83.52500598284496,0.8418963891549365,36.96486745404503,0.9600446470687496,120.4755532,139.6898834,288.1516786
5835.878,22.1781668,88.82562560000001,-25.2925586,0.7551856000000001,0.2353458,0.283585,36.908413,-57.2334146,-117.53028100000002,-38.2291246,-12.4549318,-2.2275608,-0.9573912,0.0938902,-0.1423766,156.7455414,81.01319559999999,168.863675,94.98197916644206,0.840305532678442,40.26851525624794,0.972463045941099,119.8371284,138.24661020000002,286.393956
5855.864,23.323419,99.6241258,-30.5640438,0.7455846000000002,0.2441408,0.2947904,36.334684800000005,-55.3098992,-116.2799192,-39.5293222,-12.9769718,2.1467522,-0.9780936,0.0886262,-0.1304964,154.90979299999998,81.2273008,167.8079956,106.78534116943256,0.8380945685982938,41.66026470988408,0.990732559321818,118.5751082,136.5372,284.0879148
5875.85,24.0309534,109.279619,-36.369027800000005,0.7272482000000001,0.2699414,0.3194422,35.8552148,-53.1466308,-115.0931822,-40.3438334,-12.333581400000002,7.951490999999999,-0.9985662,0.0786404,-0.1184607999999999,152.42578120000002,81.3793898,166.1123932,117.65299840299568,0.8389288545389533,42.92980704219927,1.0086385524216492,116.5705664,134.52602059999998,281.2055754
5895.836,21.9523416,118.2336488,-42.536351,0.7054448000000001,0.2832313999999999,0.3366673999999999,35.430436799999995,-50.762419,-113.9899948,-40.049634000000005,-13.395991400000003,13.8384536,-0.9887768,0.0631006,-0.1100336,149.22373040000002,81.48351120000001,163.6835724,127.55564341368844,0.8313948099523836,44.44016839709525,0.996879450619562,113.7932936,132.2459302,277.67356720000004
5915.822,21.2510816,127.639151,-48.277951,0.6705924000000001,0.2887146,0.3420977999999999,35.0710138,-48.1606384,-112.94855499999998,-36.9612142,-12.0243714,19.0937958,-1.008446,0.0586172,-0.1012306,145.5954558,81.4876922,160.7611938,138.10909416084468,0.8062761263709599,43.30461754542485,1.015207833612507,110.524442,129.6483306,273.7097488
5935.807,22.6565788,136.0361328,-53.7027642,0.6280552000000001,0.2942566,0.3774247999999999,34.8164696,-45.362494600000005,-111.96866459999998,-33.3843594,-7.968183800000001,21.3974756,-1.0208841999999998,0.0603654,-0.0925908,142.1432158,81.3837632,157.9445862,147.99708400107295,0.7896136780385964,40.445758339676935,1.0268503238405486,107.3267462,126.7462578,269.9132508
5955.793,22.7969864,143.59457700000002,-58.6197602,0.5784162,0.3305006,0.4282384,34.64525,-42.3625358,-111.0486086,-32.242911199999995,-4.023480200000002,22.4774124,-1.0311474,0.062785,-0.0768306,138.9513854,81.19940199999999,155.3686494,156.76537059770638,0.7919495402216987,39.50984413751275,1.03591015915866,104.3061354,123.5619378,266.41725800000006
5975.779,17.9163006,150.2602998,-63.2513642,0.5298582000000001,0.3365184,0.4610565999999999,34.4419738,-39.1912682,-110.1797288,-30.5254818,-0.5853598000000012,21.6901216,-1.0235468,0.063524,-0.07276,136.260968,80.96271060000001,153.2647462,164.01184895103307,0.7788244565043909,37.45142267311582,1.0280940462653405,101.8189942,120.1539788,263.44447499999995
5995.765,15.494998400000004,156.440024,-67.2365952,0.4824290000000001,0.3383146,0.485852,34.247725599999995,-35.8660328,-109.3525558,-24.1657626,4.667755799999998,21.4175128,-1.0376164,0.084414,-0.0659236,134.2489562,80.6325746,151.71904,170.98051297918497,0.763705882207385,32.626398526134565,1.0431296362302818,100.0012306,116.4986074,261.0715958
6015.751,17.48076,161.0657106,-71.2907578,0.4174826000000001,0.3627972,0.5474338000000001,34.1604408,-32.3981316,-108.5837554,-18.466763,10.3052782,18.2275918,-1.0205116,0.0909378,-0.068563,133.21407159999998,80.2573976,151.046692,177.0031419183253,0.7782013203619229,27.918903941684235,1.0268468698751534,99.0536308,112.6555292,259.63044740000004
6035.737,15.7275854,164.5352632,-74.7662018,0.344065,0.4096319999999999,0.6001816,34.1040146,-28.8242024,-107.8694746,-15.170961999999998,13.0708344,16.4089828,-1.0287156,0.0925062,-0.0737647999999999,132.68110040000002,79.87061159999999,150.8158936,181.4089157412223,0.8039882167218373,25.889370723298068,1.0354971890067302,98.5770858,108.694814,258.6853682
6055.723,12.0766298,166.47338580000002,-78.3640854,0.2786822000000001,0.391558,0.6219683999999999,34.0398682,-25.1863744,-107.2235516,-9.9836716,14.0317104,14.6777534,-1.0278502,0.0963148,-0.0745401999999999,132.4733306,79.49784860000001,150.8101684,184.3913312702644,0.7860191642443586,22.627395790000364,1.03504048991096,98.4334624,104.684223,258.03372
6075.709,20.4899296,167.5363588,-81.27333819999998,0.2125626000000001,0.3876716,0.6568875999999999,34.206253200000006,-21.5003408,-106.6357542,-5.5058434,16.4595344,12.135110999999998,-0.9935876,0.1122726,-0.0804786,132.690985,79.120633,151.147467,187.3329235269307,0.7918165490813387,21.17761797729924,1.0031441873641496,98.4847318,100.6209738,257.7832212
6095.695,27.6155256,167.703116,-84.84114980000001,0.1250804000000001,0.4513843999999999,0.7024557999999999,34.573369,-17.770511000000003,-106.1059904,-6.436403200000001,21.152794,7.34499,-0.9890876,0.1368624,-0.0936432,133.5159758,78.7357314,152.1240052,189.9604513304276,0.8442968281245404,23.29843038188423,1.002893137833618,98.9426068,96.5062424,258.2299956
6115.68,23.1265532,167.2955142,-88.4728012,0.0443196,0.4868572,0.7237384,34.8996682,-14.013435199999998,-105.6310148,-11.0908316,17.803328399999995,4.006137,-1.020337,0.1433506,-0.0989178,134.207318,78.4471082,153.059549,190.65692509460428,0.8733793172331024,21.35448855300857,1.0350950290896967,99.3076498,92.4605434,258.69056379999995
6135.667,22.1865048,166.0660922,-91.3117202,-0.0259621999999999,0.474533,0.7496102,35.248111,-10.2464864,-105.20540760000002,-14.8058542,10.288435799999997,-1.3931635999999998,-1.0140829999999998,0.1310922,-0.1038672,134.68366079999998,78.34580220000001,153.8502106,190.80885257163095,0.8875646770021214,18.08331094182545,1.0277829980232596,99.43554980000002,88.5922886,259.0556182
6155.652,30.304981,164.3345582,-94.008873,-0.0878447999999999,0.489957,0.7646976,35.7912354,-6.479665800000001,-104.82105099999998,-14.9058718,6.802747999999999,-4.058010599999999,-0.9909814,0.1336454,-0.1236656,135.1205352,78.3206908,154.601294,191.73394872825648,0.9124346498143304,16.879865061642278,1.0075705477585577,99.32929980000002,84.8003566,259.422345
6175.638,30.9295356,162.5666382,-96.8632996,-0.1703655999999999,0.5695072,0.7910974,36.3771812,-2.7121876,-104.4685652,-13.385542,0.420830399999998,-6.8348136,-1.0290156,0.1199106,-0.142902,135.3898222,78.425972,155.147757,191.74735157879164,0.9895443319033058,15.035441789520956,1.0457880467091407,99.012641,81.13815960000001,259.6163222
6195.624,23.7035446,160.6300994,-98.4449204,-0.2416731999999999,0.5766283999999999,0.7812703999999999,36.8465492,1.0394238000000002,-104.13229660000002,-11.5166534,-13.815944000000002,-10.3677448,-1.0474592,0.081355,-0.1350893999999999,135.0004912,78.8010942,154.9815368,189.882303578876,1.000644634823452,20.760629720333505,1.0592632145420702,98.153942,77.76167039999999,259.11383340000003
6215.61,27.9922916,159.4924406,-97.6413512,-0.2980967999999999,0.5671084,0.7725544,37.43084259999999,4.7593818,-103.7632384,-4.6544276,-21.945184,-12.5831056,-1.013991,0.083781,-0.102581,134.171289,79.32326679999998,154.2312286,189.0905615352752,1.0036503078663204,25.721379115790995,1.0226044521724906,96.7404464,74.563885,257.994467
6235.596,36.8667628,157.4588254,-97.4611236,-0.3400159999999999,0.568912,0.786618,38.2195436,8.4421746,-103.3689666,3.9536808,-21.095553,-10.5705452,-0.9769312,0.122038,-0.1049307999999999,133.343167,79.7876894,153.3092896,188.81501664082128,1.0286105297555532,23.924681274143254,0.990100154411704,95.1236234,71.34551479999999,256.6782562
6255.582,34.3087832,155.50662519999997,-97.224916,-0.4159515999999999,0.6689584,0.7910995999999999,38.9894692,12.0887948,-102.9387176,7.101140599999999,-24.924900800000007,-10.3812506,-1.0184124,0.114319,-0.1079577999999999,132.2196472,80.3012406,152.02353520000003,186.579975819928,1.1164047884138082,27.918582373229658,1.0304792752965002,93.230178,68.2124458,254.9622528
6275.568,20.0929342,153.0004912,-97.762909,-0.4854077999999999,0.6442410000000001,0.7402139999999999,39.497571,15.699593399999998,-102.5038986,9.3584186,-32.833693800000006,-11.0434418,-1.029973,0.1084186,-0.0866568,130.28741,80.929422,149.8751586,182.6758404615922,1.0947985952575203,35.88299115228512,1.039282624958774,90.789839,65.22982859999999,252.3790572
6295.553,23.8884916,150.83569939999998,-95.7791002,-0.5354295999999998,0.6134458,0.7094206,40.1233338,19.247477600000003,-102.0219162,13.178804,-33.764644000000004,-11.4551862,-0.9876758,0.1115552,-0.0711602,127.9739274,81.5578902,147.2687378,180.26564919454864,1.0799436067675756,38.01254201173374,0.9964997855577894,87.8505936,62.31041259999999,249.290654
6315.539,31.1788044,147.3277924,-94.567554,-0.5885729999999999,0.6302286,0.771466,40.9353708,22.7228006,-101.5099412,17.1365982,-28.7020708,-10.8017786,-0.9681218,0.1119298,-0.1180786,126.0783966,82.08715959999999,145.0053222,177.82187302695323,1.157050583917125,35.13047518892783,0.981697843300697,85.14302579999999,59.364359,246.5152634
6335.525,23.581676,143.51393739999995,-94.0979358,-0.6511387999999999,0.6781924,0.7332386,41.634137,26.134220400000004,-100.9805282,17.301253,-30.602975200000003,-10.361171,-1.0070298000000002,0.085052,-0.1091278,123.7415298,82.6251356,142.2952146,173.2246148584,1.1922942224187618,36.650092918750765,1.0164899101933478,82.1073928,56.4909152,243.2757428
6355.511,17.504248,138.6877044,-92.1892794,-0.7171163999999999,0.6137712000000001,0.6758595999999999,42.239952800000005,29.4409914,-100.4380264,19.227294800000003,-31.991509,-10.1409906,-1.0194832000000005,0.0977666,-0.0795942,120.8141754,83.1559096,138.95631699999998,167.4501158138702,1.1609294621166957,38.67796793747672,1.027248528756036,78.57422260000001,53.7149182,239.39434340000005
6375.497,28.5844326,133.8188324,-87.9913544,-0.7547841999999998,0.6001574,0.6535915999999999,43.122615,32.617409,-99.8353654,21.6894484,-28.190027200000003,-10.1347566,-0.9889722,0.1130282,-0.0646196,117.8373078,83.61393419999999,135.523613,162.68690218056778,1.1649335057997772,36.98409248277218,0.9975054280916168,74.71469280000001,50.9965252,235.3589784
6395.483,32.0081486,128.8560516,-85.95702659999999,-0.7908287999999999,0.6353519999999999,0.7083854,44.1193374,35.6793978,-99.1915086,22.8401126,-21.9519908,-9.2310606,-0.9738852,0.1227438,-0.1001468,115.4505174,83.97836600000001,132.6631942,158.16767695282957,1.2372922976187155,32.9965622976824,0.986685261249868,71.33117999999999,48.2989682,231.8547028
6415.469,21.5341508,123.1866806,-84.9901488,-0.8280079999999999,0.6403844000000001,0.631658,44.9392722,38.6349218,-98.5413422,18.6646042,-20.1417614,-8.570591599999998,-0.9917804,0.1047198,-0.0882882,113.19866199999998,84.3166854,130.0219924,151.2018628224193,1.2225715753244717,28.76652642588566,1.001193989492266,68.25938980000001,45.6817636,228.5633346
6435.455,19.7417848,116.6256256,-80.8597196,-0.8836303999999998,0.602671,0.5753022000000001,45.7641174,41.4315772,-97.852765,19.4491356,-16.0594568,-7.3880312,-1.0141406,0.0980136,-0.0748744,111.3857088,84.5929778,127.80790399999998,143.2814323890975,1.2144906913476117,26.28227602987281,1.021613428909722,65.62159140000001,43.16140059999999,225.660669
6455.441,23.1925378,110.2896164,-75.2948256,-0.900737,0.6032692,0.577871,46.730085,44.060321,-97.0874634,20.1028572,-12.702016600000002,-9.270107,-1.0057374,0.0768986,-0.066135,110.1003908,84.8777876,126.1120758,135.53967705951638,1.2284932899607717,25.52255820057457,1.0108387362313138,63.3703058,40.8174666,223.19953920000003
6475.427,18.5741108,104.65664060000002,-70.3244956,-0.9104744,0.6162607999999999,0.5821152,47.6844368,46.5236176,-96.2378844,21.8377426,-10.027805600000002,-11.279167,-1.0052736,0.069524,-0.060623,109.2564362,85.1787658,124.825862,127.45016553572091,1.2440253665995078,26.545498586938148,1.0094967783811697,61.5719994,38.6551482,221.0637464
6495.412,10.9637684,99.286786,-64.73568500000002,-0.9175248,0.6091038,0.5326382000000001,48.5941414,48.81007100000001,-95.278659,20.3189506,-12.0995158,-12.1208212,-1.044832,0.0538104,-0.0144238,107.6106872,85.51175839999999,122.7676696,119.03268040398764,1.2233407742279827,26.5739034137264,1.046316163202404,59.0165458,36.7016874,218.0463286
6515.398,7.617604600000002,94.8779008,-58.715088,-0.9083822,0.575053,0.4777286,49.5563026,50.9346164,-94.186502,22.8308638,-16.8261736,-15.5115978,-1.062435,0.0456086,0.0246566,104.2026808,85.9364654,118.8965728,111.83606537653372,1.1764645295731613,32.32612142185406,1.0636993097405487,54.6463782,35.00184900000001,213.0830748
6535.384,7.551664000000001,92.8451692,-53.373118,-0.8823462,0.5750158,0.4659764,50.6791282,52.9267856,-92.9168884,25.3502424,-22.6065312,-19.2331504,-1.0365942,0.0344666,0.0396303999999999,98.4184372,86.43022160000001,112.5987746,107.3589437261165,1.151656195338279,39.03337183672903,1.0379239136821927,47.739309000000006,33.503436,205.515663
6555.37,4.4743092,92.3561464,-50.6991136,-0.8672433999999999,0.5590582,0.4339848,51.902797,54.8449976,-91.4757552,28.401820800000003,-27.1744096,-20.382107,-1.0170728,0.0376762,0.0438695999999999,89.689662,86.8769486,103.2964094,105.4517773226281,1.119374822149328,44.27801088151244,1.0187154255975708,37.786865000000006,32.03195100000001,194.7721646
6575.356,5.638448800000001,91.6439348,-48.041702400000005,-0.8754953999999999,0.5296291999999999,0.402707,53.31840580000001,56.69418499999999,-89.8557724,28.6234502,-30.003184999999995,-18.2002332,-1.0092936,0.0495436,0.0433073999999999,78.85977240000001,87.17434840000001,91.8880934,103.62629038997314,1.0996236686988872,45.28511344835615,1.0114364390295023,25.5413666,30.4801634,181.7438658
6595.342,8.328326800000001,89.499585,-46.21092,-0.9020573999999998,0.4821428,0.3704322,54.9136908,58.4772576,-88.121521,28.722985600000005,-29.8182974,-17.0690526,-1.0052762,0.0569392,0.0206034,67.4051436,87.35993500000001,79.8527404,101.06921326351672,1.0878369580426286,44.78273460022535,1.0070982131225534,12.491452800000005,28.88267740000001,167.9742614
6615.328,12.5468418,86.8411208,-44.2666664,-0.9402731999999998,0.4652618,0.339285,56.7384276,60.1801688,-86.25194239999999,26.7706506,-26.8768044,-14.0932678,-0.9920538,0.0757354,-0.0017572,56.7336402,87.4020356,68.6395172,98.27686022214644,1.1025862979388414,40.46789524531337,0.99494204889503,-0.0047873999999993,27.221866800000004,154.89145960000002
6635.314,13.7508554,83.02543019999999,-42.2289948,-0.9792044,0.4443305999999999,0.3032638,58.7110954,61.7873008,-84.27713,21.8596816,-21.740227,-12.0863916,-0.9859986,0.1021258,-0.0167376,48.1948934,87.3654006,59.65671999999999,94.1572943852212,1.1172465580462352,33.11440791518788,0.991414678871238,-10.516202,25.5780998,143.93384999999998
6655.3,15.4381078,77.3678054,-39.1263786,-1.0050438,0.4244732,0.2754356,60.793140400000006,63.256337,-82.2480514,15.1365622,-15.3252696,-9.189383,-0.9812952,0.116488,-0.0245719999999999,42.5841986,87.28801419999999,53.73590240000001,88.06239825945707,1.125235667397741,23.418457751693257,0.9884905193632564,-18.2089418,24.0316772,135.9839538
6675.285,15.5356886,69.867771,-35.921788,-1.0227426,0.407399,0.257884,62.860434,64.5663696,-80.262541,7.8937924,-8.5132382,-7.65057,-0.9918092,0.0975686,-0.0289862,39.2769378,87.2737442,50.2650246,80.08269412239798,1.1306991326218307,13.90389889308524,0.9970182148291172,-23.583496200000003,22.7073746,130.5275656
6695.271,14.800381000000002,61.5820396,-32.601894800000004,-1.0226988,0.394538,0.2182324,64.8564684,65.7154334,-78.36281260000001,3.3078082,-3.1013196,-5.4312386,-0.9893916,0.0971942,-0.0160869999999999,37.8851326,87.3020782,48.8034432,71.23399766678405,1.117675466929108,7.075177105872429,0.9942842864257688,-26.9713358,21.586644799999995,127.1662558
6715.257,14.4107916,53.0926582,-28.5141736,-1.0206908,0.4016392,0.2142465999999999,66.7296556,66.6797318,-76.6045744,-1.0665008,1.816177,-3.2119,-0.9965288,0.098924,0.000245,38.2698066,87.37140199999999,49.208043,61.96417808194985,1.1175980322964243,3.840862463266504,1.0014268156138222,-28.459849,20.6916702,125.8126174
6735.243,10.9798198,43.6389846,-24.7424282,-1.0094625999999998,0.4191334,0.2386076,68.31178440000001,67.4709624,-75.0972884,-5.8651018,4.587204,-2.1001656,-0.9988528,0.0823542,0.0157356,39.3670196,87.4700624,50.4230234,51.352752340957,1.1187587472605878,7.736443317791619,1.0023655717515645,-28.9447648,19.9991,125.52031180000002
6755.229,4.0430118,33.4758458,-20.8174236,-0.9986614,0.438972,0.261067,69.45789640000001,68.0972608,-73.9189956,-8.3973752,6.211084,-1.0109332,-0.9987428000000002,0.065741,0.0293528,40.9034812,87.5805848,52.129281000000006,39.627557605562245,1.121684887623507,10.493591408068704,1.0013344328947649,-28.554415200000005,19.483324,126.0482766
6775.214,-5.6755002,23.349458,-16.3839134,-0.9820287999999998,0.4612201999999999,0.2607027999999999,70.085791,68.55089860000001,-73.099614,-9.049003,6.136131600000001,0.6358697999999999,-0.9988322,0.0750244,0.0381908,42.98484860000001,87.65576180000001,54.393348,29.083347635935304,1.1158273104944687,10.951753134045692,1.002373663638885,-27.1009424,19.1048632,127.492962
6795.201,-15.0962518,14.0505098,-11.1999906,-0.9715744,0.4762238,0.2558095999999999,70.21469420000001,68.8266646,-72.6185364,-11.457243000000002,5.8009276,2.2903294,-1.0004912,0.092785,0.0292964,45.5463804,87.6905778,57.1853356,23.46813655766021,1.111838330817012,13.04472257052618,1.0052114088864097,-24.668313800000004,18.8639132,129.803872
6815.187,-23.8863542,5.516845399999999,-6.052651000000001,-0.963881,0.4813169999999999,0.2271856,69.9039704,68.9443326,-72.43145460000001,-14.7267248,6.098381000000001,4.559634399999999,-0.9981622,0.1178078,0.0053109999999999,48.6619262,87.683377,60.5965684,25.25129866488375,1.101065817059707,16.578809969891065,1.0051043040255474,-21.2420442,18.739044400000004,133.02802300000002
6835.173,-28.443862,-2.5389654,-0.5887574000000001,-0.9691236,0.4721624,0.1992345999999999,69.2284134,68.8972044,-72.5409806,-18.873725200000003,7.215184600000001,7.7196888,-0.9986528,0.138269,-0.0183142,53.0242744,87.6161468,65.3367882,28.563022705125164,1.0962811272150406,21.630302515361123,1.0083457448863855,-16.204139000000005,18.718942400000003,137.8777688
