Timestamp (ms),Wrist Gyroscope X (deg/s),Wrist Gyroscope Y (deg/s),Wrist Gyroscope Z (deg/s),Wrist Accelerometer X (g),Wrist Accelerometer Y (g),Wrist Accelerometer Z (g),Wrist Roll (deg),Wrist Pitch (deg),Wrist Yaw (deg),Arm Gyroscope X (deg/s),Arm Gyroscope Y (deg/s),Arm Gyroscope Z (deg/s),Arm Accelerometer X (g),Arm Accelerometer Y (g),Arm Accelerometer Z (g),Arm Roll (deg),Arm Pitch (deg),Arm Yaw (deg),Wrist Gyroscope Magnitude (deg/s),Wrist Accelerometer Magnitude (g),Arm Gyroscope Magnitude (deg/s),Arm Accelerometer Magnitude (g),Difference Roll (deg),Difference Pitch (deg),Difference Yaw (deg)
0.0,-5.765175342559815,4.590881824493408,-6.01838493347168,-0.9920445680618286,-0.115735039114952,-0.0196662060916423,-100.80803680419922,83.41470336914062,-8.2278470993042,-8.393080711364746,1.069014072418213,-7.186089038848877,-0.9866762161254884,-0.0650306791067123,0.1191915422677993,-26.62961769104004,81.71086883544922,169.9928741455078,9.514956640172487,0.9989663577728524,11.100741893620222,0.9959746826305216,74.17841911315918,-1.7038345336914062,178.220721244812
10.037,-4.04172420501709,4.04080867767334,-5.96829080581665,-0.9898800253868104,-0.1168010011315345,-0.0283804088830947,-101.3912582397461,83.27823638916016,-8.736651420593262,-6.973625659942627,0.6549622416496277,-7.228090763092041,-0.9910874366760254,-0.0687682554125785,0.1121000796556472,-27.722393035888672,81.66482543945312,169.03302001953125,8.26342328951971,0.9971511350509974,10.065074588024345,0.9997748786343588,73.66886520385742,-1.6134109497070312,177.7696714401245
32.370999999999995,-0.9294174313545228,3.495903968811035,-5.5111260414123535,-0.9895159006118774,-0.1144165322184562,-0.0372601523995399,-101.85853576660156,83.15432739257812,-9.19041633605957,-5.91808032989502,-0.1197182983160018,-6.8815202713012695,-0.9872727394104004,-0.0780771449208259,0.1072525903582573,-28.722631454467773,81.60594177246094,168.1455841064453,6.592243287772971,0.9968054872268052,9.077077090472038,0.9961458832322,73.13590431213379,-1.5483856201171875,177.33600044250488
50.384,-0.5246556997299194,3.1622047424316406,-5.467625141143799,-0.9873900413513184,-0.1125794574618339,-0.0405452065169811,-102.26376342773438,83.03401184082031,-9.589481353759766,-3.721182346343994,0.2345670312643051,-6.540301322937012,-0.984607458114624,-0.0897760987281799,0.104894682765007,-29.684127807617188,81.5526123046875,167.25341796875,6.337959223629007,0.994614066748336,7.528463398443932,0.9942406594734318,72.57963562011719,-1.4813995361328125,176.84289932250977
72.792,-2.4680016040802,3.01835036277771,-5.590213775634766,-0.9900941252708436,-0.1147026941180229,-0.0435573309659957,-102.6750030517578,82.9113540649414,-9.955402374267578,-0.31395423412323,1.182764172554016,-6.476984024047852,-0.9918879270553588,-0.0935554802417755,0.1076828986406326,-30.6197566986084,81.51294708251953,166.31845092773438,6.815567539649173,0.9976674425953024,6.591571921535286,1.0020927573738343,72.05524635314941,-1.398406982421875,176.27385330200195
94.838,-1.9880574941635127,3.111405611038208,-5.571032524108887,-0.9986339807510376,-0.1324560791254043,-0.0505123101174831,-103.08631896972656,82.77957153320312,-10.33098316192627,2.1228318214416504,2.309683322906494,-6.82035493850708,-0.9977643489837646,-0.0899843648076057,0.119626760482788,-31.56939125061035,81.48303985595703,165.31910705566406,6.683533561012377,1.008645593794641,7.507216093962899,1.0089308419492538,71.51692771911621,-1.2965316772460938,175.65009021759033
110.219,-0.7550320029258728,4.349735260009766,-5.3326592445373535,-1.0074502229690552,-0.1370510011911392,-0.0513742417097091,-103.6454849243164,82.64575958251953,-10.88105010986328,2.6728174686431885,4.069838523864746,-7.583221435546875,-1.0066723823547363,-0.0673931092023849,0.1320422738790512,-32.604244232177734,81.47430419921875,164.22036743164062,6.92297080565592,1.0180266408101215,9.011813700446506,1.01752949768293,71.04124069213867,-1.1714553833007812,175.1014175415039
132.33800000000002,-1.3469878435134888,5.969643592834473,-5.696289539337158,-1.0149295330047607,-0.1273606419563293,-0.0434033088386058,-104.38992309570312,82.50447845458984,-11.607122421264648,1.732333421707153,5.95246171951294,-9.198537826538086,-1.0150736570358276,-0.0495309680700302,0.1443809866905212,-33.879302978515625,81.47662353515625,162.8963623046875,8.360546357266655,1.0238098150061512,11.092604642394976,1.026486100891664,70.5106201171875,-1.0278549194335938,174.50348472595215
155.09,-4.869018077850342,8.325440406799316,-6.564277648925781,-1.017936110496521,-0.1287095248699188,-0.0330213382840156,-105.42619323730467,82.33506774902344,-12.55856704711914,-0.977026641368866,7.215244770050049,-11.072659492492676,-1.0195887088775637,-0.0416839942336082,0.1528892815113067,-35.45195770263672,81.4723892211914,161.32562255859375,11.66662059303322,1.0265721969871835,13.25209894267196,1.0318303266753348,69.97423553466797,-0.8626785278320312,173.8841896057129
178.65,-8.180062294006348,11.047215461730955,-7.7452521324157715,-1.0138415098190308,-0.1425500512123108,-0.030208034440875,-106.77391052246094,82.11936950683594,-13.759432792663574,-5.727185249328613,7.82701301574707,-12.4536771774292,-1.0190660953521729,-0.0457019992172718,0.1520697921514511,-37.30760955810547,81.4537124633789,159.56515502929688,15.777937735535115,1.0242595615748702,15.78470331898646,1.031362982229712,69.46630096435547,-0.6656570434570312,173.32458782196045
199.823,-9.866323471069336,13.25676155090332,-8.784635543823242,-1.0002803802490234,-0.1569262146949768,-0.0401307418942451,-108.3368148803711,81.85834503173828,-15.145098686218262,-9.954978942871094,7.401776790618896,-13.46324062347412,-1.0037070512771606,-0.0617302991449832,0.1393449455499649,-39.35940933227539,81.40556335449219,157.69288635253906,18.715124559860268,1.013309998181508,18.307013778787496,1.0152120411354195,68.9774055480957,-0.4527816772460937,172.83798503875732
210.318,-9.568737030029297,14.132560729980469,-9.834355354309082,-0.9849196672439576,-0.1671718955039978,-0.0465354472398757,-109.86199188232422,81.56095886230469,-16.499603271484375,-11.359871864318848,6.5535888671875,-14.496648788452148,-0.9823191165924072,-0.0958234965801239,0.1209857463836669,-41.56206130981445,81.31453704833984,155.69863891601562,19.69783100676995,1.0000893667168764,19.54863273760081,0.9943694183490064,68.29993057250977,-0.2464218139648437,172.1982421875
232.4,-9.03783893585205,13.623332977294922,-10.526137351989746,-0.98482745885849,-0.1738551706075668,-0.0397747047245502,-111.14176940917967,81.25029754638672,-17.618045806884766,-10.68512725830078,7.022256851196289,-15.35670280456543,-0.980122208595276,-0.1282203197479248,0.1056651324033737,-43.93170928955078,81.20124816894531,153.52357482910156,19.444209976072784,1.0008460277208389,19.98280152626261,0.9941051827567162,67.2100601196289,-0.0490493774414062,171.14162063598633
254.757,-10.061829566955566,12.811531066894531,-11.433697700500488,-0.9837196469306946,-0.1834832429885864,-0.0459104292094707,-112.22167205810548,80.92222595214844,-18.513904571533203,-8.680191993713379,6.618070602416992,-15.916459083557127,-0.9793744683265686,-0.1456092447042465,0.099571593105793,-46.25065994262695,81.0572509765625,151.35877990722656,19.90239145476983,1.001737596242278,19.2996958863307,0.9951336108819336,65.97101211547852,0.1350250244140625,169.87268447875977
277.508,-5.847274303436279,11.751701354980469,-11.694972038269045,-0.9843690991401672,-0.1876406967639923,-0.0559815987944603,-113.03951263427734,80.59435272216797,-19.22943878173828,-4.268118858337402,5.025036334991455,-15.943859100341797,-0.9791561365127563,-0.1462605744600296,0.103320837020874,-48.23452758789063,80.87818145751953,149.44078063964844,17.580258032582194,1.0036560635136345,17.25324525323951,0.9953964489964084,64.80498504638672,0.2838287353515625,168.67021942138672
299.699,1.2202357053756714,10.008868217468262,-11.610580444335938,-0.992989420890808,-0.181396335363388,-0.0537200421094894,-113.4830322265625,80.28861236572266,-19.708654403686523,-0.8341240286827087,4.161436080932617,-15.999423027038574,-0.9842992424964904,-0.1327264308929443,0.1010510697960853,-49.95626449584961,80.68621826171875,147.71578979492188,15.377645997541888,1.0108503664779345,16.552789805620257,0.998334925234852,63.52676773071289,0.3976058959960937,167.4244441986084
309.74600000000004,5.199667930603027,8.841785430908203,-11.703293800354004,-1.0005966424942017,-0.1632211804389953,-0.0478850938379764,-113.70061492919922,80.00474548339844,-20.03892707824707,0.6097235679626465,3.373055219650269,-15.85892105102539,-1.0008867979049685,-0.1244077458977699,0.1049034893512725,-51.45258712768555,80.48443603515625,146.1870574951172,15.562159296581132,1.0149521057303346,16.225123766763545,1.0140297882892284,62.24802780151367,0.4796905517578125,166.22598457336426
332.344,4.714339733123779,8.800935745239258,-12.752878189086914,-1.0063807964324951,-0.1726469695568084,-0.0547484084963798,-113.8687515258789,79.69883728027344,-20.30921936035156,0.1463395208120346,2.5146892070770264,-15.90927791595459,-1.0038622617721558,-0.1328055709600448,0.1103109940886497,-52.80876159667969,80.26188659667969,144.80809020996094,16.196214718780077,1.0225491048150883,16.107457927016963,1.0185996641002577,61.05998992919922,0.56304931640625,165.1173095703125
357.235,5.566621780395508,8.674074172973633,-13.02359390258789,-1.0078303813934326,-0.1848818957805633,-0.0603295415639877,-113.98267364501952,79.38473510742188,-20.541915893554688,-0.3934235870838165,1.8777791261672967,-15.838329315185549,-1.0031672716140747,-0.1347828805446624,0.1116369366645813,-54.03950500488281,80.0285415649414,143.5655975341797,16.608456850163606,1.026422450374293,15.954106432571187,1.0183191078210183,59.94316864013672,0.6438064575195312,164.10751342773438
378.3,8.024267196655273,7.784176826477051,-12.58377170562744,-1.0029908418655396,-0.1802091300487518,-0.0613428205251693,-113.98077392578124,79.09078216552734,-20.7064208984375,-1.3844547271728516,1.6821600198745728,-15.834797859191896,-1.0020326375961304,-0.1431846916675567,0.1099158227443695,-55.22391891479492,79.7875747680664,142.3893585205078,16.832515654189365,1.0208961264737244,15.983966981495046,1.018161456167617,58.75685501098633,0.6967926025390625,163.0957794189453
399.901,7.948666572570801,7.334475517272949,-12.650299072265623,-0.9928960800170898,-0.1788309216499328,-0.0626971125602722,-113.93748474121094,78.80171203613281,-20.82700157165528,-3.632415771484375,0.8845604658126831,-15.803524017333984,-0.9969813823699952,-0.158150315284729,0.1043846309185028,-56.35427474975586,79.53079223632812,141.31361389160156,16.643494164782386,1.0108185060508454,16.239712525813356,1.0148298134116074,57.58320999145508,0.7290802001953125,162.14061546325684
419.799,7.704227924346924,7.074442863464356,-12.87523078918457,-0.98356431722641,-0.1853111237287521,-0.0732473656535148,-113.88482666015624,78.5068588256836,-20.93238067626953,-3.600050926208496,0.4415090084075928,-15.567848205566406,-0.9855564832687378,-0.1616011410951614,0.1008077412843704,-57.38328552246094,79.27041625976562,140.33941650390625,16.588382609931415,1.0035457913188848,15.98478009318104,1.0037921653505553,56.50154113769531,0.7635574340820312,161.27179718017578
430.026,9.73404312133789,6.655278205871582,-12.46394157409668,-0.973982036113739,-0.1777806878089904,-0.0754302889108657,-113.78475952148438,78.22832489013672,-21.030107498168945,-1.119258999824524,0.2773532271385193,-15.090286254882812,-0.9719194173812866,-0.1598580330610275,0.0990695059299469,-58.2686882019043,79.01591491699219,139.4595489501953,17.157918377475468,0.9929434566556544,15.134279129697504,0.9899478327781338,55.51607131958008,0.7875900268554688,160.48965644836426
450.426,9.584147453308104,6.243815898895264,-12.14368724822998,-0.9751437902450562,-0.1666823178529739,-0.0628406330943107,-113.64651489257812,77.97054290771484,-21.08652305603028,0.5275675058364868,1.0037232637405396,-14.762959480285645,-0.9775665402412416,-0.1555856317281723,0.1010795459151268,-59.10806274414063,78.77690124511719,138.59178161621094,16.682633466238865,0.9912806625300564,14.806443208277411,0.9950177405463148,54.5384521484375,0.8063583374023438,159.6783046722412
472.172,6.17094612121582,6.270354747772217,-12.05201244354248,-0.9749815464019777,-0.1699345558881759,-0.0621511824429035,-113.57898712158205,77.71527099609375,-21.14578437805176,-0.6698986291885376,0.8911826610565186,-14.849894523620604,-0.9815351963043212,-0.1566753536462783,0.1036811023950576,-59.91778945922852,78.53434753417969,137.77723693847656,14.92142515422575,0.9916297386566996,14.891686877966972,0.9993539308064002,53.66119766235352,0.8190765380859375,158.92302131652832
496.136,3.930534839630127,6.5445966720581055,-11.984207153320312,-0.9639577269554138,-0.1826630681753158,-0.0718566477298736,-113.59072875976562,77.45162963867188,-21.240034103393555,-2.2754340171813965,0.1045885980129242,-14.297341346740724,-0.967808723449707,-0.1547458618879318,0.1022134944796562,-60.62726974487305,78.29389190673828,137.09678649902344,14.209224849341853,0.9837396371272448,14.47765548445612,0.9854174777273504,52.96345901489258,0.8422622680664062,158.336820602417
509.595,6.304697036743164,5.829737663269043,-11.407882690429688,-0.9530163407325744,-0.1744952350854873,-0.0734848603606224,-113.52867126464844,77.20965576171875,-21.30657768249512,-2.9661922454833984,-0.0660180374979972,-13.452828407287598,-0.9527833461761476,-0.157190665602684,0.0962132066488266,-61.28170394897461,78.06621551513672,136.48672485351562,14.278474478257856,0.9716422991374276,13.776111460581506,0.9704442236609382,52.24696731567383,0.8565597534179688,157.79330253601074
532.128,6.414768218994141,5.152655601501465,-11.0205717086792,-0.9399099349975586,-0.1608330309391021,-0.0712461397051811,-113.43408203125,76.98896789550781,-21.341461181640625,-1.9884295463562007,0.7266778349876404,-12.46345329284668,-0.9401020407676696,-0.1692766398191452,0.0884639322757721,-61.94343185424805,77.85884094238281,135.8501434326172,13.753258226225595,0.9562290322778656,12.641976930830692,0.959308237824366,51.49065017700195,0.869873046875,157.1916046142578
554.821,5.536626815795898,4.815578937530518,-10.036383628845217,-0.9217185378074646,-0.1561471223831176,-0.0730052217841148,-113.3748550415039,76.79143524169922,-21.39405059814453,0.6499699950218201,0.0902391672134399,-10.832727432250977,-0.927715539932251,-0.1793008297681808,0.0836718156933784,-62.43046569824219,77.66976165771484,135.3387908935547,12.432740379591705,0.9376975787396524,10.852584379914807,0.9485809840644988,50.94438934326172,0.878326416015625,156.73284149169922
577.335,6.422657012939453,3.8986313343048096,-8.502301216125488,-0.918623983860016,-0.167226567864418,-0.0786382406949997,-113.28121185302734,76.62345886230469,-21.429248809814453,3.61769962310791,-0.1618982404470443,-8.536096572875977,-0.918623685836792,-0.1945687532424926,0.0829427689313888,-62.74674606323242,77.51131439208984,134.94216918945312,11.346319903669762,0.9370265319734358,9.27248112992202,0.9426589939297862,50.53446578979492,0.8878555297851562,156.37141799926758
589.905,8.87492561340332,2.523092269897461,-6.333932876586914,-0.9193346500396729,-0.1646952033042907,-0.0792324841022491,-113.11101531982422,76.50923919677734,-21.435640335083008,7.460925102233887,0.1708916425704956,-6.303857326507568,-0.9213953018188475,-0.2018569111824035,0.0805924981832504,-62.92633056640625,77.39404296875,134.6073455810547,11.191470186305605,0.93732518118955,9.768993015025004,0.9466840368197637,50.18468475341797,0.8848037719726562,156.0429859161377
612.0870000000001,9.474284172058104,1.3314502239227295,-4.350208759307861,-0.9267126321792604,-0.1551162004470825,-0.0724444836378097,-112.89913940429688,76.44974517822266,-21.41153717041016,11.463913917541504,0.672592282295227,-4.072382926940918,-0.932541012763977,-0.1985496580600738,0.0905491188168525,-62.942020416259766,77.32282257080078,134.357177734375,10.509954163613344,0.9423935173224088,12.18433442542697,0.9577337052235056,49.95711898803711,0.873077392578125,155.76871490478516
634.4459999999999,8.19393253326416,0.7510844469070435,-1.6580743789672852,-0.9405492544174194,-0.1505039781332016,-0.0663921907544136,-112.7476577758789,76.45014190673828,-21.42373847961425,13.789276123046877,0.7460327744483948,-2.0471858978271484,-0.9506461024284364,-0.1963367909193039,0.101513847708702,-62.80592727661133,77.28975677490234,134.21353149414062,8.393680292473512,0.9548257801359644,13.960360704453311,0.9760026684428136,49.94173049926758,0.8396148681640625,155.63726997375488
657.235,7.31574821472168,0.9261017441749572,1.0142314434051514,-0.9502193331718444,-0.1586648821830749,-0.0746001079678535,-112.72462463378906,76.49335479736328,-21.54930877685547,13.705350875854492,1.1682466268539429,0.4633206129074096,-0.9597862362861632,-0.1971375197172165,0.1157736107707023,-62.57267761230469,77.30276489257812,134.16993713378906,7.443554379633364,0.9662590243203576,13.762852495096574,0.9866389157110624,50.151947021484375,0.8094100952148438,155.71924591064453
680.439,6.401402950286865,1.878614902496338,4.3818039894104,-0.9590575695037842,-0.1623829156160354,-0.0824995338916778,-112.916015625,76.5879898071289,-21.87596702575684,13.292428016662598,1.7875897884368896,2.80774474143982,-0.976215958595276,-0.2012947797775268,0.126895397901535,-62.28261947631836,77.3602523803711,134.19248962402344,7.981689037129648,0.9761996752707996,13.70283001291936,1.0047983022429752,50.63339614868164,0.7722625732421875,156.06845664978027
690.558,2.9818623065948486,2.912787437438965,6.622516632080078,-0.9751068353652954,-0.1767959594726562,-0.0711717307567596,-113.29052734375,76.71111297607422,-22.322978973388672,11.641490936279297,2.699021577835083,4.6399993896484375,-0.9860662817955016,-0.1996968239545822,0.1206117868423461,-62.0355110168457,77.46183776855469,134.2060546875,7.825187538543128,0.9935570275132128,12.819462665534395,1.0132880817994736,51.2550163269043,0.7507247924804688,156.52903366088867
711.84,-0.2537620961666107,3.1324870586395264,8.735219955444336,-0.9823132753372192,-0.1919464021921157,-0.0739530324935913,-113.81371307373048,76.86153411865234,-22.85686111450196,9.553732872009276,3.4932126998901367,5.783566951751709,-0.9903729557991028,-0.2001408785581588,0.1147285178303718,-61.85936737060547,77.5919418334961,134.19076538085938,9.28336889517959,1.0036193716908972,11.701538080174714,1.0168862255197664,51.954345703125,0.73040771484375,157.04762649536133
734.5350000000001,-2.343585968017578,2.981738805770874,9.765183448791504,-0.9761969447135924,-0.2059337198734283,-0.0738489180803299,-114.39511108398438,77.02149200439453,-23.40826988220215,7.634393215179443,4.012948989868164,6.91938591003418,-0.9803544282913208,-0.1999794542789459,0.1095079556107521,-61.7265625,77.7459716796875,134.1714630126953,10.475780127698382,1.000411332678062,11.057378565068728,1.0065180473027564,52.668548583984375,0.7244796752929688,157.57973289489746
754.403,-3.577052116394043,2.5814926624298096,9.782280921936035,-0.975375771522522,-0.2270396947860717,-0.083373337984085,-114.97767639160156,77.16924285888672,-23.93557357788086,7.32258415222168,4.730788230895996,7.67794942855835,-0.9749983549118042,-0.1994845569133758,0.1051192581653595,-61.635009765625,77.91934204101562,134.11703491210938,10.730909851697188,1.0049159328860875,11.616862888897831,1.0007327010570235,53.34266662597656,0.7500991821289062,158.05260848999023
777.039,-0.879772961139679,1.9125165939331048,9.492616653442385,-0.9798556566238404,-0.2580211162567138,-0.0835109204053878,-115.41612243652344,77.30021667480469,-24.371826171875,8.519207954406738,4.399456977844238,7.21176815032959,-0.9778484106063844,-0.1997010111808776,0.1065365299582481,-61.51013946533203,78.07953643798828,134.07199096679688,9.723244886067286,1.01669369924233,11.997571659483334,1.0037021670832649,53.905982971191406,0.7793197631835938,158.44381713867188
799.332,2.691863775253296,0.3622347116470337,8.471858978271484,-0.9878103733062744,-0.2677530944347381,-0.0717875957489013,-115.58755493164062,77.42337036132812,-24.60904121398925,8.885441780090332,3.2231645584106445,6.438507080078125,-0.9836456775665284,-0.1940047144889831,0.1070583313703537,-61.306251525878906,78.21659851074219,134.099609375,8.896613913088625,1.0259700346960756,11.436530890885814,1.0082946665311043,54.28130340576172,0.7932281494140625,158.70865058898926
809.8720000000001,4.721330642700195,-1.232028245925903,6.848216533660889,-0.9921897053718568,-0.2642349004745483,-0.0581207238137722,-115.5017547607422,77.53519439697266,-24.62510299682617,9.541003227233888,1.8721305131912231,5.399046897888184,-0.98397696018219,-0.19805508852005,0.1086843609809875,-61.02473068237305,78.31865692138672,134.19296264648438,8.408741066792665,1.0284155349912425,11.121390319834346,1.00957850936909,54.47702407836914,0.7834625244140625,158.81806564331055
831.8330000000001,6.913012981414795,-2.1334593296051025,4.448977947235107,-0.990752935409546,-0.2725225389003753,-0.0599850974977016,-115.20178985595705,77.60564422607422,-24.46651840209961,12.113540649414062,-0.1579812169075012,4.650094032287598,-0.9849613904953004,-0.1944331526756286,0.1165146678686142,-60.53150177001953,78.38632202148438,134.44850158691406,8.493220941861388,1.029299822769414,12.976370819262955,1.010707108639468,54.6702880859375,0.7806777954101562,158.91501998901367
859.514,11.143067359924316,-3.4385926723480225,2.6503260135650635,-0.9914933443069458,-0.2718535363674164,-0.0581799708306789,-114.63890075683594,77.65422058105469,-24.12498664855957,14.563451766967772,-2.03581166267395,3.833057641983032,-0.9832995533943176,-0.1780861467123031,0.1260350048542022,-59.8259391784668,78.42493438720703,134.86859130859375,11.958933804161468,1.0297321525747851,15.196413635507575,1.0072127430711444,54.81296157836914,0.7707138061523438,158.99357795715332
879.864,13.916275024414062,-4.10132360458374,0.8222335577011108,-0.9880417585372924,-0.2517700791358948,-0.0595334060490131,-113.92391204833984,77.68273162841797,-23.68285751342773,14.805984497070312,-3.044795274734497,2.688270568847656,-0.9852727651596068,-0.164860263466835,0.1322865933179855,-59.05747222900391,78.43669128417969,135.34637451171875,14.531332832471223,1.0213515143168668,15.35300471711855,1.0076909600702442,54.86643981933594,0.7539596557617188,159.02923202514648
889.5880000000001,13.199044227600098,-4.113172054290772,-0.8621910810470581,-0.9863497614860536,-0.2346269190311432,-0.0584016367793083,-113.18072509765624,77.68758392333984,-23.196104049682617,13.011723518371582,-4.032536506652832,1.4439444541931152,-0.9865493774414062,-0.1638369113206863,0.1328831315040588,-58.31014251708984,78.41607666015625,135.8392791748047,13.851943052531624,1.0155522607409937,13.698586612597191,1.0088508979425324,54.870582580566406,0.7284927368164062,159.0353832244873
912.376,11.861459732055664,-3.966197967529297,-1.610909104347229,-0.9746494293212892,-0.2162957489490509,-0.0591697059571743,-112.47644805908205,77.68375396728516,-22.72066307067871,11.33111572265625,-4.025539875030518,0.6681386232376099,-0.9775855541229248,-0.1693354099988937,0.1345907300710678,-57.65003967285156,78.37713623046875,136.27780151367188,12.610312503474304,1.0001132011891474,12.043486373370056,1.00123057350961,54.82640838623047,0.6933822631835938,158.9984645843506
929.419,9.093831062316896,-3.671198844909668,-1.8198223114013672,-0.973244607448578,-0.192914068698883,-0.0537566617131233,-111.86188507080078,77.68585968017578,-22.279672622680664,10.41073226928711,-2.631178379058838,0.1306032687425613,-0.9749350547790528,-0.1641172766685485,0.1378011405467987,-57.14320755004883,78.3448715209961,136.57847595214844,9.974327926928206,0.9936350851838078,10.738878119198898,0.9982093948035824,54.71867752075195,0.6590118408203125,158.8581485748291
951.925,4.193049907684326,-2.568087339401245,-1.6296790838241575,-0.9732576012611388,-0.1724208891391754,-0.053335066884756,-111.46922302246094,77.6934814453125,-21.964677810668945,8.675053596496582,-1.247976541519165,-0.1842561662197113,-0.978821873664856,-0.1411676406860351,0.1434586942195892,-56.75711441040039,78.33185577392578,136.78988647460938,5.1800187284775765,0.9898504689011018,8.766296292338083,0.999300235209034,54.71210861206055,0.6383743286132812,158.75456428527832
974.353,2.1912176609039307,-1.2638708353042605,-0.6797438859939575,-0.9764446020126344,-0.169739082455635,-0.0511346124112606,-111.25845336914062,77.7110824584961,-21.79518699645996,4.7461347579956055,-0.6770932674407959,-0.0887213200330734,-0.9842481017112732,-0.1284851133823394,0.1482118964195251,-56.46428680419922,78.33170318603516,136.9853515625,2.619323591375481,0.9924062502316996,4.795010104942019,1.0036032663973298,54.794166564941406,0.6206207275390625,158.78053855895996
990.258,3.22836709022522,-1.243333339691162,0.9872990846633912,-0.980673611164093,-0.1571092903614044,-0.0399745628237724,-111.06925964355467,77.76880645751953,-21.66959381103516,-0.2645998299121856,0.0880554392933845,0.495568573474884,-0.9818881154060364,-0.1312098205089569,0.1404752433300018,-56.32615280151367,78.3505859375,137.1265869140625,3.597636911281348,0.9939829105293704,0.5686431582237141,1.0005266523997418,54.743106842041016,0.5817794799804688,158.79618072509766
1011.624,0.0410280525684356,-0.7425837516784668,2.227744579315185,-0.972977578639984,-0.1455889642238617,-0.0426058731973171,-111.04544830322266,77.85033416748047,-21.647300720214844,-2.922934055328369,0.91060870885849,2.0809340476989746,-0.9812774658203124,-0.1471956074237823,0.1318927407264709,-56.26803970336914,78.39988708496094,137.24267578125,2.3486080643697487,0.9847318292158578,3.701761502760559,1.0009833699057795,54.77740859985352,0.5495529174804688,158.88997650146484
1034.163,-7.148991107940674,0.8336514830589294,3.4476566314697266,-0.977056920528412,-0.1525975167751312,-0.0560521706938743,-111.36920928955078,77.93631744384766,-21.832733154296875,-3.967076539993286,1.976950645446777,3.038633346557617,-0.9839849472045898,-0.1654410511255264,0.131134882569313,-56.29582595825195,78.46855163574219,137.29391479492188,7.980562944124829,0.9904888055490052,5.373948524456619,1.006376408283305,55.07338333129883,0.5322341918945312,159.12664794921875
1056.744,-10.80726432800293,1.096888780593872,4.881345748901367,-0.9872141480445862,-0.1782273799180984,-0.0681997686624527,-111.84361267089844,78.0309829711914,-22.097415924072266,-5.32578182220459,3.148492813110352,3.526909112930298,-0.9897733330726624,-0.1709022670984268,0.1235115826129913,-56.446022033691406,78.55828857421875,137.24948120117188,11.909142016645648,1.0054889265911786,7.121519985424682,1.011985151472449,55.39759063720703,0.5273056030273438,159.34689712524414
1079.05,-6.941463470458984,0.4568994343280792,6.62143611907959,-0.9840233325958252,-0.1935180127620697,-0.076231263577938,-112.25242614746094,78.15147399902344,-22.373762130737305,-7.345417022705078,3.942864179611206,4.518540382385254,-0.9857983589172364,-0.1733224093914032,0.1180693656206131,-56.66486740112305,78.6725082397461,137.1770782470703,9.603962124241098,1.0057645578877117,9.482538497868225,1.007858837903013,55.58755874633789,0.5210342407226562,159.55084037780762
1089.124,-4.906783580780029,-0.1364960372447967,7.911924362182617,-0.983277440071106,-0.1855361610651016,-0.0651217252016067,-112.59801483154295,78.30510711669922,-22.62785720825196,-7.560739517211914,5.180632591247559,4.8588409423828125,-0.9851253628730774,-0.1720414161682129,0.1232423037290573,-56.95917892456055,78.80380249023438,137.0318145751953,9.31094535424276,1.002745745594962,10.373623831429484,1.0076005631605325,55.63883590698242,0.4986953735351562,159.6596717834473
1112.186,-9.479358673095703,0.3430295884609222,7.957431793212891,-0.9839484691619872,-0.1891333311796188,-0.0530348345637321,-113.04866790771484,78.4548568725586,-22.89741897583008,-6.983246803283691,6.184780120849609,4.9237871170043945,-0.9870042204856871,-0.168439507484436,0.1296937614679336,-57.30436325073242,78.9456558227539,136.82228088378906,12.381301664016984,1.003363693087666,10.548029229785383,1.0096383861075509,55.74430465698242,0.4907989501953125,159.71969985961914
1132.863,-11.439644813537598,1.250294804573059,7.930800437927246,-0.990761399269104,-0.2144009917974472,-0.0536522902548313,-113.59767150878906,78.582763671875,-23.228700637817383,-8.729945182800293,6.452185153961182,5.073270320892334,-0.9977091550827026,-0.1582164168357849,0.1316855102777481,-57.68235778808594,79.0966796875,136.61424255371094,13.975918794285656,1.015113049770808,11.982516760035937,1.0187232530522243,55.915313720703125,0.513916015625,159.84294319152832
1154.205,-10.796439170837402,1.2972829341888428,7.077751159667969,-1.0013848543167114,-0.228499561548233,-0.059502325952053,-114.10813903808594,78.68574523925781,-23.533809661865234,-11.492257118225098,6.179219722747803,4.491055011749268,-1.0014194250106812,-0.1392707824707031,0.1282337456941604,-58.1069221496582,79.24340057373047,136.41427612304688,12.974613799998483,1.0288460540218545,13.799431335093091,1.0191570581482914,56.00121688842773,0.5576553344726562,159.9480857849121
1176.72,-14.064820289611816,2.517474174499512,4.688132762908936,-0.9929723143577576,-0.2124762237071991,-0.0689427405595779,-114.73973846435548,78.73802185058594,-23.89466667175293,-14.924909591674805,6.17689847946167,2.1128716468811035,-0.9890289306640624,-0.1104601174592971,0.1216396242380142,-58.70444869995117,79.36222839355469,136.1070556640625,15.037800198200811,1.0177884181880523,16.290218775125044,1.0025845906577588,56.0352897644043,0.62420654296875,160.00172233581543
1200.135,-18.634071350097656,4.395005226135254,1.4876521825790403,-0.9901933073997498,-0.2036439925432205,-0.071138896048069,-115.50958251953124,78.71869659423828,-24.303361892700195,-17.8668212890625,7.430047035217285,-0.8603838682174683,-0.9827197790145874,-0.0890924781560897,0.1212959960103035,-59.60688018798828,79.45083618164062,135.5483856201172,19.20306733401252,1.013417191609229,19.369283990935934,0.9941772238281285,55.90270233154297,0.7321395874023438,159.85174751281738
1209.436,-20.5861930847168,5.428789615631104,-1.3575551509857178,-0.9940825700759888,-0.2038481086492538,-0.0629744604229927,-116.25574493408205,78.6404800415039,-24.64941596984864,-21.24090385437012,8.031678199768066,-3.5354559421539307,-0.9885980486869812,-0.1027916893362999,0.1149335876107215,-60.81562423706055,79.49162292480469,134.74778747558594,21.33321491008783,1.0167202123467047,22.982238793775867,1.0005508297060115,55.44012069702149,0.8511428833007812,159.39720344543457
1238.116,-20.94964408874512,6.704992294311523,-3.3658478260040283,-0.9982187151908876,-0.2124084085226059,-0.061164204031229,-117.00252532958984,78.5115737915039,-24.989940643310547,-24.35591506958008,7.098809242248535,-5.116873741149902,-0.9959056377410888,-0.1258162707090377,0.1137484535574913,-62.111907958984375,79.48155212402344,133.92214965820312,22.252492909777235,1.0223986478977884,25.880225818514425,1.0102457542332637,54.89061737060547,0.9699783325195312,158.91209030151367
1256.795,-20.989681243896484,6.9543280601501465,-5.131362915039063,-0.9982425570487976,-0.2083460688591003,-0.0568469427525997,-117.6685562133789,78.35249328613281,-25.24787712097168,-25.74661445617676,5.9750494956970215,-6.650584220886231,-0.9939329624176024,-0.1334236413240432,0.1112955510616302,-63.40468978881836,79.42713928222656,133.12791442871094,22.699345427884253,1.021336311903518,27.25471781013592,1.009005104808945,54.26386642456055,1.07464599609375,158.37579154968262
1279.218,-20.2356071472168,7.28291654586792,-6.538918972015381,-0.9856674671173096,-0.1912361979484558,-0.0545754469931125,-118.28035736083984,78.17407989501953,-25.465639114379883,-25.806997299194336,4.3303327560424805,-7.60383415222168,-0.988276183605194,-0.1194879785180091,0.106998510658741,-64.55464935302734,79.34614562988281,132.47879028320312,22.47839254379972,1.0055297700981962,27.25015936087661,1.0012072080117862,53.7257080078125,1.1720657348632812,157.944429397583
1299.051,-17.644723892211914,6.705073356628418,-6.737167835235596,-0.9779451489448548,-0.169733852148056,-0.045953806489706,-118.7731475830078,78.01127624511719,-25.614646911621094,-26.599994659423828,1.6896662712097168,-7.142340660095215,-0.983095645904541,-0.1290407627820968,0.0953493565320968,-65.46902465820312,79.24723815917969,132.0861358642578,20.042048807202704,0.9936287270609108,27.59397974367397,0.9961024381292002,53.30412292480469,1.2359619140625,157.7007827758789
1309.534,-15.97781753540039,5.180388450622559,-6.222105026245117,-0.9725564122200012,-0.1614056378602981,-0.0556811913847923,-119.1537094116211,77.87456512451172,-25.681514739990234,-28.10409164428711,-1.434692144393921,-5.3124189376831055,-0.9793647527694702,-0.1756993532180786,0.0717890262603759,-66.1434326171875,79.13703918457031,131.97203063964844,17.91205372511808,0.9874300734519688,28.637739150797643,0.9975867110080556,53.0102767944336,1.2624740600585938,157.65354537963867
1329.993,-16.450363159179688,2.947732925415039,-5.6677656173706055,-0.9747136235237122,-0.1735665500164032,-0.0730397924780845,-119.4075164794922,77.76000213623047,-25.60774803161621,-27.08381462097168,-3.981566429138184,-3.1275010108947754,-0.9802865386009216,-0.2224083095788955,0.0480672195553779,-66.57532501220703,79.02863311767578,132.08831787109375,17.647298506058103,0.9927370278440122,27.55298800903356,1.006348653065975,52.83219146728516,1.2686309814453125,157.69606590270996
1351.876,-14.672276496887209,-0.1970736682415008,-3.44483494758606,-0.9736129641532898,-0.1790441870689392,-0.0962051227688789,-119.51972198486328,77.70704650878906,-25.42294883728028,-22.45427703857422,-4.868908405303955,-1.525714874267578,-0.9760118126869202,-0.2388186603784561,0.038184180855751,-66.8072509765625,78.93732452392578,132.31515502929688,15.072538719404012,0.9946026596272038,23.02669390646087,1.0055304285385862,52.71247100830078,1.2302780151367188,157.73810386657715
1372.264,-12.44469928741455,-3.370840072631836,-1.24766206741333,-0.9733712077140808,-0.164272278547287,-0.0963329002261161,-119.45366668701172,77.73131561279297,-25.09986114501953,-18.61262893676757,-4.5824127197265625,0.2135318219661712,-0.9829993844032288,-0.2210406512022018,0.0470870062708854,-66.87332916259766,78.88937377929688,132.6316375732422,12.953368819882298,0.9918250436301054,19.169612883694384,1.00864460806598,52.58033752441406,1.1580581665039062,157.73149871826172
1390.122,-12.339466094970703,-5.973587512969971,0.386961817741394,-0.9759863615036012,-0.1503344774246215,-0.0824357345700264,-119.23619079589844,77.8203125,-24.62419319152832,-18.16106986999512,-5.580136775970459,2.208477020263672,-0.9829531311988832,-0.1918394118547439,0.0493988096714019,-66.7197036743164,78.88512420654297,133.1614990234375,13.714806259383762,0.9909316239164394,19.12693796744307,1.0027160417941932,52.51648712158203,1.0648117065429688,157.78569221496582
1411.982,-12.671791076660156,-8.708035469055176,1.3355388641357422,-0.9770130515098572,-0.1459991037845611,-0.0677358880639076,-118.81331634521484,77.9571762084961,-23.93263816833496,-19.165616989135746,-6.316595554351807,4.57194185256958,-0.9772252440452576,-0.1785173863172531,0.0462079420685768,-66.4173355102539,78.92508697509766,133.8634796142578,15.43333518324746,0.9901809893440208,20.691131101870265,0.9944711201070996,52.39598083496094,0.9679107666015624,157.79611778259277
1434.04,-13.172700881958008,-10.986068725585938,2.284130573272705,-0.970242202281952,-0.1477883458137512,-0.0644317716360092,-118.23503875732422,78.12920379638672,-23.07221984863281,-17.96251678466797,-8.2660493850708,7.1043477058410645,-0.9748460054397584,-0.1787745952606201,0.0524402037262916,-65.78681945800781,78.99234771728516,135.22640991210938,17.30407486820933,0.9835460230428732,21.01074339478252,0.9924893274989444,52.448219299316406,0.8631439208984375,158.2986297607422
1457.927,-13.858716011047363,-13.15851879119873,2.8397927284240723,-0.9625458121299744,-0.1556281149387359,-0.0754380971193313,-117.51353454589844,78.3199462890625,-22.0506649017334,-16.04353141784668,-10.388444900512695,9.209854125976562,-0.964066743850708,-0.1791692972183227,0.0514304302632808,-64.83018493652344,79.0755615234375,136.87806701660156,19.32032735213357,0.9779598443214946,21.21641112036127,0.981922304880422,52.683349609375,0.755615234375,158.92873191833496
1478.888,-16.047883987426758,-14.963159561157228,3.1397504806518555,-0.955259382724762,-0.1568039357662201,-0.0785222500562667,-116.67765808105467,78.52543640136719,-20.86750030517578,-13.984946250915527,-11.2264404296875,10.653132438659668,-0.9575432538986206,-0.1738667041063308,0.0516944043338298,-63.67424392700195,79.17408752441406,138.6813507080078,22.165034572662247,0.971222789224681,20.85907277704216,0.974572226837491,53.003414154052734,0.648651123046875,159.5488510131836
1491.024,-18.587852478027344,-16.601425170898438,3.449287414550781,-0.9619237184524536,-0.1566106975078582,-0.0744121372699737,-115.72147369384766,78.74711608886719,-19.5103759765625,-13.34715175628662,-11.71191692352295,11.706125259399414,-0.9587356448173524,-0.1706630587577819,0.0611687749624252,-62.36710357666016,79.27924346923828,140.61776733398438,25.159752803197925,0.9774258625943856,21.26849375526149,0.975726157945102,53.3543701171875,0.5321273803710938,160.12814331054688
1512.2230000000002,-20.601882934570312,-18.07783889770508,3.8608477115631104,-0.9630900025367736,-0.1538912951946258,-0.0747412219643592,-114.65608215332033,78.98333740234375,-18.00102424621582,-12.905654907226562,-12.656747817993164,13.02591037750244,-0.9590276479721068,-0.1774350106716156,0.071773000061512,-60.8630485534668,79.38384246826172,142.74305725097656,27.679450585461414,0.9781672321150856,22.280564065467946,0.9779409880584704,53.79303359985352,0.4005050659179687,160.74408149719238
1533.779,-21.165700912475582,-19.35068130493164,4.837646961212158,-0.9607481956481934,-0.1630002558231353,-0.076673187315464,-113.47174072265624,79.2342529296875,-16.359655380249023,-12.738537788391112,-13.0902738571167,14.7554931640625,-0.9615569710731506,-0.1933213174343109,0.0797997117042541,-59.209129333496094,79.49398803710938,145.01828002929688,29.08330432056725,0.9774891081197676,23.48084736876581,0.9840390918972638,54.26261138916016,0.259735107421875,161.3779354095459
1556.519,-23.910865783691406,-19.85418510437012,5.713929176330566,-0.9752156734466552,-0.1724563390016555,-0.0771676823496818,-112.26499938964844,79.49275207519531,-14.64068603515625,-13.58391571044922,-12.581311225891112,15.463006973266602,-0.9752655029296876,-0.1788461208343505,0.084024578332901,-57.52137756347656,79.61734008789062,147.34161376953125,31.60011321682912,0.9933487050361964,24.122950541892973,0.9950823412694112,54.74362182617188,0.1245880126953125,161.9822998046875
1578.846,-32.07776641845703,-19.395671844482425,4.685806751251221,-0.9961419105529784,-0.1586472690105438,-0.0759943723678588,-111.18193817138672,79.72917175292969,-12.88214111328125,-15.474781036376951,-10.870551109313965,14.602027893066406,-0.9869716167449952,-0.1230134442448616,0.0819654092192649,-55.95952224731445,79.76185607910156,149.56948852539062,37.77740024943497,1.011554648329109,23.892612836061023,0.9979797633387636,55.222415924072266,0.032684326171875,162.45162963867188
1589.52,-38.24920654296875,-16.539505004882812,2.9712047576904297,-0.984733819961548,-0.1446055024862289,-0.1156530603766441,-110.53981018066406,79.90446472167969,-11.44357204437256,-17.57329750061035,-8.641010284423828,13.596867561340332,-1.001429319381714,-0.1003852114081382,0.1068578511476516,-54.567657470703125,79.9088134765625,151.660400390625,41.77780612580499,1.0019915558026626,23.840357616049,1.0121049712053949,55.97215270996094,0.0043487548828125,163.10397243499756
1614.787,-27.806129455566406,-14.896824836730955,2.955592393875122,-0.9987068176269532,-0.1905255913734436,-0.1068361029028892,-109.75372314453124,80.04261016845703,-10.074078559875488,-18.249753952026367,-8.010503768920898,12.490697860717772,-0.9924108982086182,-0.1307612210512161,0.1221883073449134,-53.310157775878906,80.01675415039062,153.61985778808594,31.68330399302911,1.0223156368882524,23.52103788078106,1.0084184995654613,56.44356536865234,-0.0258560180664062,163.69393634796145
1633.835,-16.574440002441406,-15.542646408081056,4.23576021194458,-0.9983452558517456,-0.1787722110748291,-0.08201365172863,-108.63381958007812,80.21446990966797,-8.595229148864746,-17.225717544555664,-5.643606662750244,12.491557121276855,-0.994269847869873,-0.1290442049503326,0.1121104508638382,-52.24900436401367,80.15111541748047,155.34817504882812,23.113363739063548,1.0175357450252722,22.013964667973244,1.0088576165184744,56.38481521606445,-0.0633544921875,163.94340419769287
1656.367,-22.20488739013672,-12.515419006347656,4.077609539031982,-0.9795631170272828,-0.1484371870756149,-0.0679135024547576,-107.91097259521484,80.37507629394531,-7.406445026397705,-17.981155395507812,-6.098440170288086,12.069890975952148,-1.002083420753479,-0.1370664238929748,0.1247187554836273,-51.15489959716797,80.25990295410156,157.12013244628906,25.813167889003964,0.993070864824258,22.4987819679056,1.0190746560861903,56.75607299804688,-0.11517333984375,164.52657747268677
1676.404,-31.343286514282227,-9.249309539794922,3.450644254684448,-0.9796636700630188,-0.1751746535301208,-0.0783682093024253,-107.70023345947266,80.48442077636719,-6.5530104637146,-21.51494026184082,-6.880050659179688,10.800643920898438,-0.9892093539237976,-0.1493545025587082,0.1160662621259689,-50.18930816650391,80.3298568725586,158.84263610839844,32.861197212696226,0.9982828466471864,25.0376049303742,1.0071312181283978,57.51092529296875,-0.1545639038085937,165.39564657211304
1698.678,-28.43964576721192,-8.614468574523926,3.8153696060180655,-0.9821691513061525,-0.2012555003166198,-0.0935150757431984,-107.52899932861328,80.5791015625,-5.798394203186035,-21.6875057220459,-5.8646626472473145,10.109478950500488,-0.985871434211731,-0.1519669592380523,0.0965987294912338,-49.4188117980957,80.40375518798828,160.36944580078125,29.95963226437336,1.0069285414449214,24.636228141913364,1.002181498549078,58.11018753051758,-0.1753463745117187,166.16784000396729
1708.861,-22.50450897216797,-8.15239429473877,3.886876106262207,-0.9847376942634584,-0.1791580617427826,-0.1007208377122879,-107.3337631225586,80.68197631835938,-5.138564586639404,-18.008018493652344,-5.596588134765625,9.02744483947754,-0.987766444683075,-0.1339955627918243,0.0863672569394111,-48.661224365234375,80.47295379638672,161.79925537109375,24.249170350358582,1.0059575660733449,20.907063140186235,1.0005481813291042,58.67253875732422,-0.2090225219726562,166.93781995773315
1738.8380000000002,-20.67634963989257,-6.669614315032959,2.8932456970214844,-0.9874838590621948,-0.1548755317926406,-0.1074143275618553,-107.27890014648438,80.76787567138672,-4.657381057739258,-13.749913215637209,-5.0048699378967285,7.867193698883057,-0.9863206744194032,-0.114617720246315,0.0797995328903198,-47.92940902709961,80.54008483886719,163.1053466796875,21.917254851046284,1.00531022078858,16.61329507438432,0.9961594551230852,59.349491119384766,-0.2277908325195312,167.76272773742676
1748.744,-17.2751407623291,-5.683669567108154,2.359707832336426,-0.9874894618988036,-0.1578785181045532,-0.108099028468132,-107.246826171875,80.8350830078125,-4.268621921539307,-11.00312614440918,-3.1887762546539307,7.210816383361816,-0.9879204034805298,-0.1285651326179504,0.0809728726744651,-47.38011169433594,80.61335754394531,164.16812133789062,18.33856071670691,1.0058560850319656,13.536356668859783,0.999536053900688,59.86671447753906,-0.2217254638671875,168.43674325942993
1771.754,-13.8954496383667,-4.819436550140381,2.038747310638428,-0.9865822196006776,-0.1732370555400848,-0.1048465818166732,-107.20740509033205,80.8825912475586,-3.941854238510132,-8.689472198486328,-1.7949645519256592,6.730929851531982,-0.989913284778595,-0.1501487046480178,0.0860300734639167,-46.97983551025391,80.68611145019531,165.04476928710938,14.848130519019882,1.0071486281393816,11.1370661081445,1.0049249317381037,60.227569580078125,-0.1964797973632812,168.9866235256195
1788.893,-9.923672676086426,-4.287342071533203,2.631208658218384,-0.983594536781311,-0.1842086017131805,-0.0988974720239639,-107.14006805419922,80.93251037597656,-3.668161392211914,-5.834168434143066,-1.018250584602356,5.86327600479126,-0.9907404184341432,-0.1643949896097183,0.0906807854771614,-46.68178939819336,80.74799346923828,165.75714111328125,11.125818640600174,1.005570351444342,8.333808317891368,1.008372596901857,60.45827865600586,-0.1845169067382812,169.42530250549316
1811.93,-5.964939594268799,-3.526243209838867,3.745914459228516,-0.9795709252357484,-0.1800820082426071,-0.1002775877714157,-107.1333999633789,81.00037384033203,-3.5358808040618896,-2.948182344436645,0.0569687336683273,5.253007411956787,-0.9915000796318054,-0.1584874838590622,0.1037474870681762,-46.42289733886719,80.81233978271484,166.3673858642578,7.876977254890838,1.0010216390613964,6.024044442294286,1.0094326285209996,60.71050262451172,-0.1880340576171875,169.9032666683197
1833.866,-3.564396619796753,-2.085462808609009,4.399965286254883,-0.9816206693649292,-0.1725777238607406,-0.0913850665092468,-107.25173950195312,81.077392578125,-3.5796573162078857,-1.343614935874939,0.9121618866920472,4.465205669403076,-0.9911304712295532,-0.1377366036176681,0.110426127910614,-46.20579528808594,80.88215637207031,166.8987579345703,6.034382562413317,1.0008563531687775,4.7513579189016255,1.0067298111713878,61.04594421386719,-0.1952362060546875,170.4784152507782
1849.066,-3.385495901107788,-0.3255054950714111,4.341269493103027,-0.9885945916175842,-0.1699395179748535,-0.0822071805596351,-107.54703521728516,81.14566802978516,-3.807472467422485,-1.1367541551589966,2.089433431625366,3.3250153064727783,-0.995851457118988,-0.1108505427837371,0.1128034889698028,-46.11370086669922,80.96142578125,167.29632568359375,5.514903184597744,1.0064575136987295,4.088235421638933,1.0083315896098968,61.43333435058594,-0.1842422485351562,171.10379815101624
1871.796,-2.544394016265869,1.8175530433654783,4.2997660636901855,-0.9953715801239014,-0.1703442484140396,-0.0759913995862007,-108.0618133544922,81.20073699951172,-4.27565336227417,-1.1891508102416992,3.0896074771881104,2.079728841781616,-1.00535249710083,-0.1057718098163604,0.1169225722551345,-46.19701766967773,81.03712463378906,167.52305603027344,5.316524069156319,1.012697604567704,3.9096068942968514,1.0176405097486343,61.86479568481445,-0.1636123657226562,171.7987093925476
1894.35,-1.2159075736999512,3.565988779067993,4.043769359588623,-0.9966561794281006,-0.1644682884216308,-0.0719907879829406,-108.7457046508789,81.24251556396484,-4.512375354766846,-1.2376530170440674,3.2263944149017334,1.3742338418960571,-1.004621148109436,-0.1098329797387123,0.1141043901443481,-46.37303924560547,81.10308074951172,167.65435791015625,5.526913952086419,1.0126974036912328,3.718860653926116,1.0170283902218362,62.37266540527344,-0.139434814453125,172.1667332649231
1915.999,1.7206233739852903,5.259013652801514,3.8222672939300537,-0.9929617047309875,-0.1652429699897766,-0.0791395157575607,-109.59031677246094,81.26516723632812,-4.254100322723389,-0.2461858987808227,2.4506630897521973,0.82591712474823,-0.999475121498108,-0.1163438111543655,0.1002071276307106,-46.55915832519531,81.15193176269531,167.7414093017578,6.725139155564338,1.0097233527791918,2.5977867836265336,1.0112012012035871,63.031158447265625,-0.1132354736328125,171.9955096244812
1940.444,5.719207763671875,5.950454711914063,3.762623071670532,-0.995131254196167,-0.1722809970378875,-0.0831657648086547,-110.43604278564452,81.27552795410156,-4.078199863433838,1.7289021015167236,2.107698678970337,0.501322329044342,-0.9929407238960266,-0.126990795135498,0.0889654755592346,-46.75955581665039,81.18997955322266,167.7653045654297,9.070533672395044,1.0133526037143308,2.7717900850462485,1.0049740290484088,63.67648696899414,-0.0855484008789062,171.84350442886353
1948.722,9.879425048828123,5.294082164764404,3.4704058170318604,-0.9849741458892822,-0.1710328608751297,-0.0815070271492004,-111.09652709960938,81.28273010253906,-3.799207925796509,4.897900581359863,2.488320827484131,-0.3516277074813843,-0.987056851387024,-0.1437320113182068,0.0813898742198944,-47.06972503662109,81.21583557128906,167.61485290527344,11.733459072139713,1.003030260283384,5.504980716591586,1.0007819095952788,64.02680206298828,-0.06689453125,171.41406083106995
1971.476,12.012643814086914,4.935550212860107,3.26718807220459,-0.9823452830314636,-0.1686783134937286,-0.0702894106507301,-111.62128448486328,81.29071044921875,-3.427152395248413,8.90501594543457,3.0484750270843506,-1.328955054283142,-0.9849959015846252,-0.1453492194414138,0.083184540271759,-47.43538284301758,81.23271179199219,167.33409118652344,13.391705836335415,0.9991972927239554,9.505715676134312,0.9991311172568698,64.1859016418457,-0.0579986572265625,170.76124358177185
1994.492,13.387333869934082,4.565945148468018,2.243471622467041,-0.987798810005188,-0.1719407439231872,-0.0611863024532794,-111.9851531982422,81.28191375732422,-2.921290636062622,10.114618301391602,3.1832449436187744,-2.137192249298096,-0.9881497025489808,-0.1274244934320449,0.092143215239048,-47.78781127929688,81.24311828613281,167.0392608642578,14.321373124275402,1.0045167355880282,10.816937758181854,1.000583433946736,64.19734191894531,-0.0387954711914062,169.96055150032043
2016.661,13.554633140563965,3.705411434173584,1.8278133869171145,-0.9905681014060974,-0.1597879827022552,-0.0510042980313301,-112.20087432861328,81.28036499023438,-2.2690837383270264,8.40018081665039,1.73779034614563,-2.660498857498169,-0.9906246066093444,-0.114133670926094,0.088098719716072,-48.05670166015625,81.2328872680664,166.8535614013672,14.170358331713867,1.0046685032173577,8.981158455919104,1.0010619313881612,64.14417266845703,-0.0474777221679687,169.1226451396942
2038.585,18.06110382080078,1.93842887878418,1.7405483722686768,-0.9942764639854432,-0.1567818075418472,-0.0511869750916957,-112.11537170410156,81.29219818115234,-1.4023306369781494,7.390113353729248,0.5792274475097656,-2.200399398803711,-0.993139922618866,-0.1175804883241653,0.082760065793991,-48.21567916870117,81.21471405029297,166.79598999023438,18.24802691745209,1.0078622566752478,7.732466445525112,1.0034945468831318,63.89969253540039,-0.077484130859375,168.19832062721252
2048.763,22.18523979187012,0.5432322025299072,1.5413495302200315,-0.9924925565719604,-0.1382575333118438,-0.0593793801963329,-111.82686614990234,81.31861114501953,-0.4116651117801666,7.032787322998047,-1.0112751722335815,-0.7405322790145874,-0.9907024502754213,-0.1125078722834587,0.0744086727499961,-48.11452865600586,81.20223236083984,167.00999450683594,22.24535286802509,1.0038339161239385,7.143609946011934,0.9998429961188358,63.71233749389648,-0.1163787841796875,167.4216596186161
2071.628,20.268028259277344,0.3985671401023865,0.5700923800468445,-0.9918602705001832,-0.1278165429830551,-0.0741237998008728,-111.58146667480467,81.33016204833984,0.5753889679908752,8.910061836242676,-1.0636792182922363,-0.4735423922538757,-0.991125226020813,-0.1132014319300651,0.0714123100042343,-47.959716796875,81.19406127929688,167.2477264404297,20.27996130681274,1.0028051667964997,8.985814253719944,1.0001217405226055,63.62174987792969,-0.1361007690429687,166.6723374724388
2095.889,18.249561309814453,0.6950477361679077,-0.6515779495239258,-0.9977630972862244,-0.1399292796850204,-0.07912378013134,-111.35628509521484,81.30972290039062,1.5825868844985962,11.780611038208008,-0.6770120859146118,-1.6137733459472656,-0.9996492862701416,-0.1119576394557952,0.0749882087111473,-47.86954498291016,81.17402648925781,167.36146545410156,18.274411979063363,1.0106294940291625,11.909886910047158,1.0086904579793663,63.48674011230469,-0.1356964111328125,165.77887856960297
2116.125,21.4661808013916,-0.3528958857059479,-0.8605382442474365,-1.0036815404891968,-0.1457397937774658,-0.0601363070309162,-110.86078643798828,81.29459381103516,2.797293186187744,14.020479202270508,-0.9198685884475708,-2.500713348388672,-0.9993863105773926,-0.1091284528374672,0.0845836922526359,-47.7552604675293,81.13522338867188,167.44488525390625,21.48632075935743,1.0159887290872778,14.271424684737038,1.0088787925133922,63.10552597045898,-0.1593704223632812,164.6475920677185
2138.4210000000003,23.99056434631348,-1.1819883584976196,-0.7546631693840027,-0.9968160390853882,-0.1345834881067276,-0.041882861405611,-110.17752838134766,81.29617309570312,4.150407314300537,15.227030754089355,-1.4647643566131592,-2.4432175159454346,-1.0006024837493896,-0.1097952499985694,0.1001458466053009,-47.5219612121582,81.08424377441406,167.62246704101562,24.03151661118074,1.0067318933700162,15.491201116653608,1.0115777370029395,62.65556716918945,-0.2119293212890625,163.4720597267151
2158.336,20.199201583862305,-0.0452455580234527,-1.1480238437652588,-0.989013969898224,-0.122635506093502,-0.0459788143634796,-109.7265625,81.28723907470703,5.345527172088623,16.374244689941406,-2.499068021774292,-2.233119249343872,-0.9972811341285706,-0.0985040739178657,0.1118897348642349,-47.097389221191406,81.0226058959961,167.9640350341797,20.231849903849124,0.9976483104676344,16.71370849707866,1.0083610592615986,62.629173278808594,-0.2646331787109375,162.61850786209106
2168.698,18.23603820800781,1.84436583518982,-1.3362003564834597,-0.9802507162094116,-0.1293428540229797,-0.0540697835385799,-109.55960845947266,81.25638580322266,6.292908191680908,17.657127380371094,-3.1583404541015625,-2.236396074295044,-0.9881656765937804,-0.0836139619350433,0.1158193498849868,-46.54819107055664,80.95638275146484,168.39691162109375,18.377709494129096,0.9902245109104212,18.076247651318216,0.9984371892293976,63.011417388916016,-0.3000030517578125,162.10400342941284
2188.631,21.363744735717773,2.053905487060547,-0.5401296615600586,-0.9828824400901794,-0.1249624267220497,-0.0424921512603759,-109.35550689697266,81.2442855834961,7.213868618011475,18.56338882446289,-2.7032482624053955,-2.315875291824341,-0.983035147190094,-0.0854436308145523,0.1131137609481811,-46.05018997192383,80.89564514160156,168.7623748779297,21.469044155108147,0.9917051386620034,18.9015934297528,0.993203623419521,63.30531692504883,-0.3486404418945312,161.5485062599182
2209.767,20.84746551513672,2.212544202804565,-0.112720102071762,-0.9891138076782228,-0.1181574761867523,-0.0332764014601707,-109.17723083496094,81.24549102783203,8.11884880065918,19.12490463256836,-1.5693145990371704,-2.3724300861358643,-0.9938534498214722,-0.0978802368044853,0.1084701567888259,-45.697540283203125,80.8479995727539,168.96397399902344,20.96484858222424,0.9967018775003252,19.33528251743916,1.004535213615101,63.47969055175781,-0.397491455078125,160.84512519836426
2228.405,16.7762508392334,2.769659757614136,-0.3360223174095154,-0.9952232837677002,-0.1218212768435478,-0.03192925080657,-109.13052368164062,81.23760223388672,8.972617149353027,19.493141174316406,-2.0796122550964355,-2.0998330116271973,-0.9971520900726318,-0.1012872904539108,0.100296527147293,-45.30397033691406,80.79979705810547,169.2012176513672,17.006661000667467,1.003159650854352,19.715898119286788,1.0072888360850232,63.82655334472656,-0.43780517578125,160.22860050201416
2252.331,16.479230880737305,3.1115663051605225,-0.1681649386882782,-0.9934868216514589,-0.1211705282330513,-0.0622940100729465,-109.24462890625,81.22523498535156,9.671797752380373,19.65367889404297,-2.24707555770874,-2.107707977294922,-0.9936400055885316,-0.0800874456763267,0.0905367285013198,-44.870872497558594,80.76170349121094,169.47991943359375,16.77126038014616,1.0027855729907378,19.893689339832235,1.0009652136156666,64.3737564086914,-0.463531494140625,159.80812168121338
2273.625,22.19669342041016,2.613489151000977,0.1572624295949936,-0.9965915083885192,-0.1101357042789459,-0.0751783400774002,-109.2546844482422,81.22608947753906,10.362210273742676,20.413494110107425,-1.5406012535095217,-2.460144758224488,-0.993866801261902,-0.076936088502407,0.0891027450561523,-44.51519012451172,80.73103332519531,169.6704864501953,22.35057618527633,1.0054731676011632,20.61883862483833,1.0008145080588893,64.73949432373047,-0.49505615234375,159.30827617645264
2288.591,24.05141830444336,1.8432505130767824,0.4570070207118988,-1.0023597478866575,-0.0984190478920936,-0.0648447647690773,-109.12578582763672,81.24641418457031,11.15572452545166,20.545522689819336,0.8146778345108032,-2.365312099456787,-0.9936347603797911,-0.0875554084777832,0.0851376056671142,-44.38880920410156,80.73323822021484,169.62986755371094,24.12627510259822,1.0092651865041948,20.697268029857494,1.0011115814370772,64.73697662353516,-0.5131759643554688,158.47414302825928
2310.875,19.17530059814453,1.6057387590408323,0.4533835351467132,-0.9926877021789552,-0.0962113291025161,-0.0496145486831665,-109.01744079589844,81.2715835571289,12.026143074035645,20.268564224243164,2.893435001373291,-1.6239686012268066,-0.989068865776062,-0.1152488216757774,0.100799560546875,-44.412879943847656,80.7579574584961,169.42848205566406,19.24775588533453,0.998572529837488,20.538352802433124,1.000849670805583,64.60456085205078,-0.5136260986328125,157.40233898162842
2333.468,14.190427780151367,2.5637309551239014,0.5308353304862976,-0.9769130945205688,-0.1140556186437606,-0.0549876764416694,-109.12722778320312,81.27989196777344,12.776052474975586,20.554946899414062,5.043334007263184,-1.1424862146377563,-0.9822180271148682,-0.1084051132202148,0.1186976879835128,-44.51263046264648,80.81491088867188,169.14495849609375,14.42992526460358,0.9850845257897508,21.195431929951,0.9952854176035852,64.61459732055664,-0.4649810791015625,156.36890602111816
2355.748,15.932435989379885,3.629802227020264,1.8873488903045648,-0.9758145213127136,-0.1318849027156829,-0.0636456757783889,-109.39703369140624,81.29520416259766,13.328662872314451,20.671113967895508,7.337196350097656,-1.2674965858459473,-0.9809262156486512,-0.0840346068143844,0.1339642405509948,-44.722259521484375,80.9056167602539,168.7506866455078,16.44931811950582,0.9867412931535668,21.971252821556224,0.993591703586356,64.67477416992188,-0.38958740234375,155.42202377319336
2378.152,19.96318244934082,4.452817440032959,3.698376417160034,-0.9880012273788452,-0.1234885528683662,-0.0478690043091774,-109.7188720703125,81.34730529785156,13.74623966217041,19.540395736694336,9.976343154907228,-2.230902671813965,-0.9880950450897216,-0.0698889270424842,0.1472178250551223,-45.210411071777344,81.01976013183594,168.0996551513672,20.785432994838875,0.9968386477084342,22.0529230493872,1.001443642082753,64.50846099853516,-0.327545166015625,154.35341548919678
2388.351,15.198423385620115,6.72198486328125,4.1422224044799805,-0.9856598377227784,-0.0987177491188049,-0.0351674668490886,-110.42355346679688,81.40658569335938,13.872004508972168,15.137372016906738,13.044194221496582,-2.99453067779541,-0.9926499128341676,-0.067044086754322,0.1553734540939331,-46.11865997314453,81.16152954101562,167.10983276367188,17.12703010912641,0.9912150424682622,20.205401467098195,1.00697054041093,64.30489349365234,-0.24505615234375,153.2378282546997
2411.041,4.0983991622924805,11.847551345825195,3.615026473999024,-0.976133406162262,-0.0995615646243095,-0.044705357402563,-111.98395538330078,81.41212463378906,13.354860305786133,10.096940994262695,14.886068344116213,-3.655710220336914,-0.9899027347564696,-0.0507437177002429,0.1587210297584533,-47.333984375,81.31938171386719,165.8880615234375,13.047212920511337,0.9822156080804616,18.35503923728841,1.0038300226890824,64.64997100830078,-0.092742919921875,152.53320121765137
2433.617,0.4476524591445923,15.848949432373049,3.577123641967773,-0.9698678255081176,-0.120689682662487,-0.0539790652692317,-114.07492065429688,81.36370086669922,12.372732162475586,5.922407150268555,14.820558547973633,-4.453564643859863,-0.9763104915618896,-0.0406120792031288,0.1453386545181274,-48.73843002319336,81.46612548828125,164.55772399902344,16.25378123342445,0.9788377485285068,16.569794813590935,0.9879042673296636,65.33649063110352,0.1024246215820312,152.18499183654785
2457.752,7.721674919128418,16.48435401916504,4.782898426055908,-0.9759492874145508,-0.1291820853948593,-0.0381460487842559,-116.04881286621094,81.3208999633789,11.359699249267578,3.343865871429444,14.77808666229248,-4.665017127990723,-0.9744800329208374,-0.068461537361145,0.1125308871269226,-50.410888671875,81.60138702392578,163.0121307373047,18.82111336610636,0.9852005602057812,15.85356960336644,0.983342014365714,65.63792419433594,0.280487060546875,151.6524314880371
2478.429,11.63561725616455,15.713916778564451,5.454796314239502,-0.9816819429397584,-0.1057518869638443,-0.0266197584569454,-117.85963439941406,81.30217742919922,10.432323455810549,4.9604105949401855,13.356815338134766,-3.530467987060547,-0.9775241017341614,-0.1130992025136947,0.0781736522912979,-52.05750274658203,81.72003173828125,161.46221923828125,20.29949684808578,0.9877203603402628,14.679046067612376,0.9871453383332028,65.80213165283203,0.4178543090820312,151.0298957824707
2489.006,9.226454734802246,15.027259826660156,4.912544250488281,-0.9801611304283142,-0.1159172877669334,-0.0481586344540119,-119.63097381591795,81.2596435546875,9.594366073608398,9.72940731048584,11.782211303710938,-1.768865942955017,-0.9727576375007628,-0.1411741524934768,0.0577964596450328,-53.45429229736328,81.83345031738281,160.07803344726562,18.30516582509742,0.9881659340810266,15.382157083542452,0.9846461259741072,66.17668151855469,0.5738067626953125,150.48366737365723
2510.841,9.174622535705566,14.181598663330078,4.86199951171875,-0.964800238609314,-0.1398192048072815,-0.0898431167006492,-121.35723876953124,81.1904296875,8.8043212890625,15.682588577270508,11.16010570526123,-0.9910480976104736,-0.9606181383132936,-0.1227518320083618,0.049409881234169,-54.61035537719727,81.95647430419922,158.84500122070312,17.576418252089795,0.9790100592292278,19.273653524132808,0.9696888966475185,66.74688339233398,0.7660446166992188,150.04067993164062
2535.6510000000003,15.961410522460938,12.20184326171875,5.085290431976318,-0.9738029837608336,-0.1375413686037063,-0.0970137268304824,-122.7347640991211,81.13848114013672,8.230639457702637,19.660978317260746,11.689974784851074,-1.4675891399383545,-0.9651363492012024,-0.0947024449706077,0.0510380901396274,-55.741817474365234,82.08561706542969,157.55462646484375,20.724666067940102,0.9882416417316277,22.92080707012552,0.9711135939105872,66.99294662475586,0.9471359252929688,149.3239870071411
2556.647,20.740942001342773,10.191701889038086,4.65584135055542,-0.988628625869751,-0.1184364184737205,-0.0759576559066772,-123.72109985351562,81.1134262084961,7.956109523773193,20.63957595825196,12.41214656829834,-2.5110554695129395,-0.9826030731201172,-0.0933237075805664,0.0614835992455482,-57.01192474365234,82.197998046875,156.10382080078125,23.574017926090345,0.9985906621838756,24.214848290673704,0.9889379892985548,66.70917510986328,1.0845718383789062,148.14771127700806
2578.356,19.91480827331543,9.47957992553711,3.7390878200531006,-0.9924781322479248,-0.1221351474523544,-0.0442051403224468,-124.46585845947266,81.08680725097656,7.940702438354492,20.99148178100586,11.86326026916504,-2.5797014236450195,-0.9942803382873536,-0.1080757230520248,0.0718954205513,-58.23533630371094,82.28753662109375,154.6925506591797,22.370578934252645,1.0009415225998295,24.249414652964447,1.0027176594207765,66.23052215576172,1.2007293701171875,146.7518482208252
2598.52,14.902278900146484,9.371292114257812,3.933051586151123,-0.9991405010223388,-0.1223884299397468,-0.0503050610423088,-125.3184051513672,81.06069946289062,7.917611122131348,21.795223236083984,11.454572677612305,-2.0128417015075684,-1.0095282793045044,-0.1198691725730896,0.0920232534408569,-59.3211784362793,82.36656951904297,153.39263916015625,18.03795795226909,1.0078647070578255,24.70405883357561,1.020776294994506,65.99722671508789,1.3058700561523438,145.4750280380249
2608.4100000000003,7.494075298309326,10.260000228881836,3.928919315338135,-1.0198171138763428,-0.1263454556465149,-0.0543348751962184,-126.39746856689452,81.01949310302734,7.455982685089111,23.452342987060547,15.512959480285645,-3.0556914806365967,-1.0218220949172974,-0.1551131904125213,0.1214193552732467,-60.95725631713867,82.43885040283203,151.4756317138672,13.299066743941935,1.029049269267603,28.28429871579897,1.0406359379418415,65.44021224975586,1.4193572998046875,144.01964902877808
2628.139,0.9807062149047852,6.284991264343262,4.082369327545166,-1.0837006568908691,-0.0834024176001548,0.0004148068837821,-127.1496353149414,81.0654067993164,7.2424163818359375,29.325115203857425,37.32122421264648,-10.236425399780272,-0.9977437853813172,-0.2443794012069702,0.1109756082296371,-66.10022735595703,82.51760864257812,145.91293334960938,7.558348973109508,1.0869053542383544,48.55533506645183,1.0332132106314045,61.049407958984375,1.4522018432617188,138.67051696777344
2650.914,-4.874247074127197,-4.390953540802002,3.604198217391968,-1.078574538230896,-0.0781818628311157,-0.0214927736669778,-126.97734832763672,81.22660064697266,8.08856201171875,24.351016998291016,54.69673538208008,-11.959120750427246,-1.0159368515014648,-0.1307063400745391,-0.0444961413741111,-74.358642578125,82.67066955566406,137.3577117919922,7.485252322224723,1.0816179443387737,61.05510182967225,1.025276421347714,52.61870574951172,1.4440689086914062,129.26914978027344
2668.349,-7.460675239562988,-8.8656644821167,1.1257221698760986,-1.0083422660827637,-0.1284583061933517,-0.1375360786914825,-126.42049407958984,81.3353042602539,9.381680488586426,20.128437042236328,42.462135314941406,-1.801101803779602,-1.0278476476669312,0.0138100748881697,-0.0887156054377555,-80.49380493164062,82.85234832763672,131.02044677734375,11.641689402464076,1.0257542761016487,47.0258533253278,1.0317615827462507,45.92668914794922,1.5170440673828125,121.63876628875732
2690.81,-1.661595582962036,-10.552606582641602,0.536905825138092,-1.0350643396377563,-0.189182624220848,-0.091619923710823,-125.25164794921876,81.4421615600586,11.171878814697266,19.155405044555664,46.84542465209961,-2.282026767730713,-0.9716979265213012,-0.0907177627086639,0.0254562385380268,-87.44825744628906,82.92650604248047,123.8691864013672,10.696105526517444,1.0561924364989594,50.66192850084933,0.976255393305034,37.80339050292969,1.484344482421875,112.69730758666992
2713.438,-2.0541133880615234,-21.61868095397949,-4.735595703125,-1.0586634874343872,-0.1472298055887222,-0.025041265413165,-122.3408660888672,81.61734771728516,14.734234809875488,11.132136344909668,60.71940612792969,-5.954400062561035,-0.9788143634796144,-0.1661300212144851,-0.1422423869371414,-97.31458282470705,82.72940063476562,113.93817138671876,22.226394549373616,1.0691454813326036,62.01794595304774,1.0029504667451443,25.02628326416016,1.1120529174804688,99.20393657684326
2728.4700000000003,-13.220251083374023,-27.44245719909668,-9.242377281188965,-1.0244007110595703,-0.164151132106781,-0.0560131594538688,-118.6495590209961,81.7264633178711,19.313459396362305,19.5423583984375,57.04903793334961,-6.9477643966674805,-0.9977599382400512,-0.1989325582981109,-0.1119973957538604,-105.4329605102539,82.31585693359375,105.5654754638672,31.832138376796856,1.038980213971034,60.702289339079655,1.0235440751445288,13.216598510742188,0.5893936157226562,86.25201606750488
2750.834,-35.157249450683594,-31.485889434814453,-16.830827713012695,-1.068841576576233,-0.2161532044410705,0.0443747416138649,-114.02826690673828,81.69314575195312,25.26796531677246,21.488405227661133,59.37212371826172,-9.453116416931152,-1.0031721591949463,-0.1450252532958984,-0.0944385975599289,-112.65807342529295,81.72822570800781,98.05921173095705,50.10658822893521,1.0913815287521629,63.84482785658368,1.0179908417006889,1.3701934814453125,0.0350799560546875,72.79124641418457
2773.323,-60.468746185302734,-42.77626419067383,-24.1959285736084,-1.107376217842102,-0.1954773664474487,0.1558763980865478,-108.71011352539062,81.55030822753906,32.44914627075195,18.44535255432129,62.18864059448242,-16.380353927612305,-0.99360191822052,-0.2069728523492813,-0.121235467493534,-118.68737030029295,80.83671569824219,91.7920379638672,77.92124872505605,1.1352492854505325,66.90272075660867,1.022145083674265,-9.977256774902344,-0.713592529296875,59.342891693115234
2795.508,-88.35370635986328,-55.05637741088867,-30.086219787597656,-1.0793040990829468,-0.1105603575706482,0.0726689025759697,-102.11995697021484,81.29632568359375,41.47438430786133,23.194135665893555,63.345489501953125,-20.8579216003418,-0.9787630438804626,-0.2850078642368316,-0.1638240963220596,-123.25328063964844,79.7291259765625,86.90481567382812,108.3640288206506,1.0873829593868929,70.60929020331484,1.0324945100477427,-21.1333236694336,-1.56719970703125,45.4304313659668
2817.258,-115.05671691894533,-59.07558822631836,-35.41454315185547,-1.072662115097046,-0.1767424643039703,-0.0161975752562284,-96.34571838378906,80.77371215820312,50.21980667114258,34.83449935913086,66.44708251953125,-22.698347091674805,-0.9852286577224731,-0.2705729901790619,-0.1758735477924347,-126.80374908447266,78.51348876953125,82.80982971191406,134.09758796901036,1.0872461879891278,78.3828557890871,1.0367336957122415,-30.4580307006836,-2.260223388671875,32.590023040771484
2828.289,-130.94329833984375,-60.74694061279297,-44.937110900878906,-1.1178815364837646,-0.3036287426948547,0.0674267560243606,-91.30419158935548,79.8956069946289,58.54232025146485,39.46812438964844,70.1121826171875,-25.661983489990234,-0.9995638132095336,-0.2405987977981567,-0.1690647006034851,-129.60137939453125,77.19285583496094,79.36138153076172,151.18095815958242,1.1603430141254478,84.45110058976817,1.0419205685511963,-38.29718780517578,-2.7027511596679688,20.819061279296875
2850.531,-121.58572387695312,-80.25489807128906,-48.30110549926758,-1.1737072467803955,-0.2341172397136688,0.2045240402221679,-84.91124725341797,78.85655212402344,68.05711364746094,44.5874252319336,72.26432800292969,-30.384923934936523,-0.9800662994384766,-0.2751756608486175,-0.1897188425064087,-131.53631591796875,75.7319107055664,76.7221450805664,153.4826821096343,1.2141785972849146,90.1854488987007,1.0354925566224389,-46.62506866455078,-3.1246414184570312,8.665031433105469
2873.1420000000003,-141.85455322265625,-97.1302261352539,-52.29298782348633,-1.173986315727234,-0.1900466084480285,0.1948272585868835,-78.91078186035156,77.54639434814453,77.62146759033203,47.40577697753906,76.93284606933594,-39.351810455322266,-0.9741827249526978,-0.3290189504623413,-0.2083641439676284,-132.7168731689453,74.0451431274414,74.76861572265625,179.69850214899472,1.205122086589522,98.56234311989505,1.049143015918691,-53.80609130859375,-3.501251220703125,-2.852851867675781
2893.308,-176.8360137939453,-106.96024322509766,-59.1783447265625,-1.156448245048523,-0.2213808298110962,0.1697014719247818,-74.57516479492188,75.89850616455078,86.24160766601562,41.144229888916016,76.22373962402344,-48.690860748291016,-0.9882813692092896,-0.3377774953842163,-0.1902840435504913,-133.2167510986328,72.24695587158203,73.63699340820312,214.9733608842741,1.1896136367985597,99.36652381880106,1.0616033714830353,-58.64158630371094,-3.65155029296875,-12.6046142578125
2915.416,-205.97055053710932,-114.78257751464844,-66.22274780273438,-1.1585235595703125,-0.345332384109497,0.1933404356241226,-71.8358383178711,73.92169189453125,93.88687896728516,24.77898406982422,73.22796630859375,-59.01752853393555,-0.9672471284866332,-0.3197079598903656,-0.1676656454801559,-133.31863403320312,70.36695861816406,73.24566650390625,244.9170474181223,1.2242597018776458,97.25945596947908,1.0324204356061413,-61.48279571533203,-3.5547332763671875,-20.641212463378903
2937.813,-206.12844848632807,-127.92233276367188,-74.13561248779297,-1.188073754310608,-0.3899096846580505,0.2868697345256805,-69.5519027709961,71.6279525756836,101.13189697265624,5.102136611938477,67.53564453125,-67.19034576416016,-0.9853502511978148,-0.3061302304267883,-0.1561159044504165,-133.23678588867188,68.47803497314453,73.45245361328125,253.67134157019123,1.2829041478063268,95.40250334328567,1.0435530705906275,-63.68488311767578,-3.1499176025390625,-27.679443359375
2948.781,-179.85292053222656,-145.6439666748047,-77.8178482055664,-1.217747688293457,-0.3671675324440002,0.3149835169315338,-66.98930358886719,69.08683013916016,108.63662719726562,-18.624217987060547,62.44075012207031,-70.37456512451172,-1.019405484199524,-0.2189333885908126,-0.1448723524808883,-133.41368103027344,66.67426300048828,73.97278594970703,244.16153577516585,1.310319062352232,95.907706613705,1.0526667888602113,-66.42437744140625,-2.412567138671875,-34.663841247558594
2975.959,-154.51068115234375,-157.57565307617188,-84.32642364501953,-1.167537808418274,-0.4370944201946258,0.3428415358066559,-64.62086486816406,66.22406768798828,115.64698028564452,-47.768436431884766,56.1463508605957,-70.72502899169922,-1.0156948566436768,-0.185644581913948,-0.1408588588237762,-134.0068359375,64.87281036376953,74.65753936767578,236.2511010710905,1.292956451287393,102.1580440297524,1.0420850112709423,-69.38597106933594,-1.35125732421875,-40.98944091796875
2995.275,-131.86302185058594,-168.10470581054688,-88.22900390625,-1.0637658834457395,-0.4647580981254577,0.4084069430828094,-62.45439147949219,63.11215972900391,122.074462890625,-69.88860321044922,44.837135314941406,-72.43409729003906,-1.0147355794906616,-0.2584247887134552,-0.1243227571249008,-134.6474609375,63.20742034912109,75.8203353881836,231.15234322305213,1.230607238608051,110.18840234879904,1.0544798792034773,-72.19306945800781,0.0952606201171875,-46.254127502441406
3017.652,-112.69477081298828,-182.2870483398437,-85.63619995117188,-1.0237303972244265,-0.4827958643436432,0.4887224733829498,-60.2799186706543,59.844146728515625,128.23728942871094,-67.95420837402344,32.52401351928711,-70.655517578125,-1.0131328105926514,-0.3167245388031006,-0.1672484278678894,-134.95594787597656,61.7653923034668,77.30789947509766,230.7861306558988,1.2328687800484508,103.28498465593002,1.074581110016216,-74.67602920532227,1.921245574951172,-50.92938995361328
3038.086,-97.32243347167967,-197.5782623291016,-82.264404296875,-0.9566895365715028,-0.4837170839309692,0.5227773189544678,-58.0555534362793,56.38475036621094,134.26239013671875,-54.79966354370117,10.541667938232422,-64.1742172241211,-1.030034422874451,-0.3311154246330261,-0.1549215018749237,-134.67965698242188,60.70516204833984,79.1683349609375,235.1090343142017,1.1926999672529963,85.04387128859722,1.0929817054641828,-76.62410354614258,4.320411682128906,-55.09405517578125
3047.941,-87.73224639892578,-210.5115966796875,-77.69952392578125,-0.8420047760009766,-0.4640339612960815,0.577276885509491,-56.03797149658203,52.783687591552734,140.03553771972656,-40.85602569580078,-7.596279144287109,-54.006797790527344,-0.9983313083648682,-0.2726863026618957,-0.1389797329902649,-133.98159790039062,60.03784942626953,81.23030853271484,240.93421386994063,1.1214045490313145,68.14435046341534,1.0441927921140663,-77.9436264038086,7.254161834716797,-58.80522918701172
3069.0460000000003,-82.24895477294922,-221.9654541015625,-72.51153564453125,-0.7729216814041138,-0.4873941242694855,0.577212929725647,-54.21294021606445,49.05097961425781,145.6360626220703,-39.142696380615234,-26.530967712402344,-43.41120147705078,-0.9834956526756288,-0.1903218328952789,-0.1151421070098877,-133.0720977783203,59.77293395996094,83.49008178710938,247.5711537665154,1.0808032772893714,64.1917077306926,1.0083371478405203,-78.85915756225586,10.721954345703123,-62.14598083496094
3090.337,-73.15080261230469,-227.51492309570312,-70.25732421875,-0.6760047078132629,-0.4983339309692383,0.5374459028244019,-52.54178237915039,45.164283752441406,150.98609924316406,-53.53854751586914,-47.05179214477539,-31.979127883911133,-0.9859573245048524,-0.1162696555256843,-0.0794730857014656,-132.2079315185547,59.939395904541016,86.0490951538086,249.0987189056713,0.9970793199157651,78.1211356443291,0.9959650846750304,-79.6661491394043,14.77511215209961,-64.93700408935547
3110.598,-60.279109954833984,-231.79232788085932,-65.64598083496094,-0.6016359925270081,-0.5188214778900146,0.5266405940055847,-51.02110290527344,41.22260284423828,156.05567932128906,-72.28478240966797,-62.29596710205078,-22.23184967041016,-0.9515340328216552,-0.0780185535550117,-0.0894738435745239,-131.51864624023438,60.43944549560547,88.83072662353516,248.33575892561032,0.9531484190190382,97.98026548729368,0.9589105688231084,-80.49754333496094,19.216842651367188,-67.2249526977539
3128.894,-48.61467361450195,-233.16375732421875,-60.50331115722656,-0.5625411868095398,-0.5362892150878906,0.5127955079078674,-49.66032791137695,37.29108428955078,160.85366821289062,-91.80101013183594,-68.96671295166016,-13.131418228149414,-0.9561585187911988,-0.1011147573590278,-0.0796920210123062,-131.194580078125,61.15388870239258,91.62173461914062,245.742497100481,0.9311379822599652,115.56931730033152,0.9647870881317702,-81.53425216674805,23.8628044128418,-69.23193359375
3150.225,-57.24913024902344,-230.37417602539065,-59.63254928588867,-0.5373066663742065,-0.4747539162635803,0.5297912359237671,-48.81891250610352,33.39512252807617,165.3538055419922,-107.03744506835938,-83.5367431640625,-2.50911283493042,-0.9873145818710328,-0.1077158600091934,-0.1365675181150436,-130.9402313232422,62.2152214050293,94.6573257446289,244.7565419513465,0.8914978902944203,135.80021263767964,1.00251856694866,-82.12131881713867,28.820098876953125,-70.69647979736328
3172.811,-54.41358947753906,-223.5140991210937,-56.639068603515625,-0.473474383354187,-0.4528014957904815,0.4693220257759094,-48.2767448425293,29.62913703918457,169.56393432617188,-105.01124572753906,-97.1536102294922,2.904522180557251,-0.984483242034912,-0.1695819646120071,-0.1712986230850219,-130.23757934570312,63.5259895324707,98.11048126220705,236.9121679399731,0.8058972330025266,143.0895592241832,1.0135622895708305,-81.96083450317383,33.89685249328613,-71.45345306396484
3195.4060000000004,-55.68418884277344,-212.3306121826172,-50.22657775878906,-0.4293093681335449,-0.502216100692749,0.4333975911140442,-48.0883903503418,26.09670066833496,173.51858520507812,-103.95391845703124,-100.36229705810548,8.769270896911621,-0.9693762063980104,-0.212246298789978,-0.1897596418857574,-129.37281799316406,65.00078582763672,101.67137908935548,225.1837624481,0.7901651835823376,144.76155548146727,1.0103204652828,-81.28442764282227,38.90408515930176,-71.84720611572266
3207.681,-56.74252700805664,-194.76600646972656,-45.89224243164063,-0.4198604822158813,-0.5029650926589966,0.4028764367103576,-48.202449798583984,22.8591537475586,177.1656951904297,-95.6222686767578,-96.4034652709961,16.837692260742188,-0.9516133069992064,-0.1850789040327072,-0.2515870034694671,-128.53817749023438,66.5446548461914,104.98463439941406,207.9894457967281,0.7691333643890768,136.82380737215897,1.001557840112422,-80.33572769165039,43.68550109863281,-72.18106079101562
3231.023,-44.05574417114258,-178.79739379882812,-39.38360595703125,-0.4362702965736389,-0.5127379894256592,0.4257150888442993,-48.250247955322266,19.89032745361328,-179.39373779296875,-87.80655670166016,-93.14041900634766,18.529315948486328,-0.9642548561096193,-0.1975416988134384,-0.2495214343070984,-127.443359375,68.03629302978516,108.35310363769533,188.30954580664545,0.7965333353616959,129.3385657953524,1.0154167107546306,-79.19311141967773,48.14596557617188,287.74684143066406
3252.568,-37.308685302734375,-162.2037353515625,-34.88858413696289,-0.3962666988372803,-0.5330010056495667,0.3811818957328796,-48.34355163574219,17.21169662475586,-176.187744140625,-92.20979309082033,-92.94110107421876,15.721654891967772,-0.9475809931755066,-0.2179407477378845,-0.2886273264884949,-126.10629272460938,69.41654205322266,112.02873229980467,170.05647022121838,0.7657786927470345,131.8630526086901,1.014255215292445,-77.76274108886719,52.2048454284668,288.2164764404297
3275.586,-28.150684356689453,-144.0664825439453,-26.1792106628418,-0.3352446258068084,-0.5608803629875183,0.347789466381073,-48.39090347290039,14.906746864318848,-173.1669464111328,-87.06816864013672,-89.72575378417969,11.566048622131348,-0.95457923412323,-0.2751456201076507,-0.2603358030319214,-124.27362060546876,70.6292495727539,116.07422637939452,149.1072214658442,0.7402251371326084,125.5601463969202,1.02698654169565,-75.88271713256836,55.72250270843506,289.24117279052734
3297.461,-24.1002254486084,-127.52574920654295,-12.627500534057615,-0.3472415208816528,-0.532845139503479,0.4201041162014007,-48.44438934326172,13.025556564331056,-170.2316436767578,-79.72920227050781,-93.11882019042967,9.748981475830078,-1.0319324731826782,-0.3199367523193359,-0.2038851529359817,-121.5871124267578,71.79588317871094,120.79803466796876,130.3959023401482,0.7622257440981939,122.97521298280073,1.099460463264274,-73.1427230834961,58.77032661437988,291.02967834472656
3307.655,-26.330810546875,-115.42169189453124,3.1075334548950195,-0.4864510595798492,-0.5481528639793396,0.4767050743103027,-48.58859634399414,11.542555809020996,-167.27764892578125,-73.23216247558594,-83.29839324951172,7.301469326019287,-0.9446852207183838,-0.3815993070602417,-0.251889705657959,-118.78163146972656,72.72296905517578,125.47761535644533,118.4277640928208,0.8742733688774362,111.15252310730384,1.0495220918156278,-70.19303512573242,61.18041324615479,292.75526428222656
3332.535,-39.20341873168945,-97.75943756103516,8.235296249389648,-0.3728572428226471,-0.5607758164405823,0.3803406655788421,-49.06885528564453,10.37961196899414,-164.52554321289062,-66.13734436035156,-69.8639907836914,-0.7133798003196716,-0.9080977439880372,-0.385080873966217,-0.3291824758052826,-116.0243911743164,73.35504913330078,129.91636657714844,105.6486430429531,0.7734022638464829,96.206207897427,1.0398509001333045,-66.95553588867188,62.97543716430664,294.44190979003906
3352.524,-37.99311065673828,-83.46215057373047,19.774364471435547,-0.4189395308494568,-0.5894083380699158,0.3838448226451874,-49.56240463256836,9.591791152954102,-161.83604431152344,-59.9938850402832,-63.52052307128906,-8.593659400939941,-0.948898434638977,-0.3823240399360657,-0.2581298947334289,-113.1081314086914,73.7018814086914,134.35975646972656,93.81062053955506,0.8186875883792415,87.7950686278919,1.055088125858891,-63.54572677612305,64.1100902557373,296.19580078125
3375.824,-44.21886444091797,-64.2711410522461,23.034204483032227,-0.5199716687202454,-0.6888868808746338,0.3793358504772186,-50.23685073852539,9.116337776184082,-159.39646911621094,-51.27817916870117,-50.869510650634766,-11.537957191467283,-0.8997493386268616,-0.3728476762771606,-0.3311271667480469,-110.5996322631836,73.86587524414062,138.18011474609375,81.3428676699324,0.9427785309234472,73.14563027853814,1.028693084755284,-60.3627815246582,64.74953746795654,297.5765838623047
3397.416,-37.37868118286133,-43.95103073120117,21.935834884643555,-0.460836112499237,-0.7229896783828735,0.3313268423080444,-50.833282470703125,8.89683723449707,-157.283935546875,-39.57843399047852,-33.25339126586914,-17.17682647705078,-0.9078983068466188,-0.4028663039207458,-0.3767884373664856,-108.84059143066406,73.76608276367188,140.95054626464844,61.72551953115767,0.9191634642790152,54.47278068579169,1.062332396636193,-58.00730895996094,64.8692455291748,298.23448181152344
3407.675,-30.240278244018555,-26.549636840820312,18.365463256835938,-0.4816195964813232,-0.7502302527427673,0.3385922312736511,-51.337799072265625,8.849225044250488,-155.48806762695312,-21.20248031616211,-19.19191169738769,-22.28640937805176,-0.8802695274353027,-0.3938297033309936,-0.3619847297668457,-107.55451202392578,73.46119689941406,142.8411865234375,44.23401276498998,0.9536496038504808,36.25684334196348,1.030053018412803,-56.21671295166016,64.61197185516357,298.3292541503906
3435.061,-29.16143226623535,-5.748305320739746,8.366198539733887,-0.4457396566867828,-0.830796480178833,0.3604106605052948,-51.8907470703125,8.90915298461914,-154.14697265625,-0.9548368453979492,-0.6979785561561584,-21.20342445373535,-0.8501479029655457,-0.3688782453536987,-0.3318127691745758,-107.10907745361328,73.05886840820312,143.4327850341797,30.87758772775041,1.0093574576068935,21.236386133978765,0.9843385243904856,-55.21833038330078,64.14971542358398,297.5797576904297
3457.677,-10.133758544921877,11.61771297454834,-2.157407760620117,-0.3260852992534637,-0.8390729427337646,0.3662242591381073,-52.12657165527344,9.018136978149414,-153.21408081054688,18.22373390197754,11.143454551696776,-16.193309783935547,-0.8769892454147339,-0.3149047791957855,-0.28117436170578,-107.19734954833984,72.6738510131836,143.07298278808594,15.56659003286686,0.9718514462603716,26.80493123353089,0.973310936039508,-55.070777893066406,63.65571403503418,296.2870635986328
3477.633,13.3956937789917,22.60002517700196,-6.635372638702393,-0.2547830641269684,-0.8132767677307129,0.4319493770599365,-51.947853088378906,9.204230308532717,-152.51516723632812,33.069732666015625,15.88751220703125,-9.543149948120115,-0.9038501977920532,-0.2658101916313171,-0.2116823494434356,-107.55792999267578,72.37825012207031,142.1318817138672,27.09675109447772,0.9554652139345052,37.90899594637944,0.9656136158369476,-55.61007690429688,63.1740198135376,294.6470489501953
3487.999,26.940235137939453,31.22516632080078,-11.197574615478516,-0.247714102268219,-0.7819870114326477,0.525068998336792,-51.55550003051758,9.468592643737791,-152.01388549804688,41.91341400146485,16.947952270507812,-5.409214973449707,-0.9171057343482972,-0.2836881279945373,-0.2082400619983673,-107.8388214111328,72.14976501464844,141.08364868164062,42.73374496014067,0.9739422033808348,45.532702160651446,0.9823063704164084,-56.283321380615234,62.681172370910645,293.0975341796875
3509.862,30.167823791503903,34.62158966064453,-14.89509391784668,-0.2849336564540863,-0.7661481499671936,0.6297270059585571,-51.06822204589844,9.732680320739746,-151.60382080078125,49.869911193847656,19.90653610229492,-2.905964136123657,-0.9365077018737792,-0.3122614026069641,-0.1889225095510482,-108.10626220703124,71.94351196289062,139.8817138671875,48.27645270488244,1.0318557449139765,53.7747417440071,1.0051097322392426,-57.03804016113281,62.21083164215088,291.48553466796875
3527.319,25.59098243713379,38.17387771606445,-18.89519691467285,-0.2332680523395538,-0.7468429207801819,0.676056981086731,-50.670989990234375,9.953160285949709,-151.29583740234375,56.2194709777832,22.2005558013916,-0.1765089333057403,-0.9815961718559264,-0.2940289676189422,-0.1489338427782058,-108.35161590576172,71.799072265625,138.57778930664062,49.69076160035178,1.0340412826564838,60.44439387003601,1.035454184368364,-57.680625915527344,61.84591197967529,289.8736267089844
3549.7670000000003,18.85232734680176,40.91469192504883,-19.825284957885746,-0.1197936832904815,-0.7343751192092896,0.7111285924911499,-50.40425109863281,10.133764266967772,-151.03921508789062,57.38548278808594,20.228242874145508,2.644304037094116,-1.0344607830047607,-0.2416352927684784,-0.0502316318452358,-108.3689956665039,71.77114868164062,137.4871063232422,49.21853497793281,1.0292527470589536,60.903758409787145,1.0634942139588566,-57.96474456787109,61.63738441467285,288.5263214111328
3571.465,10.869684219360352,38.50619888305664,-17.286832809448242,-0.0693611651659011,-0.743027925491333,0.7707254886627197,-50.26927185058594,10.294906616210938,-150.7084197998047,48.43708038330078,15.714141845703123,1.1781620979309082,-1.0214014053344729,-0.2039457261562347,0.0569780021905899,-108.28468322753906,71.71368408203125,136.69447326660156,43.58568544868763,1.07280904552838,50.9359703543009,1.043120885981227,-58.015411376953125,61.41877746582031,287.40289306640625
3587.586,-5.344809532165527,29.00265884399414,-13.681270599365234,-0.0749498009681701,-0.7052472233772278,0.8316622376441956,-50.48984146118164,10.454662322998049,-150.19418334960938,27.28336524963379,9.1112060546875,-0.1387252807617187,-0.9754560589790344,-0.2404716610908508,0.063989870250225,-108.1352767944336,71.6785659790039,136.3904571533203,32.50997345691464,1.0930019196093883,28.764828172951447,1.006695508225473,-57.64543533325195,61.22390365600586,286.5846405029297
3609.935,-24.322296142578125,14.334866523742676,-8.626959800720215,-0.0626170188188552,-0.6881146430969238,0.8404983282089233,-51.03744888305664,10.50338077545166,-149.38543701171875,8.657352447509766,3.5532009601593018,0.1958450376987457,-0.9580097794532776,-0.2946458756923675,0.0610050074756145,-107.89917755126952,71.69107818603516,136.55799865722656,29.52095735751183,1.0880533501681628,9.360199984106725,1.0041516521560574,-56.86172866821289,61.187697410583496,285.9434356689453
3632.322,-37.69532775878906,-4.240046501159668,0.0803425312042236,-0.0619700998067855,-0.6897271871566772,0.7993898391723633,-51.77885818481445,10.453038215637209,-148.1719512939453,-5.762870788574219,-7.589902400970459,-0.1354090273380279,-0.982074499130249,-0.2910032272338867,0.0681162700057029,-107.30226135253906,71.7706298828125,137.40858459472656,37.9331277921667,1.057633207187228,9.530772989991096,1.0265442154831697,-55.52340316772461,61.31759166717529,285.5805358886719
3655.06,-43.56461715698242,-22.201400756835938,10.204011917114258,-0.1110848188400268,-0.6981530785560608,0.7273862957954407,-52.51403045654297,10.322677612304688,-146.53468322753906,-22.585081100463867,-17.676679611206055,-4.040673732757568,-0.9657913446426392,-0.28899085521698,0.0321837440133094,-106.44803619384766,71.82327270507812,138.88877868652344,49.94897319069425,1.0143216360627625,28.96338955658255,1.0086151045688303,-53.93400573730469,61.50059509277344,285.4234619140625
3677.432,-43.53371810913086,-34.81455993652344,17.053773880004883,-0.1700796335935592,-0.7310954332351685,0.6236092448234558,-53.214969635009766,10.173255920410156,-144.6112060546875,-37.44416427612305,-20.880859375,-6.763643264770508,-0.924235999584198,-0.2746752500534057,-0.0430327206850051,-105.79822540283205,71.82474517822266,140.4682159423828,58.292961835279804,0.97586684772561,43.40302520319166,0.9651479114461452,-52.583255767822266,61.6514892578125,285.0794219970703
3687.566,-37.578739166259766,-36.89043045043945,15.502734184265137,-0.2130400538444519,-0.79590904712677,0.4999865591526031,-53.87145614624024,10.011752128601074,-142.68450927734375,-42.55509185791016,-18.012866973876953,-5.029002189636231,-0.8783065676689148,-0.2587851285934448,-0.1235855594277381,-105.61099243164062,71.82881164550781,141.66436767578125,54.894446561856135,0.9637654461400604,46.483223669159656,0.9239402362114894,-51.73953628540039,61.81705951690674,284.348876953125
3709.803,-27.166576385498047,-28.69231986999512,6.167742729187012,-0.2280379384756088,-0.8409689664840698,0.3944776654243469,-54.3424186706543,9.784505844116213,-140.99826049804688,-33.87882614135742,-11.906450271606444,0.4788916110992431,-0.8451908826828003,-0.2629933059215545,-0.1804336458444595,-105.80807495117188,71.88793182373047,142.2757568359375,39.991413358428034,0.956474114909616,35.913336742243004,0.9033656002319344,-51.46565628051758,62.10342597961426,283.2740173339844
3736.159,-12.081493377685549,-15.787213325500488,-3.82499361038208,-0.2587197124958038,-0.8505390882492065,0.3509086072444916,-54.54824066162109,9.53887939453125,-139.63800048828125,-14.846308708190918,-4.169854164123535,6.769697189331055,-0.8312968015670776,-0.2976036071777344,-0.205269768834114,-106.20960998535156,71.99883270263672,142.29139709472656,20.24423777126182,0.9557664363807572,16.841299416737435,0.9065086636640948,-51.66136932373047,62.45995330810547,281.9293975830078
3754.863,-2.957381010055542,-1.5100977420806885,-15.211864471435549,-0.2716806530952453,-0.8520172834396362,0.3774056434631347,-54.632930755615234,9.273550987243652,-138.6466064453125,7.258113861083984,5.735478401184082,11.818466186523438,-0.8406383991241455,-0.3115421831607818,-0.1983892321586609,-106.81765747070312,72.1446304321289,141.61981201171875,15.570077659619988,0.9706589762959694,15.00840005839751,0.918199181772177,-52.18472671508789,62.87107944488525,280.26641845703125
3777.429,3.67208743095398,10.566542625427246,-25.10627174377441,-0.2486726641654968,-0.8236219882965088,0.3852934539318084,-54.634368896484375,8.986516952514648,-137.97012329101562,24.799724578857425,12.607675552368164,16.44656753540039,-0.8791953325271606,-0.3314076364040375,-0.2015760242938995,-107.56006622314452,72.33212280273438,140.43809509277344,27.485649528941217,0.9426782691625828,32.31825189761125,0.9609621989311494,-52.92569732666016,63.34560585021973,278.40821838378906
3787.625,7.694565296173096,21.50661277770996,-28.22977638244629,-0.2314979285001754,-0.7904838919639587,0.3879287838935852,-54.586727142333984,8.775468826293945,-137.5104217529297,39.51593399047852,14.65666961669922,18.96683883666992,-0.9219367504119872,-0.3437952697277069,-0.2007935941219329,-108.178466796875,72.55188751220703,139.08108520507812,36.31337223214543,0.9104640661374374,46.217615460440406,1.0042313611353535,-53.591739654541016,63.776418685913086,276.5915069580078
3812.683,3.910981416702272,37.18930816650391,-30.10678672790528,-0.2322634905576706,-0.7755579948425293,0.3594163060188293,-54.65537643432617,8.715668678283691,-137.3308563232422,51.45646286010742,13.013866424560549,19.089250564575195,-0.9399924278259276,-0.3403310477733612,-0.1995946913957595,-108.478515625,72.78434753417969,137.81658935546875,48.00790585543758,0.8857858733590295,56.4050332550833,1.0194356415595662,-53.82313919067383,64.068678855896,275.14744567871094
3834.682,-2.8319928646087646,58.03669738769531,-28.96877098083496,-0.2713249921798706,-0.7253553867340088,0.373955637216568,-54.91022872924805,8.91224479675293,-137.48236083984375,60.3743782043457,15.827802658081056,17.159563064575195,-0.9420485496520996,-0.3643641471862793,-0.2120578289031982,-108.75625610351562,72.94495391845703,136.3875732421875,64.92663643987866,0.860000294797333,64.73048343023297,1.0320781096678424,-53.84602737426758,64.0327091217041,273.86993408203125
3854.816,-3.6926169395446777,62.419960021972656,-22.64048767089844,-0.3643464744091034,-0.7600642442703247,0.385175347328186,-55.1888427734375,9.256489753723145,-137.9928741455078,65.74652099609375,18.63157081604004,13.223767280578612,-0.9506747126579284,-0.3863102197647095,-0.223208338022232,-109.02961730957033,72.99899291992188,134.86273193359375,66.50171810549695,0.9267178950586592,69.60322173041858,1.050161871972383,-53.84077453613281,63.74250316619873,272.8556060791016
3876.82,1.6132965087890625,75.47735595703125,-22.76300811767578,-0.3384237885475158,-0.7800716757774353,0.3515915870666504,-55.40676498413086,9.74159336090088,-138.9403533935547,74.39529418945312,26.25325393676757,11.7508544921875,-0.9235671758651732,-0.3429818153381347,-0.2149458974599838,-109.58546447753906,72.98744201660156,132.86639404296875,78.85168689669895,0.9201408175388786,79.76199421466494,1.0083722491337672,-54.1786994934082,63.24584865570069,271.80674743652344
3896.928,17.912776947021484,85.94652557373047,-13.841201782226562,-0.3202089965343475,-0.7706668972969055,0.3395450711250305,-55.32816696166992,10.48958969116211,-139.96226501464844,85.49496459960938,35.29230880737305,9.805155754089355,-0.9247456789016724,-0.3243168294429779,-0.1823939383029937,-110.36920166015624,72.88548278808594,130.40184020996094,88.8777345735475,0.900972876049038,93.01116659952928,0.996796631834667,-55.04103469848633,62.39589309692383,270.3641052246094
3907.108,29.462682723999023,97.4228973388672,-9.46493434906006,-0.3064018189907074,-0.7200547456741333,0.3506329655647278,-55.069313049316406,11.445905685424805,-141.12754821777344,94.80572509765624,43.6719970703125,6.174682140350342,-0.9226407408714294,-0.3265623450279236,-0.1361602842807769,-111.26364135742188,72.65342712402344,127.62517547607422,102.21964381383113,0.8574989142788291,104.56335657837364,0.988154099784714,-56.19432830810547,61.20752143859863,268.75272369384766
3927.228,29.49678421020508,100.50821685791016,-8.988083839416504,-0.35276660323143,-0.7471067905426025,0.4146807789802551,-54.848915100097656,12.452857971191406,-142.34100341796875,95.7130126953125,48.145206451416016,2.4939205646514893,-0.9220976829528807,-0.3294153809547424,-0.1377317607402801,-112.24705505371094,72.30622863769531,124.7174835205078,105.13204832877784,0.9244311663320208,107.16884502151412,0.9888117454972142,-57.39813995361328,59.85337066650391,267.05848693847656
3950.737,26.778907775878903,101.85889434814452,-5.003000736236572,-0.4120529890060425,-0.7581913471221924,0.5182821750640869,-54.709590911865234,13.545634269714355,-143.319091796875,91.2600326538086,50.93263626098633,-4.140393257141113,-0.9579612016677856,-0.3322506844997406,-0.1330350637435913,-113.21138763427734,71.80975341796875,121.92568969726562,105.4389599524876,1.0066072707808835,104.59287668284074,1.0226331255326102,-58.50179672241211,58.2641191482544,265.2447814941406
3967.501,38.74312973022461,98.7015380859375,2.899689197540283,-0.3606981039047241,-0.7527153491973877,0.5138235092163086,-54.343379974365234,14.785123825073242,-144.37086486816406,81.81383514404297,52.51997375488281,-10.89314079284668,-0.9921271204948424,-0.2906551659107208,-0.0958183035254478,-114.13489532470705,71.20207977294922,119.37168884277344,106.07276709535354,0.9801520890663704,97.82899253556177,1.0382570953200712,-59.7915153503418,56.41695594787598,263.7425537109375
3989.718,27.75190734863281,111.63977813720705,7.4581708908081055,-0.1648450642824173,-0.6843406558036804,0.4119772613048553,-54.31335067749024,16.170522689819336,-145.60049438476562,72.93034362792969,50.66530990600586,-13.834880828857422,-1.0381015539169312,-0.226909801363945,-0.0204583741724491,-114.91753387451172,70.5798110961914,117.14550018310548,115.2789344895606,0.8156109932046862,89.8733140432031,1.0628082796410423,-60.60418319702149,54.40928840637207,262.7459945678711
4012.007,11.846024513244627,126.123291015625,12.652751922607422,-0.1155719980597496,-0.6594369411468506,0.3662423193454742,-54.67256546020508,17.825180053710938,-147.0229949951172,60.225616455078125,45.06227111816406,-17.183534622192383,-1.0146191120147705,-0.2061160951852798,0.0120643060654401,-115.57086181640624,69.88346862792969,115.32896423339844,127.3086994851313,0.7631168996714658,77.15573224222024,1.0354136055900125,-60.89829635620117,52.05828857421875,262.3519592285156
4028.399,-5.580186367034912,132.00282287597656,18.02342414855957,-0.2663635909557342,-0.701921820640564,0.4364254772663116,-55.4765625,19.62426376342773,-148.52806091308594,43.96377944946289,40.20537567138672,-23.10066604614257,-0.9601011276245116,-0.2325773537158966,-0.021874651312828,-115.99504852294922,69.16963958740234,114.07615661621094,133.34439450219182,0.8683956483569719,63.89778484528048,0.9881117857294316,-60.51848602294922,49.54537582397461,262.6042175292969
4049.78,4.95817756652832,126.07913208007812,29.071727752685547,-0.3785814642906189,-0.7532901167869568,0.4645319581031799,-56.06103897094727,21.54997444152832,-149.84164428710938,32.205780029296875,38.24606323242188,-25.86593437194824,-0.9415504336357116,-0.2736933529376983,-0.0649853497743606,-116.42928314208984,68.41580963134766,113.0553207397461,129.48241743716895,0.962579796823365,56.29405102679859,0.9826740895165458,-60.36824417114258,46.865835189819336,262.89696502685547
4072.118,27.752132415771484,124.37199401855467,40.96422576904297,-0.2983335852622986,-0.6110119819641113,0.379197746515274,-56.1938362121582,23.616025924682617,-151.02183532714844,28.21419334411621,35.12542724609375,-24.3540267944336,-0.9781701564788818,-0.2541874945163727,-0.0915309116244316,-116.8330535888672,67.73013305664062,112.16944122314452,133.85305951912733,0.7785431915837623,51.21479245670909,1.0147935973276687,-60.63921737670898,44.11410713195801,263.19127655029297
4095.258,29.509700775146484,138.04733276367188,46.031341552734375,-0.3003314435482025,-0.6026831865310669,0.4416253268718719,-56.42664337158203,25.901012420654297,-152.42588806152344,33.35812759399414,36.71198272705078,-20.049388885498047,-0.9530100226402284,-0.233424425125122,-0.0685405656695365,-117.2309799194336,67.12288665771484,111.17385864257812,148.48155753542972,0.805269475794082,53.5024517850388,0.9835714893387376,-60.80433654785156,41.22187423706055,263.5997467041016
4117.069,46.19405364990234,132.13768005371094,50.52956771850586,-0.3701891601085663,-0.6884732246398926,0.419511467218399,-56.36427688598633,28.182514190673828,-153.71376037597656,32.94817352294922,30.438093185424805,-14.92643928527832,-0.9145973324775696,-0.2219754010438919,-0.0463381260633468,-117.4757080078125,66.6231460571289,110.35943603515624,148.82034234742912,0.8871444450796452,47.274287355814,0.9422890114878476,-61.11143112182617,38.44063186645508,264.0731964111328
4127.356,64.2679214477539,131.91610717773438,56.3902587890625,-0.4042205512523651,-0.6613484025001526,0.4005261063575744,-55.98477554321289,30.5706787109375,-154.97647094726562,27.853967666625977,26.967065811157227,-6.014462947845459,-0.8905195593833923,-0.2010723948478698,-0.0655167698860168,-117.88401794433594,66.26594543457031,109.4917449951172,157.2007835427025,0.8724661170602723,39.23314820133271,0.9152855514813648,-61.89924240112305,35.69526672363281,264.4682159423828
4149.654,71.81651306152344,136.48561096191406,53.296329498291016,-0.4691081643104553,-0.6347360014915466,0.4488495588302612,-55.56331253051758,32.98136901855469,-156.37570190429688,27.77079963684082,25.95132064819336,4.629839420318604,-0.9125643968582152,-0.1970419138669967,-0.1003498807549476,-118.46826171875,66.12648010253906,108.43360137939452,163.17607755413576,0.907974772708098,38.28999567658426,0.9389725197262696,-62.90494918823242,33.145111083984375,264.8093032836914
4172.205,96.66380310058594,141.1145477294922,50.620723724365234,-0.536543607711792,-0.7190868258476257,0.4108718335628509,-54.86250686645508,35.4110107421875,-157.98948669433594,26.61861228942871,24.71433448791504,12.531983375549316,-0.8765334486961365,-0.2066804468631744,-0.1329168081283569,-119.21471405029295,66.19062805175781,107.23820495605467,178.380671826144,0.9868032071792724,38.42394379446905,0.9103266291182164,-64.35220718383789,30.779617309570312,265.2276916503906
4195.383,139.8823699951172,139.32496643066406,48.357200622558594,-0.591784656047821,-0.6779703497886658,0.3453448414802551,-53.407806396484375,37.841426849365234,-159.6526641845703,22.89252281188965,27.29705238342285,22.02254104614257,-0.9294355511665344,-0.2120277732610702,-0.1388991028070449,-120.3540496826172,66.38793182373047,105.6999740600586,203.26569449468573,0.9639066001761925,41.883039331515256,0.963379043350482,-66.94624328613281,28.546504974365234,265.3526382446289
4217.071,154.67633056640625,145.13343811035156,41.11920547485352,-0.6461771726608276,-0.541348934173584,0.3469001352787018,-51.82330703735352,40.3211555480957,-161.49635314941406,20.9969482421875,24.803211212158203,30.239919662475582,-0.9650922417640686,-0.2270713150501251,-0.1579809337854385,-121.658447265625,66.72715759277344,104.0244140625,216.05386169680617,0.9115609199911971,44.39058304542765,1.003953381722233,-69.83514022827148,26.40600204467773,265.52076721191406
4227.21,153.83018493652344,156.80789184570312,27.944053649902344,-0.7262922525405884,-0.5622750520706177,0.4309594631195068,-50.61415863037109,42.76601409912109,-163.833984375,33.3759765625,31.321266174316406,41.56079864501953,-0.9601308703422546,-0.2437309026718139,-0.0959301814436912,-123.20608520507812,67.1752700805664,101.79814910888672,221.434665030314,1.014583524966649,61.8245704414902,0.9952178860999294,-72.59192657470703,24.409255981445312,265.6321334838867
4249.621,183.565673828125,159.70021057128906,23.85270881652832,-0.8008681535720825,-0.6613929867744446,0.412635862827301,-49.0803108215332,45.20854187011719,-166.39915466308594,42.03549575805664,31.14132308959961,53.41923904418945,-1.0124454498291016,-0.2968287765979767,-0.1093852967023849,-124.94268798828124,67.77046966552734,99.19396209716795,244.4779449814926,1.1176309040338892,74.76884382854053,1.0607159160826107,-75.86237716674805,22.56192779541016,265.5931167602539
4274.81,225.3726959228516,155.46420288085938,24.680864334106445,-0.8185437321662903,-0.5414226651191711,0.3732115030288696,-46.716552734375,47.71034240722656,-168.8831329345703,43.84402847290039,14.697955131530762,53.45183563232422,-1.070870041847229,-0.3124339580535888,-0.0912075266242027,-126.08268737792967,68.5211181640625,97.2150650024414,274.9020107405431,1.0499710328225886,70.67833791372004,1.1192392226793262,-79.36613464355469,20.810775756835938,266.0981979370117
4298.215,221.33120727539065,164.958984375,20.51058959960937,-0.7735747694969177,-0.3087599873542785,0.2837980687618255,-44.6761589050293,50.32353210449219,-171.63369750976562,36.21672439575195,-8.684497833251953,52.766719818115234,-1.119415521621704,-0.2642436623573303,-0.0182064305990934,-126.61766052246094,69.47647857666016,96.09373474121094,276.80255440609113,0.8799386328751372,64.58636349057817,1.150324865965596,-81.94150161743164,19.15294647216797,267.72743225097656
4316.755,184.19876098632807,187.396713256836,17.407367706298828,-0.7909952998161316,-0.245298147201538,0.2317254394292831,-43.99323654174805,53.25313949584961,-175.1033172607422,18.91513061523437,-38.060997009277344,49.201454162597656,-1.1399301290512085,-0.2049496322870254,0.0819427818059921,-126.15481567382812,70.72312927246094,96.4042510986328,263.3433654733408,0.8599659438782525,65.01695741301491,1.16110278200657,-82.16157913208008,17.469989776611328,271.507568359375
4327.769,167.2075958251953,209.53662109375,20.612882614135746,-0.8107212781906128,-0.2882965207099914,0.2454438805580139,-44.37591171264648,56.54873275756836,-179.3504638671875,-7.378829002380371,-74.83135223388672,47.1554069519043,-1.13648784160614,-0.1390713304281234,0.1555597186088562,-124.2659149169922,72.36058807373047,98.76748657226562,268.865889637737,0.894777387548369,88.75703239404805,1.1554844330925873,-79.8900032043457,15.81185531616211,278.1179504394531
4349.31,177.89732360839844,225.81573486328125,39.01339721679688,-0.8036037683486938,-0.2059392631053924,0.2769520282745361,-45.02557373046875,60.372352600097656,175.93167114257812,-41.14729690551758,-114.38756561279295,45.3882064819336,-1.151739478111267,-0.1189484447240829,0.2524097263813019,-120.24148559570312,74.35610961914062,104.05506134033205,290.10730604600525,0.8745812841342951,129.7601807069429,1.1850583225791782,-75.21591186523438,13.983757019042969,-71.8766098022461
4366.920999999999,180.29415893554688,244.86822509765625,49.10047912597656,-0.9262443780899048,-0.2015072703361511,0.3370206356048584,-46.72003936767578,64.55094909667969,170.13253784179688,-81.99639129638672,-147.216552734375,45.23525238037109,-1.1158963441848757,-0.0432682558894157,0.2567709982395172,-113.35397338867188,76.50247955322266,113.05561065673828,308.0215714185504,1.0060401268165122,174.4773614041061,1.1458743990812432,-66.6339340209961,11.951530456542969,-57.076927185058594
4389.239,184.7113494873047,259.3375244140625,54.55632781982422,-1.1447211503982544,-0.0885637551546096,0.391617089509964,-50.35583114624024,68.81642150878906,162.34719848632812,-109.45411682128906,-168.78074645996094,50.18051528930664,-1.1117849349975586,0.0229474436491727,0.2457281649112701,-102.46931457519533,78.51656341552734,126.64688873291016,323.03347675406616,1.2130927399388902,207.3287924515318,1.138847952049885,-52.11348342895508,9.70014190673828,-35.70030975341797
4406.995,176.83859252929688,265.0327453613281,56.558475494384766,-1.4048762321472168,-0.1011652126908302,0.3442268371582031,-57.14736557006836,72.91027069091797,151.60507202148438,-115.84768676757812,-177.3087158203125,43.64450454711914,-1.0991168022155762,-0.1867126673460006,0.2098254859447479,-86.70098114013672,79.6838150024414,145.18540954589844,323.594043628362,1.4499668076652243,216.24964742725183,1.1344364678605858,-29.55361557006836,6.7735443115234375,-6.4196624755859375
4430.4,157.05628967285156,267.7261657714844,52.87760925292969,-1.5298172235488892,-0.0632378831505775,0.2261557281017303,-69.62724304199219,76.32066345214844,135.59506225585938,-78.75867462158203,-186.26205444335932,23.80529022216797,-1.053703546524048,-0.6099978089332581,0.0253440327942371,-68.09650421142578,79.32879638671875,165.77259826660156,314.8650814631697,1.5477358239329546,203.62508096050163,1.2177975245741828,1.5307388305664062,3.0081329345703125,30.177536010742188
4451.712,158.52230834960938,236.2219696044922,67.42415618896484,-1.6714673042297363,-0.1384239494800567,0.1676840335130691,-85.86238861083984,78.72999572753906,115.91011810302734,14.569008827209473,-155.20651245117188,-22.57474136352539,-0.9108377695083618,-1.0718709230422974,-0.4313174188137054,-55.52950668334961,77.4472427368164,178.37596130371094,292.36305855239,1.685550970452656,157.51487698974069,1.471246897634327,30.332881927490234,-1.2827529907226562,62.4658432006836
4472.283,162.03135681152344,161.90147399902344,57.27633666992188,-1.687710523605347,-0.3521760106086731,0.4275728464126587,-99.71112060546876,79.73518371582031,98.68942260742188,107.73005676269533,-68.83554077148438,-34.799049377441406,-0.8021966218948364,-0.8408523797988892,-1.0706593990325928,-50.45806884765625,76.06072998046875,-178.6197967529297,236.10765895151712,1.7762920066604748,132.4955495138227,1.580146731645443,49.2530517578125,-3.6744537353515625,-277.3092193603516
4494.761,239.5943298339844,32.202049255371094,46.55220413208008,-1.2255092859268188,-0.3965442776679992,-0.3980212807655334,-99.41990661621094,80.54045867919922,94.31771087646484,128.13243103027344,20.90927124023437,-14.960036277770996,-0.7659727334976196,-0.288270354270935,-1.0576443672180176,-49.94772338867188,76.09852600097656,179.3187713623047,246.19001314918583,1.348162198693589,130.68634278668026,1.3373203180694244,49.47218322753906,-4.441932678222656,85.00106048583984
4507.581,248.5892791748047,13.90003776550293,32.37699508666992,-0.9343437552452089,0.1569944620132446,-0.7309215068817139,-96.73307037353516,81.15412902832031,92.24903869628906,139.62965393066406,3.4834792613983154,0.6912080645561218,-1.0912590026855469,-0.3543666899204254,-0.068352423608303,-47.39859771728516,76.15719604492188,179.10342407226562,251.0739145777069,1.1966167988503178,139.67481037449133,1.1493885399117838,49.33447265625,-4.9969329833984375,86.85438537597656
4529.237,187.8856506347656,33.66431427001953,26.011363983154297,-0.8942195773124695,-0.0549912750720977,-0.2245149463415146,-97.80575561523438,81.5828628540039,87.65396118164062,160.1388397216797,28.35479736328125,11.291775703430176,-0.8868415355682373,-0.1693154871463775,0.0844578295946121,-45.40134048461914,76.74065399169922,177.92623901367188,192.64188232568736,0.9236122854930416,163.0213075627083,0.9068013941191736,52.404415130615234,-4.842208862304688,90.27227783203124
4551.513,155.69859313964844,32.49503326416016,25.23647117614746,-0.9039992690086364,-0.2063294947147369,0.3051696121692657,-99.53956604003906,81.98596954345703,82.96522521972656,129.68630981445312,48.061283111572266,1.0094624757766724,-0.8401081562042236,-0.1204303354024887,0.0892657041549682,-45.80378341674805,77.46247100830078,174.92881774902344,161.04303328591763,0.9761736684365788,138.30923650324667,0.8533777274714278,53.735782623291016,-4.52349853515625,91.96359252929688
4574.2570000000005,146.27432250976562,17.97978973388672,28.504749298095703,-0.9897567629814148,-0.2002417296171188,0.4513302445411682,-99.87184143066406,82.49354553222656,79.91226959228516,101.56822967529295,23.238250732421875,-2.048860549926758,-0.9946319460868835,-0.0677573159337043,0.3181293308734894,-45.27529144287109,77.75801086425781,173.4284210205078,150.10653216003956,1.1060805530272624,104.21285624158382,1.046465495466112,54.59654998779297,-4.73553466796875,93.51615142822266
4596.880999999999,146.86607360839844,6.234725475311279,26.18930435180664,-1.0665252208709717,-0.0608170628547668,0.4196333587169647,-98.53792572021484,82.99732971191406,78.54586791992188,71.2757797241211,6.901641845703125,-1.6606563329696655,-0.9833863973617554,0.0054744351655244,0.386343389749527,-44.40447616577149,77.83269500732422,172.92266845703125,149.31307726161015,1.1477224915615432,71.62839670761886,1.0565699175916703,54.13344955444336,-5.164634704589844,94.37680053710938
4608.094999999999,132.76272583007812,0.8938800096511841,19.67884063720703,-1.0156128406524658,-0.0019907704554498,0.280180960893631,-96.4544448852539,83.39151763916016,78.21217346191406,37.58348083496094,-1.0108373165130615,-1.6070213317871094,-0.9856321811676024,0.076957032084465,0.3283020555973053,-43.69356155395508,77.79559326171875,172.9192657470703,134.21623284882023,1.0535534044899937,37.63140100120045,1.041717534195269,52.76088333129883,-5.595924377441406,94.70709228515624
4629.536,101.92176818847656,1.226591944694519,16.03479766845703,-1.042879343032837,-0.0168891809880733,0.1009063050150871,-94.6020050048828,83.75859832763672,78.29334259033203,13.09367847442627,-0.1218815222382545,-3.0980653762817383,-1.024280667304993,-0.0728641301393508,0.224285751581192,-43.49192810058594,77.75137329101562,172.89097595214844,103.18268311462296,1.0478858005292595,13.45575267953572,1.0510776209386563,51.11007690429688,-6.007225036621094,94.5976333618164
4651.710999999999,78.35260009765625,1.380502223968506,14.318299293518066,-1.080601692199707,-0.0733319073915481,0.0230161845684051,-93.33586883544922,84.07321166992188,78.23778533935547,14.27413558959961,1.7035884857177734,-2.3383913040161133,-1.0316039323806765,-0.2417704612016677,0.1471801549196243,-43.65459060668945,77.71885681152344,172.47373962402344,79.66209527191953,1.0833315884707877,14.564382391630703,1.06972969820189,49.681278228759766,-6.3543548583984375,94.23595428466795
4671.659,66.52986907958984,0.173381894826889,12.925661087036133,-1.0305464267730713,-0.0852798968553543,0.0435241162776947,-91.8976593017578,84.35054779052734,78.61006164550781,30.734468460083008,7.316821098327637,1.930941462516785,-0.999519407749176,-0.2573918402194977,0.1398017853498459,-43.60630035400391,77.8196029663086,171.92562866210938,67.77408247675315,1.0349845154591248,31.65236100894269,1.041553716841262,48.29135894775391,-6.53094482421875,93.31556701660156
4694.017,53.117435455322266,-1.0065219402313232,13.581822395324709,-1.0161240100860596,-0.0581077747046947,0.1152691766619682,-90.01629638671875,84.65447998046875,79.6927719116211,38.23442077636719,12.614279747009276,6.36669397354126,-0.983187198638916,-0.1706150323152542,0.1845096051692962,-43.208770751953125,78.07008361816406,171.57835388183594,54.835580924657286,1.0242907304290292,40.76181764584148,1.0147957189597836,46.807525634765625,-6.584396362304688,91.88558197021484
4713.997,30.417871475219727,-2.2057695388793945,11.499085426330566,-1.0076231956481934,-0.0378079786896705,0.1863138675689697,-88.7912826538086,84.89415740966797,80.56794738769531,29.84261512756348,13.191332817077637,10.595855712890623,-0.9643173217773438,-0.0865570455789566,0.2218475639820099,-42.47854232788086,78.39881134033203,171.7405548095703,32.5935774345757,1.0254008020815,34.305467456823656,0.9932856391108948,46.31274032592773,-6.4953460693359375,91.172607421875
4736.723,5.170201301574707,-2.471086025238037,7.696727752685547,-0.9810459613800048,-0.0692967250943183,0.1653169095516204,-87.49195861816406,85.05196380615234,82.02339935302734,20.660385131835938,9.640623092651367,10.555203437805176,-0.973250448703766,-0.0747815892100334,0.2426788806915283,-41.623809814453125,78.66758728027344,172.2217559814453,9.595669113818555,0.9972877694188944,25.123802399792204,1.005833863578152,45.86814880371094,-6.384376525878906,90.19835662841795
4746.724999999999,-7.570961952209473,-1.3292475938796997,4.978751182556152,-1.034891963005066,-0.0975511893630027,0.1251148134469986,-86.54317474365234,85.1458969116211,83.36825561523438,14.262569427490234,9.449318885803224,8.551135063171387,-1.0087963342666626,-0.1122936084866523,0.2483684569597244,-41.09648895263672,78.89230346679688,172.49549865722656,9.158292820468382,1.0469820085285575,19.12674632414452,1.044972147451483,45.446685791015625,-6.253593444824219,89.12724304199219
4777.855,-16.425905227661133,-1.0427672863006592,1.9482219219207764,-1.0870389938354492,-0.0938744768500328,0.150406926870346,-85.74871063232422,85.17971801757812,84.72953033447266,6.570426940917969,16.760515213012695,7.943993091583252,-1.0228720903396606,-0.1055069416761398,0.2407295107841491,-41.26105117797852,79.22465515136719,172.21348571777344,16.573873862755708,1.101402939515432,19.677205254575487,1.056101190843025,44.4876594543457,-5.9550628662109375,87.48395538330078
4786.884,-30.640331268310547,-2.6251914501190186,-0.9118199348449708,-1.0634292364120483,-0.0447397604584693,0.1414794623851776,-84.9404296875,85.17630767822266,86.38232421875,-0.4249876141548157,22.15556526184082,6.791122913360596,-1.03944194316864,-0.0485152080655097,0.2001547515392303,-42.01470947265625,79.6568832397461,171.47520446777344,30.766100597494763,1.0737317287379526,23.17690740733638,1.0596486225138828,42.92572021484375,-5.5194244384765625,85.09288024902344
4806.504,-42.79140853881836,-1.564460039138794,-3.004873514175415,-1.0262699127197266,-0.0397373028099536,0.0522887557744979,-85.19315338134766,85.13787078857422,87.20698547363281,-11.273016929626465,11.427149772644045,7.555042743682861,-1.0350124835968018,0.0055866101756691,0.2052067369222641,-42.03284454345703,79.95105743408203,171.712158203125,42.92530075359184,1.0283691462547924,17.74089438221644,1.0551738512173043,43.16030883789063,-5.186813354492188,84.50517272949219
4829.4980000000005,-48.35182189941406,1.0975587368011477,-3.026223659515381,-0.9969125986099244,-0.0081886434927582,0.0131382383406162,-86.38172912597656,85.12387084960938,87.19524383544922,-22.02202415466309,6.767015933990479,5.79918384552002,-0.9916052222251892,-0.0302286781370639,0.1838528960943222,-42.17246627807617,80.14144134521484,172.0441131591797,48.458862407312,0.9970327960785134,23.756948158245955,1.0089581642112078,44.20926284790039,-4.982429504394531,84.84886932373047
4846.852,-55.38301086425781,1.4685869216918943,-4.016510009765625,-0.9879841804504396,-0.0148165468126535,0.0362457744777202,-87.6379165649414,85.08485412597656,87.25237274169922,-28.78963851928711,5.19237232208252,6.210515022277832,-0.985908567905426,-0.0598479658365249,0.1198247745633125,-42.50021743774414,80.32772064208984,172.33424377441406,55.5478801809359,0.9887598429584749,29.90609491799769,0.9949650546040532,45.13769912719727,-4.757133483886719,85.08187103271484
4869.691000000001,-64.89663696289062,-1.092947006225586,-4.406518459320068,-1.0177943706512451,-0.0512684807181358,0.0535712577402591,-88.40123748779297,85.0152359008789,87.97772216796875,-29.637039184570312,2.8265810012817383,6.565597534179688,-1.0132646560668943,-0.1078701168298721,0.0996385812759399,-42.79074478149414,80.47440338134766,172.68321228027344,65.05524903636883,1.0204918998700496,30.48689427877804,1.0238501219504417,45.61049270629883,-4.54083251953125,84.70549011230469
4891.505,-63.85423278808594,-4.614500045776367,-3.1548407077789307,-1.0420255661010742,-0.1122693940997123,0.0363063961267471,-88.48047637939453,84.9368896484375,89.35810089111328,-20.00983047485352,-0.5694642663002014,7.01669454574585,-1.0395334959030151,-0.187432587146759,0.113984614610672,-42.72917556762695,80.5431137084961,173.1887664794922,64.09843738749798,1.0486848199814345,21.2120627835029,1.0624280475386627,45.75130081176758,-4.393775939941406,83.8306655883789
4906.678999999999,-52.55497360229492,-8.807962417602539,-0.5404431819915771,-1.0578382015228271,-0.1166637986898422,0.0557876862585544,-87.3136978149414,84.906982421875,91.75687408447266,-4.2681965827941895,-4.670755863189697,8.503108024597168,-1.0651304721832275,-0.1903735697269439,0.1358647942543029,-41.84586334228516,80.5628433227539,174.18740844726562,53.29068897209695,1.0657130798033194,10.598882416597784,1.0905064241633833,45.46783447265625,-4.344139099121094,82.43053436279297
