Timestamp (ms),Wrist Gyroscope X (deg/s),Wrist Gyroscope Y (deg/s),Wrist Gyroscope Z (deg/s),Wrist Accelerometer X (g),Wrist Accelerometer Y (g),Wrist Accelerometer Z (g),Wrist Roll (deg),Wrist Pitch (deg),Wrist Yaw (deg),Arm Gyroscope X (deg/s),Arm Gyroscope Y (deg/s),Arm Gyroscope Z (deg/s),Arm Accelerometer X (g),Arm Accelerometer Y (g),Arm Accelerometer Z (g),Arm Roll (deg),Arm Pitch (deg),Arm Yaw (deg),Wrist Gyroscope Magnitude (deg/s),Wrist Accelerometer Magnitude (g),Arm Gyroscope Magnitude (deg/s),Arm Accelerometer Magnitude (g),Difference Roll (deg),Difference Pitch (deg),Difference Yaw (deg)
0.0,-3.461483,3.404313,11.236082,-0.924462,0.418331,0.019673,87.092392,62.415398,-92.038445,-6.695193,-24.906391,1.150915,-0.971655,0.068067,-0.215511,174.31749,81.338402,123.939407,12.24012868690448,1.014897946561131,25.81624541426105,0.9975928761949936,87.22509799999999,18.923004,215.977852
19.986,-1.5330415,1.823095,11.4653885,-0.928357,0.4067825,0.0137775,87.11973950000001,62.322327,-92.017254,-8.243324999999999,-23.809961,-0.2754420000000001,-0.9750075,0.063784,-0.2133345,174.1052475,81.548996,123.8268315,11.710210291693292,1.0136609597205073,25.198065762524514,1.0001098102721022,86.98550799999998,19.226669,215.8440855
39.972,-0.181867,0.3438970000000001,11.597412666666663,-0.9284053333333334,0.4175293333333333,0.0105443333333333,87.12747966666666,62.220109666666666,-92.04249066666668,-8.332770666666667,-22.619728666666663,-1.0720623333333337,-0.9776953333333336,0.059427,-0.2085673333333333,173.96047966666666,81.74507133333333,123.773633,11.603935595876877,1.0180267138543078,24.129577484561025,1.0014589685476665,86.83299999999998,19.524961666666663,215.8161236666667
59.958,-0.82859225,-0.7488804999999998,11.46131825,-0.9212355,0.42666525,0.00569975,87.094927,62.11621875,-92.08988,-7.81056175,-21.4754275,-1.463533,-0.980424,0.05907225,-0.202055,173.83985124999998,81.92800700000001,123.73130975,11.515606937883186,1.0152588680567507,22.898488814775707,1.0027696512764348,86.74492425,19.81178825,215.82118975
79.943,-2.6397946,-1.4691134,11.092676,-0.9161798,0.4342752,0.0066199999999999,87.0113206,62.016305,-92.1518722,-7.8235009999999985,-20.5030528,-1.8964924,-0.9847008,0.0632802,-0.1902134,173.7329498,82.1042236,123.7044112,11.496706943869828,1.013915282290922,22.026779733766045,1.0048985952683187,86.7216292,20.0879186,215.8562834
99.929,-3.596265,-3.3025318,10.455404,-0.906402,0.4379774,0.0032563999999999,86.8624146,61.8269892,-92.2677688,-8.624255799999998,-18.500238,-3.1604678,-0.9879946,0.0606676,-0.174825,173.5612608,82.4586578,123.7112304,11.539294217734993,1.006677402475947,20.654906218022735,1.0051754413752458,86.69884619999999,20.631668600000005,215.9789992
119.915,-4.529354,-4.736801399999999,9.785147599999998,-0.8931274,0.4520216,-0.0007482,86.6494126,61.6406962,-92.439827,-7.863203,-16.656371,-3.7011302,-0.98712,0.0524733999999999,-0.159549,173.54268180000005,82.78323979999999,123.856636,11.777157921762944,1.0009998198304333,18.78731010725596,1.0013067639382849,86.89326919999999,21.1425436,216.296463
139.901,-6.6340948,-5.4045254,8.881653400000001,-0.8799123999999999,0.4607458,-0.0084318,86.3823716,61.46563060000001,-92.629628,-5.5020298,-15.0201892,-3.5003307999999995,-0.9861142,0.0494538,-0.1451968,173.571939,83.07991799999999,124.0025482,12.3330400036797,0.9932792251641228,16.374697897467097,0.997972446767104,87.1895674,21.6142874,216.6321762
159.887,-6.4736134,-5.8525552,8.195305399999999,-0.8697900000000001,0.4725882,-0.0180436,86.1182908,61.2967258,-92.8249588,-3.3399534,-13.6708156,-3.2848158,-0.9865964,0.0504318,-0.1288197999999999,173.61645819999998,83.3556748,124.120471,11.971762753286406,0.9900504140599105,14.451176516924308,0.9962481436952544,87.49816739999999,22.058949,216.9454298
179.872,-4.0352154,-6.039597,7.8410642,-0.8608741999999999,0.4927545999999999,-0.0310248,85.91643380000001,61.124203,-93.0094728,-0.7198381999999999,-12.61567,-2.7047616,-0.986457,0.0511949999999999,-0.1181642,173.6181366,83.61247399999999,124.1425916,10.688404138847286,0.992408193366943,12.922423607664074,0.9948271804869628,87.70170279999999,22.488271000000005,217.15206440000003
199.858,-2.5867771999999998,-5.6340256,7.845196799999999,-0.8529235999999999,0.5218464,-0.0418168,85.77613840000001,60.937498000000005,-93.1575806,2.3640556,-12.016603,-1.5323894,-0.9897822000000002,0.0601248,-0.1050536,173.4261536,83.8592208,123.9083052,9.9990386325199,1.000775188237678,12.342435894617106,0.9971559827252908,87.6500152,22.9217228,217.0658858
219.844,-1.7384607999999993,-4.951553800000001,8.022473,-0.8477618,0.5437498,-0.0486312,85.68970340000001,60.7380358,-93.2623412,4.1417128000000005,-11.8898258,-0.3869154,-0.9939806,0.0761732,-0.0915388,172.9501252,84.1052626,123.3535934,9.586459410186857,1.0083297616121027,12.59648546217502,1.0010889778036918,87.2604218,23.367226800000005,216.6159346
239.83,1.3862560000000004,-4.6140002,8.881879000000001,-0.8436018000000001,0.5649122,-0.0534766,85.68806599999999,60.5127298,-93.3385436,4.2498114000000005,-11.946763399999998,0.4047461999999999,-0.998567,0.0890468,-0.0797851999999999,172.2011446,84.353575,122.5231812,10.104379155285944,1.016685564675549,12.686602072957278,1.0056992911493374,86.5130786,23.8408452,215.8617248
259.816,3.4034546000000008,-4.186869199999999,10.150222,-0.8430951999999999,0.5870932000000001,-0.0496256,85.7415998,60.254535,-93.390309,4.701171,-12.188393199999998,1.5277916,-1.002087,0.0977695999999999,-0.0741564,171.1098726,84.60243679999999,121.3402192,11.495233079909855,1.0285672763240332,13.152645541566068,1.0095723955785043,85.36827280000001,24.347901799999995,214.7305282
279.802,3.665169,-3.9299806,11.6644454,-0.8395185999999999,0.598439,-0.0466682,85.8099058,59.962893,-93.428163,4.675101199999999,-12.5912932,2.5449188,-1.0046516,0.1087205999999999,-0.0675028,169.62306840000002,84.8538438,119.7610232,12.84279945356613,1.0320361608772242,13.670180956271247,1.012769289747058,83.8131626,24.890950799999995,213.1891862
299.788,4.513456400000001,-4.2541638,13.509418399999998,-0.8352278,0.6022550000000001,-0.041746,85.8829222,59.6337326,-93.484268,3.9133464,-12.7716074,3.1408702,-1.0025794,0.1161556,-0.0618708,167.7997896,85.1024796,117.8595202,14.865180248425848,1.030562609177065,13.722000628165553,1.0111802868966346,81.9168674,25.468747,211.3437882
319.774,5.5213172,-5.0088576,15.3907374,-0.8287348,0.6055366000000001,-0.0356572,85.9487472,59.265599,-93.5745758,3.2615606,-12.439262,3.6871842,-0.9999664,0.1194914,-0.0557089999999999,165.6744294,85.3374848,115.6677218,17.101122647237297,1.0270089476642548,13.377905066819917,1.008620091255335,79.72568220000001,26.0718858,209.2422976
339.759,5.4795888,-5.7734608,17.049021800000002,-0.8180994,0.6084609999999999,-0.0280702,85.98507839999999,58.8620018,-93.694156,2.9221582,-11.9571808,4.2428792,-0.9959988,0.1203074,-0.0460333999999999,163.2518708,85.556183,113.1840944,18.815628805944737,1.0199506620074326,13.019800502907428,1.004294057540798,77.2667924,26.694181200000003,206.8782504
359.745,3.7600106,-6.159174,17.969444000000003,-0.810882,0.6037924,-0.0212692,85.9704194,58.4430886,-93.828026,2.4680368,-11.582789,4.632221200000001,-0.9928018,0.1208102,-0.0307551999999999,160.515857,85.7618074,110.3946902,19.36424596372202,1.0112107886540769,12.716512096892162,1.0005980216022416,74.54543759999999,27.3187188,204.2227162
379.731,2.5526666000000007,-6.588241399999999,18.016737,-0.8045362,0.5825124,-0.0118392,85.908992,58.034353,-93.9821106,1.4775482,-10.7417836,4.6206254,-0.9891904,0.1201124,-0.0144991999999999,157.5827698,85.94703519999999,107.4268542,19.3526185216006,0.9933475524310916,11.786400751700128,0.9965615198704796,71.67377780000001,27.912682199999995,201.4089648
399.717,3.0707988000000004,-6.9604756,17.2686384,-0.8031235999999999,0.5628808000000001,-0.0081331999999999,85.8425064,57.6527674,-94.1475434,0.5111962,-9.731299,4.2021218,-0.9892566,0.1140007999999999,-0.0025941999999999,154.6556886,86.1130586,104.4838274,18.87018542670504,0.9807693209046864,10.612131237613426,0.9958069757326669,68.8131822,28.460291199999997,198.6313708
419.703,3.4579002,-6.7662938,15.268494800000004,-0.8025992000000001,0.5457635999999999,-0.011354,85.79111180000001,57.323131,-94.3011214,0.4112563999999999,-8.8576264,3.6853884,-0.9921556,0.107267,0.0077871999999999,151.8086306,86.2643022,101.6225938,17.05481571400599,0.9706452988819344,9.602539504077685,0.997967727125582,66.01751879999999,28.9411712,195.9237152
439.688,2.4913612000000005,-5.9822062,12.2428694,-0.8035226,0.5240341999999999,-0.0111848,85.739116,57.0688402,-94.4373412,0.885451,-8.056161999999999,3.2897583999999997,-0.9921246,0.0987174,0.0107314,149.0890658,86.39806519999999,98.879088,13.852130622891204,0.9593672452358584,8.746901164070367,0.9970814961345336,63.34994979999999,29.329225,193.3164292
459.674,2.529967,-5.129925399999999,8.522251,-0.8021931999999999,0.4857117999999999,-0.0085306,85.7020234,56.9110902,-94.5625274,1.4068778,-6.762260400000001,2.7734212,-0.9821602,0.092502,0.0080812,146.6350282,86.50347439999999,96.3907946,10.2638019143812,0.9378180281492992,7.443073022223444,0.9865397023239764,60.93300479999999,29.592384200000005,190.953322
479.66,5.3807538,-4.6516636,5.0483162,-0.7967004,0.4668868,-0.0137436,85.7343386,56.8330926,-94.6773514,2.0765986,-4.6560042,2.0248408,-0.9710744,0.0830928,-7.539999999999908e-05,144.7760804,86.5720872,94.485518,8.722154674102141,0.9235278544339418,5.48549151136744,0.9746229575750616,59.0417418,29.7389946,189.1628694
499.646,7.8524826,-4.067041999999999,1.1009692000000002,-0.7886789999999999,0.461551,-0.0234698,85.835982,56.8357704,-94.7695222,3.796876,-1.7388466,1.7085876,-0.9566548,0.0806592,-0.0058121999999999,143.5634094,86.5880386,93.1936616,8.911478372998241,0.9141087036857488,4.5121088688750985,0.9600667136071952,57.7274274,29.752268200000003,187.9631838
519.632,10.2080944,-3.5694284000000005,-2.6423256,-0.7785638,0.456097,-0.0299756,85.9987306,56.9133682,-94.8464312,5.274512400000001,1.6453194,1.6852716,-0.941389,0.0861354,-0.0081121999999999,142.947003,86.5408798,92.4701066,11.132290642920408,0.9028203590276418,5.776477936557594,0.9453562102419384,56.94827239999999,29.6275116,187.3165378
539.634,12.732992,-3.0879738,-6.367051200000001,-0.7698718,0.452463,-0.0290464,86.2168474,57.0640014,-94.9172686,5.5404564,5.5237326,1.4042888000000002,-0.9284042,0.094303,-0.0086638,143.026022,86.42713940000002,92.4390428,14.56722377273624,0.8934590355227261,7.948604027778033,0.9332215577327178,56.809174600000006,29.363138000000003,187.3563114
559.604,17.209322399999998,-3.2985612000000004,-9.623198399999998,-0.7531158,0.4612756,-0.0347896,86.5178666,57.2675576,-94.9994204,5.1204726,9.3559376,0.7918584,-0.919436,0.0959948,-0.0079784,143.8613432,86.2562882,93.175592,19.991178827249023,0.8838376002598894,10.694851459842493,0.9244680711574628,57.3434766,28.988730600000004,188.1750124
579.589,21.666082,-3.6658172,-12.5985112,-0.7490478,0.4911918,-0.037688,86.892833,57.511403,-95.1046252,6.3908556,12.8447712,0.8995466000000001,-0.9120718,0.097095,-0.0023529999999999,145.1393402,86.0281708,94.3311538,25.32942576196833,0.8965279562936562,14.374991010987532,0.9172284033921104,58.24650720000001,28.516767800000004,189.435779
599.575,23.494064,-3.57965,-14.7916632,-0.753144,0.534442,-0.0296501999999999,87.2869552,57.7876406,-95.2323976,9.2393392,15.5508058,1.6024254,-0.921786,0.1013088,-0.0006407999999999,146.5577882,85.74685819999999,95.5706572,27.992467515044652,0.9239768776652584,18.159314883677062,0.9273366774683725,59.270833,27.9592176,190.8030548
619.561,22.858061,-3.0184344,-16.4508176,-0.7701498000000001,0.5569868,-0.0147848,87.665004,58.089123,-95.3656892,10.8626882,17.285870600000003,1.5627686,-0.9399804,0.1037657999999999,-0.0034287999999999,148.1113466,85.4364028,96.9137632,28.323687941638077,0.9505701447685596,20.475389203321868,0.9456967010110798,60.4463426,27.347279800000003,192.2794524
639.547,24.017215400000005,-3.3266912000000004,-16.3883454,-0.7938934,0.5757534,-0.0033218,88.041954,58.384524,-95.5189988,10.6788378,17.9614276,0.4594676,-0.958171,0.0947238,-0.0141909999999999,149.8661166,85.1241988,98.46322,29.265532198472933,0.9806985992293248,20.90123366369077,0.962946337034645,61.8241626,26.7396748,193.9822188
659.533,23.0103192,-3.217842800000001,-15.368025999999997,-0.827055,0.6079294,-0.0023218,88.40007779999999,58.6519808,-95.6652054,10.5288646,18.817741,-0.4257365999999999,-0.9790708,0.0800028,-0.0364392,151.8048922,84.79734499999999,100.2004638,27.856875724102235,1.0264519078673875,21.56723481953108,0.983009610694178,63.40481440000001,26.1453642,195.8656692
679.519,16.770574200000002,-1.833569,-14.355706799999998,-0.8512234,0.6011368,0.0028241999999999,88.671643,58.9085824,-95.7615936,10.180357,18.6905304,-0.7232836,-1.0019358,0.0640466,-0.0613506,153.7182496,84.4670762,101.918753,22.15175956900564,1.0420915051603865,21.29550972498198,1.0058534736300115,65.04660659999999,25.5584938,197.6803466
699.504,11.7194758,-0.7722635999999999,-12.8841096,-0.8629588,0.5560252,0.0076065999999999,88.87640999999999,59.148874,-95.8178268,7.9979434,18.640562,-1.0786355999999997,-0.9977714,0.0484272,-0.085781,155.5853576,84.1323884,103.63396459999998,17.433954923639178,1.0266059486950383,20.31258489368192,1.002622232108784,66.70894760000002,24.9835144,199.4517914
719.49,8.8292874,-0.8590118,-10.6957456,-0.8591999999999999,0.5202112,0.0039043999999999,89.0248916,59.3600794,-95.8731964,6.718309,20.0831862,-0.4757035999999998,-0.9727514,0.0314906,-0.1187672,157.3863464,83.7508088,105.3072344,13.89579760950257,1.00442002018319,21.182453533016528,0.9804807962862708,68.3614548,24.3907294,201.1804308
739.476,4.054782400000001,-1.061173,-9.2925742,-0.8464294000000001,0.478414,-0.0089366,89.084642,59.55952620000001,-95.9247512,7.8694706,23.2570074,2.0162166000000004,-0.9391844,0.0259088,-0.1486336,158.8951874,83.2715424,106.6621888,10.194080817306896,0.9723181307575828,24.63497696581092,0.9512258144992491,69.8105454,23.7120162,202.58694
759.462,-0.0969145999999999,-2.1674316,-7.756576799999999,-0.8321114,0.4343738,0.0022849999999999,89.0094756,59.743557,-96.033107,9.7655636,27.240962000000003,5.6712032,-0.8968551999999999,0.028554,-0.167538,159.9506194,82.67621460000001,107.5217422,8.054293006507148,0.9386667147403278,29.48896045720804,0.912816280599245,70.94114379999999,22.9326576,203.5548492
779.448,-2.3153288,-4.6756136,-5.716754999999999,-0.8205126,0.4209023999999999,0.0203292,88.78401779999999,59.8866806,-96.2581696,11.3285536,34.738516,9.364771,-0.8524312000000001,0.0263556,-0.1948675999999999,160.76828,81.9039916,108.109552,7.739728530035107,0.9223952696415784,37.720015329169335,0.8748182382155508,71.98426220000002,22.017311,204.3677216
799.434,-4.9452484,-8.342783800000001,-3.5620839999999987,-0.8236001999999999,0.4196214,0.0335917999999999,88.3677336,59.983602,-96.6375214,14.5634182,43.8217356,13.276644999999998,-0.8267034000000001,0.0182331999999999,-0.2202684,161.4847566,80.924791,108.5285294,10.331793924304773,0.9249474675922086,48.04900584944941,0.8557389375226303,73.11702299999999,20.941189,205.1660508
819.42,-7.161651399999999,-12.9179196,-1.376163599999999,-0.8443996,0.435033,0.0511259999999999,87.7365738,60.0274274,-97.2079132,19.018761,53.7118118,17.348729,-0.8226610000000001,0.0219791999999999,-0.2473029999999999,162.092389,79.725261,108.7471588,14.834275304886017,0.9512508940574826,59.56215572600761,0.8593095949438946,74.35581520000001,19.6978336,205.95507200000003
839.405,-7.798852599999999,-18.7484726,1.2702012000000007,-0.8791422000000001,0.4693184,0.0669071999999999,86.88692920000001,59.9986318,-98.0159394,22.9807378,63.524517,21.173736400000003,-0.8435382,0.038134,-0.2670924,162.5958588,78.3183274,108.780838,20.345533608090964,0.998812966381214,70.79410768596722,0.8856349400023692,75.7089296,18.319695600000003,206.7967774
859.391,-10.9696252,-25.0763922,4.1550042000000005,-0.9234244,0.5148531999999999,0.1059718,85.7561188,59.8857428,-99.073767,24.3662348,72.37200859999999,23.860119,-0.8861948,0.064439,-0.2908302,163.04357,76.7323166,108.73127300000002,27.684330996047446,1.062551863421659,80.00453928260174,0.9349202177191804,77.2874512,16.846573800000005,207.80504
879.377,-14.7185988,-32.617329,7.0180636000000005,-0.9676928,0.5465638,0.1571942,84.331627,59.6899352,-100.391725,22.702331800000003,77.379036,25.185948000000003,-0.938551,0.0917646,-0.3188346,163.3954896,75.0448578,108.6199434,36.46615579442461,1.1224399133833045,84.48220557079043,0.995466837002278,79.0638626,15.3549226,209.0116684
899.363,-18.1571998,-41.2002754,10.2497876,-1.0018222,0.589271,0.2044735999999999,82.5875154,59.38321079999999,-102.0034774,18.7723316,79.1333802,25.3389718,-0.9908144,0.1099003999999999,-0.347613,163.6230926,73.3327072,108.4639528,46.17580257513754,1.1801260462132,85.18542004039956,1.055758528706503,81.0355772,13.9494964,210.4674302
919.349,-21.861026,-49.92555159999999,13.7094596,-1.0157168,0.6412856,0.2430717999999999,80.53426520000001,58.9371256,-103.8904876,14.1644806,76.5293542,24.5355284,-1.0289198,0.1135764,-0.3690846,163.75004280000002,71.6893448,108.2987596,56.19977262285827,1.2255658850199935,81.60494298021437,1.0989990880006042,83.2157776,12.7522192,212.1892472
939.335,-28.1631188,-58.9291078,17.3620104,-1.0117512,0.6944459999999999,0.2964894,78.15322119999999,58.3406688,-106.0189864,10.982258599999998,71.49572620000001,23.2074492,-1.053584,0.1369449999999999,-0.3957628,163.8043336,70.1564468,108.1247362,67.58136142292963,1.262458594144695,75.96600928832066,1.1337642488387258,85.6511124,11.815777999999998,214.1437226
959.32,-34.5000086,-68.3911256,21.1750484,-0.9894668,0.7137898,0.3197745999999999,75.4754838,57.5671886,-108.3561096,6.984098399999999,62.973012,20.844747,-1.0553972,0.1492874,-0.417311,163.7858338,68.8046554,107.9580736,79.47313589495127,1.2612677042132807,66.69993514469887,1.144682684540829,88.31035,11.2374668,216.31418320000003
979.306,-40.3318734,-77.850348,25.9997512,-0.9598738,0.7334352,0.3362683999999999,72.559198,56.5845904,-110.85197,3.6999278,52.5148412,18.5097578,-1.0378108,0.1529622,-0.429279,163.6777984,67.67033219999999,107.76506519999998,91.451209713905,1.253938332360902,55.80420365708206,1.1334589322364002,91.11860040000002,11.0857418,218.6170352
999.292,-47.393333,-86.2737504,31.884887,-0.930488,0.7678877999999999,0.373664,69.49455259999999,55.37355600000001,-113.3847168,1.7938316,41.3383188,16.3108384,-1.0164926,0.1498646,-0.4367531999999999,163.49732360000002,66.7665618,107.53302019999998,103.46948361682855,1.2629664985378035,44.476037169812095,1.1164541915807205,94.002771,11.3930058,220.917737
1019.278,-55.78100280000001,-94.1116714,38.230737,-0.9039804,0.7761856,0.4243336,66.3219238,53.91961680000001,-115.8753876,-0.5578352000000001,30.2786828,13.7020772,-1.0064116,0.1471224,-0.4321175999999999,163.25303939999998,66.0986312,107.2812532,115.88837827253585,1.2647939173321794,33.23938525015369,1.105094986607975,96.9311156,12.1790144,223.1566408
1039.264,-63.231523,-101.153639,45.18478520000001,-0.882883,0.7755598,0.4711107999999999,63.1185074,52.1925262,-118.2529938,-4.869368,18.164554400000004,9.550756,-1.0005374,0.1256526,-0.4214798,162.9797728,65.69871520000001,107.087427,127.56154983933048,1.2660650776882203,21.092148336324573,1.09293590228044,99.8612654,13.506188999999996,225.3404208
1059.249,-70.1445952,-107.7674818,51.9173768,-0.866062,0.7801514,0.5270608,59.9480942,50.210134,-120.46844179999998,-5.9624664,5.7181196,5.571390599999999,-1.0009042,0.0894116,-0.411216,162.7406218,65.57299959999999,106.9470216,138.6705029307905,1.2792547368146034,9.964350984825929,1.0857726513631665,102.7925276,15.362865599999996,227.4154634
1079.235,-76.4854888,-113.6575056,58.48662040000001,-0.8458242,0.783739,0.5782704,56.854966000000005,47.9744186,-122.478189,-3.8440132,-6.3406628000000005,1.5885114,-1.0088294000000002,0.0652703999999999,-0.3954731999999999,162.5815276,65.7141344,106.843419,148.958864596917,1.2899852917544448,7.5831267095445565,1.0855395134856956,105.7265616,17.7397158,229.321608
1099.221,-81.7003814,-119.2127638,63.9654228,-0.8141972000000001,0.7588856,0.6127722,53.861077,45.509069,-124.270282,-1.5098608000000002,-18.3256356,-3.0536106,-1.0160546,0.0476856,-0.3785804,162.52002240000002,66.1199464,106.7938096,158.04496413275186,1.2705566510266435,18.63955840345464,1.0853404930678112,108.6589454,20.6108774,231.0640916
1119.207,-84.7412322,-124.4242522,69.1662308,-0.7790906,0.7427752,0.6517288000000001,51.0152786,42.8393738,-125.8431824,1.9473088,-29.836891200000004,-8.6088478,-1.0199808,0.0344608,-0.3583948,162.6287962,66.7862382,106.8530702,165.66966666647937,1.2583511391868487,31.115018053775252,1.0816631692779044,111.6135176,23.946864400000003,232.69625260000004
1139.193,-86.8152466,-129.2358154,73.468444,-0.7400746,0.722974,0.6943656,48.3249764,40.000586,-127.211766,6.3562268,-41.4964536,-13.8499224,-1.0152953999999998,0.0047169999999999,-0.331109,162.932559,67.7094438,107.0250458,172.1522445049812,1.2460117995847872,44.20608138023561,1.0679326613748452,114.6075826,27.7088578,234.2368118
1159.179,-85.7192184,-134.075241,77.2139938,-0.706325,0.6977154,0.7132098,45.8404128,37.014093,-128.3838226,11.8158926,-50.7719762,-18.8505456,-1.0099052,-0.0140824,-0.3083348,163.49960620000002,68.839876,107.3603776,176.8783635464254,1.222444274328364,55.43240888330382,1.0560194959695772,117.6591934,31.825783,235.7442002
1179.165,-80.7745498,-139.2677642,80.35810699999999,-0.6781014,0.6765166,0.7325444000000001,43.6102172,33.892845200000004,-129.3862,17.7812106,-59.500764200000006,-23.7003774,-1.010222,-0.0185404,-0.283304,164.359085,70.1651902,107.8803344,179.9373874470865,1.2058679516136417,66.4696944455741,1.0493585622332149,120.7488678,36.272345,237.2665344
1199.151,-75.3340714,-144.3567016,83.35005040000001,-0.6529324000000001,0.672103,0.7752513999999999,41.6175232,30.6425666,-130.2500306,22.3465486,-66.668105,-27.818095,-1.0147714,-0.0291192,-0.2584122,165.5505004,71.6499772,108.651567,182.92433001712564,1.2161652415608333,75.6164722005213,1.0475618297625395,123.9329772,41.0074106,238.9015976
1219.136,-69.37749720000001,-149.953305,85.736676,-0.6365894,0.653337,0.8041438,39.841793,27.2778846,-131.006662,26.4328326,-73.72941940000001,-30.5492612,-1.0234527999999998,-0.0311714,-0.2341604,167.0568268,73.27836620000001,109.6638106,186.1451272789272,1.2160355878179716,84.07127502415166,1.0503610726478585,127.2150338,46.0004816,240.6704726
1239.122,-61.808664,-155.67090760000002,88.0609604,-0.6188634000000001,0.6455856000000001,0.8276516,38.3021904,23.8016906,-131.668918,29.9488048,-79.22517359999999,-32.14294,-1.0344242,-0.0415104,-0.2217168,168.9815276,75.0108276,111.0294218,189.23127427844216,1.2185154269722975,90.59099090275058,1.0587326755399775,130.67933720000002,51.209137,242.6983398
1259.108,-52.7913118,-161.068579,90.0729232,-0.5877562000000001,0.6431456,0.8612992,37.0137422,20.2008306,-132.2541292,32.264966400000006,-83.2625166,-32.97619160000001,-1.0496354,-0.0302612,-0.1958002,171.37218320000002,76.81185439999999,112.82160919999998,191.9456726171162,1.225124453008118,95.18983107348346,1.068170366317396,134.358441,56.6110238,245.0757384
1279.094,-45.25745439999999,-166.18374939999998,91.7641082,-0.5503132000000001,0.6452093999999999,0.8812932,35.9343828,16.479250200000003,-132.7802766,32.8578344,-86.36404719999999,-33.4895518,-1.0667616,-0.0291878,-0.1726892,102.4688202,78.6534088,115.3149472,195.1561613097352,1.2230361778413752,98.2849734699386,1.0810429217658473,66.5344374,62.1741586,248.0952238
1299.08,-35.4657798,-171.59131159999998,92.01770919999998,-0.5101454,0.6118142,0.8682300000000002,35.0930498,12.6538374,-133.290796,31.8458456,-90.4684846,-32.5109572,-1.0649824,-0.0109434,-0.1459642,34.5088258,80.5443618,118.7804792,197.9107338166532,1.1782988913526145,101.27026674132792,1.074994333936212,-0.5842240000000061,67.89052439999999,252.07127520000003
1319.065,-25.5343062,-176.4044524,92.1370314,-0.4439697999999999,0.6176484,0.8751344,34.491365200000004,8.727507800000001,-133.7976228,29.7235072,-92.440706,-31.7987582,-1.0668494,0.0102145999999999,-0.1135105999999999,-31.3620544,82.4183654,124.3904662,200.64835951201744,1.1595080626705276,102.17598557933736,1.072919678562137,-65.85341960000001,73.6908576,258.18808900000005
1339.051,-16.223776,-180.8541564,90.7794112,-0.3782096,0.595926,0.86601,34.1097794,4.721932600000001,-134.33887020000003,24.816562,-95.6760638,-30.8465342,-1.0642520000000002,0.0252788,-0.0776764,-91.8266264,84.22100680000001,135.522821,203.0082222292302,1.117203481514518,103.5436120961273,1.0673822934405464,-125.93640580000002,79.49907420000001,269.86169120000005
1359.037,-7.9302638,-184.629605,89.2907486,-0.3075376,0.5730999999999999,0.8573466,33.932568399999994,0.6634752,-134.9256622,20.7228014,-96.5979616,-30.4767724,-1.0645362,0.018843,-0.0357809999999999,-144.1779814,85.6379364,82.81446539999999,205.2408777800904,1.0761348326047808,103.38972066438866,1.0653040222023196,-178.1105498,84.9744612,217.7401276
1379.023,0.1815165999999997,-187.11864,87.65616159999999,-0.233705,0.5449805999999999,0.8442957999999999,33.95858460000001,-3.4184034,-135.5625488,15.2965698,-96.4735734,-29.617126199999998,-1.0497648,0.0011146,-0.002598,-120.1365942,86.4222792,34.5742082,206.6325749976779,1.0317253894806504,102.07012088049169,1.0497686065301246,-154.0951788,89.84068260000001,170.13675700000002
1399.009,6.073919200000001,-187.82229,86.05058460000001,-0.1617196,0.5406826,0.837067,34.152248400000005,-7.4924576,-136.2457518,12.3079834,-94.1939668,-29.9200424,-1.0484862,-0.0359018,0.0289548,-95.0212194,86.4849608,-12.546514800000002,206.68528787819895,1.0095405219484357,99.59517445193806,1.0495001816468257,-129.1734678,93.9774184,123.699237
1418.995,10.357783,-186.5810334,82.10725579999999,-0.0959234,0.4913444,0.7788798,34.4932564,-11.4980834,-137.0056242,13.460986599999998,-91.1864184,-28.7872302,-1.0282512,-0.0689526,0.050066,-71.0057996,85.8753646,-60.8065246,204.1111637032469,0.925891117209232,96.56534411191744,1.0317759425884092,-105.499056,97.373448,76.1990996
1438.981,10.9754528,-184.551181,79.4554414,-0.0157036,0.5066726,0.7947382000000001,34.913179,-15.4348322,-137.8222778,17.322263799999998,-84.0847062,-26.3993018,-1.0218713999999998,-0.0750458,0.0851926,-51.9866354,84.6809112,-114.1611998,201.2281445045116,0.9426412537031044,89.81771415163377,1.0281589416672694,-86.8998144,100.1157434,23.661078
1458.966,3.890917,-183.732663,76.85984199999999,0.0505468,0.5015031999999999,0.786867,35.272535600000005,-19.3225118,-138.720526,18.512209,-78.7266664,-23.097437000000003,-1.0075276,-0.0790642,0.1047588,-41.119943,83.2429032,-103.6617858,199.19906124386588,0.9344624734517056,84.10755899730736,1.016040067448543,-76.39247859999999,102.565415,35.0587402
1478.952,-13.519805600000002,-183.9076294,74.1577164,0.0990667999999999,0.4983604,0.7652616,35.373438199999995,-23.178521,-139.7031372,24.1815604,-73.5806108,-17.9135858,-0.9871196,-0.0936238,0.1321003999999999,-34.9129104,81.8212876,-97.9061262,198.756555103605,0.9185873042803062,79.49685971970143,1.0003104699595822,-70.2863486,104.9998086,41.797011000000005
1498.938,-41.785377,-183.869461,68.89208219999999,0.1565644,0.4634243999999999,0.7231922000000001,35.021759,-26.975845,-140.8046144,32.9612266,-65.02147599999999,-7.2406946,-0.9401708,-0.0874474,0.1429811999999999,-30.130819,80.60787660000001,-93.736975,200.74888644601296,0.8730873633282983,73.25750786428372,0.9549930913325184,-65.15257799999999,107.5837216,47.0676394
1518.924,-80.11624859999999,-182.4511352,61.56819459999999,0.2150308,0.454347,0.7072187999999999,34.0317622,-30.6833604,-142.033011,41.3369636,-46.391083,5.5886916000000015,-0.9713988,-0.0964202,0.1463644,-25.8313904,79.8121398,-90.2128326,208.5609565853809,0.8676565405914255,62.3867823772033,0.987084100366752,-59.8631526,110.4955002,51.8201784
1538.91,-101.8134618,-184.6926452,54.5190094,0.2775798,0.4150222,0.6315086,32.7446906,-34.375097,-143.404123,51.992823,-33.3814598,16.655684200000003,-0.9769786,-0.1043746,0.1791425999999999,-21.3904348,79.2964674,-86.753862,217.8294667409128,0.8050447712611019,63.992087933263086,0.9987358575308488,-54.13512540000001,113.6715644,56.650261
1558.896,-102.2232666,-190.1041686,49.3642136,0.2775872,0.31535,0.6994706,31.602248600000003,-38.1275224,-144.9091004,60.2594864,-23.7500228,25.2609044,-0.9602728,-0.1211393999999999,0.1524524,-16.7566712,78.9891492,-83.26287079999999,221.418194233939,0.8159408044510338,69.52253286020472,0.9798164822648984,-48.3589198,117.1166716,61.64622960000001
1578.904,-86.6174808,-191.4830962,46.2569154,0.3197051999999999,0.2888724,0.6239508,30.8852186,-41.8875412,-146.491568,63.728145600000005,-6.083459,29.4404806,-0.9546426,-0.0921766,0.0955179999999999,-12.3289676,79.0263884,-80.053116,215.1930908110193,0.7582699250329265,70.46294709262774,0.9638271150192446,-43.2141862,120.9139296,66.43845200000001
1598.868,-57.0280756,-191.748593,48.3624482,0.3590158,0.2569528,0.6099973999999999,30.825343799999995,-45.68229219999999,-148.0738098,61.7259192,11.9727284,22.961510800000003,-0.9921358,-0.0658848,0.0664521999999999,-8.9695712,79.3714798,-77.893245,205.81217340093525,0.7530032629970735,66.93777935249729,0.9965390847315122,-39.794915,125.053772,70.1805648
1618.853,-11.2912936,-192.070712,55.7536714,0.3674807999999999,0.246217,0.6069074000000001,31.7108996,-49.553707,-149.6054962,52.3237346,19.7149414,9.7141916,-0.9341726,-0.0270178,0.0257023999999999,-7.256783400000001,79.8092026,-77.2148132,200.31755687889049,0.7510003606073702,56.752247843924046,0.9349165853023254,-38.967683,129.3629096,72.39068300000001
1638.839,17.6542654,-186.45539520000003,62.1928134,0.3539322,0.2168966,0.5359352000000001,33.2272056,-53.381150000000005,-151.10313100000002,34.5335246,43.4930074,-3.5374658,-0.9042116,-0.0283549999999999,-0.040466,-8.225869399999999,80.6715012,-78.8916366,197.3454674539272,0.6778928203539554,55.64817767260155,0.9055606665240932,-41.453075,134.0526512,72.21149439999999
1658.825,27.7413262,-174.92301620000003,66.6184298,0.455724,0.2233724,0.3381362,35.0156422,-57.03510659999999,-152.6022736,25.4601032,77.0266354,-12.067864,-0.888346,-0.023546,-0.0678142,-13.207709,82.130449,-84.42453759999998,189.22383033026736,0.6098489017848602,82.0180026428447,0.8912417155596117,-48.2233512,139.1655556,68.177736
1678.811,34.64424699999999,-165.979904,68.6740434,0.4953789999999999,0.1838203999999999,0.2935238,37.1476144,-60.53322820000001,-154.2651062,22.7810276,103.2848962,-15.8648976,-0.9061024,-0.0406379999999999,-0.0423902,-28.5340216,83.896428,-100.2073226,182.93626381598403,0.6044390078937658,106.95064271623254,0.9080032683783688,-65.681636,144.4296562,54.05778360000001
1698.796,33.4925312,-155.87646160000003,67.5065538,0.5415004,0.194106,0.2210954,39.560447,-63.8178138,-156.2079956,23.8749844,134.996814,-13.003718,-0.9197228,-0.0692234,-0.0571584,-57.713677800000006,85.0169586,-57.87081759999999,173.1368121835202,0.6162653635710188,137.70712164617473,0.9240936049112988,-97.2741248,148.83477239999996,98.33717800000002
1718.782,23.576727400000003,-145.469586,63.20180220000001,0.6149238,0.1385062,0.1169394,42.1874,-66.8473464,-158.54623120000002,32.8605568,162.3368028,-4.486706400000001,-0.9027828,-0.080391,-0.0853806,-89.183184,85.2394592,-18.02992719999999,160.34877713045782,0.6410850727612054,165.69002465704418,0.9103676969846854,-131.37058399999998,152.0868056,140.51630400000002
1738.768,17.4415522,-133.93134,57.819616800000006,0.6810906,0.1080087999999999,0.0601886,45.126026,-69.5874144,-161.3059358,48.9786522,162.1191208,4.0505864,-0.9301998,-0.0379655999999999,-0.1105642,-119.82824,84.6003022,22.31244800000001,146.91807126504136,0.6922232110062188,169.40461903524775,0.9375166649319042,-164.95426600000002,154.1877166,183.61838380000003
1758.754,12.4190966,-119.1613524,49.6352348,0.7136536,0.1358794,-0.0267029999999999,48.3818396,-71.9524686,-164.4665588,60.8018196,145.025235,9.098666,-0.9480888,-0.0005213999999999,-0.1280701999999999,-147.52826199999998,83.1639984,65.36741020000001,129.68160393752174,0.7269647325326862,157.51814427695535,0.9566998592408384,-195.9101016,155.116467,229.833969
1778.74,4.9352734,-100.4215522,37.966916,0.7947478,0.0997062,-0.1058052,51.7815268,-73.8356458,-167.9042542,66.1962822,117.3305862,11.9557942,-0.9341712,0.0422348,-0.1826674,-165.48983119999997,81.260437,118.0013762,107.47246987178217,0.8079357228581492,135.24553689527215,0.9527995530347608,-217.271358,155.0960828,285.9056304
1798.726,3.4519214000000007,-79.1052982,23.3249162,0.8865616,0.0536238,-0.2291406,55.1711432,-75.173605,-171.3396912,64.82611699999998,77.4861022,12.3430908,-0.9190198,0.0994288,-0.2077563999999999,-169.5335934,79.7981202,112.5886414,82.54462841638893,0.9172635374249648,101.7785506378607,0.947441924765017,-224.7047366,154.97172519999998,283.92833260000003
1818.712,7.986499800000002,-54.2924936,7.112870400000001,0.9511128,0.0540007999999999,-0.325546,58.2205748,-75.91555,-174.31943660000002,54.32417539999999,40.6879842,10.1617796,-0.9427824,0.1230912,-0.2003796,-170.65980799999997,79.0266756,110.3391786,55.33581087947151,1.0067332530717756,68.628637286401,0.9716697388327784,-228.8803828,154.9422256,284.65861520000004
1838.698,15.5773076,-28.1871994,-9.6189832,1.0009530000000002,0.0206376,-0.361568,60.6402152,-76.063333,-176.488974,36.464712,20.2059898,8.421414799999999,-0.921487,0.0998774,-0.2003385999999999,-171.28262,78.6573442,108.9641816,33.61094404925664,1.0644549015185003,42.53090020531316,0.9482875834100748,-231.9228352,154.7206772,285.4531556
1858.683,27.287687000000005,-1.9887336000000004,-23.5613064,1.0065592,0.0076766,-0.3333894,62.192176,-75.687442,-177.5200654,13.6726472,11.4836114,6.5091072,-0.9286368,0.0724732,-0.187448,-171.9005736,78.4633838,108.056711,36.10689798939282,1.0603626008703628,19.004817515118887,0.9501344240350834,-234.0927496,154.1508258,285.5767764
1878.669,35.11084960000001,25.0574234,-32.924355000000006,0.989645,0.029669,-0.2914402,62.522188400000005,-74.87430739999999,-177.1251892,-9.787139,13.086852,1.6138027999999995,-0.9636544,0.0087938,-0.1661718,-172.43248279999997,78.2310732,107.71277340000002,54.26471578518323,1.0320924695791749,16.421271100390275,0.9779162544272592,-234.9546712,153.1053806,284.8379626
1898.655,38.4507154,50.1048564,-39.5059544,0.9439852,0.0397113999999999,-0.1973822,61.67585280000001,-73.6927996,-175.4255736,-28.458448,17.974749199999998,-3.1592872,-0.9531104,-0.0543658,-0.1667287999999999,-172.8918364,77.8879656,107.8219912,74.4961380387688,0.9652174811853752,33.80763178608771,0.9691096777698796,-234.5676892,151.5807652,283.2475648
1918.641,40.0093746,70.6235916,-44.604757600000006,0.8879054,0.0560394,-0.0949192,60.0545654,-72.2045884,-172.8744964,-42.6446198,20.9402136,-7.3420809999999985,-0.9498504,-0.085741,-0.1734238,-173.27148739999998,77.4704988,108.3025544,92.61763410345502,0.8947212237508172,48.07246922003006,0.9693519050724564,-233.3260528,149.6750872,281.1770508000001
1938.627,35.9715794,87.927117,-49.9325994,0.839255,0.1107782,-0.0468158,57.93663780000001,-70.4263856,-169.86665039999997,-50.933967,15.313118800000002,-12.2283904,-0.9911086,-0.0713384,-0.1729524,-173.3374022,77.1503404,109.2763474,107.32379471162524,0.8478280979950358,54.57374949107689,1.008611896109837,-231.27404,147.576726,279.1429978
1958.612,28.852465200000005,101.6107862,-57.3149228,0.8186633999999999,0.1397691999999999,-0.0164567999999999,55.66965700000001,-68.3547632,-166.8155334,-53.96065219999999,0.2266745999999997,-16.0732498,-1.0018542,-0.040685,-0.1720925999999999,-173.006854,77.1161118,110.7230164,120.17577541197429,0.8306720279595551,56.30410932034045,1.017341127772489,-228.67651100000003,145.470875,277.5385498
1978.598,24.8047308,112.6905394,-66.52402479999999,0.7985836000000001,0.1477228,-0.0033627999999999,53.60258700000001,-65.9686356,-164.0246552,-53.9537988,-22.533347,-16.012106600000003,-0.9867932,-0.0036654,-0.1722422,-172.3949186,77.53245860000001,112.46120300000004,133.19113414906576,0.8121385967017207,60.62302936791475,1.0017193370322048,-225.9975056,143.5010942,276.48585820000005
1998.584,24.982957400000004,122.4363432,-75.9619688,0.764872,0.177282,0.0480238,51.8979896,-63.2819076,-161.5799684,-53.3478066,-52.1743858,-14.576230199999998,-0.9818426,0.0158984,-0.1690736,-171.2331052,78.53009039999999,114.7473906,146.2362027700753,0.7866157697849948,76.03039845668071,0.9964203593435252,-223.1310948,141.811998,276.327359
2018.57,21.577727600000003,132.2055144,-83.4403762,0.7293276000000001,0.2309955999999999,0.1077452,50.4258032,-60.31891780000001,-159.4126282,-53.8316712,-89.8091518,-13.0920394,-1.038161,0.0071919999999999,-0.1413014,-168.2841336,80.27048500000001,118.85157,157.81695962901432,0.7725844571722629,105.52219703394876,1.0477576401186297,-218.7099368,140.58940280000002,278.26419820000007
2038.556,19.3495084,141.3988144,-90.4542434,0.7050934,0.2727587999999999,0.1291278,49.1695274,-57.1071792,-157.4776886,-52.8651664,-116.7700164,-10.09549,-1.0025423999999998,-0.04156,-0.1373096,-159.9658414,82.4837022,128.3406294,168.96744756938762,0.7669602691364397,128.57636434001412,1.012754868489863,-209.1353688,139.5908814,285.818318
2058.542,22.2320294,151.7710114,-96.7957444,0.6761588,0.2432911999999999,0.1353031999999999,48.131507,-53.6405478,-155.6903412,-44.2757932,-124.2167082,-4.595361199999999,-0.9956902,-0.0830347999999999,-0.1229851999999999,-142.2686064,84.68553779999999,75.00800140000001,181.37838671289236,0.7312238280753164,131.9517101218911,1.0066871966038509,-190.4001134,138.3260856,230.6983426
2078.528,27.479953,158.5464448,-99.4929824,0.6008286,0.3002948,0.2616358,47.363512400000005,-50.028453,-154.02047420000002,-38.1190682,-126.1519178,0.8138994,-0.9985808,-0.0681214,-0.0546779999999999,-114.6021392,86.308156,31.43694740000001,189.18503250111613,0.7208503765183452,131.78783008035123,1.002394045747779,-161.96565160000003,136.336609,185.45742160000003
2098.513,26.590063,164.6544802,-105.618924,0.520717,0.3883476,0.2844716,46.7818328,-46.2309044,-152.5413574,-34.8015384,-112.819435,6.4156016,-0.9828684,-0.0591495999999999,-0.0167328,-84.6293988,87.310631,-9.91004959999999,197.4170367703708,0.7091432462636305,118.23929944234202,0.9847887862351806,-131.4112316,133.5415354,142.6313078
2118.499,27.3410594,169.7961214,-110.4295074,0.4560702,0.3712905999999999,0.2429448,46.3867386,-42.292785,-151.206311,-20.9121012,-88.2867262,15.580442199999998,-0.9227308,-0.0411508,0.0026821999999999,-53.560826,87.4951968,-50.4623094,204.3842764896667,0.6363009608852087,92.05765681821556,0.9236518347332616,-99.9475646,129.7879818,100.74400160000002
2138.485,33.494229000000004,174.1046938,-112.3404144,0.384847,0.3830112,0.400331,46.2266166,-38.263747,-149.9505248,-12.1443976,-65.3272728,21.5890116,-0.9118418,-0.0060308,0.0529778,-26.6133576,86.9695742,-95.3493134,209.89205913292653,0.6745885429618858,69.86575975696135,0.9133994121241376,-72.8399742,125.2333212,54.60121140000001
2158.471,23.0835986,176.9687074,-114.5697188,0.2980032,0.4754734,0.4501273999999999,45.972336600000006,-34.1598744,-148.7597136,-14.860962,-49.7307242,23.0746852,-0.8961416,0.0204536,0.0980631999999999,-8.6399522,86.178371,-77.1363418,212.07780739404063,0.7193716268720639,56.80170964065262,0.9017230773345885,-54.6122888,120.3382454,71.62337180000002
2178.457,15.9333506,181.7500856,-117.6702972,0.2335628,0.5019792,0.4658374,45.687902,-29.9396492,-147.643878,-15.4429834,-28.639721,19.6042862,-0.8760338000000001,-0.0193102,0.0595732,-1.1030668,85.6383182,-69.27669599999999,217.10196710321668,0.7235600749179296,37.98746362501748,0.878269360005642,-46.7909688,115.5779674,78.36718200000001
2198.443,13.6343766,185.1786378,-114.9569778,0.1398546,0.5572148,0.554603,45.417413200000006,-25.705791800000004,-146.4976744,-14.2873312,-14.535700200000004,16.2716146,-0.9150188,-0.0070569999999999,0.0977944,3.6572764,85.3391162,-64.21698839999999,218.3852807943885,0.7985187099180583,26.080257951441094,0.9202570022954456,-41.7601368,111.044908,82.280686
2218.442,3.896174200000003,188.3035188,-116.114299,0.1183319999999999,0.512586,0.5890854,45.038001,-21.405561,-145.38208,-23.4508574,4.122918,12.116778,-0.9339062,-0.0237174,0.0986854,6.574470600000001,85.3873522,-60.82656699999999,221.25986034100288,0.7897901481489624,26.71623990630311,0.9394051914027088,-38.4635304,106.7929132,84.555513
2238.414,-1.887309999999998,189.9601594,-113.98004919999998,0.0422319999999999,0.595927,0.6099986000000001,44.6313894,-17.1047552,-144.2648406,-22.2709142,15.4962232,6.8611664,-0.9946664,-0.0423602,0.102379,8.2359832,85.6760378,-58.72584919999999,221.5397835918956,0.8538213063369643,27.9857491794747,1.0008182120015603,-36.3954062,102.780793,85.53899140000001
2258.4,1.0157528000000022,192.7881166,-114.0253862,-0.0657612,0.6544766,0.6605698,44.3593168,-12.7575162,-143.1578736,-18.5525006,29.4654468,2.1275548,-0.9976978,-0.0664188,0.067088,9.6114734,86.2762606,-57.01076679999999,223.98678165013456,0.932210607129655,34.884585751641566,1.0021542580173377,-34.74784340000001,99.03377679999998,86.1471068
2278.386,4.327648200000002,192.2854004,-111.7742388,-0.117339,0.6452812,0.6796404,44.23717860000001,-8.4450138,-142.05029299999998,-7.8652742,39.7186688,6.193826199999999,-1.0224584,-0.0351482,0.0694675999999999,16.2840196,87.0899736,-50.25559299999999,222.45422946136745,0.944493166363103,40.96094081538028,1.0254181211308684,-27.953159,95.5349874,91.7947
2298.372,3.581015200000002,192.2669984,-112.3584398,-0.1110376,0.5860968,0.6638238000000001,44.1850952,-4.1246152,-140.97312000000002,-1.0799362000000008,50.7776822,4.157781,-1.0282969999999998,-0.0102432,0.0818462,36.9601782,88.00969860000001,-29.564870999999997,222.7191984043999,0.8924689602616105,50.959066069191536,1.0315999436844108,-7.224917,92.1343138,111.40824900000004
2318.358,10.018543000000005,191.1581238,-108.560666,-0.2784964,0.7856636,0.7499926,44.3395638,0.1246022000000003,-139.85437919999998,4.968379799999999,52.6544758,-0.2977714000000001,-1.0497642,-0.0665766,0.062104,65.466498,88.5629244,-1.0506123999999917,220.0618497171705,1.121301225020592,52.88919821113279,1.0537049995540495,21.1269342,88.4383222,138.8037668
2338.344,9.665357800000004,189.9265868,-108.097548,-0.3632822,0.7184686,0.661825,44.5754052,4.346751,-138.73389579999997,14.7702126,60.057232,-1.0702182,-0.9695212000000002,-0.0413313999999999,0.0210306,96.4702458,88.7756822,29.759004600000008,218.7478168999916,1.042201236157298,61.85608832400117,0.9706296554359752,51.8948406,84.4289312,168.4929004
2358.329,17.684527800000005,184.2607634,-102.9219376,-0.3808718,0.698942,0.7489788,45.0453584,8.4109852,-137.5908994,18.7012112,65.8940034,-5.0328968000000005,-0.9780014,0.0534668,0.0179262,129.6802796,88.3881822,62.709594400000015,211.7963566532674,1.0929558500912466,68.68103839216226,0.9796258396707592,84.6349212,79.977197,200.3004938
2378.315,10.592364800000004,179.6200286,-102.3855422,-0.521128,0.8234022,0.759242,45.44946160000001,12.396424,-136.464694,10.2102872,62.50379260000001,-14.2273052,-0.968174,0.0285446,-0.0075725999999999,87.0265488,87.5900254,92.01002440000002,207.0225884243289,1.235319387815491,64.91063292977698,0.968624299063326,41.57708720000001,75.1936014,228.47471840000003
2398.301,7.540875000000002,172.2063932,-98.0760908,-0.621286,0.791195,0.6952602,45.8684754,16.211652,-135.34231860000003,8.224808399999999,58.5011756,-12.3717978,-0.9540448,0.0420566,-0.0867077999999999,29.984237599999997,86.3908052,106.888495,198.3200096846722,1.2228542707637078,60.35806823120527,0.9588996196638312,-15.8842378,70.1791532,242.2308136
2418.287,16.717085200000007,163.79111619999998,-93.650035,-0.6486198,0.761702,0.7481245999999999,46.53367540000001,19.842143,-134.22908619999998,3.9103932,64.04673,-16.2811892,-0.964622,0.122797,-0.1021538,-35.45993060000001,85.01961680000001,113.34158940000002,189.4130928397696,1.2492349654413295,66.19933474316568,0.9777576923488968,-81.993606,65.1774738,247.5706756
2438.273,14.215621600000002,154.6090698,-90.9763046,-0.7128053999999999,0.838988,0.8169498000000001,47.200602,23.301399600000003,-133.1491942,-12.3264202,64.14914920000001,-19.4761554,-1.0138906,0.0720566,-0.1496582,-103.2877046,83.6814394,117.7459366,179.95203905643203,1.370911878325226,68.16432063180693,1.0274063846400605,-150.4883066,60.3800398,250.8951308
2458.259,7.510986000000004,144.3014298,-87.60102839999999,-0.7764596,0.8171798000000001,0.728984,47.7689926,26.5647082,-132.12105100000002,-20.8852116,57.5914878,-15.0466686,-1.0147132,0.08695,-0.1932744,-173.80603340000002,82.4861482,119.6360672,168.97709232246282,1.3424194606069295,63.0822777533639,1.036608978568872,-221.575026,55.92144,251.7571182
2478.245,14.390065000000003,132.80139319999998,-83.05286559999999,-0.754958,0.7523376,0.7025504,48.4915664,29.598717800000003,-131.1546478,-27.252834,59.3622444,-11.331053,-1.0205426,0.1425862,-0.2215668,-173.7067628,81.256711,120.2710114,157.2929193922501,1.2765384877385877,66.294688952628,1.054006579537073,-222.1983292,51.6579932,251.4256592
2498.23,22.160541800000004,122.3036668,-81.39067399999999,-0.7827706,0.8106880000000001,0.7430144000000001,49.3688682,32.460186199999995,-130.2688172,-32.0425992,56.61348720000001,-12.3491242,-1.0546536,0.0700376,-0.2291886,-173.4158234,80.0866106,121.1981766,148.57226638834464,1.3498204488655965,66.21416740353555,1.0815391327994932,-222.7846916,47.6264244,251.4669938
2518.216,17.838698400000006,109.0758714,-79.9260224,-0.8010448,0.796506,0.7163266,50.1218482,35.10996279999999,-129.5269592,-28.877931400000005,44.2697704,-4.5637134,-1.0193824,0.065388,-0.2465398,-173.91021719999998,79.1828752,121.27011260000002,136.3962387273227,1.3376166780922705,53.05256801710132,1.050808232246874,-224.0320654,44.07291239999999,250.7970718
2538.202,20.24911520000001,94.9170014,-77.4479126,-0.7923654,0.7224836000000001,0.6667738,50.8468458,37.5327034,-128.957007,-26.167879600000003,40.6086536,3.4247672,-0.9814674,0.1547329999999999,-0.2612546,-175.08102100000002,78.36692980000001,120.5994872,124.1669963687924,1.2627005899074253,48.430875485986064,1.0273628981878409,-225.9278668,40.83422639999999,249.5564942
2558.188,25.5512754,82.89534979999999,-72.7451294,-0.8108470000000001,0.7639338,0.7001098,51.6284964,39.7095514,-128.4953614,-25.800506,36.353733,8.8715104,-0.9821484,0.0491319999999999,-0.2902947999999999,-104.5819822,77.6317736,119.5824584,113.20936597496582,1.3157588837805658,45.45287350287805,1.0253294611750898,-156.21047860000002,37.9222222,248.0778198
2578.174,22.384057400000003,71.15487959999999,-68.6921754,-0.8216338000000001,0.7391728000000001,0.687704,52.2674354,41.662626,-128.1689698,-20.707160800000004,31.165734800000003,13.7594114,-0.9948834000000002,0.0042207999999999,-0.2974115999999999,-34.25675040000001,77.00420240000001,118.2815124,101.40353976938552,1.3016894104118235,39.86741697295472,1.0383951341193582,-86.52418580000001,35.3415764,246.45048220000004
2598.16,21.173121,57.4564582,-61.358377,-0.8388682,0.7584134,0.7160074,52.79983059999999,43.32242,-127.9774048,-18.685267,29.8047004,17.043817,-0.9808420000000002,0.0289161999999999,-0.3266544,35.92031259999999,76.39381879999999,116.7875106,86.68561627999837,1.338490694448624,39.089014655329166,1.0342099751142415,-16.87951800000001,33.0713988,244.7649154
2618.145,16.291108,45.3667056,-53.6502564,-0.8259171999999999,0.7573602,0.6973202000000001,53.163264600000005,44.708365,-127.909787,-19.8960462,31.5701122,17.486767,-0.9977796,0.0209107999999999,-0.35,106.1584718,75.7315782,115.3780654,72.12411655369151,1.3198443677676244,41.21057702611567,1.0575922615700248,52.99520719999998,31.0232132,243.2878524
2638.131,14.234851,33.9295176,-44.4117596,-0.8151922,0.7974667999999999,0.7112458,53.4269128,45.8037392,-127.92872300000002,-17.4073706,29.6153652,15.909636,-1.0314898,-0.01543,-0.34569,176.6910432,75.0960542,114.2186814,57.67362948808669,1.344009749987224,37.85766665799163,1.087984774022155,123.2641304,29.292315,242.1474044
2658.117,9.065208800000002,21.6623996,-36.4012046,-0.7911590000000001,0.8102446000000001,0.7115178,53.4971802,46.63282,-128.0801086,-13.4883788,27.8513492,13.4263672,-1.0576820000000002,0.0035895999999999,-0.330262,175.59022819999998,74.50020140000001,113.3538942,43.318417138080406,1.3374178310561735,33.73279340792674,1.108051030862821,122.093048,27.867381400000006,241.4340028
2678.103,5.535556800000002,9.1870494,-26.0483998,-0.7708354,0.8529262,0.7409410000000001,53.430297,47.1515936,-128.3316528,-10.5444932,26.028868,12.1282196,-1.0516852,0.0068851999999999,-0.3315488,174.7026154,73.942328,112.6461168,28.170257327626715,1.3677221508846744,30.59055437340249,1.1027301449853997,121.2723184,26.7907344,240.9777696
2698.089,-1.7270359999999976,-3.8348542,-14.8881448,-0.7427672000000001,0.8609714,0.746534,53.1393912,47.3387662,-128.6915832,-6.3082846,20.5364496,10.609543,-1.036597,0.0195247999999999,-0.3239126,173.99611199999998,73.5008804,112.038788,15.470798805049489,1.360252872876878,23.96043863197805,1.0862016068220486,120.8567208,26.16211420000001,240.7303712
2718.074,-6.542733799999996,-17.3129582,-2.234530999999999,-0.722825,0.8798387999999999,0.7402415999999999,52.6877898,47.1646918,-129.1399842,-2.4402846000000005,13.8581014,8.098531,-1.024021,0.0289773999999999,-0.313427,173.5059142,73.2024964,111.5766634,18.64239834362979,1.3581420842389798,16.235398599961755,1.0713053637879166,120.81812440000002,26.037804600000005,240.71664760000004
2738.06,-12.332337199999998,-30.715739000000003,11.321077,-0.7099880000000001,0.8906618,0.7566042,52.0799438,46.6095298,-129.659781,-0.4744738,6.307866000000001,6.314119799999999,-1.0198192,0.0282143999999999,-0.3018215999999999,173.1357848,73.065036,111.19836140000002,34.98156582502496,1.3674104422523912,8.937695883704842,1.06391894958336,121.05584100000002,26.4555062,240.8581424
2758.046,-19.1341438,-44.337809400000005,25.322105,-0.710077,0.8982986000000001,0.7812276,51.3123772,45.66193539999999,-130.22868359999998,1.5785562,-1.9502292,4.1192892,-0.9952784,0.0261003999999999,-0.2997624,172.8979248,73.0949646,110.9149584,54.5267439242509,1.3861696446296607,4.82325378995629,1.0397681572545294,121.5855476,27.433029200000004,241.143642
2778.032,-26.97906,-58.3497294,39.913135800000006,-0.7158046,0.890493,0.788553,50.3831192,44.2992584,-130.8256806,2.8209354,-9.0747168,1.6236038000000002,-0.9851626,0.0365211999999999,-0.2971818,172.77435,73.27098240000001,110.72688300000002,75.66782016766484,1.3882254291861822,9.640759867902004,1.0296582776530474,122.3912308,28.971724000000005,241.55256360000004
2798.018,-34.155581999999995,-71.5024544,53.8413268,-0.7299578,0.8844346,0.7928279999999999,49.3307756,42.533966,-131.409253,1.5541858,-17.344593,-0.2857077999999999,-0.992676,0.0228205999999999,-0.2876198,172.70668659999998,73.6209474,110.6221222,95.8023655165529,1.3941446083681563,17.416429851825303,1.0337560496134472,123.375911,31.086981400000003,242.0313752
2818.004,-39.4622516,-84.4339798,66.3681666,-0.7446066,0.8655034,0.8117393999999999,48.199258400000005,40.395865400000005,-131.9627838,1.9130574,-25.412900200000003,-2.1869912,-1.0041948,0.0191307999999999,-0.2762502,172.7100374,74.1405168,110.5841034,114.41634404250937,1.4008768602869703,25.578471723301465,1.0416752645885954,124.510779,33.7446514,242.5468872
2837.989,-44.5556518,-98.1996582,77.3486514,-0.7555426,0.8518186,0.8299982,46.9795372,37.8992078,-132.4962982,2.0015312,-33.6691788,-4.3359268,-0.9989112,0.0290997999999999,-0.2660694,172.7627412,74.82826399999999,110.5982756,132.70716955507112,1.4090197158748206,34.00617575420531,1.0341485915775546,125.783204,36.929056200000005,243.09457380000003
2857.977,-47.9826378,-111.9613906,86.691855,-0.7573334,0.8360022,0.8459948,45.70790100000001,35.067928800000004,-133.02346500000002,0.9652862,-41.518406,-5.459208800000001,-1.0157561999999998,0.0361427999999999,-0.242276,172.7774202,75.6823854,110.5972578,149.5097462999412,1.410021545504692,41.886904575902285,1.0448754088436951,127.06951920000002,40.6144566,243.6207228
2877.961,-49.227623,-125.388771,94.0342988,-0.7525626,0.8267474,0.854239,44.429635000000005,31.949495,-133.541858,0.4637525999999999,-50.4974878,-5.7876718,-1.0280358,0.0378489999999999,-0.2153348,172.6893098,76.7227968,110.5028808,164.28071131428743,1.4069776115654862,50.83019265603536,1.0510277013350695,128.25967480000003,44.7733018,244.0447388
2897.947,-48.4484168,-138.8344892,100.5552308,-0.7372342,0.8024625999999999,0.8707406000000001,43.183844,28.5658888,-134.0688936,-0.098954,-56.6167926,-6.8557996,-1.0311612,0.0414423999999999,-0.1878368,172.59940179999998,77.8927644,110.42023020000002,178.13932447130452,1.394865471124997,57.03045663819369,1.0489487863272642,129.41555780000002,49.3268756,244.4891238
2917.933,-47.6130134,-151.24960000000002,106.268631,-0.7003999999999999,0.7814722,0.8877347999999999,41.9794588,24.936248,-134.58613599999998,-2.2817038000000003,-61.2208742,-8.233285599999999,-1.0438952,0.0336893999999999,-0.1591234,172.585321,79.16479340000001,110.4596224,190.88337402666252,1.3745297503160416,61.81414564494383,1.0564906155205358,130.60586220000002,54.2285454,245.0457584
2937.919,-46.6842232,-161.8837492,111.898117,-0.6613956,0.7747660000000001,0.8882858,40.840651,21.073226,-135.0740296,-3.43381,-65.03671879999999,-10.5543728,-1.0621858000000002,-0.0024524,-0.1337153999999999,172.978659,80.5256196,110.93343840000004,202.2546749496328,1.35157617504046,65.97697044111491,1.0705720415668254,132.138008,59.45239360000001,246.007468
2957.905,-42.8209094,-171.3723966,116.690825,-0.591495,0.7238512,0.8567370000000001,39.8251846,17.002685800000002,-135.52291259999998,-3.6378242,-66.97816619999999,-12.6749096,-1.064194,-0.0085042,-0.1074578,173.841519,81.9341936,111.8885898,211.7046934705306,1.268000466062785,68.26391320304674,1.0696393643815096,134.0163344,64.93150779999999,247.4115024
2977.89,-37.4883792,-179.013275,121.0732788,-0.5097308,0.7208822,0.8685114,38.9610374,12.751174,-135.9314544,-3.4581922,-65.99561680000001,-16.1101348,-1.0740062,-0.0225768,-0.0720512,103.8932554,83.3371018,114.0425754,219.33962259621757,1.2384703010873697,68.0214449521528,1.0766570507632038,64.93221800000002,70.5859278,249.9740298
2997.876,-35.405707199999995,-184.4451232,123.218045,-0.4208558,0.6796154,0.8351203999999999,38.1816888,8.3679502,-136.3044432,-2.289915,-65.07240060000001,-19.0858014,-1.0770836,-0.0289392,-0.041088,36.17105999999999,84.72223360000001,118.4201724,224.6246963007793,1.1560375334767292,67.85225748370019,1.0782554346858633,-2.010628799999989,76.35428340000001,254.7246156
3017.862,-30.425597,-188.0992614,124.6837874,-0.3210532,0.6452358,0.7951762,37.5399116,3.9023354,-136.64568160000002,1.8060606,-63.615989,-22.0020542,-1.0725542,-0.0446586,-0.0050084,-26.51939100000001,86.031482,127.7737826,227.71274872619747,1.073177331049403,67.33755490332813,1.0734952196270648,-64.0593026,82.1291466,264.41946420000005
3037.848,-24.3539082,-189.6139952,124.7259948,-0.2165185999999999,0.6033956,0.764507,37.045533,-0.5804257999999998,-136.95927720000003,9.3338764,-62.5246256,-23.0311454,-1.0624918,-0.052953,0.0289819999999999,-80.79785920000002,87.0928482,73.36176780000001,228.26115262823257,0.9977161456518182,67.28212031072292,1.0642052441142356,-117.8433922,87.67327399999999,210.321045
3057.834,-24.5315668,-188.9604308,123.9270842,-0.1381132,0.6093974,0.7762140000000001,36.5693986,-5.0518938,-137.2415342,16.1951868,-64.9794398,-24.705369,-1.0635202,-0.0557334,0.071628,-127.762307,87.64233859999999,26.067428800000005,227.3010434998008,0.996468073215093,71.37903704614456,1.0673855901536238,-164.33170560000002,92.6942324,163.308963
3077.82,-25.753929199999995,-187.7401152,120.8203064,-0.0720812,0.5382016000000001,0.7184492,36.0919068,-9.477255,-137.5233672,19.4643656,-67.80164820000002,-25.6921546,-1.033125,-0.0426058,0.0870088,-100.8594718,87.6272766,-19.444334199999997,224.73798558129369,0.9005697722090388,75.07337633833535,1.0376574825519642,-136.9513786,97.1045316,118.07903300000002
3097.805,-26.424254599999998,-185.603726,119.349849,-0.0094998,0.5393426,0.7212928,35.6163964,-13.8529984,-137.7706908,21.8415664,-70.4450242,-23.7725006,-1.0259936,-0.0509468,0.1121248,-74.4493536,87.06813359999998,-65.5151228,222.24169454126172,0.9006908402479954,77.48991703519366,1.0333588023751674,-110.06575,100.921132,72.25556800000001
3117.792,-29.3505028,-183.3868558,114.8386796,0.028752,0.4890374,0.6941564,35.1068444,-18.1559356,-138.0305296,20.511343000000004,-71.4440018,-20.9236326,-1.0066924,-0.0384412,0.1116535999999999,-52.304438600000005,86.0612916,-115.8491882,218.3577642931303,0.849610124565215,77.21890303573235,1.013594514817518,-87.411283,104.2172272,22.18134140000002
3137.777,-30.9190346,-181.410681,111.6960252,0.0740024,0.4732066,0.7025119999999999,34.5780366,-22.4085604,-138.2842986,16.694399,-69.7939224,-18.1189088,-1.0035424000000002,-0.0231898,0.1224575999999999,-38.3195956,84.78511979999999,-102.2411666,215.27151211193456,0.8502493467408957,74.0147918868326,1.011252183789761,-72.89763219999999,107.1936802,36.04313200000003
3157.763,-32.3660666,-180.191635,106.675638,0.0992336,0.4275243999999999,0.6854698,34.0579568,-26.5866952,-138.580896,11.703078,-61.29420160000001,-12.7500624,-0.993011,-0.048225,0.0988472,-31.606396000000007,83.5985948,-95.74851979999998,211.88742136765907,0.8139368935466434,63.69070007198399,0.9990832125973492,-65.66435279999999,110.18529,42.83237620000003
3177.749,-37.1381308,-178.7640806,103.5640534,0.1386514,0.4107944,0.684115,33.4682762,-30.709393,-138.8853668,12.0585074,-52.5876858,-6.7224358,-0.99052,-0.0564988,0.0995477999999999,-27.37082640000001,82.60283519999999,-91.73041999999998,209.9079570400304,0.8099318385014384,54.36969230739215,0.997111703514847,-60.83910259999999,113.3122282,47.154946800000026
3197.735,-38.1304794,-178.8058378,97.5421814,0.1782732,0.3451384,0.6279444000000001,32.92436239999999,-34.768511000000004,-139.2751526,13.6512228,-39.258336,-2.785411,-0.9683622,-0.0499822,0.0627387999999999,-24.630570800000005,81.88105019999999,-89.24112719999998,207.21954117048,0.7383874446956422,41.65730840876613,0.971678819225324,-57.5549332,116.6495612,50.03402540000003
3217.721,-36.1484592,-179.6481016,95.5896988,0.2204323999999999,0.3521312,0.6544546,32.461431399999995,-38.8236712,-139.69331979999998,18.1057346,-21.9983162,-0.0922367999999999,-0.9834176,-0.052495,0.0731923999999999,-22.852465,81.4958726,-87.81119539999999,206.68222475020124,0.7751758822643801,28.49126267240702,0.98753381128573,-55.3138964,120.3195438,51.88212440000002
3237.706,-39.1752322,-179.562686,89.6254868,0.2559064,0.3115097999999999,0.5864168000000001,32.036202200000005,-42.8133552,-140.22805499999998,20.7503212,2.1376900000000005,1.7778680000000002,-0.9441316,-0.065402,0.0324767999999999,-22.329959800000005,81.57366640000001,-87.70245519999999,204.47538948635236,0.711625677150031,20.93576755375101,0.9469512354185934,-54.366162,124.3870216,52.52559980000002
3257.692,-36.5963294,-180.2127866,88.844165,0.3224338,0.2505012,0.5265896,31.6906416,-46.8053238,-140.7721436,26.7172182,26.2138848,-1.7380046,-0.9151014,-0.046395,0.0143419999999999,-23.974138400000005,82.0635436,-89.89665239999998,204.22836589033773,0.6663415140992193,37.46996349936444,0.9163889792391438,-55.66477999999999,128.8688674,50.87549120000002
3277.678,-29.2149364,-179.777191,88.02090000000001,0.382965,0.2491174,0.5105446,31.5239432,-50.7804566,-141.33409419999998,28.7978068,58.08328300000001,-7.763017,-0.937146,-0.0655186,-0.0263864,-30.74551900000001,82.9696778,-97.27155919999998,202.28947018942068,0.685111274755364,65.29353623055276,0.9398039978457848,-62.2694622,133.75013440000004,44.062535000000025
3297.664,-29.5498964,-174.6051268,88.10413220000001,0.436283,0.2488621999999999,0.4524307999999999,31.320795,-54.671041200000005,-141.8293854,34.6079542,98.5338418,-14.986722,-0.9324946,-0.0947776,-0.0540238,-47.8665516,83.8905884,-115.11201779999996,197.79404640385383,0.6759947333126789,105.5046459170496,0.9388543781957668,-79.1873466,138.5616296,26.717367600000024
3317.65,-30.576918599999992,-167.0435332,87.0391482,0.5228328,0.153669,0.3371932,31.014502,-58.42235960000001,-142.2122162,40.067326,138.6825608,-19.2823244,-0.8723542,-0.1003763999999999,-0.1043106,-71.5153934,84.1224028,-67.62634439999998,190.825321313478,0.6408334826170368,145.6367100600079,0.8842838759170948,-102.5298954,142.54476240000002,74.58587180000002
3337.636,-23.5556586,-158.00054920000002,86.651253,0.5996843999999999,0.1071095999999999,0.2686482,30.7321502,-62.0213456,-142.4394348,45.8866614,169.75124060000002,-24.9695418,-0.8288674,-0.0743252,-0.1080944,-96.836589,83.31679360000001,-21.96140459999998,181.73464789646303,0.665782022420822,177.60784722916748,0.839184009290668,-127.56873919999998,145.3381392,120.4780302
3357.622,-19.3813624,-146.6907592,81.1848452,0.6466514,0.1346284,0.139834,30.5357522,-65.3748026,-142.653186,48.4598592,178.7818666,-25.444444,-0.8408406000000002,-0.0547594,-0.1143078,-121.0538636,81.74638819999998,24.745179600000014,168.77439122479595,0.6751565646311379,186.97254747457757,0.8503398024540308,-151.5896158,147.1211908,167.39836560000003
3377.608,-16.684587799999996,-134.74559779999998,73.4345988,0.7238012,0.0406341999999999,-0.0224447999999999,30.4854544,-68.44742060000002,-142.9479248,51.1807492,162.33880240000002,-19.12639,-0.8898024,-0.0419892,-0.1190008,-140.8577194,79.7189574,75.80614920000002,154.3612383257281,0.7252882767411315,171.2868198308663,0.8987060667220623,-171.3431738,148.166378,218.75407400000003
3397.593,1.3495278000000042,-122.3658142,65.65163279999999,0.8057003999999999,-0.0174814,-0.1037978,30.892491,-71.22809140000001,-143.3370268,50.3471068,123.4366758,-10.1917156,-0.9169728,0.0029781999999999,-0.1335453999999999,-150.62433779999998,77.71908719999999,136.91419660000005,138.871705539386,0.8125470553703089,133.69859820714723,0.926651153064755,-181.5168288,148.9471786,280.2512234
3417.579,14.623142400000006,-105.3625694,54.7459282,0.8410244,0.044622,-0.1662844,31.6858346,-73.60491019999999,-143.8540648,45.837278600000005,73.6519772,-4.3274594,-0.964458,0.0167383999999999,-0.1635624,-153.6251678,76.4237138,132.922174,119.63370753554388,0.8584658793235291,86.8584869761268,0.97837215132705,-185.3110024,150.02862399999998,276.77623880000004
3437.565,19.438498800000005,-84.48978,42.6570404,0.8755268,0.0393444,-0.2181172,32.619543199999995,-75.49657579999999,-144.4160428,37.8609828,23.2917816,1.3593605999999994,-1.0251940000000002,0.0115409999999999,-0.2063736,-154.081723,76.0337542,131.682837,96.62298513155775,0.9031446574416748,44.472564238244985,1.0458231184545312,-186.7012662,151.53033,276.0988798
3457.551,27.892243200000006,-61.291423,29.8765742,0.929672,-0.0274026,-0.1844746,33.733029599999995,-76.8565062,-144.98588539999997,26.748047,-5.590775,4.410453,-1.0297618,-0.0042256,-0.2551504,-153.8379578,76.18039560000001,131.39415300000002,73.66970510339362,0.9481939717778848,27.679719635141588,1.0609094905102696,-187.5709874,153.03690179999998,276.3800384
3477.537,35.872847,-35.1738314,14.870797199999998,0.9250984,0.0027868,-0.1579474,34.992952,-77.608554,-145.5415618,14.3787484,-14.9332568,3.3295504,-0.93321,0.0033905999999999,-0.2963018,-153.43670360000002,76.4753786,131.52335820000002,52.394657901398325,0.9384893164568044,20.99610606925458,0.9791257104946228,-188.4296556,154.0839326,277.06492000000003
3497.541,33.100289000000004,-8.5371112,-1.7620723999999997,0.9097236,0.0233064,-0.1338362,36.12758480000001,-77.72715,-146.0097748,-0.8480941999999999,-12.3780386,0.5419550000000001,-0.8958461999999999,0.0004569999999999,-0.3078844,-153.19521500000002,76.693274,131.79904500000004,34.22888106069973,0.9198110377182696,12.418889587124472,0.9472768479524872,-189.3227998,154.420424,277.80881980000004
3517.508,34.618828400000005,15.902351,-18.4569096,0.8946287999999999,-0.0210644,-0.1110632,37.20168,-77.2500062,-146.3851196,-15.5569168,-2.3988445999999994,-2.1881032,-0.8711698,-0.0013288,-0.3048286,-153.3994662,76.7021332,131.9175538,42.3320866376608,0.9017424427911996,15.89213363116865,0.9229621127215568,-190.6011462,153.95213940000002,278.3026734
3537.494,39.7270438,35.777894,-33.8771496,0.8810632,-0.0371974,-0.0628436,38.3430032,-76.2669634,-146.725116,-29.467567799999998,9.2133732,-3.674515,-0.9053286,-0.0161882,-0.2825794,-154.1351566,76.49771580000001,131.7717102,63.29262969085054,0.8840844569507826,31.0922153963866,0.9485425921388876,-192.4781598,152.7646792,278.4968262
3557.48,40.8861892,54.5542166,-48.959786,0.8479382,-0.0036663999999999,-0.0515008,39.4300332,-74.79958500000001,-146.9804414,-40.7986658,13.8037588,-3.751536,-0.9164616,-0.0284016,-0.2633264,-155.2339938,76.2153672,131.48364560000002,83.93392437687939,0.8495086614678157,43.23365483541684,0.9539650455305374,-194.664027,151.01495219999998,278.464087
3577.466,42.2530624,71.116253,-61.2806882,0.8234994,0.0081974,-0.0208959999999999,40.3565346,-72.9183152,-147.0402894,-48.9236986,12.2964242,-3.2402638,-0.9490216,-0.0418016,-0.2409188,-156.4939914,75.9704772,131.1972534,102.94739175522574,0.8238052573169947,50.54927934504683,0.9800159382492512,-196.850526,148.8887924,278.2375428
3597.452,45.8976418,85.20625859999998,-72.04289980000001,0.8076428,0.0084412,0.0249146,41.2085168,-70.6837112,-146.9511872,-55.5527704,-0.085402599999999,-4.149096,-0.978247,-0.0649518,-0.2273626,-157.41879,75.9486648,131.39280380000002,120.65189364035702,0.8080710881738314,55.70756313407021,1.006419237301732,-198.6273068,146.63237600000002,278.343991
3617.438,46.95061940000001,97.2305774,-81.74110540000001,0.794152,0.0236578,0.0765865999999999,41.97889719999999,-68.1442588,-146.7497468,-60.41158299999999,-19.7920258,-4.9926498,-0.9977654,-0.079457,-0.2173676,-157.64489780000002,76.28761140000002,132.4043182,135.42434845918572,0.7981870694921085,63.766842464239936,1.024254793406367,-199.623795,144.4318702,279.15406500000006
3637.423,47.485501,108.972153,-90.653198,0.7522944,0.0878975999999999,0.0991266,42.668692,-65.3216788,-146.43014240000002,-61.42852479999999,-47.0809498,-6.8029356000000005,-0.9960566,-0.0854426,-0.2029434,-156.5169284,77.1039978,134.81961360000005,149.49182332924974,0.7638710199926949,77.69401151924183,1.020105490575303,-199.1856204,142.4256766,281.24975600000005
3657.409,49.1080748,118.3824464,-97.91389,0.716202,0.1293254,0.1304006,43.3101678,-62.267147,-146.02072460000002,-59.8402526,-71.89460460000001,-8.2839438,-0.9716742,-0.0944474,-0.1880544,-153.5766848,78.3177688,139.04215700000003,161.28588432080278,0.7393745196918271,93.90587695508576,0.9942009453182792,-196.8868526,140.5849158,285.0628816
3677.395,53.6171118,125.327765,-104.6655716,0.6894538,0.1603052,0.1735334,44.0121438,-59.032594200000005,-145.5697022,-58.9807182,-91.695445,-6.624695,-0.963117,-0.1116684,-0.162169,-148.68395700000002,79.84509740000001,145.2195404,171.86251841522528,0.7288059689636467,109.22758963274278,0.983037624818379,-192.6961008,138.8776916,290.7892426
3697.381,55.5057844,131.7787414,-112.3539856,0.6512506,0.2320798,0.2497166,44.7527138,-55.6045936,-145.10875860000002,-58.47976680000001,-95.5127592,-1.5127782000000003,-0.975884,-0.1283412,-0.1396994,-142.74678039999998,81.434572,152.43132640000002,181.85144175131623,0.7350828238259687,112.00383383108796,0.9941513805421184,-187.4994942,137.0391656,297.540085
3717.367,45.505574200000005,138.11382439999997,-117.8373046,0.5692234,0.3636268,0.3431916,45.2813584,-52.0112022,-144.6028564,-52.2252788,-95.7160886,6.4712842,-0.9972546,-0.1356718,-0.1173541999999999,-135.20718979999998,83.04021459999998,161.11493840000003,187.16788220487757,0.7576412100040231,109.22878229577564,1.0132598791988363,-180.4885482,135.05141680000003,305.7177948
3737.353,22.261679200000003,142.99959399999997,-127.31801140000002,0.5231281999999999,0.3623934,0.3226574,45.4158234,-48.2084,-144.19702739999997,-38.5349204,-86.160382,17.5180462,-0.9495076,-0.128578,-0.0986148,-125.9012068,84.5237548,99.27417300000002,192.75461673282712,0.7135123599304779,95.99704922176304,0.9632351028283804,-171.3170302,132.7321548,243.4712004
3757.339,6.319402000000003,145.85697620000002,-129.5030562,0.4744277999999999,0.3351422,0.3584918,45.2595718,-44.331176,-143.8032592,-19.8949614,-70.9684112,29.7026552,-0.9536198,-0.1438887999999999,-0.0492939999999999,-114.6457564,85.8839538,38.98681640000002,195.1543848161894,0.6825821579128186,79.4642850800903,0.965673137326228,-159.9053282,130.2151298,182.7900756
3777.324,-7.250694599999997,152.3597534,-129.1272688,0.347308,0.4930248,0.4918388,44.810096,-40.353028,-143.345932,-6.649388,-51.669267000000005,36.9852008,-0.866392,-0.1457858,-0.0530313999999999,-102.2941558,87.210176,-20.492050199999987,199.849739994924,0.7782041541038445,63.889221245122044,0.8801709643765807,-147.1042518,127.563204,122.85388180000002
3797.31,-35.61389419999999,159.3759796,-125.6157942,0.243253,0.513944,0.5205296,43.777681,-36.3134308,-142.812915,4.927703800000001,-31.45164,40.0922596,-0.8130383999999999,-0.0872156,-0.0688226,-102.75977780000002,88.3005934,-20.750860599999992,206.03004656128476,0.770883597971289,51.19450364310534,0.8205940232713616,-146.5374588,124.6140242,122.0620544
3817.297,-44.2702772,164.8534698,-119.5985792,0.2369418,0.4431886,0.4775456,42.577291,-32.2668728,-142.2263062,5.830056999999999,-10.0084606,34.6867104,-0.7920002,-0.0440404,-0.0654752,-111.7539886,89.1175658,-29.72831419999999,208.42347299458143,0.6932585028952477,36.56947807364044,0.795921400294803,-154.3312796,121.3844386,112.49799200000002
3837.282,-24.6144006,168.174646,-106.31071,0.1635354,0.5523142,0.6479448,41.7078758,-28.342848600000004,-141.4574952,-10.442293,13.29801,26.9257404,-0.8427244,-0.0267806,-0.0567417999999999,-125.4572402,89.358789,28.814711000000024,200.47580236733484,0.8669643974361577,31.794245535098664,0.845056948825912,-167.16511599999998,117.7016376,170.2722062
3857.268,-17.738951399999998,174.1213472,-102.8049314,0.1250512,0.6486862,0.7376022,40.971228,-24.3729386,-140.6246368,-34.2007624,36.1621442,15.447256200000002,-0.8803108,0.0488102,-0.1008086,-143.06725,89.022287,83.89134980000003,202.98218608457543,0.9901962402154028,52.11535806258349,0.8874074115391645,-184.038478,113.3952256,224.5159866
3877.254,-18.501338,176.1232942,-101.4759122,0.1832502,0.5180644000000001,0.586511,40.2743896,-20.3829388,-139.81539,-44.4733414,41.699808,5.305400000000001,-0.9900217999999998,0.0886952,-0.0788454,-163.5419556,88.2997558,136.30758060000002,204.1055487351388,0.8037204187205897,61.19558277913381,0.9971091214503254,-203.8163452,108.6826946,276.12297060000003
3897.24,10.014194000000003,174.2747378,-102.0014264,0.1960668,0.5157578,0.6248908,40.2154602,-16.4069006,-139.0890106,-51.627523,46.1005228,-2.8075928,-1.0624628,0.048981,-0.010899,-172.4983796,87.344879,128.09616400000002,202.1787805492035,0.8336287004702514,69.27150865167772,1.0636470880634423,-212.7138398,103.7517796,267.18517460000004
3917.225,26.628914800000008,171.955942,-105.4739316,0.0759422,0.6862374,0.7749022,40.567415,-12.4195414,-138.4594086,-47.7726652,46.9441804,1.3931022,-1.115591,0.0041586,-0.0180372,-104.0025056,86.24408100000001,125.4091904,203.4765228219081,1.037864348778028,66.99197226144847,1.1157445558096173,-144.5699206,98.6636224,263.868599
3937.211,15.980401000000006,174.5097414,-116.49026159999998,0.0930052,0.5499868,0.5893567999999999,40.7768258,-8.2527296,-137.957303,-29.5788858,41.176693,8.2065006,-1.079141,-0.0257772,-0.0269834,-34.78214440000001,85.3568816,123.1585786,210.42576863885304,0.811465886595068,51.35929500765651,1.079786027783468,-75.55897019999999,93.6096112,261.1158816
3957.197,30.216936600000007,175.011548,-115.70493919999998,0.0793364,0.5305730000000001,0.6237954,41.323404,-4.0914102,-137.4129426,-8.619862600000001,35.2798684,8.1627282,-1.1247984,-0.0785832,0.0234555999999999,35.33044099999999,84.6277434,121.41315760000002,211.96636088332605,0.8227531061959718,37.22366555339858,1.1277840773553065,-5.992962999999986,88.7191536,258.82610020000004
3977.183,32.869415200000006,176.5753542,-119.0726608,-0.0965956,0.6906624,0.7981334,41.9694146,0.1346492000000001,-136.8528778,7.272453799999999,32.8134634,9.347451799999998,-1.1038558000000005,-0.1667527999999999,-0.003063,105.595947,83.95006559999999,119.50575860000004,215.49374171060583,1.0598878171338135,34.88533817708518,1.1163841209326115,63.626532400000016,83.81541639999999,256.3586364
3997.169,19.81464620000001,178.83482980000002,-119.7836976,-0.2122468,0.6902807999999999,0.7504286,42.4016442,4.395537,-136.2333772,29.7624334,26.6645064,12.088989799999998,-1.0587292,-0.1673982,-0.0534276,176.0545592,83.40314939999999,117.34757980000002,216.15422911512604,1.0414794144181825,41.74855707482093,1.073212087491396,133.652915,79.0076124,253.580957
4017.155,26.998932000000003,180.11034239999998,-117.98497319999998,-0.2176624,0.5636412,0.6318159999999999,43.0363648,8.646147000000001,-135.52034,40.3711162,29.373881399999995,5.8179736,-1.0283442,-0.0990844,-0.0388204,176.03023359999997,82.80176839999999,116.50516040000002,217.0003033859413,0.8742195265304933,50.2643088935426,1.0338358358333108,132.99386880000003,74.1556214,252.0255004
4037.14,38.230554,175.59944460000003,-109.95867,-0.4169378,0.7747594,0.8999842000000001,43.9544442,12.7171522,-134.6823668,41.6691012,27.5902438,-0.3523586000000002,-1.0567914,-0.1480914,-0.064101,177.1910766,82.2446318,116.83053880000004,210.68376613100568,1.2585947787937308,49.97659156387392,1.0690407214268876,133.23663240000002,69.52747959999999,251.5129056
4057.126,12.0263128,171.0408172,-112.7405806,-0.5860204,0.7793864,0.7737988,44.393879,16.7510464,-133.8921844,48.3820796,22.3743876,-0.9268128,-0.9415398,-0.0658082,-0.1384764,106.33801259999998,81.78873739999999,117.00980380000004,205.2072899826718,1.2448404125037715,53.31320501397391,0.9539411027564751,61.9441336,65.037691,250.9019882
4077.112,25.533075200000003,162.6995086,-104.2097274,-0.5908902,0.6828872,0.6993836,45.1731492,20.537594,-133.0428314,43.0929118,27.2668302,-3.5136988,-0.9672972,0.0554208,-0.1520407999999999,35.65423279999999,81.231639,117.46739200000002,194.8915988764848,1.1422011978319933,51.115801429844886,0.9807404055432404,-9.5189164,60.694045,250.5102234
4097.098,33.4725746,152.9726136,-100.1763838,-0.7119770000000001,0.8200862000000001,0.840907,46.141552,24.123111400000003,-132.2027952,30.225626,25.8175934,-8.2483,-1.0301674,0.0415665999999999,-0.1787204,-34.66904920000001,80.69919580000001,118.5488984,185.8933609175228,1.373527286444809,40.59767294993149,1.0463812095190166,-80.8106012,56.5760844,250.7516936
4117.084,12.456748600000005,140.2944886,-99.8327392,-0.7963052,0.8335353999999999,0.8242544,46.67675620000001,27.5251656,-131.4897704,27.5903172,18.0129684,-5.9088808,-0.9972598,0.0369272,-0.2160447999999999,-105.42557080000002,80.3254258,119.24672560000002,172.6391900276248,1.4171374494097455,33.47547618906448,1.0210612530122372,-152.102327,52.8002602,250.736496
4137.07,13.627119000000004,128.92399759999998,-95.5379272,-0.7817756,0.7451626,0.6623138,47.2531066,30.706630400000005,-130.8406128,26.3979242,21.094162399999995,-4.531799,-0.979269,0.1393682,-0.2363605999999999,-176.4099672,79.8882432,119.736516,161.0422027391499,1.266925395934804,34.09327340697752,1.01698456368059,-223.6630738,49.1816128,250.5771288
4157.056,34.9132022,122.1062014,-88.84037620000001,-0.7777478,0.7724376,0.723346,48.328965,33.686672800000004,-130.1202576,15.6290586,26.2089886,-2.2052621999999995,-1.0732286,0.0094198,-0.2290067999999999,-175.926175,79.349611,119.90374620000004,154.98860781216462,1.3133091494444862,30.59479919084145,1.0974299407872194,-224.25514,45.6629382,250.0240038
4177.041,21.5506148,116.4677584,-85.3248336,-0.831189,0.8563102,0.8072212000000001,49.2149626,36.518598,-129.3455964,18.647746,23.5289894,-3.6344262,-1.0844983999999998,-0.0756001999999999,-0.2275908,-175.3003632,78.86198279999999,120.15705280000002,145.97772081330234,1.4407457714928336,30.241706745305805,1.1106978626463813,-224.5153258,42.3433848,249.5026492
4197.027,13.796441400000004,108.9838808,-80.4130448,-0.7823244,0.7224381999999999,0.5863878,49.9913466,39.166397800000006,-128.5570208,18.7374142,24.8124718,-1.5065102,-1.006334,0.0375024,-0.241631,-175.0218292,78.35449839999998,120.05811780000002,136.13994947677574,1.21564759352513,31.129070347680813,1.0356158021789548,-225.0131758,39.1881006,248.6151386
4217.013,32.6980416,102.1526354,-71.54444120000001,-0.8084348,0.748966,0.5548854000000001,51.2187896,41.5717048,-127.6815508,12.7510926,27.2806904,-1.3310578000000002,-1.0071407999999995,0.0410262,-0.259632,-174.8819152,77.796582,119.93855440000002,128.9299418686789,1.233861703004109,30.142961799752985,1.040876801324287,-226.1007048,36.2248772,247.6201052
4236.999,31.359290400000003,94.7725556,-66.955986,-0.8306378000000001,0.7556084000000001,0.6221582000000001,52.4325736,43.790602,-126.8050706,9.2744816,27.111843799999995,-1.5166246000000003,-1.0117588,-0.0062687999999999,-0.2720556,-174.7047302,77.23728940000001,119.92412860000002,120.20127474606424,1.283738304627014,28.694393761877283,1.0477162863687095,-227.1373038,33.4466874,246.7291992
4256.985,21.3712878,80.81271139999998,-59.5715524,-0.8775404,0.7731896,0.6224033999999999,53.3956488,45.706471,-126.030426,8.0602856,22.2352256,-1.322136,-0.9514476,0.03743,-0.3090818,-174.52893980000002,76.77331840000001,119.93280020000002,102.64597469650752,1.3248718064446388,23.68800339916724,1.0010919535871818,-227.9245886,31.066847400000007,245.9632262
4276.971,20.043188,65.6814094,-52.786374,-0.8895868,0.6959904,0.5137107999999999,54.228746,47.3198118,-125.4252928,1.0616446,25.4879734,2.6725962,-0.911115,0.1033172,-0.3539002,-174.8701508,76.2509062,119.5546234,86.61511534392613,1.2408328242205071,25.6496909873018,0.9828785980989108,-229.0988968,28.931094400000006,244.9799162
4296.956,20.8809666,51.6143608,-43.4127464,-0.9165162,0.7598226,0.5866146,54.9965454,48.5973958,-124.9438276,-3.5314908000000003,27.582091599999995,3.1808044000000004,-0.9554218,0.0351894,-0.3728944,-175.36278380000002,75.679872,119.116394,70.60257471886989,1.3271959227131311,27.988581974303997,1.0262160315152749,-230.3593292,27.0824762,244.06022160000003
4316.942,7.605399400000003,36.8553808,-34.9505714,-0.9263874,0.7710481999999999,0.6730921999999999,55.3601494,49.567515400000005,-124.651933,-6.938572000000001,27.333850199999997,2.7539006,-0.9859376,0.0073726,-0.386281,-175.88810740000002,75.1040924,118.7160812,51.35857898280507,1.3804934086415768,28.33490985815737,1.0589335754831462,-231.2482568,25.536577,243.3680142
4336.928,-0.6912647999999972,19.5182418,-24.5223222,-0.917204,0.7891611999999999,0.6577917999999999,55.3800026,50.1707046,-124.5995192,-11.9838856,25.142885,2.7766194000000004,-0.9888766,0.0543142,-0.3988554,-176.51447760000002,74.5768022,118.31778560000002,31.34938430125222,1.3772177131262433,27.990851996492864,1.0676668920868344,-231.8944802,24.406097600000003,242.9173048
4356.914,-4.0778849999999975,2.501737,-13.3833126,-0.8847533999999999,0.8132204,0.6734704,55.1610664,50.3999764,-124.7743454,-15.9554692,24.247191,4.5432088,-1.0093636,0.0713225999999999,-0.3938038,-177.32703560000002,74.0665422,117.80835720000002,14.212701722041196,1.377562476791481,29.379312704401837,1.0858099387877052,-232.488102,23.6665658,242.5827026
4376.9,-8.869329599999997,-13.6450738,-2.1398246,-0.8394467999999999,0.8305066,0.7154822,54.6936644,50.2633104,-125.1557022,-19.6940318,19.67735,4.997394600000001,-1.0241903999999995,0.0241688,-0.3740693999999999,-178.15654600000002,73.64654420000001,117.35476680000002,16.414380764428724,1.3806979833369206,28.284747556766707,1.090631937163936,-232.8502104,23.3832338,242.510469
4396.885,-14.404158199999998,-30.2816568,10.7479172,-0.8032228,0.8436964,0.7581538,53.9839598,49.7336886,-125.722876,-20.5548938,12.938815599999996,5.522583200000001,-1.004146,0.0123132,-0.3505398,-106.98697500000004,73.36996939999999,116.91713720000004,35.21329629758721,1.3898876451955533,24.90814191104997,1.0636441865559554,-160.97093479999998,23.6362808,242.6400132
4416.871,-19.4463632,-46.6247702,24.4269798,-0.7773394,0.8508994000000001,0.7679468,53.08077900000001,48.7846354,-126.4235246,-19.444205,8.185641599999997,5.410388,-0.989088,-0.0014549999999999,-0.3321816,-35.73076160000001,73.1963076,116.54388740000002,56.113345828409926,1.3849291026413446,21.77967251352094,1.043379990294792,-88.81154059999999,24.4116722,242.967412
4436.857,-25.0218372,-61.57862540000001,38.3956224,-0.7563684,0.8569242000000001,0.7763644000000001,52.033273,47.4235728,-127.19478920000002,-16.0906198,2.1802909999999973,4.1517324,-0.9873768,-0.0271817999999999,-0.310541,35.71406579999999,73.1475878,116.29550640000002,76.76094881188098,1.381721362160823,16.760029722946282,1.035416586746842,-16.319207199999987,25.724015,243.4902956
4456.843,-31.385932200000003,-76.1641096,51.773323600000005,-0.7575518,0.8482483999999999,0.7945236,50.8471486,45.6490008,-128.0041046,-13.3430908,-4.986413600000003,1.5055196000000004,-0.9812858,-0.0316436,-0.2924578,107.40376,73.2502092,116.2446458,97.29607066996142,1.3873275852309574,14.3237209534846,1.0244289645863398,56.55661140000001,27.6012084,244.2487504
4476.829,-38.0131372,-91.724507,64.5598336,-0.770332,0.8474337999999999,0.8174735999999999,49.5179838,43.4565722,-128.833728,-10.4505952,-13.676201800000005,-0.3971339999999997,-0.9755314,-0.0092345999999999,-0.2777924,179.23657859999997,73.53276220000001,116.2864548,118.43291729345673,1.4070602411778252,17.216595224449648,1.014354675505999,129.71859480000003,30.076190000000004,245.1201828
4496.815,-44.4403256,-107.12691180000002,76.294561,-0.7869182,0.8387426,0.8441431999999999,48.0736242,40.8666438,-129.6626816,-8.8792352,-22.408746600000004,-2.3712434,-0.982206,-0.0192524,-0.269823,179.26103519999998,73.99277659999998,116.49342040000002,138.82354918896763,1.4266419118518283,24.220147340220176,1.0187756046700176,131.18741100000005,33.1261328,246.156102
4516.801,-51.80504620000001,-121.0141968,86.20465999999999,-0.7890106,0.822804,0.8338296,46.5293632,37.9317488,-130.4521972,-7.579546400000001,-32.2127088,-4.239774,-0.9955614,-0.013658,-0.2486225999999999,107.4388672,74.65767679999999,116.8338592,157.35133315180033,1.4123795350983106,33.36291077580651,1.0262271870130513,60.90950400000001,36.725928,247.2860564
4536.786,-56.20714499999999,-134.128537,94.3635634,-0.788157,0.8052358,0.8477874,44.9497788,34.685658,-131.193161,-6.6596608,-40.524855,-6.406532,-1.0082322,-0.0253767999999999,-0.2245786,35.84887079999999,75.4966706,117.393924,173.3614423231337,1.4100849711451433,41.5651128593332,1.0332529693511845,-9.100907999999986,40.8110126,248.587085
4556.772,-58.8911918,-147.06296079999998,100.0298354,-0.767583,0.7806728,0.8643404,43.3601358,31.1820634,-131.9055542,-6.332543599999999,-47.7858512,-8.113149799999999,-1.0249386,-0.0118346,-0.2000067999999999,-35.56059260000001,76.48653879999999,118.134262,187.3543564506516,1.3948899632662786,48.88161088826434,1.044338025532615,-78.92072839999999,45.3044754,250.0398162
4576.758,-59.0225426,-158.7619232,104.731436,-0.7368188,0.7719083999999999,0.8715334,41.8298014,27.453358200000004,-132.58851320000002,-7.852817,-52.52984300000001,-10.3452334,-1.046584,-0.0190544,-0.1706401999999999,-106.6356262,77.57546099999999,119.24509120000002,199.14236736504267,1.377793522026998,54.111689998932896,1.0605749464660197,-148.46542759999997,50.1221028,251.8336044
4596.744,-59.1651092,-168.016092,107.9405822,-0.6740664,0.7330638,0.85046,40.3596484,23.5392466,-133.2152984,-11.0757238,-54.2440864,-13.2390102,-1.0645378,-0.0405634,-0.1401758,-177.17290640000002,78.695392,120.9639632,208.28126800861224,1.3095916379083214,56.92419483963085,1.0744930767362069,-217.5325548,55.15614539999999,254.1792616
4616.73,-57.6885466,-176.03601680000003,110.6005966,-0.6087066,0.7162868,0.8494662,38.9780832,19.4562444,-133.7938446,-11.1425532,-54.940766,-15.863932599999998,-1.0698578,-0.0594182,-0.1108832,-175.019171,79.8196778,123.38122400000002,215.7524961336628,1.2669582983193408,58.260695310122486,1.0772285359914673,-213.9972542,60.3634334,257.17506860000003
4636.716,-55.542729,-182.3886138,111.90481579999998,-0.5214437999999999,0.668351,0.8284884,37.6954202,15.2511038,-134.31847520000002,-10.0728122,-55.521714800000005,-17.9192816,-1.0752714,-0.0640811999999999,-0.088421,-172.03964220000003,80.9340988,126.60939620000002,221.07303993903216,1.185322624728812,59.20492389159121,1.0808021359584743,-209.7350624,65.682995,260.9278714
4656.702,-52.0025358,-186.3560912,112.68734279999998,-0.4319373999999999,0.6606023999999999,0.8099632,36.552314,10.9670394,-134.78084099999998,-7.716663199999999,-53.6879028,-20.8303566,-1.068663,-0.0849096,-0.0542614,-167.7649902,81.9736556,131.0911346,223.90018687865737,1.1309314009959932,58.101992686031394,1.0734032547328705,-204.3173042,71.0066162,265.8719756
4676.688,-51.239570400000005,-188.68493640000003,111.9333878,-0.3390332,0.6124084,0.791395,35.46535179999999,6.639741400000001,-135.191745,0.5126903999999997,-55.373930400000006,-21.1508282,-1.0621234,-0.0929898,-0.0352774,-161.74859020000002,82.9817214,137.1560424,225.2922149197211,1.0565479663118944,59.27809505151302,1.0667697571089836,-197.213942,76.34198,272.3477874
4696.673,-48.0936538,-189.903668,110.34655,-0.2614566,0.5866366,0.7672084,34.478746,2.2993384000000003,-135.56242980000002,13.605498,-57.3880844,-19.7724644,-1.0443881999999998,-0.0990482,-0.0126674,-153.5242432,83.9302642,145.1687958,224.8394177020368,1.0005552374425313,62.2049206685355,1.0491509525541307,-188.0029892,81.6309258,280.7312256
4716.659,-45.1144554,-189.5104856,108.1067992,-0.1819812,0.5369048000000001,0.7354694,33.576812800000006,-2.019367,-135.8923706,27.6219008,-58.457373,-17.972165999999998,-1.0363703999999998,-0.1047234,0.0038318,-142.66585540000003,84.76426239999999,83.53197940000003,222.79276979214453,0.9286006460006584,67.10612947114241,1.041655067282332,-176.24266819999997,86.7836294,219.42434999999995
4736.645,-42.5009148,-188.0901792,106.0048658,-0.1260334,0.5283922,0.7348542,32.7495878,-6.3051994,-136.17756359999998,39.7132668,-59.6126754,-15.337076200000002,-1.0043816,-0.1053566,0.0247282,-128.8833054,85.4340408,24.566751200000017,220.04834660501535,0.9138344654225076,73.25326296239884,1.0101949789309783,-161.63289319999998,91.7392402,160.74431479999998
4756.631,-43.049199,-186.160977,102.6886198,-0.0762152,0.4802194,0.7222611999999999,31.9221472,-10.5404072,-136.4350952,50.9457388,-61.194937200000005,-10.3530932,-1.0094376,-0.0910084,0.0205676,-112.9250596,85.9243058,-32.46455679999999,216.91956004142432,0.8706782814983041,80.29617163724342,1.01374051084786,-144.84720679999998,96.464713,103.97053839999998
4776.617,-41.6188782,-183.1996062,99.6000594,-0.0302708,0.4683528,0.7103148,31.1350366,-14.7031494,-136.6574066,53.949784,-57.0428626,-9.1035832,-1.0028402,-0.066397,0.0323238,-96.62579200000002,86.0973068,-89.233972,212.6367761393712,0.851362309301698,79.0401328081403,1.0055554964254734,-127.7608286,100.8004562,47.42343459999999
4796.602,-42.8154358,-179.77684,96.179982,0.0116402,0.4456264,0.7194621999999999,30.3314892,-18.774936,-136.84524539999998,46.6438524,-51.753497200000005,-7.017753399999999,-1.0009954,-0.0365018,0.032992,-81.75244620000001,86.03593140000001,-147.2955458,208.3349770937416,0.8463712187107025,70.02372670692846,1.0022038935707644,-112.0839354,104.8108674,-10.450300400000012
4816.588,-45.057103,-176.345709,92.5261872,0.0577474,0.4241104,0.7210724,29.485752400000003,-22.752983,-137.00626519999997,34.7600956,-44.8931606,-2.9878282,-0.987774,-0.0414197999999999,0.0154534,-69.19507100000001,85.8459976,-135.4413282,204.1789581010608,0.8385402790782801,56.85584606820347,0.9887628039522928,-98.68082339999998,108.5989806,1.5649369999999898
4836.574,-47.98093659999999,-173.2112212,88.56269699999999,0.103243,0.3934382,0.7044224,28.5832446,-26.6397092,-137.146768,26.2000898,-33.6434246,-2.6267605999999994,-0.9973724,-0.0352057999999999,0.0111539999999999,-60.431852200000016,85.5928772,-127.210388,200.36878181623592,0.8134271029969434,42.72264733831064,0.998055892398517,-89.0150968,112.2325864,9.936379999999994
4856.56,-50.6837968,-170.31644880000002,84.79979879999999,0.1475432,0.372707,0.6878088,27.6297838,-30.4426412,-137.2759062,16.1951452,-19.73530580000001,-4.103471999999999,-0.9901498,-0.0314335999999999,0.0044685999999999,-55.98960740000001,85.3713516,-123.09590599999996,196.89475835183424,0.796090729171418,25.8573684957186,0.9906587031036268,-83.6193912,115.8139928,14.1800002
4876.546,-52.4189896,-168.7338744,80.19867099999999,0.188935,0.3406032,0.6647254,26.6569822,-34.1775862,-137.4151824,11.3694646,-3.725601400000004,-1.7391147999999998,-0.9876758,-0.0509714,-0.0231294,-55.47565700000001,85.3339752,-122.80814059999996,194.03787689749163,0.770432885772927,12.090051752160294,0.989260601999271,-82.1326392,119.5115614,14.6070418
4896.532,-54.8259544,-167.6088866,75.7639388,0.2362388,0.312418,0.6381904,25.6538634,-37.8552546,-137.5725036,15.581292199999998,18.0150404,-0.4427075999999997,-0.9661259999999998,-0.0488968,-0.0501154,-60.08747780000001,85.4931808,-127.72527159999996,191.9343600443982,0.7487995486120435,23.82255941863742,0.9686598465113538,-85.7413412,123.3484354,9.847232000000002
4916.517,-57.3672378,-166.82423699999998,71.1491714,0.2856636,0.2825372,0.6191146000000001,24.6201446,-41.4766472,-137.7531524,19.843349,43.9118204,-4.319676199999999,-0.9572816,-0.0248379999999999,-0.065023,-71.4801848,85.60597820000001,-139.509787,190.21969039597477,0.738060871257893,48.38043068070502,0.9598088239183676,-96.1003294,127.0826254,-1.756634599999996
4936.504,-55.998052,-165.66721180000002,66.1004104,0.3407778,0.2484464,0.575963,23.6447546,-45.0313676,-137.9690552,21.5878344,73.5356044,-8.0404426,-0.9622836,-0.0206839999999999,-0.1089916,-87.81251360000002,85.34574719999999,-84.29273219999997,186.95098595201148,0.7138546770980772,77.05951223411044,0.9686571754524508,-111.4572682,130.3771148,53.676323
4956.489,-51.78379279999999,-164.16365660000002,62.6584244,0.4041016,0.2103106,0.5307671999999999,22.757238,-48.533896,-138.18153080000002,26.2463816,105.5276208,-11.2962532,-0.928434,-0.0386019999999999,-0.1450262,-106.1212836,84.4625364,-31.17797539999998,183.1866411431974,0.6994586994174566,109.32774869702531,0.940485196824724,-128.8785216,132.9964324,107.0035554
4976.475,-50.912178,-159.933142,58.7114304,0.4785252,0.1646092,0.4640034,21.8952774,-51.9326608,-138.3911956,32.9349024,142.3126878,-14.894755999999996,-0.905605,-0.0405269999999999,-0.183053,-124.6383436,82.688246,21.553735400000026,177.81364356626264,0.6865724367983614,146.8314089738886,0.9248087664825632,-146.53362099999998,134.6209068,159.94493100000005
4996.461,-47.4062644,-155.23321219999997,55.1390146,0.557679,0.125994,0.4090508,21.0880276,-55.221219,-138.5770842,39.098321,168.3491196,-21.1372868,-0.9072006,-0.0548054,-0.218196,-140.0410888,80.0017562,77.24039300000003,171.42057929359572,0.7029956700134361,174.11745940134662,0.9346796536383576,-161.1291164,135.2229752,215.8174772
5016.447,-41.311772,-148.7318236,51.2926782,0.6147940000000001,0.1060856,0.3148278,20.398013,-58.3683472,-138.7552214,45.1428862,174.74375919999997,-20.4440782,-0.9093868,-0.0835979999999999,-0.2598218,-150.038858,76.87276460000001,138.18017100000003,162.66147882670396,0.6988149687980361,181.6348586787829,0.9494631880033476,-170.43687100000002,135.2411118,276.9353924
5036.433,-38.438592,-140.43795459999998,47.33982159999999,0.6935728,0.0616033999999999,0.2273015999999999,19.7612538,-61.3401618,-138.915991,51.2616926,156.39407799999998,-14.3028754,-0.8996497999999999,-0.080493,-0.2845162,-155.29131480000004,73.9572342,131.74899880000004,153.10585604833653,0.7324644872988451,165.20121369528405,0.9469943789439724,-175.0525686,135.297396,270.66498979999994
5056.419,-34.1927014,-130.1029982,40.2799072,0.771525,0.0245537999999999,0.1342163999999999,19.3165038,-64.0699728,-139.18603199999998,57.2724096,122.9575424,-8.293108999999998,-0.9005254,-0.0723982,-0.3107874,-157.7549012,71.63512419999999,128.01574240000002,140.4222272067331,0.7834971325719067,135.89503961265052,0.9553932715940384,-177.071405,135.705097,267.20177440000003
5076.405,-23.837743,-117.2562438,33.5715042,0.8515644,0.0047376,0.0603831999999999,19.1677326,-66.5108846,-139.5559784,59.8058402,75.46920779999999,-4.254551599999999,-0.904886,-0.0687011999999999,-0.3167204,-158.25657660000002,70.2056746,126.23976280000002,124.2751406986518,0.8537157038753358,96.3869340590548,0.9611713373033968,-177.42430919999998,136.7165592,265.7957412
5096.39,-11.099965799999998,-101.2814254,25.6357422,0.8800938,0.0226394,-0.0148055999999999,19.4217754,-68.59557939999999,-140.0750184,56.455619,29.6721122,0.8947698000000006,-0.9136508,-0.0682014,-0.32027,-157.87143260000002,69.6666854,125.46057880000004,105.06344583137276,0.8805094235850972,63.78457315117458,0.9705576171472768,-177.293208,138.2622648,265.53559720000004
5116.376,-2.4168857999999984,-80.3014286,17.454762,0.9455612,0.039399,-0.0678421999999999,19.922587,-70.22754660000001,-140.661896,48.002638000000005,-3.0441228,1.6411044000000008,-0.9129022,-0.0504048,-0.31662,-157.0085968,69.7395018,125.37114400000004,82.21210062179279,0.9488102171916574,48.127052291120265,0.9675635870721264,-176.9311838,139.9670484,266.03304
5136.362,8.645337600000001,-56.1450028,9.134211799999996,0.9749824,0.0039764,-0.1113492,20.6642996,-71.3472106,-141.2714054,35.46500400000001,-19.046634,-0.1974437999999993,-0.9007149999999999,-0.0707956,-0.3133178,-155.94969180000004,70.0906662,125.75592800000004,57.536397409268176,0.9813282511001912,40.25642507108811,0.956277978414854,-176.61399139999995,141.43787679999997,267.0273334
5156.348,24.569895400000004,-31.1978768,2.517513399999997,0.968395,-0.0008401999999999,-0.0863644,21.6312022,-71.952597,-141.77674280000002,18.5323352,-22.461170600000003,-3.679448,-0.8931996,-0.0880225999999999,-0.3093514,-154.9571778,70.46668400000001,126.42779840000004,39.79101846540371,0.9722388551937224,29.351149385878696,0.9493428212362908,-176.58837999999997,142.419281,268.2045412
5176.334,33.75589240000001,-7.3069252,-4.474257000000003,0.9165046,0.0347976,-0.0514968,22.6867946,-72.0636444,-142.1722598,-0.0602574000000004,-19.2555474,-7.565925999999999,-0.9128198,-0.11272,-0.30126,-154.1610506,70.7468782,127.28022160000005,34.82628896826106,0.9186095335871276,20.68871607580754,0.9678343728510784,-176.8478452,142.8105226,269.4524814
5196.32,37.3951758,16.5834746,-11.385316000000005,0.9130764,0.0074595999999999,-0.0322824,23.6466312,-71.6768982,-142.3926668,-16.5184116,-15.9441508,-8.141627,-0.9190232,-0.1228174,-0.3013474,-153.7191804,70.956073,128.10365000000002,42.462174029854,0.91367735619248,24.358981028098945,0.9749348754495144,-177.3658116,142.6329712,270.4963168
5216.305,48.319062800000005,36.5499346,-18.6670852,0.8649792,-0.0189886,0.0093307999999999,24.7132058,-70.8638428,-142.495517,-28.414111400000003,-12.1568934,-7.498055399999998,-0.908876,-0.1175886,-0.2977306,-153.64416520000003,71.10240780000001,128.79074880000002,63.39629026211771,0.8652379136348799,31.80208512931256,0.9636006291002098,-178.357371,141.9662506,271.2862658
5236.291,57.9783508,52.5694,-26.313527000000004,0.8236544,0.036141,0.09191,25.904122,-69.7029068,-142.53190919999997,-38.8919878,-11.6193236,-7.998430399999999,-0.9153818,-0.1018916,-0.2935114,-153.78575440000003,71.24056540000001,129.47230840000003,82.56774600912628,0.8295542119839788,41.3711286384661,0.9666719608283671,-179.6898764,140.9434722,272.0042176
5256.277,58.04636000000001,66.38915180000001,-34.783687,0.8011264,0.0716178,0.1341704,27.0805792,-68.2187942,-142.5560304,-46.92799359999999,-19.574143,-5.996064799999999,-0.9536052000000002,-0.1064413999999999,-0.2840636,-153.95937500000002,71.54976339999999,130.28655400000002,94.79875667585,0.8154350460275546,51.198988765325126,1.0006921494375582,-181.0399542,139.76855759999998,272.8425844
5276.263,63.69598760000001,76.71091080000001,-43.0017508,0.7976986,0.0708848,0.15501,28.392823600000003,-66.47347479999999,-142.60836799999998,-49.7075072,-27.429750199999997,-1.7035681999999994,-0.9342786,-0.1034616,-0.2928224,-154.20057060000002,72.0288452,131.08720700000003,108.58587957911568,0.8157057137307547,56.79902827236134,0.9845434287192618,-182.5933942,138.50232,273.695575
5296.249,75.5491858,84.9879608,-50.04232760000001,0.7878644,0.0882516,0.1754977999999999,29.941324400000003,-64.517472,-142.6639954,-52.23488239999999,-37.1126594,1.0098594000000007,-0.9144494,-0.1047406,-0.2859004,-154.33524160000002,72.7009186,132.04893180000005,124.23714222248908,0.8119840734243252,64.084727065737,0.963808765870533,-184.276566,137.2183906,274.7129272
5316.235,78.95390400000001,92.2886474,-57.1403128,0.7799872,0.1204876,0.2635272,31.535341,-62.3683218,-142.7108948,-56.927147000000005,-51.944688,1.3937664000000007,-0.94098,-0.1162283999999999,-0.2640222,-154.0362548,73.64743519999999,133.55299680000002,134.2234284417016,0.8320720395839774,77.07719028191623,0.9842053258641716,-185.5715958,136.015757,276.2638916
5336.221,74.2422798,98.9713224,-63.5701088,0.7479756,0.1858994,0.3075728,33.0354442,-60.021981,-142.74534,-59.286542,-64.2719142,2.3323372000000004,-0.9684644,-0.1376944,-0.2622538,-153.2387482,74.8084016,135.61184700000004,139.0985172471298,0.8298355936060828,87.47121134444423,1.0127487830025568,-186.2741924,134.83038259999998,278.357187
5356.206,71.00693960000001,104.9320218,-70.3734352,0.7167724000000001,0.2100284,0.2838329999999999,34.4655688,-57.49698479999999,-142.7770966,-57.07089940000001,-70.840867,4.247480200000001,-0.9460784,-0.119583,-0.2493199999999999,-152.0430938,76.09120800000001,138.02695920000002,144.93148399241042,0.7990217607157643,91.0689688295964,0.9856596244320652,-186.5086626,133.58819279999997,280.8040558
5376.192,74.1857894,110.09964719999998,-75.72508460000002,0.6916276000000001,0.2224606,0.3124866,35.8940092,-54.82027359999999,-142.75057980000005,-59.4480364,-74.3028306,5.6938840000000015,-0.9565562,-0.1032241999999999,-0.212166,-150.596991,77.4522018,140.74078980000004,152.83897441471782,0.7908763056342504,95.32785522602236,0.9852255634016404,-186.4910002,132.27247540000002,283.4913696
5396.178,68.09792480000002,113.516702,-81.72352140000001,0.6423159999999999,0.3045002,0.426033,37.1968068,-52.0163962,-142.7117706,-54.4976934,-73.3393586,6.487913799999999,-0.9555982,-0.0894239999999999,-0.192572,-148.85153200000002,78.79582359999999,143.65247200000005,155.5702508355615,0.8287305549725072,91.60105420384652,0.9789017043622102,-186.0483388,130.8122198,286.3642426
5416.164,56.94343560000001,114.6181792,-87.3841888,0.5886204,0.3482442,0.4319119999999999,38.3209096,-49.1205756,-142.7170838,-45.415650600000006,-67.6429856,9.4918126,-0.9147498,-0.0962871999999999,-0.1887626,-146.97821040000002,80.03832080000001,146.49824220000005,154.97057241066352,0.8088856370796801,82.02590643654362,0.9389727049508096,-185.29912,129.1588964,289.215326
5436.15,55.108694400000005,116.0077148,-91.2674742,0.5597906,0.3514538,0.4036267999999999,39.3988828,-46.1676818,-142.7084106,-36.78475540000001,-61.65482179999999,11.023656,-0.8866546,-0.0703338,-0.1620108,-144.8048888,81.180786,149.46194460000004,157.55795739485325,0.7744674835401678,72.63577818564292,0.9040745115532458,-184.2037716,127.3484678,292.1703552
5456.136,56.48325040000001,116.8949752,-93.5913284,0.5148786,0.4163539999999999,0.5052622,40.4675452,-43.1727302,-142.6401274,-31.516644000000003,-56.298285,10.5451234,-0.9228866,-0.0563786,-0.1430638,-142.0147888,82.209561,152.93121660000003,160.0441487666274,0.832910869663015,65.37580110778903,0.9356096802983388,-182.482334,125.3822912,295.57134400000007
5476.121,41.0191522,118.6249314,-97.4920014,0.4705967999999999,0.4668166,0.548376,41.223896,-40.0971648,-142.56091899999998,-24.3827458,-52.5747636,10.7849312,-0.8958048,-0.0551636,-0.1308018,-138.64183960000005,83.15490559999999,156.83808300000004,158.93122894459438,0.8602879306266012,58.94861153014578,0.9069831163540144,-179.86573560000002,123.2520704,299.399002
5496.107,32.9626176,121.2408738,-99.8975388,0.4407729999999999,0.4488476,0.4771943999999999,41.805529,-36.9538464,-142.450598,-26.702501800000004,-48.2847496,10.2979426,-0.9254874,-0.04077,-0.1140392,-134.98001259999998,84.01520680000002,161.07712100000003,160.5160487213938,0.7895945167908145,56.12921047107823,0.9333777689635638,-176.78554160000002,120.9690532,303.52771900000005
5516.093,36.62012560000001,124.9019242,-101.0729156,0.4069452,0.4782059999999999,0.5136222,42.4136276,-33.7375196,-142.26239,-32.945212000000005,-39.2729236,7.8388068,-0.9736046,-0.0190776,-0.0855842,-131.72955800000005,84.7122038,165.023819,164.7945949832914,0.8112293994745753,51.85746247035336,0.977545153562003,-174.14318559999998,118.4497234,307.286209
5536.079,32.11649980000001,128.9790268,-104.549083,0.3518648,0.5436046,0.5704977999999999,42.9221208,-30.4138256,-142.036978,-32.5210538,-31.5046016,8.7882286,-1.0113126,-0.0344738,-0.0892323999999999,-129.0329318,85.2878982,168.40151980000002,169.10815967841236,0.8630078437795569,46.12365796598395,1.0158267760868285,-171.9550526,115.7017238,310.4384978
5556.065,23.31565820000001,133.3776886,-108.4342834,0.32655,0.48827,0.4962668,43.2576532,-26.9732014,-141.8010742,-35.014108799999995,-23.549669199999997,9.2296294,-0.973389,-0.0686761999999999,-0.0524771999999999,-126.82091100000002,85.73779440000001,171.33567200000002,173.46821481196292,0.7689754431594289,43.1944532706343,0.9772187177327704,-170.07856420000002,112.7109958,313.13674619999995
5576.051,31.43295460000001,138.1101592,-110.51436,0.3007758,0.4989458000000001,0.4941244,43.7489304,-23.4425808,-141.4968262,-35.124972,-14.428605599999996,10.7842162,-1.0364078,-0.0873984,-0.017537,-126.3759616,86.09659880000001,172.4996614,179.65486488081697,0.7639187887980241,39.47464549061179,1.040234182572559,-170.124892,109.53917959999998,313.9964876
5596.036,29.100443200000008,143.88064260000002,-114.2900832,0.2032056,0.6185984,0.5767287999999999,44.1925966,-19.7779188,-141.14405819999996,-23.0711434,-12.100820999999998,15.5581692,-1.0264878,-0.1181704,-0.0456811999999999,-126.78398,86.50845960000001,172.57490260000003,186.0395071679354,0.8698118216622259,30.34409589217041,1.0342766646398052,-170.9765766,106.2863784,313.7189608
5616.023,17.788303800000005,148.0120116,-117.9572722,0.134154,0.5870512000000001,0.5516934000000001,44.4309938,-16.0126312,-140.7617096,-11.17442,-12.383653799999996,14.965748,-1.001108,-0.1058292,-0.0187449999999999,-126.47708,86.91622939999999,173.1281222,190.09970382624093,0.8166957908187112,22.40973353197575,1.0068606766885078,-170.90807379999995,102.9288606,313.8898318
5636.008,20.872126800000007,151.1979584,-118.5668852,0.110511,0.5519643999999999,0.5604822,44.7434358,-12.1941916,-140.33241579999998,-13.0592172,-3.143237599999997,13.514512,-0.9993054,-0.1178824,0.0326932,-128.5085664,87.1797684,171.371805,193.2733157151121,0.7943662105762053,19.054268054296223,1.0067653093075666,-173.25200219999996,99.37396,311.7042208
5655.994,20.21326940000001,155.6162292,-118.6537612,-0.0136452,0.68245,0.6287081999999999,45.056482,-8.315783,-139.81312559999998,0.0297900000000005,0.4960072000000028,17.694558999999998,-1.0148537999999998,-0.1613896,-0.0159717999999999,-132.9392364,87.4575852,166.9596558,196.73256491280367,0.9280076479912652,17.701534645081843,1.0277304786556831,-177.9957184,95.7733682,306.7727814
5675.98,7.176367600000006,159.4968476,-119.084149,-0.0957832,0.6509815999999999,0.6130502,45.1366524,-4.3782266,-139.2356658,16.8149496,0.7187170000000029,17.3190006,-0.985501,-0.1144463999999999,-0.0287057999999999,-137.8483886,87.7028762,161.73379200000002,199.17775776758347,0.899323085804451,24.149676311690587,0.992539280042659,-182.985041,92.0811028,300.9694578
5695.966,7.593846000000006,160.1237092,-118.249208,-0.1112126,0.5662562,0.599718,45.2608268,-0.4408579999999998,-138.6281646,17.6197694,10.921174600000004,9.06239,-1.0041608,-0.0641002,0.0453287999999999,-142.949411,87.6441542,156.2741454,199.19875485972585,0.8322715938689725,22.624218016651128,1.007225122803299,-188.2102378,88.0850122,294.90231
5715.952,10.335427800000003,163.4969056,-120.7402772,-0.1697262,0.6323585999999999,0.6257438,45.474836,3.5797812,-137.99512620000002,17.4264008,20.6350548,8.76097,-1.0232688,-0.1266804,0.0417189999999999,-149.7277496,87.39669939999999,149.125833,203.509886115926,0.9056708481555756,28.39435730531937,1.0319241424439105,-195.2025856,83.8169182,287.1209592
5735.937,-6.116723799999996,162.6218292,-121.64118500000002,-0.3270898,0.7532396,0.6603858,45.4012786,7.599849799999999,-137.3787352,36.9296906,17.073324000000003,9.7396812,-0.9707858,-0.1072554,0.0378277999999999,-154.88011780000002,87.18719180000001,143.21532880000004,203.174436213328,1.0537869979810153,41.83493552162281,0.977425052248836,-200.2813964,79.587342,280.594064
5755.924,-17.878261999999996,156.1536438,-125.7255646,-0.357865,0.5597804,0.4987843999999999,45.0904396,11.5870128,-136.9288634,44.8921818,27.223083000000003,9.1696322,-0.8127818000000001,0.0176287999999999,0.0660463999999999,-159.9310792,86.7121644,137.224414,201.2722293764013,0.8307871761964792,53.29621365043128,0.8156513691238679,-205.0215188,75.12515160000001,274.1532774
5775.909,-2.545824799999997,148.3640288,-119.94659900000002,-0.5075032,0.6518904000000001,0.5631824,45.1225892,15.3870312,-136.508496,42.6131346,42.8287878,13.700229000000002,-0.7421658000000001,0.0153095999999999,-0.008053,-165.36776440000003,85.8836244,130.87126460000002,190.80239222123583,0.9998474920167376,61.9506301784541,0.7423673681882846,-210.4903536,70.4965932,267.3797606
5795.895,-4.218908399999995,147.3085142,-115.87327580000002,-0.6451368000000001,0.7584022000000001,0.6706432,45.1886994,19.1154824,-136.02552799999998,42.2817912,47.50808920000001,27.0847552,-0.8648921999999999,-0.0836872,-0.101099,-100.07952280000002,84.9588762,123.24584800000002,187.467900154992,1.20047394365114,69.12562745291707,0.8747931600473794,-145.2682222,65.84339380000002,259.27137600000003
5815.881,-11.320536999999996,145.3468076,-105.676825,-0.7131142,0.747692,0.7639868,45.2149864,22.6696894,-135.39765319999998,42.513297,54.713207800000006,26.6216556,-0.9515338,-0.081306,-0.1467402,-33.42790540000002,83.8915194,116.9926634,180.0595467603993,1.2850101243491745,74.22686896576738,0.966209048019361,-78.6428918,61.22183,252.3903166
5835.867,-5.446667199999996,146.320355,-97.1227938,-0.7482426,0.6677586,0.6860442,45.482792,26.1161986,-134.590802,25.97375300000001,69.3199524,18.5583644,-0.9946172,-0.0486232,-0.2111088,34.52346779999998,82.5144686,112.38338160000004,175.70472260707993,1.215082376089111,76.31713133265993,1.0179364005435312,-10.959324199999992,56.39827,246.9741836
5855.853,8.465492200000003,148.395465,-84.0451722,-0.8566100000000001,0.8862780000000001,0.8615147999999999,46.2011924,29.4102438,-133.4843902,10.3189012,71.5108544,10.3565798,-1.1823444,-0.0302052,-0.272161,104.494589,81.07293419999999,110.12677300000004,170.75265608734213,1.5038208457136908,72.99000454957603,1.2136400801882736,58.29339660000001,51.6626904,243.6111632
5875.839,-4.337792799999996,146.9966324,-82.07296140000001,-0.87278,0.8781884,0.8768327999999999,46.7202354,32.6513218,-132.31611020000005,-0.8493292000000002,66.06983720000001,4.127708999999999,-1.2362091999999998,0.036854,-0.2740432,176.065869,79.7332674,109.7085784,168.41258081355548,1.5171669497620883,66.20409903709255,1.2667561244955083,129.3456336,47.0819456,242.0246886
5895.824,-5.037329999999995,134.80359959999998,-76.0374008,-0.8688456,0.8039504,0.8239217999999999,47.2256324,35.621421,-131.209146,-7.326508800000001,64.91324840000001,-3.456204800000001,-1.0764196,0.1415576,-0.2811215999999999,176.9813598,78.4300524,110.77366020000002,154.85177260550122,1.442246877207491,65.41676314719435,1.1214932293012203,129.7557274,42.8086314,241.9828062
5915.81,1.833308000000004,118.678003,-69.366918,-0.9034006,0.8631228,0.7811868000000001,47.8414702,38.2609182,-130.2178374,-9.864995000000002,59.670227800000006,0.8666817999999988,-1.0094116,0.1943018,-0.3256962,177.252008,77.22007620000001,111.23463440000005,137.47581142553622,1.4735557093148668,60.48640631907611,1.078305607141241,129.4105378,38.959158,241.4524718
5935.796,3.169778400000004,100.3132798,-63.4586652,-0.8790905999999999,0.8815222,0.8558508,48.4062978,40.5512998,-129.4060698,-8.4676282,50.35696560000001,7.370108999999998,-1.0343998,0.1925782,-0.337879,176.70886539999998,76.195952,110.84386280000004,118.74259466722076,1.5107489083106564,51.59305397478328,1.105093447630688,128.30256760000003,35.6446522,240.2499326
5955.782,1.1013856000000042,80.8482292,-55.69382459999999,-0.8334242,0.8350446,0.8648912,48.8153616,42.4426252,-128.7965956,-12.6661244,44.2289206,11.8605198,-1.0108114,0.15196,-0.3448544,175.64273999999995,75.28107159999999,110.00744160000002,98.18070744087754,1.4628506994810646,47.51105192145899,1.078775270929641,126.8273784,32.838446399999995,238.8040372
5975.768,0.5676186000000041,61.7524948,-43.6071448,-0.8038322000000001,0.8759842000000001,0.8926133999999999,49.1429938,43.8927932,-128.3218092,-15.0272012,37.05998780000001,12.313874,-1.0378804,0.0880956,-0.3615232,174.54876099999998,74.49711479999999,109.18952480000004,75.59944366532905,1.486692034775878,41.84364903458238,1.1025677229003945,125.4057672,30.6043216,237.511334
5995.754,-3.042613399999996,44.3762906,-31.9399246,-0.7970078,0.888377,0.8707834,49.3173362,44.9425292,-127.9776442,-13.6761222,29.76665640000001,10.262586799999998,-1.0742982,0.0684886,-0.3661755999999999,173.6847686,73.85424359999999,108.57855840000002,54.760126434945285,1.4773959716695453,34.32798915597196,1.1370540360460273,124.3674324,28.9117144,236.5562026
6015.739,-4.758330799999996,25.561000799999995,-20.2124622,-0.7873941999999999,0.8856059999999999,0.858831,49.3418578,45.5721374,-127.8063506,-15.201173399999998,22.21337760000001,7.363943999999998,-1.0662478,0.0825128,-0.3650848,172.97661139999997,73.36463619999999,108.16112820000004,32.93250828719637,1.4635157327444894,27.905868350083384,1.1300352403176284,123.6347536,27.7924988,235.96747880000004
6035.725,-6.595546599999996,5.735686399999999,-6.731606199999999,-0.798859,0.8879042,0.8744164,49.2110512,45.7399382,-127.8046112,-15.766261,14.870326400000003,7.4262988,-1.0493476,0.08246,-0.3828492,172.2273834,73.0139098,107.71180580000002,11.032400258501996,1.4802545763643495,22.909637863343445,1.120046225459646,123.0163322,27.2739716,235.516417
6055.711,-12.436011199999996,-14.250451800000002,7.304563200000001,-0.7990014000000001,0.8977243999999999,0.892055,48.8493408,45.44127100000001,-127.9713272,-11.2796152,7.258335000000005,5.856712399999998,-1.0364126,0.0632841999999999,-0.3828196,171.6642882,72.8195402,107.3596054,20.275265586754788,1.4966878293693444,14.636059106487984,1.1066647249969432,122.8149474,27.3782692,235.3309326
6075.697,-17.053672999999996,-33.80133,21.3387718,-0.7805498,0.8732028,0.8711985999999999,48.2980902,44.6721554,-128.29160919999998,-10.2279928,1.010342800000006,3.052433199999999,-1.0191578,0.0667666,-0.3698996,171.2488708,72.76053900000001,107.14028480000002,43.45918607719551,1.4597013807110824,10.721472740758424,1.0862624518303852,122.9507806,28.0883836,235.431894
6095.683,-19.648352,-53.232068600000005,35.860233400000006,-0.7657339999999999,0.8783253999999999,0.8675116,47.6208342,43.413748000000005,-128.73166339999997,-12.7749346,-6.116507399999994,0.0397229999999986,-1.0077273999999998,0.0724668,-0.3498682,170.8948424,72.85943119999999,107.03978720000002,67.1242668731174,1.4527148526726503,14.163763437916522,1.0691930168048422,123.27400820000004,29.4456832,235.77145060000004
6115.669,-23.026901599999995,-71.6537462,49.1936466,-0.7493926,0.8517766,0.8716904,46.819593,41.6917052,-129.2564726,-13.7627396,-15.753633199999996,-1.9838632000000012,-0.9855404,0.0693032,-0.3293069999999999,170.5477324,73.160562,106.96759800000002,89.9139166514049,1.4307189796373292,21.01251230800031,1.0414105404745049,123.7281394,31.4688568,236.2240706
6135.654,-24.7346188,-89.5447816,61.9672194,-0.7336115999999999,0.8397508,0.8779244,45.948957,39.52135,-129.8506926,-15.036084,-24.899514799999995,-3.7523336000000014,-0.9662288,0.0630808,-0.2963096,170.1755462,73.6585754,106.896608,111.66917909226676,1.4191964761337874,29.32830828357073,1.012608838757711,124.2265892,34.1372254,236.7473006
6155.64,-25.9328624,-106.0588486,73.01410200000001,-0.7142196000000001,0.8196204,0.8808955999999999,45.0407226,36.951511800000006,-130.4778746,-18.620887,-33.717544999999994,-4.9902722000000015,-0.9806338,0.0585794,-0.2577841999999999,169.6878234,74.35258639999999,106.78106080000002,131.34706623857824,1.3992370403972587,38.839581487496574,1.015641122432742,124.64710080000002,37.4010746,237.2589354
6175.626,-27.586124799999997,-120.7438598,82.25193240000002,-0.7069424,0.7966962000000001,0.8792512,44.1027672,34.037518,-131.117819,-21.0028458,-44.67056939999999,-6.125963600000001,-0.9932264,0.040562,-0.2273278,169.0766296,75.2784668,106.58644400000004,148.67903128692157,1.381149906676911,49.740393366431256,1.0197165714814092,124.97386240000004,41.2409488,237.704263
6195.612,-28.204692,-134.35774220000002,89.8314298,-0.687663,0.7720551999999999,0.8983072,43.1638718,30.829885,-131.7650816,-22.3436554,-54.5446962,-6.272895200000002,-1.0021904,0.02782,-0.1930646,168.24454659999998,76.4098222,106.19273220000002,164.06460105644013,1.369636980731712,59.2765723905695,1.0209963222388805,125.08067480000004,45.5799372,237.95781380000005
6215.598,-29.65830219999999,-146.88399339999998,95.7851576,-0.6654164,0.7551097999999999,0.9081074,42.2210152,27.372301,-132.4322478,-23.4366966,-61.59071439999999,-6.498997800000001,-1.0268942,0.0170238,-0.1570804,167.145688,77.69039000000001,105.55094140000004,177.84633485954834,1.355591695673797,66.2188177199444,1.0389782287537308,124.9246728,50.31808900000001,237.98318920000003
6235.584,-29.3848872,-157.679254,99.5468336,-0.624957,0.7323015999999999,0.9014568,41.3182732,23.7179348,-133.1050718,-23.8647866,-66.573381,-7.560080000000002,-1.0584982,0.0017079999999999,-0.1240768,165.8505068,79.080545,104.72084180000002,188.77444429143296,1.3188863664007602,71.12452394808066,1.0657468784685602,124.5322336,55.362610200000006,237.8259136
6255.57,-29.93946679999999,-166.88680720000002,102.0723418,-0.5678156000000001,0.7086856,0.8968323999999999,40.4437172,19.8998242,-133.7918578,-20.1572256,-71.235794,-8.3105376,-1.0743117999999998,-0.0207967999999999,-0.0959988,164.3343174,80.5674438,103.59553060000005,197.90487879335947,1.276306463566051,74.49776591214494,1.0787928995460248,123.89060020000002,60.6676196,237.3873884
6275.556,-28.993612199999998,-175.130539,103.6744536,-0.5040772,0.6901364000000001,0.8956442000000001,39.6281388,15.941028799999998,-134.488086,-14.8200556,-71.41580939999999,-9.380691800000005,-1.0823758,-0.0280571999999999,-0.0571189999999999,162.63555019999998,82.0721542,102.18476860000004,205.5717090654574,1.2379663190727122,73.53808033183083,1.0842449718852654,123.00741140000002,66.1311254,236.6728546
6295.541,-29.2827548,-181.6687866,104.364122,-0.4366904,0.67438,0.8859942000000001,38.8545404,11.8748616,-135.1869356,-8.9069444,-69.9204604,-10.3747108,-1.0892516,-0.036982,-0.0332438,160.5773318,83.5571166,100.30268100000002,211.5488069316964,1.196023667109393,71.2449230842191,1.0903861089838771,121.72279140000003,71.68225500000001,235.4896166
6315.527,-27.8713024,-186.7108826,104.151915,-0.3697296,0.6400819999999999,0.8457484000000001,38.1598864,7.715361,-135.88831499999998,-0.9461724000000004,-67.05102819999999,-10.248672000000004,-1.0778786,-0.0572236,-0.0124964,157.45837419999998,84.9927246,97.20596020000002,215.60469516434577,1.12325210880849,67.83635384254744,1.079468840100482,119.2984878,77.2773636,233.0942752
6335.513,-28.0293376,-190.1005554,104.3479004,-0.292682,0.6106966,0.8104621999999999,37.5175882,3.4871044,-136.5739108,8.6499508,-64.89201419999999,-11.022095000000002,-1.0564426,-0.0494,0.0128884,151.47110299999997,86.4480042,91.04315820000002,218.660351338718,1.0561543769754496,66.38736125170549,1.0576754880157335,113.95351480000002,82.9608998,227.617069
6355.499,-26.5261818,-192.3473998,103.8386292,-0.2259663999999999,0.5848634,0.7944422,36.9609866,-0.7914624,-137.2462252,15.610655400000002,-61.6334128,-11.7899412,-1.0300278,-0.037593,0.0302382,134.2112854,87.724968,73.28709560000003,220.18996672156248,1.012059494164923,64.6635356974254,1.0311570448583864,97.2502988,88.5164304,210.5333208
6375.485,-23.5800274,-193.494583,102.8514772,-0.164475,0.5641996,0.752719,36.5172488,-5.098501000000001,-137.9108278,20.5560644,-55.4937492,-10.191592000000002,-1.0153398,-0.0436698,0.0417499999999999,108.76407199999998,88.7117524,47.25176040000002,220.39645574453044,0.9549655005423808,60.04978377466411,1.017135695665077,72.24682320000002,93.8102534,185.1625882
6395.471,-22.289895999999995,-193.0703368,102.303624,-0.097786,0.527827,0.7193608,36.1479998,-9.4123458,-138.5534456,25.2149846,-50.818257,-8.186667800000002,-1.0014704,-0.03391,0.055399,81.0006648,89.13606259999999,18.865365800000024,219.63384506785292,0.8975764058294091,57.31764320489672,1.0035745609456033,44.852665000000016,98.5484084,157.4188114
6415.457,-23.3713862,-190.4552428,101.0863174,-0.0320946,0.5138418,0.713166,35.7975922,-13.6733836,-139.165259,22.10059,-46.687088,-11.4289418,-1.0034044,-0.0064716,0.0682222,51.87989259999999,89.1300186,-10.791063599999976,216.8821448815233,0.8795846760445523,52.90312821502742,1.00574178600611,16.082300400000015,102.8034022,128.37419540000002
6435.443,-24.014185999999995,-187.61073,99.3275238,0.0022981999999999,0.4955797999999999,0.6950052,35.4737984,-17.8783146,-139.7569428,15.6447848,-38.7374938,-10.479937200000002,-0.9917466,-0.0265812,0.0496801999999999,24.98267259999999,88.7245558,-38.07880319999998,213.6361957267894,0.853602277362426,43.07182142723121,0.993345861760666,-10.491125799999988,106.6028704,101.6781396
6455.428,-26.0508834,-184.5822144,97.4445526,0.0442758,0.4692826,0.6660402,35.1480316,-22.0153756,-140.3339966,13.4791006,-28.3655882,-6.756967800000001,-0.9857328,-0.0336432,0.0429265999999999,10.07629939999999,88.1634474,-53.14817919999998,210.3442017982481,0.815963267031329,32.123968633516256,0.987240452417566,-25.07173219999999,110.178823,87.1858174
6475.414,-29.6355914,-181.1407776,94.8969818,0.0849586,0.4401636,0.6678248,34.7902618,-26.070443,-140.9047332,12.6538648,-16.593588399999994,-3.5106970000000017,-0.987716,-0.0162596,0.0279358,4.819190599999989,87.7076154,-58.57062139999998,206.62934627470017,0.8043332157594637,21.161107338490165,0.9882447470995228,-29.97107119999999,113.7780584,82.3341118
6495.4,-31.8858356,-177.92748120000002,91.265007,0.1092673999999999,0.4288284,0.6299308,34.4351928,-30.0348168,-141.4966642,11.4826044,-2.233033999999995,-0.1850434000000017,-0.9748546,-0.0146304,-0.0034713999999999,4.629137399999989,87.67345259999999,-58.98515699999998,202.49492976565276,0.7698350304694895,11.699183121566175,0.974970558716149,-29.80605539999999,117.7082694,82.51150720000001
6515.386,-34.301617,-175.80756860000002,88.4899642,0.1526913999999999,0.3768904,0.5670881999999999,34.0806924,-33.9318882,-142.1121946,15.966800999999998,16.361331000000007,3.6363901999999984,-0.9256752,-0.0222248,-0.039265,10.732066799999988,88.12990399999998,-53.324027199999975,199.78832766199253,0.6978180735874931,23.14854682160023,0.926774113716541,-23.348625599999988,122.0617922,88.7881674
6535.372,-32.781135799999994,-174.0762484,85.84175859999999,0.2138525999999999,0.3382004,0.5493127999999999,33.810074,-37.77267,-142.76434,21.5194006,37.99104520000001,2.1689131999999987,-0.8988118,-0.002774,-0.0588805999999999,44.944057399999984,88.66742239999999,-19.373627399999982,196.83991119917025,0.6796006160464835,43.71622470022838,0.900742622479696,11.13398340000001,126.4400924,123.3907126
6555.357,-32.62060419999999,-171.882416,84.1578444,0.2601371999999999,0.3409169999999999,0.5559248,33.5856486,-41.5605308,-143.4318724,20.4240656,67.77107579999999,-0.4170460000000016,-0.9343534,0.0074203999999999,-0.0890048,80.8869326,88.4792328,16.24946740000002,194.13967014091872,0.7021026612738909,70.78301419188479,0.9386123762505798,47.30128400000002,130.0397636,159.68133980000002
