Timestamp (ms),Wrist Gyroscope X (deg/s),Wrist Gyroscope Y (deg/s),Wrist Gyroscope Z (deg/s),Wrist Accelerometer X (g),Wrist Accelerometer Y (g),Wrist Accelerometer Z (g),Wrist Roll (deg),Wrist Pitch (deg),Wrist Yaw (deg),Arm Gyroscope X (deg/s),Arm Gyroscope Y (deg/s),Arm Gyroscope Z (deg/s),Arm Accelerometer X (g),Arm Accelerometer Y (g),Arm Accelerometer Z (g),Arm Roll (deg),Arm Pitch (deg),Arm Yaw (deg),Wrist Gyroscope Magnitude (deg/s),Wrist Accelerometer Magnitude (g),Arm Gyroscope Magnitude (deg/s),Arm Accelerometer Magnitude (g),Difference Roll (deg),Difference Pitch (deg),Difference Yaw (deg)
0.0,4.642764568328857,-4.445843696594238,-0.4797736406326294,-0.9731703996658324,-0.2096147984266281,0.0191985387355089,-94.76152801513672,77.54776763916016,111.97500610351562,-4.081132888793945,1.7439613342285156,-0.2462119311094284,-0.985390305519104,0.0188714303076267,0.0440157689154148,-12.659564971923828,88.65128326416016,-155.85659790039062,6.446004324984777,0.995674431927812,4.4449597418087325,0.9865533807179944,82.10196304321289,11.103515625,-267.83160400390625
22.249,1.8636484146118164,-6.603675842285156,-0.9551624655723572,-0.980148434638977,-0.2171964794397354,0.0244250260293483,-94.01786041259766,77.54033660888672,112.69290924072266,-5.982881546020508,2.9050066471099854,-0.2112730294466018,-0.99924635887146,0.0027290438301861,0.0388557091355323,-13.115154266357422,88.72419738769531,-156.1306610107422,6.927774200917923,1.0042220105647888,6.654214567207575,1.0000052497514815,80.90270614624023,11.183860778808594,-268.82357025146484
44.785,1.3855109214782717,-7.639625549316406,0.4825732707977295,-0.9792813658714294,-0.2128826528787613,0.0012920546578243,-93.2678680419922,77.56245422363281,113.43811798095705,-3.8322370052337646,0.7423422336578369,-1.7551389932632446,-1.0130267143249512,-0.0029310942627489,0.0487746745347976,-14.242609977722168,88.72021484375,-157.10964965820312,7.779228497029251,1.0021540235138262,4.279909501593261,1.014204458738749,79.02525806427002,11.157760620117188,-270.54776763916016
67.012,1.722858190536499,-7.546605110168457,0.9269832372665404,-0.9833971858024596,-0.1999932825565338,-0.0094434609636664,-92.5560531616211,77.5984878540039,114.14543151855467,-4.414159297943115,-0.6128998398780823,-1.129283428192139,-1.0036181211471558,-0.0081796459853649,0.0584040433168411,-14.806934356689451,88.67484283447266,-157.52230834960938,7.796075099413327,1.0035718793723285,4.597361154241597,1.0053493283327684,77.74911880493164,11.07635498046875,-271.66773986816406
78.012,-0.4531058073043823,-7.356818199157715,0.1536411941051483,-0.9886309504508972,-0.1969493925571441,0.0080511681735515,-91.85997772216795,77.61930084228516,114.88180541992188,-3.7739648818969727,0.1624718159437179,-0.7304515242576599,-1.0101070404052734,0.001923318952322,0.0520877502858638,-15.07963752746582,88.6603012084961,-157.6621551513672,7.372359493716864,1.0080897979480952,3.847436477715781,1.0114509706169328,76.78034019470215,11.041000366210938,-272.54396057128906
99.448,-1.8647207021713257,-6.577205181121826,0.0856644660234451,-0.9764078855514526,-0.2061857432126999,0.017373401671648,-91.2411651611328,77.63001251220703,115.56954193115234,-1.6369508504867554,-1.3554199934005735,0.8728317022323608,-1.0061174631118774,0.0217154566198587,0.0535616762936115,-13.765782356262209,88.6197280883789,-156.28012084960938,6.836969335343051,0.9980915562997598,2.297521844475296,1.0077761476648823,77.4753828048706,10.989715576171877,-271.8496627807617
122.202,-2.455687999725342,-6.212774753570557,0.8918619751930237,-0.969486653804779,-0.1996852457523346,0.0178181659430265,-90.671875,77.65803527832031,116.22063446044922,-2.417670488357544,-2.489859342575073,1.5066120624542236,-0.9982564449310304,0.0231982320547103,0.0673982053995132,-11.929704666137695,88.54248809814453,-154.35696411132812,6.739761974535447,0.9899980082375576,3.78343891754789,1.0007979845642567,78.7421703338623,10.88445281982422,-270.57759857177734
143.317,-6.342531204223633,-5.929031848907471,0.8497946858406067,-0.9744763374328612,-0.1962744295597076,0.0091298539191484,-90.23211669921876,77.68609619140625,116.80860137939452,-4.689362525939941,-2.874715805053711,1.5753049850463867,-0.9967305064201356,0.0076599335297942,0.0589115470647811,-10.464397430419922,88.46009826660156,-152.75271606445312,8.723718917410887,0.994088093756352,5.721511833023456,0.9984993477152534,79.76771926879883,10.774002075195312,-269.56131744384766
166.016,-10.182302474975586,-5.644847869873047,1.072554588317871,-0.9756865501403807,-0.20615254342556,-0.0016833189874887,-89.92577362060547,77.71208953857422,117.33248138427734,-6.116878509521484,-2.7591307163238525,1.2839913368225098,-1.000928282737732,0.0008326327078975,0.0474263206124305,-9.443793296813965,88.3874740600586,-151.55264282226562,11.69161941352976,0.9972291355794208,6.832103538665292,1.0020515836763917,80.4819803237915,10.675384521484377,-268.88512420654297
188.164,-9.173503875732422,-6.075112342834473,1.4833437204360962,-0.9820360541343688,-0.2166463881731033,0.0030474520754069,-89.54871368408203,77.74031829833984,117.9095230102539,-6.847468852996826,-2.9915339946746826,1.5901448726654053,-1.00156831741333,0.0020782784558832,0.0414734929800033,-8.316751480102539,88.31634521484375,-150.22669982910156,11.102273277536217,1.0056538947830929,7.639742538208995,1.0024287826611282,81.23196220397949,10.576026916503906,-268.13622283935547
198.302,-10.284061431884766,-7.450064659118652,1.2974992990493774,-0.9815910458564758,-0.1980946362018585,0.0119875110685825,-89.04541778564453,77.77336883544922,118.65306854248048,-7.064605236053467,-2.106090545654297,1.1572211980819702,-0.997915267944336,0.0037778236437588,0.0286585446447134,-7.555922031402588,88.27455139160156,-149.26036071777344,12.765143453595108,1.0014520291153122,7.46213276678047,0.9983338450283312,81.48949575424194,10.501182556152344,-267.9134292602539
226.23,-12.56755828857422,-7.497034072875977,0.2603422105312347,-0.972692370414734,-0.2111865282058715,-0.0036683860234916,-88.63081359863281,77.7759017944336,119.35397338867188,-6.721818447113037,-0.8884005546569824,1.8749961853027344,-0.9997623562812804,0.0065005030483007,0.0321244299411773,-6.469454288482666,88.26301574707031,-148.0032958984375,14.636147693063164,0.995361067258862,7.034750136029265,1.00029945745063,82.16135931015015,10.48711395263672,-267.3572692871094
248.177,-14.105061531066896,-6.770435333251953,0.8827664256095886,-0.9720571637153624,-0.2170473486185073,0.003634100081399,-88.29615783691406,77.78690338134766,119.99701690673828,-7.260638236999512,-2.1523146629333496,1.7875349521636963,-1.002531886100769,0.0016263930592685,0.0587647706270217,-5.434803485870361,88.200927734375,-146.7845001220703,15.670699791621088,0.9960009476682644,7.781041525532693,1.0042540147144023,82.8613543510437,10.414024353027344,-266.7815170288086
270.757,-16.785581588745117,-6.344920635223389,1.369897961616516,-0.9709928631782532,-0.2107963860034942,0.0090266996994614,-88.03936767578125,77.81031799316406,120.60977172851562,-10.33391571044922,-2.5333521366119385,1.6388728618621826,-0.9991618394851683,-0.0057108341716229,0.0612436905503273,-4.68583869934082,88.12715911865234,-145.77061462402344,17.996954952573052,0.9936517186633858,10.76538857710644,1.0010533376112112,83.35352897644043,10.31684112548828,-266.38038635253906
277.24100000000004,-18.204605102539062,-6.052956581115723,1.1441078186035156,-0.9669960737228394,-0.2223125100135803,-0.0059842779301106,-87.88129425048828,77.82209777832031,121.15377807617188,-15.319122314453123,-1.585739254951477,0.8953413367271423,-0.9916217923164368,0.0123001057654619,0.0484252497553825,-4.2432708740234375,88.08560943603516,-144.95558166503906,19.21860850875664,0.9922399257670848,15.426980053760428,0.992879688790427,83.63802337646484,10.263511657714844,-266.10935974121094
300.475,-13.05644416809082,-6.516005516052246,0.4203394055366516,-0.9787283539772034,-0.2309956550598144,0.0023921825923025,-87.56013488769531,77.81497192382812,121.78146362304688,-18.50699234008789,0.0597192198038101,2.094411611557007,-0.9900152683258056,-0.0069577042013406,0.0313681326806545,-3.633659601211548,88.09565734863281,-143.92108154296875,14.598141916543454,1.0056211543483926,18.62522192780292,0.9905365217465943,83.92647528648376,10.280685424804688,-265.7025451660156
318.15,-10.463842391967772,-7.322080612182617,0.4650793075561523,-0.9810124635696412,-0.2179903835058212,0.0095571279525756,-87.09618377685547,77.814453125,122.5001220703125,-13.438514709472656,1.4281740188598633,2.030306100845337,-1.0034358501434326,-0.0385433211922645,0.0174295976758003,-3.4594874382019043,88.14722442626953,-143.44764709472656,12.779716775326412,1.0049858703855956,13.665851656153343,1.0043270801072446,83.63669633865356,10.332771301269531,-265.94776916503906
340.769,-14.271634101867676,-8.75192642211914,0.2828392386436462,-0.9749360084533693,-0.2078231275081634,0.0439617373049259,-86.48876190185547,77.8111572265625,123.42420196533205,-2.276669502258301,1.7169233560562134,3.275200128555298,-0.9889070391654968,-0.0271461810916662,0.0306179206818342,-2.2325432300567627,88.19766235351562,-142.15740966796875,16.74382734235802,0.9978092539424204,4.3425782336272345,0.989753254263814,84.2562186717987,10.386505126953123,-265.5816116333008
361.969,-12.277390480041504,-13.110116958618164,-0.4169303774833679,-0.9725569486618042,-0.2280231714248657,0.0136447167024016,-85.54119873046875,77.77478790283203,124.65392303466795,-3.68142342567444,6.068399429321289,3.652910232543945,-0.978740692138672,0.0015837494283914,0.0058752293698489,-0.373757392168045,88.37284851074219,-140.20315551757812,17.966171395367734,0.9990234048263844,7.982612557296998,0.9787596073758288,85.1674413383007,10.598060607910156,-264.8570785522461
384.673,-6.53473711013794,-14.90298843383789,-0.1641757190227508,-0.9605481028556824,-0.2402606904506683,-0.0041745235212147,-84.38221740722656,77.7282943725586,125.9859619140625,-5.945885181427002,8.37989616394043,1.017277479171753,-0.9858965873718262,0.0171709526330232,0.0053529310971498,0.399675041437149,88.6135025024414,-139.27671813964844,16.273561596172993,0.9901491220629908,10.325263375757867,0.986060635294336,84.78189244866371,10.885208129882812,-265.26268005371094
398.329,0.9095439910888672,-14.62616729736328,-0.07989252358675,-0.9751408100128174,-0.2339793145656585,0.0939766243100166,-82.86089324951172,77.67749786376953,127.5282745361328,-3.613764762878418,6.051273345947266,1.1267104148864746,-0.9862776398658752,-0.00091431918554,0.0839194953441619,1.0533716678619385,88.73916625976562,-138.5128173828125,14.654638272489365,1.0072127505714843,7.137694391595032,0.9898418563476656,83.91426491737366,11.061668395996094,-266.0410919189453
419.403,9.95975112915039,-19.236143112182617,-2.3428943157196045,-1.0165916681289673,-0.2220567315816879,0.1539422869682312,-80.66141510009766,77.56559753417969,129.5796356201172,-2.703625202178955,13.001596450805664,6.674083709716797,-0.9710137844085692,-0.0010836101137101,-0.0142520423978567,6.266205787658691,89.17598724365234,-133.33518981933594,21.787955346053344,1.0518868948071305,14.862519734815049,0.9711189754272338,86.92762088775635,11.610389709472656,-262.9148254394531
441.874,8.303085327148438,-30.629295349121094,-3.143695592880249,-1.037243127822876,-0.1665572971105575,0.1336027681827545,-77.60356140136719,77.40921020507812,132.54449462890625,0.3008530437946319,15.740154266357422,10.635173797607422,-1.0254416465759275,0.0398960150778293,-0.1218982487916946,19.94491004943848,90.0,-119.99526977539062,31.89008907974848,1.05899213363587,18.99868128549994,1.0334318775855147,97.54847145080566,12.590789794921877,-252.53976440429688
464.297,0.1751051545143127,-41.82085418701172,-1.316985249519348,-1.005662202835083,-0.1893098503351211,0.1054216995835304,-73.90921020507812,77.18558502197266,136.34259033203125,-6.0460638999938965,9.780898094177246,3.913312196731568,-0.9965959787368774,0.0430991649627685,-0.0238400865346193,29.44506072998047,90.0,-110.6350326538086,41.84195211619416,1.0287411824108617,12.146393232584623,0.9978123233258752,103.3542709350586,12.814414978027344,-246.97762298583984
487.033,10.74705410003662,-50.3941535949707,3.3058948516845703,-0.9823368787765504,-0.2520356476306915,0.128001257777214,-69.35916137695312,76.90023803710938,140.81866455078125,-23.073862075805664,18.68852424621582,-2.339458703994751,-0.9821525812149048,-0.0322367176413536,0.0202664770185947,39.45439910888672,90.0,-100.94359588623048,51.633311235606485,1.0221996052990951,29.78484709751581,0.9828904460020628,108.81356048583984,13.099761962890623,-241.7622604370117
497.021,27.529544830322266,-62.17377471923828,9.697019577026367,-1.0089337825775146,-0.1707264333963394,0.29009810090065,-63.52862930297852,76.5670394897461,146.28338623046875,-16.64114761352539,20.66912078857422,-0.0422100126743316,-0.9762517213821412,-0.1235320419073104,-0.066065177321434,80.41527557373047,90.0,-61.85746765136719,68.68395948167628,1.0636032158810775,26.535676545982064,0.9862515888625456,143.94390487670898,13.432960510253906,-208.140853881836
519.838,21.00671768188477,-69.93177032470703,4.973661422729492,-1.033389925956726,-0.1640210598707199,0.336032509803772,-57.86225891113281,75.95442962646484,151.7244415283203,6.288566589355469,17.716266632080078,1.0245119333267212,-1.006421446800232,-0.0983886197209358,-0.0452894046902656,134.5151824951172,90.0,-5.102320194244385,73.18792247674429,1.0989610979443194,18.827155861394484,1.0122329668842354,192.37744140625,14.045570373535156,-156.8267617225647
541.84,17.675006866455078,-71.10015869140625,5.613239765167236,-0.9983325004577636,-0.2638350427150726,0.2815954685211181,-52.56612014770508,75.16893005371094,156.856689453125,33.74895477294922,9.42569637298584,2.9259378910064697,-1.046966791152954,0.070654347538948,0.1179261356592178,140.7091522216797,90.0,1.1085476875305176,73.47888740538768,1.0703143085684423,35.16243468425242,1.0559536315931606,193.2752723693848,14.831069946289062,-155.74814176559448
561.89,27.385986328125,-78.29720306396484,10.806784629821776,-1.0195953845977783,-0.2153653055429458,0.3535785675048828,-46.93209838867188,74.2659683227539,162.13780212402344,23.99141502380371,1.1748065948486328,7.581750392913818,-1.0307066440582275,0.0955542623996734,0.1128376200795173,128.82252502441406,90.0,-11.479649543762209,83.64945217297809,1.1004429864938496,25.18831285338784,1.041258436543843,175.75462341308594,15.734031677246094,-173.61745166778564
584.395,24.704063415527344,-88.56095886230469,8.154143333435059,-1.0716487169265747,-0.1694143265485763,0.3967543542385101,-41.5614013671875,73.0632095336914,167.1980743408203,-7.359421730041504,1.2340729236602783,2.010615110397339,-1.0004141330718994,0.0344666466116905,-0.0169841200113296,127.92405700683594,90.0,-12.119097709655762,92.30289398145338,1.1552256074626717,7.728298474028848,1.0011517605793911,169.48545837402344,16.936790466308594,-179.31717205047607
607.078,21.768274307250977,-100.92755889892578,5.660065174102783,-1.0938631296157837,-0.2060024738311767,0.3976656198501587,-36.723392486572266,71.52249145507812,171.79623413085938,-7.668779373168945,5.170991897583008,3.485227584838867,-1.0248677730560305,0.0184194166213274,-0.0488002561032772,131.1075439453125,90.0,-8.48745346069336,103.4034150760358,1.1819947168952205,9.884136057204614,1.0261942760282978,167.83093643188477,18.477508544921875,-180.2836875915528
617.359,26.428998947143555,-112.47112274169922,7.906966209411621,-1.061176061630249,-0.2100991159677505,0.3953072130680084,-32.13959884643555,69.71757507324219,176.07810974121094,0.1959298700094223,4.663961410522461,3.5132155418396,-1.03058922290802,-0.0323611348867416,-0.0299071762710809,133.80520629882812,90.0,-5.5710930824279785,115.80485978905747,1.151739582115294,5.842397452778087,1.0315308180649885,165.94480514526367,20.28242492675781,-181.6492028236389
639.6039999999999,23.7099609375,-122.26525115966795,10.101917266845703,-1.026857614517212,-0.187407374382019,0.4439240396022796,-27.9991512298584,67.66107177734375,179.9946746826172,8.134269714355469,6.663687705993652,2.278191566467285,-0.9892429709434508,-0.0620233528316021,-0.0224702097475528,138.94338989257812,90.0,-0.3490205109119415,124.95200126953014,1.1342956569614235,10.759239491823491,0.9914400951059008,166.94254112243652,22.33892822265625,-180.3436951935292
666.922,16.205760955810547,-131.24990844726562,8.161165237426758,-1.048825740814209,-0.2110287398099899,0.5511898398399353,-24.60292625427246,65.31822967529297,-176.67237854003906,18.759746551513672,4.027353763580322,0.7754335999488831,-0.9993111491203308,-0.0067802360281348,-0.0039180275052785,141.49375915527344,90.0,1.9453116655349727,132.49818781253222,1.2034861042667009,19.202837453928087,0.9993418310549826,166.0966854095459,24.68177032470703,178.61769020557404
686.7729999999999,15.82445240020752,-139.46827697753906,9.214794158935549,-1.0591537952423096,-0.215505912899971,0.5567839741706848,-21.665790557861328,62.78746795654297,-173.76673889160156,15.960293769836426,0.7100473642349243,-1.6228761672973633,-1.027856945991516,0.0416659861803054,0.0201347079128026,142.25830078125,90.0,2.4470605850219727,140.66529781094388,1.2158363189033052,16.058296034552303,1.0288981301810776,163.92409133911133,27.21253204345703,176.21379947662354
697.006,13.765719413757324,-144.10369873046875,11.51341438293457,-1.032572627067566,-0.1715457737445831,0.5482450127601624,-19.11777305603028,60.15765380859375,-171.19140625,4.186487674713135,-0.5227940678596497,-4.0477705001831055,-1.0554094314575195,0.0200292989611625,0.0461938120424747,144.10064697265625,90.0,4.268603324890137,145.21683693543653,1.1816119399681235,5.84674599329121,1.0566097241164192,163.21842002868652,29.84234619140625,175.46000957489014
718.4580000000001,6.39788293838501,-149.5813446044922,12.335640907287598,-1.0091497898101809,-0.1627051681280136,0.610708475112915,-17.04179573059082,57.379676818847656,-168.92617797851562,-7.046271324157715,-5.359975814819336,-4.648778915405273,-1.020946025848389,0.005060811061412,0.0319198071956634,143.9350128173828,90.0,4.223189353942871,150.2254292600779,1.1907229365323568,9.999521274211688,1.0214574262276557,160.97680854797363,32.620323181152344,173.1493673324585
740.438,1.1550047397613523,-158.2903594970703,11.658897399902344,-1.037828803062439,-0.192643791437149,0.6752938628196716,-15.381304740905762,54.40261459350586,-166.95208740234375,-13.984707832336426,-7.922905445098877,-5.805699825286865,-0.9894744753837584,-0.0015010081697255,0.0011311596026644,143.7015838623047,90.0,4.183200836181641,158.72334999691154,1.2530850154746915,17.089489000819338,0.989476260444654,159.08288860321045,35.59738540649414,171.1352882385254
757.484,-0.4497662484645843,-166.43603515625,13.387460708618164,-1.026432752609253,-0.17306450009346,0.6785169839859009,-13.934842109680176,51.27642822265625,-165.12937927246094,-18.6071891784668,-11.357524871826172,-10.564559936523438,-1.023573875427246,-0.014818811789155,-0.0172340516000986,149.80374145507812,90.0,10.65531063079834,166.97419019847212,1.2425380534933046,24.22459054328469,1.023826200179771,163.7385835647583,38.72357177734375,175.78468990325928
779.318,-1.9393887519836424,-167.99188232421875,9.037992477416992,-0.9546489119529724,-0.1916686594486236,0.6339905858039856,-12.877495765686035,48.1045150756836,-163.67755126953125,-13.724039077758787,-13.782635688781738,-11.692234992980955,-1.043927788734436,-0.0169821176677942,0.0227356776595115,-155.13284301757812,90.0,83.96614837646484,168.24600757101882,1.161910273212139,22.694022434743005,1.0443134258694031,-142.2553472518921,41.895484924316406,247.6436996459961
801.494,4.76462459564209,-168.91885375976562,3.9409875869750977,-0.8893877267837524,-0.1520674526691436,0.7207785844802856,-11.932424545288086,44.85971832275391,-162.51043701171875,-3.173991680145264,-19.0734920501709,-5.878462791442871,-1.0355156660079956,0.0551439002156257,0.0492347367107868,-19.42189216613769,90.0,-157.62109375,169.03198568972434,1.1548405979009646,20.20961768475451,1.0381510504632523,-7.489467620849609,45.140281677246094,4.88934326171875
816.901,1.4879844188690186,-172.59677124023438,0.9198119044303894,-0.8853844404220581,-0.1716930717229843,0.8093343377113342,-11.238778114318848,41.5181884765625,-161.53839111328125,7.640043258666992,-24.872604370117188,3.1742117404937744,-1.0145546197891235,0.0563496127724647,0.0247701294720172,-1.431985855102539,90.0,-140.19073486328125,172.60563604391405,1.211778110223897,26.21244607662864,1.0164201467449965,9.806792259216309,48.4818115234375,21.34765625
839.138,3.815328121185303,-175.55670166015625,3.343032121658325,-0.8430436849594116,-0.1413764804601669,0.818437933921814,-10.54469108581543,38.137840270996094,-160.58372497558594,0.0883357226848602,-28.05868530273437,0.67754065990448,-1.03475022315979,-0.0287083033472299,0.0660871788859367,-0.9279378056526184,89.30085754394531,-139.40338134765625,175.6299749195218,1.1834486113302325,28.067003499903727,1.0372558537908638,9.616753280162811,51.16301727294922,21.180343627929688
861.564,-1.1641898155212402,-175.2010955810547,2.732564687728882,-0.7661025524139404,-0.1400664448738098,0.7843493223190308,-10.064238548278809,34.77312469482422,-159.73812866210938,-2.502516031265259,-34.095638275146484,-0.5949223041534424,-1.0699958801269531,-0.0139780528843402,0.077258862555027,-1.1700972318649292,88.26065826416016,-139.45480346679688,175.22627126233397,1.105321486815969,34.19252942419371,1.0728725466216325,8.89414131641388,53.48753356933594,20.2833251953125
881.8629999999999,-1.25190007686615,-174.37928771972656,2.306856393814087,-0.6951992511749268,-0.1485373228788375,0.8391819000244141,-9.671707153320312,31.40552520751953,-158.97235107421875,-1.5957348346710205,-37.56647491455078,3.44256591796875,-1.0502662658691406,0.0165677387267351,0.096504770219326,0.6519278287887573,87.35750579833984,-137.52151489257812,174.39903906232774,1.099814346356137,37.75761734097791,1.0548207856618634,10.32363498210907,55.95198059082031,21.450836181640625
905.262,-1.480353593826294,-175.05056762695312,2.060121297836304,-0.6658479571342468,-0.1484879851341247,0.8556934595108032,-9.35092544555664,28.03614616394043,-158.26158142089844,-0.120620459318161,-36.13623046875,5.339672565460205,-0.9956137537956238,0.0290962271392345,0.0991796553134918,2.4328646659851074,86.5445785522461,-135.6726531982422,175.06894862608573,1.094355280701203,36.52880787669029,1.000964505469027,11.783790111541748,58.508432388305664,22.58892822265625
926.642,-4.337287902832031,-175.1593017578125,2.1028425693511963,-0.6189087629318237,-0.1148476898670196,0.8696392774581909,-9.124183654785156,24.66007232666016,-157.58274841308594,-8.905235290527344,-35.34386444091797,4.146119117736816,-0.9939439296722412,0.0199835523962974,0.1116829812526702,3.0651695728302,85.7706069946289,-134.7938690185547,175.22561172816015,1.0735504280654895,36.68354226265645,1.0003984036373494,12.189353227615356,61.11053466796875,22.78887939453125
939.995,-6.4253668785095215,-173.79649353027344,1.1138185262680054,-0.5513548851013184,-0.1257515102624893,0.8342487812042236,-9.0060453414917,21.264789581298828,-156.9626007080078,-15.900898933410645,-38.71883392333984,1.306538224220276,-1.0169682502746582,0.0566898137331008,0.1106636300683021,2.9158754348754883,84.9503402709961,-134.56640625,173.91879454116304,1.007857470379179,41.87712656576453,1.0245411636765442,11.921920776367188,63.68555068969727,22.39619445800781
962.294,-11.749090194702148,-172.2628631591797,-0.7623981237411499,-0.4858027100563049,-0.1333201378583908,0.9085222482681274,-9.047918319702148,17.941787719726562,-156.40435791015625,-23.51608657836914,-38.44833755493164,0.4815796613693237,-1.0004805326461792,0.0488574802875518,0.1215474307537078,2.4259982109069824,84.14555358886719,-134.56005859375,172.6647514552423,1.0388412813586123,45.07230754764576,1.009020380124633,11.47391653060913,66.20376586914062,21.84429931640625
981.605,-13.660736083984377,-170.54110717773438,-1.3747529983520508,-0.4601223468780517,-0.1584385186433792,0.9576587080955504,-9.171552658081056,14.633030891418455,-155.87057495117188,-28.53529357910156,-39.85583114624024,-0.6832870841026306,-1.020513892173767,0.0073851719498634,0.1316535323858261,1.5017728805541992,83.32235717773438,-134.8875274658203,171.0928838191999,1.0742092624240929,49.022618628980126,1.028997472044536,10.673325538635254,68.68932628631592,20.98304748535156
1005.035,-9.5843505859375,-168.6375274658203,-0.6273738145828247,-0.4075313210487366,-0.0929377377033233,0.8750489354133606,-9.24197769165039,11.303274154663086,-155.3300018310547,-25.606990814208984,-36.99709701538086,1.1615028381347656,-1.0204567909240725,-0.0356502942740917,0.119159422814846,0.8821442723274231,82.57523345947266,-134.96884155273438,168.91083163563752,0.9697576192498804,45.00946850349915,1.0280087420204422,10.124121963977814,71.27195930480957,20.361160278320312
1026.339,-19.019023895263672,-167.575927734375,-3.466456890106201,-0.3288774490356445,-0.0848760828375816,0.923526644706726,-9.530803680419922,8.021245002746582,-154.84515380859375,-17.53984832763672,-36.70665740966797,2.947550296783448,-1.0078089237213137,0.018578989431262,0.1033057942986488,0.942520260810852,81.85034942626953,-134.53221130371094,168.68737697094008,0.9840049742787425,40.78863849528813,1.01326013082341,10.473323941230774,73.82910442352295,20.31294250488281
1036.403,-23.326032638549805,-166.33848571777344,-7.795932769775391,-0.2669094204902649,-0.1639609634876251,0.9227519035339355,-9.951417922973633,4.7848219871521,-154.43356323242188,-25.01231384277344,-38.96607971191406,1.958834528923035,-0.9991519451141356,0.116062618792057,0.1352031230926513,1.0375385284423828,81.06945037841797,-133.9192657470703,168.14687685855918,0.9744716064461504,46.34445214474261,1.01491626521612,10.988956451416016,76.28462839126587,20.51429748535156
1064.171,-17.498912811279297,-164.63661193847656,-8.969233512878418,-0.2053836733102798,-0.1546497046947479,0.8804144859313965,-10.28104019165039,1.5713963508605957,-154.0321502685547,-42.50922775268555,-38.85651016235352,8.532170295715332,-0.9742544889450072,0.0892551317811012,0.1943099349737167,1.4071823358535769,80.2618637084961,-132.67889404296875,165.80673415143855,0.91718517839226,58.220793159161445,0.997444052871262,11.688222527503967,78.6904673576355,21.353256225585938
1083.81,-23.63890838623047,-163.47618103027344,-8.210071563720703,-0.1380756348371505,-0.1237067803740501,0.938532292842865,-10.724315643310549,-1.590949296951294,-153.59947204589844,-45.822025299072266,-33.1295051574707,9.483113288879396,-0.9457600116729736,-0.0511467792093753,0.1813468486070633,1.273512840270996,79.5823974609375,-131.8675537109375,165.38036470215184,0.9566666677349436,57.33368601561754,0.9643467593157914,11.997828483581545,81.1733467578888,21.731918334960938
1106.347,-27.283620834350582,-160.11672973632812,-10.307021141052246,-0.0854288786649704,-0.1763400435447693,0.8970150351524353,-11.293485641479492,-4.689601421356201,-153.1892547607422,-35.55397415161133,-35.05195236206055,4.324259281158447,-0.9932015538215636,-0.0306778959929943,0.1525214165449142,0.842430830001831,78.89547729492188,-131.60855102539062,162.75133729739687,0.9181665848618376,50.11410640424803,1.0053125097804128,12.135916471481323,83.58507871627808,21.58070373535156
1126.284,-23.878677368164062,-157.6777801513672,-12.495767593383787,-0.011130859144032,-0.1372201144695282,0.8999084234237671,-11.784966468811035,-7.760645866394043,-152.8050994873047,-27.003463745117188,-39.70967102050781,10.204381942749023,-1.0593156814575195,0.0698490887880325,0.1745592802762985,1.4032902717590332,78.11324310302734,-130.52850341796875,159.9644266518766,0.9103781776763792,49.09352745143008,1.0758715306749718,13.188256740570068,85.87388896942139,22.276596069335938
1136.448,-34.909358978271484,-156.8538360595703,-11.648968696594238,0.0300450716167688,-0.1702509522438049,0.9094934463500975,-12.539271354675291,-10.80321979522705,-152.37020874023438,-30.265888214111328,-33.461143493652344,12.861177444458008,-0.9562275409698486,0.0246509239077568,0.2231383770704269,1.9372488260269165,77.42359161376953,-129.40835571289062,161.11327599726417,0.925778819169113,46.91569032370419,0.9822268136639182,14.47652018070221,88.22681140899658,22.96185302734375
1156.432,-36.12208557128906,-154.53262329101562,-9.449456214904783,0.0882539898157119,-0.2088661342859268,0.8517799377441406,-13.381430625915527,-13.792975425720217,-151.84812927246094,-41.508056640625,-32.23472595214844,4.802533149719238,-0.970809280872345,-0.0201504081487655,0.2328506261110305,1.3728593587875366,76.76762390136719,-129.1837615966797,158.97933497778848,0.8814436403499379,52.77367381512867,0.998547000825069,14.754289984703064,90.5605993270874,22.66436767578125
1178.879,-38.97557830810547,-149.15908813476562,-10.966023445129396,0.1739982366561889,-0.2157849371433258,0.7948460578918457,-14.311176300048828,-16.709095001220703,-151.3262176513672,-40.83055877685547,-31.24332046508789,7.332487106323242,-0.9698028564453124,-0.0069655291736125,0.2208506464958191,1.0768884420394895,76.14444732666016,-128.70169067382812,154.55673051616083,0.8417949757533716,51.93308166168098,0.9946562758178208,15.388064742088318,92.85354232788086,22.624526977539062
1199.973,-45.74633026123047,-144.8903045654297,-14.566421508789062,0.2075949907302856,-0.2092193961143493,0.8066604137420654,-15.37382984161377,-19.544267654418945,-150.8439483642578,-30.377222061157227,-27.679914474487305,15.53104019165039,-0.9390841126441956,0.0311294347047805,0.2148017883300781,1.710267424583435,75.59391021728516,-127.4868392944336,152.63717674604788,0.8588186414984718,43.933660158271,0.9638401426562264,17.084097266197205,95.1381778717041,23.35710906982422
1216.503,-52.154579162597656,-140.5111083984375,-15.775642395019531,0.2715109884738922,-0.2137147933244705,0.7845377922058105,-16.589555740356445,-22.3087215423584,-150.3443603515625,-20.688268661499023,-23.05517196655273,17.290433883666992,-0.9317945837974548,-0.0120392590761184,0.2211748510599136,2.5042738914489746,75.13176727294922,-126.29573822021484,150.70614653676424,0.8572582908009457,35.47540723519804,0.9577600977774908,19.09382963180542,97.44048881530762,24.048622131347656
1238.777,-54.06342697143555,-135.870361328125,-14.652929306030272,0.3199581503868103,-0.2591330707073211,0.729085385799408,-17.92508316040039,-24.97988510131836,-149.7613983154297,-16.567100524902344,-22.22110366821289,14.17320442199707,-0.9018824696540833,-0.0159897021949291,0.2546705603599548,3.074558973312378,74.66586303710938,-125.42041015625,146.9636606803822,0.8373103762162665,31.130788483804924,0.9372858443184152,20.99964213371277,99.64574813842772,24.340988159179688
1261.2859999999998,-51.03215026855469,-129.41712951660156,-15.265857696533203,0.3447283804416656,-0.2893147468566894,0.7469063997268677,-19.23651695251465,-27.501983642578125,-149.1534881591797,-9.34055995941162,-21.760929107666016,22.28056907653809,-0.9528561234474182,-0.0091028213500976,0.2835143506526947,4.323281288146973,74.19242095947266,-123.99192810058594,139.9504204515298,0.8720148215389665,32.51473288155102,0.9941820961844928,23.55979824066162,101.69440460205078,25.16156005859375
1283.902,-55.26969528198242,-125.91460418701172,-17.01058578491211,0.3547911942005157,-0.271018773317337,0.7171101570129395,-20.64588737487793,-29.947826385498047,-148.53622436523438,-1.470448613166809,-17.562280654907227,27.141462326049805,-1.0051674842834473,0.0278113707900047,0.2131269872188568,6.085198879241943,73.83164978027344,-122.1939926147461,138.55896503972912,0.8447336528538358,32.36131792931298,1.0278901967072749,26.73108625411988,103.77947616577148,26.34223175048828
1296.394,-54.925071716308594,-119.7000732421875,-18.60437774658203,0.4248851835727691,-0.291948914527893,0.6580021381378174,-22.087989807128903,-32.30781555175781,-147.90892028808594,-2.603818655014038,-14.795653343200684,23.2650146484375,-0.9706852436065674,0.0599827915430069,0.1946041285991668,7.562643527984619,73.52862548828125,-120.6857452392578,133.00749568563498,0.8358997557767439,27.69390070091925,0.991815781435582,29.650633335113525,105.83644104003906,27.223175048828125
1318.781,-41.595062255859375,-114.16321563720705,-18.702749252319336,0.4492718577384949,-0.3181362450122833,0.6601595878601074,-23.30587577819824,-34.54032897949219,-147.2493896484375,-13.927538871765137,-9.740598678588867,22.991600036621094,-0.9971256256103516,0.0599624849855899,0.2476363480091095,8.763895034790039,73.29314422607422,-119.22119140625,122.9356817132088,0.8595734721301843,28.591419585005063,1.029164114079854,32.06977081298828,107.8334732055664,28.0281982421875
1341.342,-24.653642654418945,-110.36351776123048,-16.594388961791992,0.4468689560890198,-0.3364916145801544,0.6568478345870972,-24.255352020263672,-36.65171813964844,-146.44772338867188,-25.895851135253903,-6.651533126831055,24.66501235961914,-0.946774423122406,0.0494465827941894,0.249536782503128,9.801527976989746,73.099853515625,-117.68544006347656,114.2947150737096,0.8627673779186416,36.37582760098699,0.980354720828538,34.05687999725342,109.75157165527344,28.762283325195312
1365.239,-12.549674987792969,-105.82730102539062,-15.469651222229004,0.50858473777771,-0.3168225586414337,0.5788720846176147,-25.011260986328125,-38.7053108215332,-145.6642608642578,-32.673770904541016,0.361462265253067,19.101896286010746,-0.96098792552948,0.0167359299957752,0.198284700512886,10.350473403930664,73.09298706054688,-116.51075744628906,107.68575622409536,0.8331433607213524,37.84954955892004,0.9813738873761426,35.36173439025879,111.79829788208008,29.15350341796875
1386.321,-4.80878496170044,-97.22589874267578,-16.567466735839844,0.5717613697052002,-0.3413303196430206,0.5789340734481812,-25.600736618041992,-40.614784240722656,-144.9512939453125,-29.165830612182617,8.424430847167969,15.63506031036377,-0.9589555859565736,0.084672600030899,0.221312791109085,10.968374252319336,73.23381042480469,-115.2641372680664,98.7445226489656,0.8823730007168609,34.147793798515835,0.9877978621873006,36.56911087036133,113.84859466552734,29.687156677246094
1397.281,3.2544050216674805,-90.3221435546875,-17.913236618041992,0.5524698495864868,-0.3211385309696197,0.5827685594558716,-25.9775447845459,-42.380348205566406,-144.29722595214844,-28.63995361328125,13.42360496520996,21.20922470092773,-0.9633502960205078,0.1200488656759262,0.2391782402992248,12.099481582641602,73.43069458007812,-113.49898529052734,92.13883445373396,0.8648537938089377,38.08242804296168,0.9998308625090098,38.0770263671875,115.81104278564452,30.798240661621094
1418.709,9.92752456665039,-85.09699249267578,-17.608814239501953,0.5871741771697998,-0.313692957162857,0.5244344472885132,-26.23363494873047,-44.072566986083984,-143.61410522460938,-38.05132675170898,19.67825126647949,18.947986602783203,-0.945067822933197,0.0631269216537475,0.1781821846961975,12.92892360687256,73.78654479980469,-111.84662628173828,87.4649885053514,0.8474716958172809,46.84189616968209,0.9637878859605368,39.16255855560303,117.85911178588869,31.767478942871094
1441.484,17.56524085998535,-78.82371520996094,-15.99549388885498,0.6459669470787048,-0.3306779563426971,0.4913978278636932,-26.364782333374023,-45.65703582763672,-142.974853515625,-39.326148986816406,26.313825607299805,7.625041007995605,-0.9249538779258728,0.0375873111188411,0.1996827274560928,13.056134223937988,74.30366516113281,-110.89659118652344,82.32600798483261,0.8764091697137364,47.92811974820505,0.9470088034921108,39.42091655731201,119.96070098876952,32.07826232910156
1461.179,25.05694580078125,-67.52845001220703,-18.530197143554688,0.6506554484367371,-0.3599819540977478,0.5018398761749268,-26.236066818237305,-47.038047790527344,-142.4652557373047,-32.095951080322266,35.0687255859375,15.857148170471191,-0.976511776447296,0.0636300146579742,0.223479762673378,14.152080535888672,74.9350814819336,-109.0994644165039,74.37277929520609,0.8970968627610456,50.11401738109314,1.003776485394123,40.38814735412598,121.97312927246094,33.36579132080078
1484.578,32.23260498046875,-59.54804229736328,-21.63771629333496,0.6692281365394592,-0.2979286909103393,0.483624517917633,-25.792686462402344,-48.32008361816406,-142.22496032714844,-26.520313262939453,51.61481475830078,16.262874603271484,-0.966844379901886,0.104594349861145,0.1619719117879867,15.992764472961426,75.89106750488281,-106.68849182128906,71.0851667485303,0.8777929584672507,60.26522387297569,0.98588180487267,41.78545093536377,124.21115112304688,35.536468505859375
1506.263,30.38493728637696,-56.56816101074219,-21.147613525390625,0.7011796236038208,-0.2691222131252289,0.5551988482475281,-25.3106689453125,-49.521705627441406,-142.05531311035156,-25.69649124145508,47.38285827636719,6.6855788230896,-0.9216488599777222,0.0477940030395984,0.1499996930360794,17.122203826904297,76.80671691894531,-105.01590728759766,67.60490227678461,0.9339836140157912,54.31520859538532,0.9349977517276188,42.4328727722168,126.32842254638672,37.03940582275391
1516.329,24.03689956665039,-53.91228866577149,-17.254392623901367,0.7266143560409546,-0.2585995197296142,0.4992570281028747,-25.026456832885746,-50.668270111083984,-141.774169921875,-27.753337860107425,56.08673858642578,4.510488033294678,-0.9579021334648132,0.0001049113925546,0.1815602928400039,18.31709861755371,77.87944793701172,-103.2230987548828,61.49814204330446,0.9187489940779868,62.74005506801719,0.9749567417270312,43.34355545043945,128.5477180480957,38.55107116699219
1546.066,21.17742156982422,-47.43042755126953,-15.023683547973633,0.7766393423080444,-0.2693889737129211,0.4549801647663116,-24.81236457824707,-51.70296096801758,-141.5843505859375,-29.81908416748047,56.44472503662109,14.006340026855469,-0.9373409152030944,0.0180559661239385,0.1365343928337097,20.74544715881348,78.89238739013672,-100.14236450195312,54.07254117749542,0.9395456548297976,65.35566024450321,0.9474046915932564,45.55781173706055,130.5953483581543,41.441986083984375
1566.107,18.23169708251953,-45.700950622558594,-12.227383613586426,0.7989394068717957,-0.2220301777124405,0.4690507650375366,-24.659801483154297,-52.68457794189453,-141.3430938720703,-21.775535583496094,48.4774169921875,14.325008392333984,-0.9466879367828368,0.0505702942609787,0.1542917639017105,23.598175048828125,79.69988250732422,-96.80558776855467,50.69990706449166,0.9526857802287032,55.04034677963951,0.9605109852155196,48.25797653198242,132.38446044921875,44.537506103515625
1577.262,2.099453449249268,-39.21692657470703,-8.367172241210938,0.8084577322006226,-0.2147395610809326,0.4051139056682586,-24.87900733947754,-53.54113006591797,-141.07861328125,-22.528358459472656,40.73149871826172,16.30315399169922,-0.9754046201705932,0.0113084428012371,0.1531125754117965,26.58406448364257,80.32245635986328,-93.34691619873048,40.15450916230478,0.9294268451115428,49.31911143554096,0.9874135479513948,51.46307182312012,133.86358642578125,47.73169708251953
1596.26,-14.456937789916992,-29.88560485839844,-4.336958885192871,0.7851472496986389,-0.2584823071956634,0.3742828369140625,-25.46008682250977,-54.16318130493164,-140.8302764892578,-21.298917770385746,32.46857070922852,11.023699760437012,-0.9456974864006042,0.012627831660211,0.116126000881195,28.98015213012696,80.82917022705078,-90.56814575195312,33.48076522999006,0.9073901855601972,40.36550431368453,0.9528842773377671,54.44023895263672,134.99235153198242,50.26213073730469
1618.783,-20.587133407592773,-23.406089782714844,-0.98517507314682,0.7947133779525757,-0.191114604473114,0.4681684672832489,-26.098779678344727,-54.625732421875,-140.61611938476562,-13.19419765472412,19.95026016235352,8.238541603088379,-0.9548858404159546,0.0218669939786195,0.1063266992568969,30.723125457763672,81.12592315673828,-88.62439727783203,31.187267767203984,0.941953214813801,25.297693571615085,0.961036159895876,56.8219051361084,135.75165557861328,51.9917221069336
1636.206,-38.812801361083984,-10.16847324371338,7.501302719116211,0.8151804208755493,-0.2493152618408203,0.272169679403305,-27.20408821105957,-54.75774002075195,-140.2179412841797,0.3138476610183716,19.078611373901367,7.831305027008057,-1.01253080368042,-0.0042935335077345,0.0930536687374115,32.69288635253906,81.4166488647461,-86.71234893798828,40.8178997510516,0.8948483406433139,20.62574242874004,1.0168067899543114,59.89697456359863,136.17438888549805,53.505592346191406
1658.753,-42.17678451538086,3.405353546142578,12.308568954467772,0.8777584433555603,-0.2024799287319183,0.1716296672821045,-28.30938148498535,-54.58308029174805,-139.8968505859375,4.545424461364746,10.547481536865234,3.748479604721069,-0.9916247129440308,0.023476468399167,0.1456028670072555,33.73375701904297,81.56240844726562,-85.8225326538086,44.067884616100926,0.9170140397576392,12.081446504930437,1.0025322492421682,62.04313850402832,136.14548873901367,54.074317932128906
1681.232,-53.5228157043457,22.335092544555664,15.490774154663086,0.8538891077041626,-0.255001962184906,0.1679250448942184,-29.456090927124023,-54.04258346557617,-139.81451416015625,10.454078674316406,-10.796538352966309,-0.541629433631897,-0.9791653752326964,0.0773136839270591,0.198759377002716,32.92963790893555,81.35124969482422,-86.90750122070312,60.02926156305772,0.9068359441909482,15.03816357735365,1.0021215134520705,62.38572883605957,135.3938331604004,52.907012939453125
1696.344,-54.85413360595703,32.90251159667969,15.746092796325684,0.793350338935852,-0.2751116752624511,0.3635973632335663,-30.536346435546875,-53.38060760498047,-139.8607177734375,24.042421340942383,-18.95479393005371,6.320634841918945,-0.9539128541946412,0.1233542636036872,0.1835412830114364,32.79680252075195,80.91854095458984,-87.58014678955078,65.87481067434142,0.915037833483264,31.26136052175405,0.9792106057005606,63.33314895629883,134.2991485595703,52.28057098388672
1718.536,-55.29166412353516,45.89654541015625,17.436113357543945,0.7561625838279724,-0.3080758452415466,0.3654532730579376,-31.493837356567383,-52.46455001831055,-140.08291625976562,23.143314361572266,-11.339881896972656,2.9371798038482666,-0.9654306769371032,0.0980697274208068,0.1060502380132675,32.900848388671875,80.7030029296875,-87.9908447265625,73.94375599841734,0.8945661934096595,25.93902361840128,0.9761765805377096,64.39468574523926,133.16755294799805,52.092071533203125
1741.24,-50.18292999267578,61.69816589355469,20.10351753234864,0.7510659694671631,-0.3482285737991333,0.3005875647068023,-32.10369873046875,-51.2043342590332,-140.58241271972656,21.443344116210938,-10.54224967956543,-2.9447896480560303,-0.9581276774406432,0.1021474450826644,0.0604695044457912,32.53889465332031,80.58728790283203,-88.85798645019531,82.0313449508896,0.8807474746817013,24.07546097718242,0.965452902933456,64.64259338378906,131.79162216186523,51.72442626953125
1763.432,-37.28161239624024,74.97483825683594,22.768943786621094,0.7663353085517883,-0.2815616428852081,0.376310646533966,-32.35224151611328,-49.73756790161133,-141.22813415527344,32.779300689697266,-18.1203727722168,-3.0698671340942383,-0.9825721383094788,0.0561719313263893,0.0836187824606895,31.75828742980957,80.34815216064453,-90.36558532714844,86.77309373106687,0.8989752313452211,37.57997535032022,0.987722326178368,64.11052894592285,130.08572006225586,50.862548828125
1785.216,-43.725921630859375,85.55394744873047,28.94593048095703,0.7092531323432922,-0.2673257887363434,0.4292961657047272,-32.7271728515625,-48.03864669799805,-141.88661193847656,50.83626937866211,-20.228891372680664,1.068652868270874,-0.961847186088562,0.0386825278401374,0.1126097291707992,31.574838638305664,80.01915740966797,-91.65323638916016,100.3459069316561,0.8710902828932603,54.72363611329639,0.9691889900584448,64.30201148986816,128.05780410766602,50.233375549316406
1795.966,-51.53480529785156,94.32552337646484,37.235382080078125,0.6971836686134338,-0.313481867313385,0.4089496433734894,-33.35184860229492,-46.103492736816406,-142.45750427246094,52.18964385986328,-13.624338150024414,2.177490711212158,-0.9647062420845032,0.0473330207169055,0.1344180852174759,31.92751884460449,79.782470703125,-92.43195343017578,113.75242501142948,0.8669346917333953,53.982617406374345,0.9751752509167384,65.27936744689941,125.8859634399414,50.02555084228516
1818.569,-39.471954345703125,104.69799041748048,47.58819961547852,0.6789354681968689,-0.3476784229278564,0.2963953018188476,-33.77511215209961,-43.83314895629883,-142.9736785888672,46.47133255004883,-4.768857955932617,-8.951958656311035,-1.0033265352249146,0.0417963378131389,0.2006681710481643,31.523164749145508,79.79023742675781,-93.8527603149414,121.59087597336708,0.8183421232501653,47.56536890391361,1.0240501867647098,65.29827690124512,123.62338638305664,49.12091827392578
1838.405,-20.28181266784668,117.03052520751952,51.8641242980957,0.6382744908332825,-0.3924888670444488,0.2565153837203979,-33.776798248291016,-41.31175994873047,-143.56936645507812,35.656124114990234,-6.801113128662109,-12.630489349365234,-0.9697781801223756,0.1022602841258049,0.1751751601696014,30.6491813659668,79.78852081298828,-95.55225372314452,129.60471883635182,0.7919860974079936,38.433625744871854,0.9907639583126762,64.42597961425781,121.10028076171876,48.0171127319336
1861.353,-25.779979705810547,125.0970230102539,55.78330612182617,0.5896123051643372,-0.2194070816040039,0.4782581627368927,-33.89739227294922,-38.63959884643555,-144.177490234375,31.216182708740234,-16.18445587158203,-1.611050367355347,-0.9272995591163636,0.1357574760913849,0.1188769564032554,30.41778564453125,79.52303314208984,-96.50457000732422,139.3759296347162,0.7902613542896157,35.19917837181423,0.9446937574768908,64.31517791748047,118.1626319885254,47.67292022705078
1883.326,-46.6859130859375,142.15072631835938,58.74834060668945,0.4388096928596496,-0.4341998994350433,0.6126052141189575,-34.34126663208008,-35.594482421875,-144.99070739746094,40.10421371459961,-8.838167190551758,-13.58281707763672,-0.9823060631752014,0.0738173350691795,0.1510805785655975,29.452449798583984,79.51480865478516,-98.36923217773438,160.7413170206852,0.8696945714345442,43.25452666159884,0.996593970444932,63.79371643066406,115.10929107666016,46.62147521972656
1906.76,2.9290714263916016,160.0626983642578,69.65631866455078,0.3299201726913452,-0.6572424173355103,0.4036042988300323,-33.845909118652344,-32.165374755859375,-145.77157592773438,40.57026672363281,15.087525367736816,-19.06479835510254,-1.0142830610275269,0.0782109573483467,0.1910097450017929,29.1743106842041,79.95735931396484,-99.54216766357422,174.5870831332196,0.8388750476249691,47.29742593492304,1.035070917581189,63.020219802856445,112.12273406982422,46.22940826416016
1916.549,45.371978759765625,163.8757781982422,66.99767303466797,0.4041608572006225,-0.3231386840343475,0.4025193750858307,-32.558433532714844,-28.68928337097168,-146.5610809326172,22.317472457885746,9.161951065063477,-12.450063705444336,-0.994631826877594,0.0749387443065643,0.0764920935034751,28.98304557800293,80.28169250488281,-100.25757598876952,182.76371447504664,0.6555810056217916,27.14802037896555,1.000379591357525,61.54147911071777,108.97097587585448,46.303504943847656
1939.046,-5.048644065856934,169.8831329345703,69.20939636230469,0.3878945708274841,-0.2357568889856338,0.4614827036857605,-32.32351303100586,-25.081035614013672,-147.3339080810547,31.035308837890625,1.0761854648590088,-20.21209716796875,-0.99961656332016,0.0096936076879501,0.0989719927310943,27.436906814575195,80.53829956054688,-102.5137939453125,183.5094226665301,0.647309658959869,37.05236081203782,1.0045509917566051,59.760419845581055,105.61933517456056,44.82011413574219
1961.396,-15.903675079345703,181.5320281982422,64.12617492675781,0.1716484874486923,-0.6992688775062561,0.7423335313796997,-32.2772216796875,-21.32053565979004,-148.26744079589844,57.7812728881836,10.443485260009766,-25.403186798095703,-1.0167609453201294,0.0183195658028125,0.2276192903518676,26.121782302856445,80.93353271484375,-105.07012939453124,193.18118555784343,1.0341659625528867,63.97705667232376,1.0420887523429925,58.399003982543945,102.2540683746338,43.19731140136719
1983.518,98.14861297607422,174.4881591796875,79.29615783691406,0.0046456512063741,-0.6447671055793762,0.8500818610191345,-30.14925193786621,-17.51809310913086,-148.76634216308594,65.88229370117188,23.70244026184082,-20.3435287475586,-1.0243483781814575,0.0277477912604808,0.1660414189100265,26.26993560791016,81.54521942138672,-106.3023452758789,215.33032431763985,1.0669514388884307,72.91187461309953,1.0380892507855346,56.41918754577637,99.06331253051758,42.46399688720703
2005.917,158.15464782714844,176.20602416992188,69.78666687011719,0.1090648993849754,-0.394315630197525,0.5932958722114563,-26.871694564819336,-13.743474960327148,-149.23046875,46.665184020996094,21.59639358520508,-20.96012306213379,-0.932203471660614,0.1388398110866546,0.0502793304622173,26.37226867675781,82.14286804199219,-107.19841003417967,246.843339905984,0.7206802068040157,55.52810436508984,0.9438261581405804,53.24396324157715,95.88634300231934,42.03205871582031
2015.993,78.22569274902344,186.1175537109375,56.252723693847656,0.1883385926485061,-0.1336232423782348,0.6738342046737671,-25.1805362701416,-9.90907096862793,-149.8377227783203,32.369869232177734,17.405803680419922,-8.959908485412598,-1.033937931060791,0.2356444895267486,0.1750812232494354,27.38521385192871,82.49872589111328,-106.87344360351562,209.57903456306093,0.7123055045223368,37.829226742514514,1.0748066828342246,52.56575012207031,92.4077968597412,42.96427917480469
2036.237,5.265931129455566,191.42263793945312,43.273193359375,-0.0687746033072471,-0.3400721848011017,1.0963566303253174,-24.95685768127441,-6.07658576965332,-150.64186096191406,16.076248168945312,15.688443183898926,-8.623284339904785,-1.080823302268982,0.116437941789627,0.279142826795578,27.563213348388672,82.82268524169922,-107.03694915771484,196.32352281343407,1.1499464760560592,24.06104813865741,1.1223446541803714,52.520071029663086,88.89927101135254,43.60491180419922
2058.229,33.43673324584961,181.53439331054688,51.3158073425293,-0.3165392279624939,-0.5348139405250549,0.8384921550750732,-24.246490478515625,-2.350364923477173,-151.2165069580078,-8.605316162109375,31.888504028320312,-28.788423538208008,-0.912016212940216,0.0835006609559059,0.0669332295656204,25.73594284057617,83.67534637451172,-108.74317932128906,191.58826469279904,1.0436915866008831,43.814398149801285,0.9182733744729674,49.9824333190918,86.02571129798889,42.47332763671875
2078.229,30.881235122680664,181.91026306152344,40.48394393920898,-0.1466965228319168,-0.2256285995244979,0.5416849851608276,-23.62245178222656,1.3031160831451416,-151.94659423828125,-18.249900817871094,29.430259704589844,-27.22854995727539,-0.8690789937973022,0.1267346292734146,0.051407340914011,23.60409164428711,84.45101165771484,-110.56613159179688,188.90194336397903,0.6048559811087656,44.05216225019583,0.8797742201364226,47.22654342651367,83.1478955745697,41.380462646484375
2095.759,-36.46334838867188,196.99270629882807,43.28963088989258,-0.0687640905380249,-0.2490812689065933,0.7719749808311462,-24.3338680267334,5.265591144561768,-152.72076416015625,-27.065467834472656,29.22796440124512,-29.23983192443848,-0.9831342697143556,0.0127653069794178,0.2070389539003372,19.22821044921875,85.17975616455078,-114.4616928100586,204.96266551065625,0.8140733073236641,49.41438275551702,1.0047791169113756,43.56207847595215,79.91416501998901,38.259071350097656
2118.085,-30.173383712768555,191.15744018554688,58.01100540161133,-0.499350368976593,-0.5872189998626709,1.146420955657959,-25.002979278564453,9.232276916503906,-153.30601501464844,-34.10586929321289,31.899858474731445,-32.049930572509766,-1.068913459777832,-0.0888934880495071,0.1312565207481384,12.293335914611816,86.0024642944336,-120.76036071777344,202.0318706805307,1.3814694902054416,56.63929149147537,1.0806046043538446,37.29631519317627,76.77018737792969,32.545654296875
2140.602,28.84701538085937,177.52438354492188,62.554630279541016,-0.5891196131706238,-0.4792257249355316,0.7995914816856384,-24.495615005493164,12.978322982788086,-153.62933349609375,-23.856416702270508,47.56024169921875,-19.339296340942383,-0.9695809483528136,-0.1570795476436615,-0.082294724881649,8.400416374206543,87.0832748413086,-124.22077941894533,190.4209516276981,1.1027537130504372,56.613722641452085,0.9856640510031932,32.89603137969971,74.10495185852051,29.40855407714844
2163.986,0.445502758026123,191.09461975097656,51.13309860229492,-0.3405844569206238,-0.2652492523193359,0.3165517747402191,-24.662681579589844,16.8787899017334,-154.29266357421875,14.820165634155272,50.09189987182617,0.2829542756080627,-0.969142198562622,-0.1380791962146759,-0.006300869397819,11.529629707336426,88.23186492919922,-121.53654479980467,197.81796162924576,0.5353129591585332,52.239025692626974,0.9789495218943888,36.19231128692627,71.35307502746582,32.75611877441406
2175.775,-49.17660140991211,209.94189453125,49.34483337402344,-0.4410277903079986,-0.2633156776428222,0.8994497060775757,-25.951642990112305,21.107051849365234,-155.22689819335938,67.1493911743164,45.57400131225586,-9.364490509033203,-1.0918513536453247,0.0242815800011158,0.0992574542760849,13.312373161315918,89.81868743896484,-121.36534881591795,221.19866587823265,1.0357849350514283,81.69286390612484,1.0966225493823514,39.26401615142822,68.71163558959961,33.861549377441406
2198.235,-49.5463981628418,203.40069580078125,51.84114074707031,-0.8171794414520264,-0.6838849186897278,1.144181728363037,-27.32097053527832,25.23161697387696,-156.22789001464844,58.94246292114258,43.72571563720703,-17.413564682006836,-1.1243667602539062,0.1698128879070282,0.0816471427679061,0.6681473255157471,90.0,-135.92947387695312,215.6714920825429,1.5635321068218997,75.42800791569796,1.140045299269004,27.989117860794067,64.76838302612305,20.298416137695312
2220.647,43.66557312011719,194.64865112304688,60.26528549194336,-0.7469147443771362,-0.6109735369682312,0.3920265436172485,-26.81084632873535,29.243480682373047,-157.02139282226562,13.875081062316896,25.67122459411621,-16.420642852783203,-0.9835332036018372,0.124120257794857,0.0089194951578974,-115.09860229492188,90.0,114.33322143554688,208.3907010769803,1.0415637806413585,33.48383428381645,0.9913742776450408,-88.28775596618652,60.75651931762695,271.3546142578125
2243.018,22.29207801818848,209.093978881836,54.18702697753906,-0.6118435859680176,-0.2605552673339844,0.2013505548238754,-26.923099517822266,33.46463394165039,-158.0630645751953,-18.24414825439453,43.19287109375,-24.93451881408692,-0.9026778936386108,-0.1447423100471496,0.1457942575216293,-141.5454864501953,90.0,84.5140380859375,217.1484806294329,0.6948263574113819,53.10558621594988,0.9257611363132002,-114.62238693237305,56.53536605834961,242.5771026611328
2265.601,-33.16543197631836,218.1564483642578,59.07734298706055,-0.7843426465988159,-0.1687318086624145,0.9475648403167723,-28.282114028930664,37.8780632019043,-159.2905731201172,-27.166183471679688,43.85084533691406,-39.622196197509766,-1.0136337280273438,-0.1740935891866684,0.0899829342961311,-139.5658721923828,87.9362564086914,86.57060241699219,228.434485784204,1.2415888760506335,65.04472763178333,1.0324043979250812,-111.28375816345216,50.05819320678711,245.86117553710932
2275.819,-31.78805351257324,225.6368103027344,48.382266998291016,-0.974605143070221,-0.6229936480522156,0.8384479284286499,-30.071815490722656,42.302127838134766,-161.0697021484375,-7.961726188659668,23.043813705444336,-31.827377319335938,-1.152043342590332,0.0745367854833602,-0.0148589275777339,-136.61459350585938,87.09909057617188,89.62174987792969,232.94483095704072,1.4286256329418945,40.09224839070257,1.1545476964273316,-106.54277801513672,44.79696273803711,250.6914520263672
2298.319,63.52784729003906,225.5080108642578,44.12615585327149,-0.9929338693618774,-0.5159893035888672,0.305612564086914,-30.28853988647461,46.64144134521485,-163.2300567626953,26.103439331054688,19.93850326538086,9.239737510681152,-1.0119248628616333,0.2612454295158386,-0.0224736481904983,-143.0707550048828,86.89877319335938,82.63355255126953,238.40463077643423,1.1599834781891734,34.12193146115771,1.045344999214824,-112.7822151184082,40.25733184814453,245.86360931396484
2320.636,52.77329254150391,239.52833557128903,26.892257690429688,-0.92884361743927,-0.156013086438179,0.1766674071550369,-31.512195587158203,51.033321380615234,-166.2901611328125,54.96248245239258,18.26968002319336,23.256521224975582,-0.8756187558174133,0.0862373039126396,0.0356643944978714,-151.95664978027344,86.88567352294922,72.62139129638672,246.74285698052475,0.9582807112472416,62.4141127067202,0.8805776667394283,-120.44445419311523,35.852352142333984,238.9115524291992
2341.5,27.59976959228516,254.1500396728516,19.824621200561523,-1.150726556777954,-0.3320275545120239,0.5919654369354248,-34.16415786743164,55.55574035644531,-170.27183532714844,45.161258697509766,8.961867332458496,-1.1615928411483765,-1.024632215499878,-0.0815673470497131,0.1279620677232742,-151.8417205810547,86.72080993652344,71.81474304199219,256.41178902890755,1.3359779129743985,46.056526694450106,1.035808235109633,-117.67756271362305,31.165069580078125,242.08657836914065
2363.23,44.85333633422852,252.7267608642578,22.731857299804688,-1.325900316238403,-0.3611039519309997,0.6442195773124695,-37.30978393554688,59.96377944946289,-175.0937042236328,44.38277053833008,-8.122846603393555,4.675803184509277,-1.1617460250854492,0.0080835931003093,0.1010669469833374,-150.77284240722656,86.99788665771484,72.03543853759766,257.6807613570518,1.5177043771742706,45.36159270815554,1.1661619523255702,-113.46305847167967,27.03410720825196,247.12914276123047
2384.171,87.09781646728516,250.40542602539065,24.95369911193848,-1.3382492065429688,-0.4697699248790741,0.1275625526905059,-40.794769287109375,64.16937255859375,179.01927185058594,60.56161117553711,-19.88827514648437,26.076265335083008,-1.051382064819336,-0.0871046632528305,-0.047122910618782,-154.56651306152344,87.64681243896484,67.14229583740234,266.29230953164125,1.424031925900081,68.87106685905817,1.056036001890724,-113.77174377441406,23.477439880371094,-111.8769760131836
2405.596,101.13400268554688,239.9931030273437,22.34512710571289,-1.371556043624878,-0.2164888381958007,0.0395991392433643,-45.426456451416016,67.99193572998047,171.73641967773438,62.003997802734375,-5.810495853424072,22.71386337280273,-0.8860182762145996,-0.291592389345169,-0.1765565276145935,-161.88015747070312,87.96749877929688,58.56434631347656,261.38875397626407,1.3891009645436545,66.28859023167182,0.949329613334398,-116.45370101928712,19.975563049316406,-113.1720733642578
2415.695,98.16815185546876,225.8873291015625,10.294962882995604,-1.4977977275848389,-0.2856125235557556,0.1332942992448806,-52.29231643676758,71.18306732177734,162.3443603515625,74.59576416015625,1.737447738647461,3.33369255065918,-0.9277666807174684,-0.2587586641311645,-0.3167038857936859,-162.1636505126953,87.95167541503906,56.83971786499024,246.51178014066232,1.5306011618254372,74.69042951613348,1.0139074964656656,-109.87133407592772,16.76860809326172,-105.50464248657228
2445.487,114.933837890625,203.21075439453125,4.501430988311768,-1.4502596855163574,-0.2435829639434814,0.145023301243782,-60.51890182495117,73.58975982666016,151.34458923339844,83.94925689697266,8.276969909667969,-6.908942222595215,-1.0003830194473269,-0.108144000172615,-0.3351259231567383,-158.80369567871094,87.7179183959961,58.60905838012695,233.50516198749327,1.4777068632381525,84.63875853930408,1.0605520707365297,-98.28479385375977,14.128158569335938,-92.73553085327148
2465.449,112.3287353515625,183.3312225341797,-1.9457430839538568,-1.301578402519226,-0.2298393547534942,0.0844591185450553,-70.26737213134766,75.14662170410156,138.91954040527344,68.26092529296875,19.800270080566406,-9.968708992004396,-1.0394538640975952,-0.0561608858406543,-0.2720714211463928,-156.7546844482422,87.2229995727539,59.27140808105469,215.0159711689042,1.3244114955720565,71.77032657082523,1.075937376844232,-86.48731231689453,12.076377868652344,-79.64813232421875
2475.422,113.48235321044922,168.67691040039062,-5.833512306213379,-1.2162785530090332,-0.261125773191452,0.1237592697143554,-80.64485168457031,75.90364837646484,125.87239837646484,56.35652160644531,28.24880027770996,-17.1024112701416,-1.0148868560791016,-0.1408381313085556,-0.1786396354436874,-154.14219665527344,86.4696273803711,60.79795455932617,203.3818439739136,1.250134610661913,65.31879297691248,1.040068665629372,-73.49734497070312,10.56597900390625,-65.07444381713867
2498.024,115.69441223144533,156.51168823242188,-7.356048583984375,-1.1836835145950315,-0.2235076874494552,0.2178320437669754,-90.64724731445312,76.00810241699219,113.17230987548828,60.34571838378906,29.66880226135254,-22.715696334838867,-1.0246769189834597,-0.1866616457700729,-0.0973698124289512,-150.4034881591797,85.64813232421875,63.38515090942383,194.76965119266487,1.2241377162577531,70.97778817951026,1.0460813728728164,-59.75624084472656,9.640029907226562,-49.78715896606445
2518.286,114.22940826416016,146.32781982421875,-10.411231994628906,-1.162508249282837,-0.1907102465629577,0.1804763078689575,-99.7499542236328,75.53401184082031,101.42124938964844,73.14935302734375,22.840147018432617,-21.3598861694336,-1.048179030418396,-0.1243953257799148,-0.0658775493502616,-146.97642517089844,84.99519348144531,65.42720794677734,185.92628194673068,1.1917917290771745,79.55340911182714,1.0575884494420011,-47.226470947265625,9.461181640625,-35.994041442871094
2535.357,113.91316223144533,136.1398468017578,-13.822820663452148,-1.1503220796585083,-0.1870038509368896,0.0720194876194,-106.95670318603516,74.69876098632812,91.5816879272461,80.69274139404297,18.4072380065918,-15.431259155273438,-1.032135248184204,-0.0234964564442634,-0.0587898939847946,-144.9150848388672,84.5233154296875,65.90003204345703,178.0486921824129,1.1676464078701492,84.19185639855213,1.034075193418955,-37.95838165283203,9.824554443359377,-25.681655883789062
2557.87,111.7493133544922,125.45433044433594,-13.682503700256348,-1.1467480659484863,-0.1567381620407104,0.0618485212326049,-112.62950897216795,73.61902618408203,83.34538269042969,84.90471649169922,18.692684173583984,-16.90951919555664,-1.0363160371780396,-0.0342302769422531,-0.0879462510347366,-142.8400421142578,84.01763916015625,66.2668228149414,168.56425768811326,1.159061352032391,88.56725785285484,1.040604239777546,-30.210533142089844,10.39861297607422,-17.07855987548828
2581.709,95.46920776367188,113.38619995117188,-15.009458541870115,-1.124977469444275,-0.1141457930207252,0.1309905350208282,-117.02493286132812,72.39179229736328,76.72954559326172,81.38898468017578,19.040163040161133,-21.032609939575195,-1.0245952606201172,-0.0610588043928146,-0.1019608899950981,-140.45724487304688,83.44409942626953,67.0146255493164,148.983501825237,1.1383154611471362,86.19202583032913,1.0314648073335697,-23.43231201171875,11.05230712890625,-9.714920043945312
2602.16,79.66049194335938,99.26815795898438,-18.857250213623047,-1.079303503036499,-0.1614451259374618,0.1290786117315292,-120.1574478149414,71.10789489746094,71.7305908203125,64.8030776977539,14.039318084716797,-23.68667221069336,-0.9979056119918824,0.0065317461267113,-0.1285254955291748,-138.1383514404297,82.92874908447266,68.04169464111328,128.6683995658883,1.0989184994176593,70.41022490946764,1.0061695071673444,-17.98090362548828,11.82085418701172,-3.6888961791992174
2622.837,76.43618774414062,82.49970245361328,-19.96703720092773,-1.0498216152191162,-0.1774592101573944,0.0755930244922638,-122.0290298461914,69.911865234375,68.09735107421875,53.07689666748047,18.81185340881348,-21.409603118896484,-0.9980304837226868,0.0378637872636318,-0.1462880671024322,-137.15415954589844,82.38072204589844,67.96137237548828,114.22510352972095,1.0673947256768923,60.24461713907516,1.009405127489578,-15.125129699707031,12.468856811523438,-0.1359786987304687
2635.46,67.0997314453125,67.40491485595703,-17.64488410949707,-1.020379662513733,-0.1551502645015716,0.0527285858988761,-123.19644165039062,68.88719177246094,65.38672637939453,36.90000915527344,17.810850143432617,-24.351356506347656,-1.0104156732559204,-0.0237468592822551,-0.1138918176293373,-135.89651489257812,81.80292510986328,68.48112487792969,96.73230299134543,1.0334537067607057,47.66367193356296,1.017091486647047,-12.7000732421875,12.915733337402344,3.094398498535156
2657.86,47.64362335205078,56.112640380859375,-16.891250610351562,-0.9888495206832886,-0.1412175744771957,0.0654098987579345,-124.12993621826172,67.98350524902344,63.32795333862305,17.73469352722168,15.88246250152588,-23.08714485168457,-0.9863148331642152,-0.0219156816601753,-0.0581187680363655,-134.9381866455078,81.29885864257812,69.08602905273438,75.5238876369949,1.0010215945484469,33.163055152074264,0.9882687075995316,-10.808250427246094,13.315353393554688,5.758075714111328
2681.7540000000004,32.39347076416016,44.98710250854492,-16.091310501098633,-0.9842116236686708,-0.1568983793258667,0.0773797631263732,-124.83644104003906,67.20832824707031,61.83361053466797,6.223480224609375,12.685676574707031,-17.006662368774414,-0.962977647781372,0.0227599143981933,-0.0743395388126373,-134.69898986816406,80.94266510009766,69.20320129394531,57.72440223948269,0.9996385593508776,22.11073633305012,0.9661109309291728,-9.862548828125,13.734336853027344,7.369590759277344
2702.819,21.177928924560547,31.05680084228516,-15.69094944000244,-0.9827853441238404,-0.1590343415737152,0.0694934204220771,-125.18240356445312,66.59459686279297,60.96415328979492,-1.758167743682861,16.203475952148438,-17.918472290039062,-0.9691281318664552,0.0228003859519958,-0.1060241907835006,-134.92837524414062,80.51410675048828,69.0083236694336,40.73371387953491,0.9979921291805662,24.222209559734168,0.9751770724364992,-9.7459716796875,13.919509887695312,8.044170379638672
2725.393,10.828620910644531,19.54600143432617,-13.287493705749512,-0.9648689031600952,-0.1676965355873108,0.0132900476455688,-125.34407043457033,66.15166473388672,60.51646423339844,-6.839950084686279,15.064924240112305,-17.126436233520508,-0.9980087280273438,-0.0325024649500846,-0.1056006699800491,-135.07159423828125,80.0967788696289,69.00132751464844,25.99735932508265,0.9794236844694808,23.81284690208559,1.0041062358868325,-9.727523803710938,13.945114135742188,8.48486328125
2735.65,7.162524700164795,10.254237174987791,-8.344826698303223,-0.9396719932556152,-0.1738904118537902,0.0345871895551681,-125.35958862304688,65.89675903320312,60.30602645874024,-7.428431034088135,8.590564727783203,-13.04942512512207,-1.007723093032837,-0.1096951141953468,-0.0304195582866668,-134.69137573242188,79.8329849243164,69.53014373779297,15.036198746561135,0.9562518517236904,17.299331954344474,1.0141322398170536,-9.331787109375,13.93622589111328,9.224117279052734
2760.108,-2.6244373321533203,1.977410793304444,-3.4306480884552,-0.9483604431152344,-0.1503930240869522,0.0810132920742034,-125.3955307006836,65.81790924072266,60.2861557006836,-0.3192231655120849,3.429138422012329,-7.459689140319824,-0.977440059185028,-0.1254692822694778,-0.0328154973685741,-134.1846466064453,79.7146224975586,70.04421997070312,4.750491665364572,0.9636227193525704,8.216316438461112,0.986006321967763,-8.789115905761719,13.896713256835938,9.758064270019531
2780.235,-16.193767547607422,-6.771709442138672,-0.7846422791481018,-0.9684033393859864,-0.1547154635190963,0.0769968703389167,-125.45347595214844,65.8836669921875,60.541141510009766,16.794967651367188,2.114488363265991,0.3218837082386017,-0.9837141036987304,-0.0467623174190521,-0.0506478548049926,-134.0527801513672,79.75348663330078,69.83758544921875,17.57014000117586,0.9837024044027984,16.930611582884033,0.9861264408495212,-8.59930419921875,13.86981964111328,9.296443939208984
2803.059,-23.85494804382324,-16.39158821105957,2.0727756023406982,-0.9858304262161256,-0.1532877832651138,0.0283195283263921,-125.38590240478516,66.10758209228516,61.099796295166016,16.293792724609375,-1.2166603803634644,5.342339515686035,-1.0019019842147827,0.0154781304299831,-0.062042236328125,-134.22064208984375,79.9323501586914,69.34321594238281,29.017910141016568,0.9980785387114732,17.190361698770044,1.0039404352767751,-8.834739685058594,13.82476806640625,8.243419647216797
2823.2870000000003,-31.212709426879883,-26.39012336730957,5.997241497039795,-0.9844940900802612,-0.1176549345254898,-0.0025760021526366,-125.18771362304688,66.51053619384766,61.9586181640625,0.4496409893035888,-5.498487949371338,8.207132339477539,-0.9974639415740968,0.0472391471266746,-0.065724104642868,-134.47787475585938,80.15047454833984,69.0772476196289,41.31148444055806,0.9915028657589696,9.889012487925262,1.0007424792087598,-9.2901611328125,13.639938354492188,7.118629455566406
2845.185,-40.491844177246094,-34.2711296081543,9.058420181274414,-0.9957185387611388,-0.1203505247831344,0.0221366137266159,-124.93464660644533,67.0529556274414,63.07585906982422,-23.13008499145508,-7.433129787445068,7.710824012756348,-0.9785916209220886,0.0390085205435752,-0.0422325655817985,-135.0184326171875,80.39979553222656,69.00298309326172,53.81593393850754,1.003209692395102,25.48939106971052,0.9802789474478883,-10.083786010742188,13.346839904785156,5.9271240234375
2855.109,-46.560508728027344,-47.62530517578125,11.883941650390623,-1.0399627685546875,-0.1012946590781211,0.1220975220203399,-124.30929565429688,67.79034423828125,64.7276840209961,-46.15879440307617,-3.681378602981568,11.69529628753662,-1.0049731731414795,-0.0171844270080328,-0.0794410556554794,-136.7839813232422,80.67432403564453,68.1547622680664,67.65558909099008,1.0519938083568698,47.75946821748767,1.0082545633863034,-12.474685668945312,12.88397979736328,3.4270782470703125
2885.224,-48.42103576660156,-61.39139938354492,14.94660758972168,-1.0429121255874634,-0.0972015559673309,0.0796725824475288,-123.13908386230467,68.72157287597656,67.0235366821289,-47.29648208618164,-3.030999183654785,18.45687294006348,-1.0197774171829224,-0.0185955744236707,-0.1546526402235031,-139.4807586669922,80.99020385742188,66.3899917602539,79.60465879219352,1.0504577880970227,50.86059705219223,1.0316051643494806,-16.3416748046875,12.268630981445312,-0.633544921875
2906.509,-55.19593048095703,-72.74190521240234,20.54470634460449,-1.0321357250213623,-0.1138243228197097,0.0754046067595481,-121.58135223388672,69.84832000732422,69.86923217773438,-35.92789459228516,-5.718658924102783,24.560094833374023,-1.0260553359985352,-0.0282939709722995,-0.1213211119174957,-142.37547302246094,81.42059326171875,64.19416046142578,93.5951947183978,1.0411272669809877,43.894361003993424,1.0335903025480384,-20.79412078857422,11.572273254394531,-5.675071716308594
2915.222,-61.55097961425781,-82.95100402832031,23.78095817565918,-1.038704752922058,-0.0976875349879264,0.1054567620158195,-119.47297668457033,71.10269927978516,73.38594055175781,-36.23332977294922,-15.954974174499512,26.282400131225582,-0.9914345145225524,0.0486053898930549,-0.0583768263459205,-144.8159942626953,82.0398178100586,62.468387603759766,105.99493446638684,1.048604571270673,47.520310857591,0.9943403513724296,-25.343017578125,10.937118530273438,-10.917552947998049
2937.719,-63.73389053344727,-99.69041442871094,25.1715030670166,-1.0944464206695557,-0.1043938994407653,0.1321371495723724,-116.11456298828124,72.48099517822266,78.22486114501953,-67.23910522460938,-17.632049560546875,26.72797393798828,-0.9559934735298156,0.130489781498909,-0.1365368068218231,-147.9849395751953,82.63819122314453,60.63300704956055,120.97021161488642,1.1073261851206997,74.47396212060598,0.9744708328751228,-31.870376586914062,10.157196044921877,-17.591854095458984
2957.728,-64.67424011230469,-124.65614318847656,29.27116584777832,-1.1518856287002563,-0.0970660150051117,0.1521086990833282,-110.59844207763672,74.0123291015625,85.31190490722656,-103.70521545410156,-6.486678123474121,22.85705947875977,-0.9734712839126588,0.0466185584664344,-0.2787302136421203,-152.64373779296875,82.98347473144531,58.02472686767578,143.45282332118165,1.165932832204317,106.3921701699648,1.0136617594607338,-42.04529571533203,8.971145629882812,-27.28717803955078
2975.227,-63.44073486328125,-146.00218200683594,35.28611755371094,-1.1354689598083496,-0.1896314322948455,0.0550947301089763,-102.17498016357422,75.56597900390625,95.34580993652344,-124.9294204711914,-1.6143921613693235,13.354414939880373,-1.013622522354126,-0.1114962995052337,-0.3231524527072906,-156.97482299804688,83.12969207763672,56.17221450805664,163.05359267052262,1.1525125891235335,125.65152907826044,1.0697147051048888,-54.799842834472656,7.563713073730469,-39.1735954284668
2997.433,-50.02751159667969,-162.05148315429688,41.15821075439453,-1.144432544708252,-0.209039106965065,0.1421171128749847,-90.3085479736328,76.76995086669922,108.61700439453124,-115.0482406616211,-0.499417096376419,13.13832187652588,-0.9379573464393616,-0.240821897983551,-0.1693884283304214,-161.26051330566406,83.23371124267578,54.18962097167969,174.52058165605123,1.1720155593677406,115.79707508612483,0.9830827075786752,-70.95196533203125,6.4637603759765625,-54.42738342285156
3020.277,-47.38016128540039,-180.9811248779297,44.51336669921875,-1.249106764793396,-0.1449279189109802,0.336520254611969,-75.26397705078125,77.20039367675781,125.04630279541016,-80.37194061279297,-3.9149909019470215,18.64262008666992,-0.9949439764022828,-0.2539305090904236,-0.1616181135177612,-165.68016052246094,83.41834259033203,51.34893798828125,192.30311245637824,1.301736414677179,82.59856702948639,1.0394780585674466,-90.41618347167967,6.217948913574219,-73.6973648071289
3042.532,-55.1595458984375,-195.1953582763672,46.22406768798828,-1.325808048248291,-0.1824675500392913,0.3193427324295044,-59.218544006347656,76.5290756225586,142.6804656982422,-47.29267883300781,-14.616827011108398,13.777839660644531,-1.0787763595581057,-0.1810958534479141,-0.1296316534280777,-167.71315002441406,83.7498779296875,50.24674606323242,208.03958236351292,1.375878326151272,51.38168904180869,1.1015255365391965,-108.4946060180664,7.220802307128906,-92.43371963500977
3063.1240000000003,-43.498809814453125,-205.56179809570312,51.44243621826172,-1.339701533317566,-0.2706055343151092,0.281816303730011,-44.85395050048828,74.77000427246094,158.38043212890625,-21.00460433959961,-20.917598724365234,15.483062744140623,-1.1123453378677368,-0.1462382674217224,-0.018072796985507,-169.5279998779297,84.26995086669922,48.84072494506836,216.31949411849712,1.3955099364115788,33.44345334733972,1.1220625684539505,-124.6740493774414,9.49994659423828,-109.53970718383788
3075.215,-26.516231536865234,-215.6978912353516,48.47192001342773,-1.3018367290496826,-0.1876719295978546,0.3557524383068084,-33.60725021362305,72.0140609741211,170.6514434814453,-18.02433013916016,-23.47665405273437,19.84621238708496,-1.0039666891098022,-0.0098595470190048,-0.054086647927761,-173.17262268066406,84.83296966552734,45.5389404296875,222.66166676840075,1.3625562078765772,35.63568308017248,1.005470879236977,-139.56537246704102,12.81890869140625,-125.1125030517578
3097.697,-28.5119857788086,-226.01573181152344,42.89799118041992,-1.3292893171310425,-0.1685095429420471,0.456103652715683,-25.77499389648437,68.49269104003906,179.5464630126953,-17.277313232421875,-22.73714065551757,22.459735870361328,-0.9767101407051086,0.0573442615568637,-0.116775706410408,-178.61297607421875,85.32026672363281,40.41329956054688,231.81087551421064,1.4154278846772237,36.33074253420106,0.9853363024355416,-152.83798217773438,16.82757568359375,-139.13316345214844
3122.135,-26.829633712768555,-241.34866333007807,43.78104019165039,-1.3990205526351929,-0.2340584844350814,0.4780206382274627,-20.169050216674805,64.40509033203125,-173.76182556152344,-31.92950439453125,-24.010543823242188,14.67375373840332,-1.0230083465576172,-0.0491287931799888,-0.1172943785786628,177.40818786621094,85.79745483398438,37.05070114135742,246.7504529208399,1.49684521958789,42.559587807490914,1.0308819945522507,197.5772380828857,21.392364501953125,210.8125267028809
3142.372,-23.85912704467773,-254.81788635253903,45.50657653808594,-1.3789116144180298,-0.2296549379825592,0.5239072442054749,-16.056310653686523,59.88911819458008,-168.57015991210938,-47.91456985473633,-23.00816535949707,11.227874755859377,-1.0236074924468994,-0.1859979927539825,-0.1087464988231659,173.17572021484375,86.25727844238281,33.753421783447266,259.946651558981,1.4928554623431185,54.32537941982212,1.04603697492404,189.23203086853027,26.36816024780273,202.32358169555664
3164.9660000000003,-16.5507755279541,-257.3945007324219,34.25041580200195,-1.291376709938049,-0.2427875399589538,0.4963708817958832,-13.31147003173828,55.100189208984375,-164.92547607421875,-40.1407585144043,-30.876049041748047,13.026477813720703,-1.0049850940704346,-0.068192072212696,-0.0645521953701973,167.2139892578125,86.86611938476562,28.64492416381836,260.1902153434665,1.4046293635064604,52.2905347340368,1.0093622659598158,180.5254592895508,31.76593017578125,193.5704002380371
3175.125,-7.532566070556641,-260.177978515625,23.505708694458008,-1.257968783378601,-0.2363606840372085,0.6166470646858215,-11.422039985656738,50.15105819702149,-162.3539581298828,-11.682644844055176,-39.39389419555664,21.0389404296875,-1.0003448724746704,0.1510639935731887,-0.0266697891056537,153.2837371826172,87.51319885253906,14.88797092437744,261.3462040996828,1.4207763495002352,46.16275668595821,1.0120382758036304,164.70577716827393,37.36214065551758,177.24192905426025
3197.474,-10.44120979309082,-265.8962707519531,20.093185424804688,-1.2308573722839355,-0.1750871241092682,0.724891185760498,-10.112176895141602,45.00188446044922,-160.30030822753906,-23.11313819885254,-43.10360336303711,25.83791732788086,-1.0576826333999634,0.0933454483747482,-0.0154361389577388,131.4633026123047,87.92471313476562,-6.6739606857299805,266.8587299719739,1.439143009963857,55.31487821662167,1.0619059280906604,141.5754795074463,42.922828674316406,153.62634754180908
3219.8920000000003,-10.953974723815918,-264.222412109375,12.89549446105957,-1.122021198272705,-0.1997478306293487,0.7448641061782837,-9.283109664916992,39.837703704833984,-158.7500762939453,-55.03901672363281,-50.43691635131836,14.271388053894045,-1.0982112884521484,0.0512349791824817,0.0600960254669189,103.78903198242188,88.19983673095703,-33.438262939453125,264.7636047506183,1.3614893689953005,76.00558143925383,1.1010470423430954,113.07214164733888,48.36213302612305,125.3118133544922
3242.723,6.097902297973633,-263.2853088378906,8.623891830444336,-1.0069661140441897,-0.1589374542236328,0.7097452878952026,-8.414758682250977,34.66303253173828,-157.51829528808594,-60.71402359008789,-46.62873840332031,27.885581970214844,-1.0441761016845703,0.1135647445917129,0.0463496632874012,79.97584533691406,87.52250671386719,-56.01060485839844,263.4970773511583,1.2421675582938838,81.47415287930644,1.0513557789018058,88.39060401916504,52.859474182128906,101.5076904296875
3265.033,-1.070972561836243,-263.1678466796875,5.93821382522583,-0.8959939479827881,-0.1173434481024742,0.8412246704101562,-7.895482063293457,29.47120857238769,-156.50279235839844,-44.945533752441406,-44.68408966064453,36.94132614135742,-1.016522765159607,0.0495655089616775,0.0516442246735096,67.31444549560547,86.46553039550781,-67.59886932373047,263.2370127692643,1.2345985524619074,73.35823369039433,1.019039939211654,75.20992755889893,56.99432182312012,88.90392303466797
3274.9480000000003,-0.1288810968399047,-265.2377624511719,4.55812406539917,-0.8826134204864502,-0.2234870195388794,0.8504671454429626,-7.492266178131103,24.228870391845703,-155.60386657714844,-35.10223388671875,-47.38991928100586,20.793455123901367,-1.0037503242492676,-0.017369657754898,0.1103907451033592,56.88345336914063,85.62931823730469,-77.20108795166016,265.27695666121656,1.2458921556070028,62.53270383797471,1.009951748869968,64.37571954727173,61.40044784545898,78.40277862548828
3306.269,12.089500427246094,-265.5350036621094,8.201831817626953,-0.7755006551742554,-0.1538818925619125,0.8325132727622986,-6.922560214996338,18.98286247253418,-154.7139434814453,-45.6611213684082,-50.9343376159668,8.51417064666748,-1.00716233253479,0.0183765385299921,0.1025916188955307,47.36693954467773,84.84390258789062,-85.7301025390625,265.9365793485008,1.1481111672479842,68.93283582443398,1.0125407159778164,54.28949975967407,65.86104011535645,68.98384094238281
3325.5460000000003,1.2113949060440063,-266.55450439453125,8.332514762878418,-0.6843346953392029,-0.1710696965456009,0.8816177845001221,-6.664698123931885,13.711020469665527,-153.88706970214844,-53.22187805175781,-48.464115142822266,5.061294078826904,-1.0293148756027222,0.0433622747659683,0.1105667129158973,40.046512603759766,84.04637908935547,-91.94115447998048,266.6874614467395,1.1290831387759306,72.15923681473691,1.0361440044776369,46.71121072769165,70.33535861968994,61.94591522216797
3335.552,5.754140377044678,-264.49658203125,9.447501182556152,-0.5876418352127075,-0.2253611087799072,0.866946816444397,-6.3947577476501465,8.479567527770996,-153.08119201660156,-73.88997650146484,-49.58273315429688,-4.328465461730957,-1.0794216394424438,0.0394571386277675,0.1493871212005615,32.486167907714844,83.2691421508789,-97.99427795410156,264.72779853329894,1.071311037180959,89.08934654430143,1.090423978765093,38.88092565536499,74.78957462310791,55.0869140625
3361.519,21.418441772460938,-260.8133544921875,13.580135345458984,-0.4897215366363525,-0.1585121005773544,0.8601399064064026,-5.881749629974365,3.3248445987701416,-152.24935913085938,-74.21383666992188,-45.36456298828125,-4.667160987854004,-1.0695065259933472,0.0423384681344032,0.1262659281492233,26.70187759399414,82.51582336425781,-102.2848892211914,262.0434612911163,1.0023940981808157,87.10579498560428,1.0777661340187448,32.583627223968506,79.19097876548767,49.96446990966797
3374.627,26.46047019958496,-258.8503723144531,16.926776885986328,-0.4171860516071319,-0.1543794572353363,0.8520432114601135,-5.34131383895874,-1.791595697402954,-151.40599060058594,-69.55096435546875,-33.738609313964844,-4.714167594909668,-1.0307562351226809,-0.059546872973442,0.1227711960673332,22.22805976867676,81.96269989013672,-105.36300659179688,260.7492809314382,0.9611736849639037,77.4458118772664,1.0397485334969228,27.56937360763549,83.75429558753967,46.04298400878906
3397.0950000000003,31.44650077819824,-254.4254150390625,22.24489402770996,-0.2138766050338745,-0.0271998830139637,0.7349932789802551,-4.779181480407715,-6.818667411804199,-150.5128936767578,-50.968505859375,-33.37223815917969,-5.769434928894043,-0.961832880973816,0.0323919355869293,0.0453733131289482,18.945512771606445,81.42346954345703,-107.64806365966795,257.3247161453724,0.765962241865052,61.19461780817734,0.9634471786028314,23.72469425201416,88.24213695526123,42.86483001708984
3419.8140000000003,18.676654815673828,-245.06788635253903,17.27157211303711,-0.0433260761201381,-0.1085283532738685,0.7716394662857056,-4.526148796081543,-11.673702239990234,-149.7630157470703,-28.442758560180664,-30.006654739379883,1.9725422859191888,-0.8927850723266602,0.0942823365330696,0.1449327617883682,17.599937438964844,80.81806182861328,-108.44639587402344,246.38464554363097,0.7804377094079925,41.39179588071553,0.9093733280622752,22.126086235046387,92.49176406860352,41.31661987304688
3434.603,23.998594284057617,-235.72267150878903,14.302204132080078,0.0115264784544706,-0.1294380575418472,0.6722949147224426,-4.20705509185791,-16.350433349609375,-149.0995635986328,-35.3028564453125,-28.61995506286621,24.19613265991211,-0.8714768886566162,0.0702845752239227,0.1668750196695327,18.61627197265625,80.09530639648438,-106.7138442993164,237.3724150652029,0.684739018026156,51.4863703973672,0.8900894118945188,22.82332706451416,96.44573974609376,42.385719299316406
3457.183,25.285297393798828,-222.0914459228516,15.190835952758787,0.1333066076040268,-0.0840386524796485,0.5893911123275757,-3.940744400024414,-20.71126365661621,-148.4395751953125,-18.413440704345703,-24.302772521972656,30.36988067626953,-1.0061299800872805,0.0723060891032219,0.2122859060764312,20.49647331237793,79.4057388305664,-104.45066833496094,224.041777607078,0.6100942796258838,43.03497650885909,1.03082055337994,24.437217712402344,100.11700248718262,43.98890686035156
3479.632,9.459980010986328,-209.8897857666016,15.84511947631836,0.2104910463094711,-0.0400227345526218,0.6355768442153931,-4.000900268554688,-24.83314323425293,-147.78688049316406,-13.109657287597656,-20.6960678100586,27.070358276367188,-0.9656914472579956,-0.0099242376163601,0.149693951010704,21.87649917602539,78.84817504882812,-102.78797912597656,210.69950451336368,0.6707206756618761,36.510199043660215,0.977275161235925,25.87739944458008,103.68131828308104,44.9989013671875
3503.519,-6.776961326599121,-194.2914276123047,10.410320281982422,0.2117242664098739,-0.1230359449982643,0.6528948545455933,-4.400773525238037,-28.654359817504883,-147.22882080078125,-21.35521697998047,-11.189315795898438,31.1877384185791,-1.060594081878662,0.1280606240034103,0.1516730338335037,24.022310256958008,78.40948486328125,-100.22608947753906,194.68811164738105,0.697306747307472,39.41980603590159,1.0790106760956744,28.423083782196045,107.06384468078612,47.00273132324219
3524.768,-2.134171485900879,-181.12203979492188,10.292092323303224,0.2510331571102142,-0.0632843002676963,0.5218585729598999,-4.712913990020752,-32.228851318359375,-146.66891479492188,-23.691802978515625,-10.192965507507324,46.66859817504883,-1.0597631931304932,0.126213327050209,0.1153096482157707,27.25465583801269,77.83998107910156,-96.51034545898438,181.4267762812201,0.5825452075168387,53.32125401595697,1.0734636204412642,31.967569828033447,110.06883239746094,50.1585693359375
3534.564,-21.78506660461425,-166.3459930419922,8.920833587646484,0.3836265206336975,-0.0452945306897163,0.5142117142677307,-5.463374137878418,-35.55533599853516,-146.1047821044922,-48.30681228637695,-6.337189197540283,19.57996940612793,-0.9504346251487732,0.0688603967428207,0.070559561252594,27.68654060363769,77.61199188232422,-95.14591217041016,168.00345175023182,0.643144298687376,52.50793542067319,0.9555346056556122,33.14991474151611,113.16732788085938,50.95886993408203
3557.126,-24.900049209594727,-150.585205078125,6.698103427886963,0.3891863524913788,-0.1775473654270172,0.5528485178947449,-6.3428568840026855,-38.524295806884766,-145.522216796875,-54.58133316040039,12.41408920288086,15.462542533874512,-1.000870704650879,0.0759018436074256,0.1071464493870735,28.41382598876953,77.73738861083984,-93.35546112060548,152.7768995253925,0.6990211496614638,58.07169501500352,1.0094471848034494,34.75668287277222,116.2616844177246,52.16675567626953
3579.583,-24.10264778137207,-135.5221405029297,1.8970764875411987,0.4388082325458526,-0.0874240100383758,0.6052951216697693,-7.136889457702637,-41.1707878112793,-145.05035400390625,-57.5167350769043,19.625707626342773,25.19425201416016,-1.0008444786071775,0.0984011590480804,-0.0173985119909048,30.19217300415039,77.84542083740234,-90.442626953125,137.66185781024558,0.7527136286785473,65.78824779772216,1.0058206433952213,37.32906246185303,119.01620864868164,54.60772705078125
3602.201,-41.31916046142578,-118.64630126953124,-2.359926700592041,0.5011835694313049,-0.1236754432320594,0.4908586144447326,-8.27254867553711,-43.555084228515625,-144.64279174804688,-42.30162048339844,35.42377853393555,11.422250747680664,-0.9636324644088744,0.0919946357607841,-0.0336275361478328,32.023067474365234,78.34711456298828,-87.73594665527344,125.65741951914175,0.7123361319638031,56.34482224025273,0.9685976206138718,40.29561614990234,121.9021987915039,56.90684509277344
3624.626,-34.108428955078125,-106.36725616455078,-2.819397449493408,0.585974395275116,-0.1468428075313568,0.4906228482723236,-9.293851852416992,-45.711517333984375,-144.1726837158203,-26.827259063720703,38.909454345703125,0.2459949702024459,-0.9267927408218384,0.062768630683422,0.1074624955654144,33.58786392211914,79.04149627685547,-85.59970092773438,111.7377604560651,0.7782284891267965,47.2621199257683,0.9351111556339566,42.88171577453613,124.75301361083984,58.57298278808594
3634.826,-31.87493133544922,-96.76168060302734,-1.6998943090438845,0.5984631776809692,-0.1278014183044433,0.5422149300575256,-10.27924633026123,-47.629638671875,-143.71774291992188,-25.42144203186035,52.243499755859375,3.5069921016693115,-0.9351337552070618,-0.0040137465111911,0.1067084521055221,36.38460540771485,79.91928100585938,-82.26547241210938,101.890744041958,0.8176114039920909,58.20594450157892,0.9412108924356292,46.66385173797608,127.54891967773438,61.4522705078125
3659.667,-34.74284362792969,-85.82875061035156,-3.768237590789795,0.6651224493980408,-0.1409309655427932,0.5142356753349304,-11.295924186706545,-49.359493255615234,-143.33203125,-19.92906379699707,56.6517448425293,6.8355207443237305,-0.9379188418388368,0.0978352278470993,-0.0073168631643056,40.97573471069336,80.78470611572266,-77.29986572265625,92.67059527827227,0.8524598169586912,60.44263496385564,0.9430360662089036,52.2716588973999,130.1441993713379,66.03216552734375
3682.24,-37.42554473876953,-74.16637420654297,-8.059408187866211,0.734422504901886,-0.1343082338571548,0.4547036588191986,-12.257028579711914,-50.91636276245117,-143.1018829345703,-7.521450996398926,49.03356170654297,7.814476013183594,-0.9408739805221558,0.193949744105339,0.0321683846414089,46.27367782592773,81.38996124267578,-71.89730072021484,83.46422300768903,0.8741684818910798,50.218805581985016,0.961194650126898,58.53070640563965,132.30632400512695,71.20458221435547
3702.178,-39.34811019897461,-62.69989013671875,-12.787152290344238,0.7491881847381592,-0.1474155187606811,0.4133055806159973,-13.112902641296388,-52.25516891479492,-143.00985717773438,-6.263394355773926,31.14164161682129,6.455189228057861,-0.9135115146636964,0.1490782648324966,0.0928689241409301,49.94078826904297,81.69229125976562,-68.13101196289062,75.12031192083607,0.8682371647718529,32.414524821698535,0.930243115287462,63.05369091033936,133.94746017456055,74.87884521484375
3724.554,-35.700313568115234,-53.65554428100586,-13.963891983032228,0.7513776421546936,-0.1530938148498535,0.3999175429344177,-13.850296020507812,-53.42958831787109,-143.0045928955078,-6.095058441162109,33.89439392089844,6.291427612304688,-0.94016295671463,0.0872464552521705,0.0859963670372963,53.99602508544922,82.02483367919922,-63.98346710205078,65.94255151468226,0.864835312890223,35.00802390977086,0.9481105970698132,67.84632110595703,135.4544219970703,79.02112579345703
3734.485,-28.543132781982425,-40.71827697753906,-11.220083236694336,0.7750431895256042,-0.1579267531633377,0.351938247680664,-14.394979476928713,-54.27406311035156,-143.0493927001953,-8.111706733703613,32.27810287475586,4.259823799133301,-0.9600635766983032,0.0245203766971826,0.0167955309152603,58.04568862915039,82.38227081298828,-59.80656814575195,50.976256991542805,0.8657328312910814,33.55326824806486,0.9605235083197268,72.4406681060791,136.65633392333984,83.24282455444336
3756.837,-21.86898803710937,-24.7734603881836,-7.836567401885986,0.7795456647872925,-0.1659305691719055,0.3622402548789978,-14.82375717163086,-54.82288360595703,-143.11952209472656,-2.1116299629211426,23.888595581054688,4.4492621421813965,-0.9504938125610352,0.0504552647471427,-0.0336617641150951,61.68627548217773,82.60909271240234,-56.16841125488281,33.96157779044485,0.8754669608438548,24.39098016778621,0.9524270763795288,76.5100326538086,137.43197631835938,86.95111083984375
3774.456,-23.726482391357425,-6.079193115234375,-5.840485095977783,0.7702488899230957,-0.1568532884120941,0.3603458404541015,-15.238430976867676,-55.04137802124024,-143.21519470214844,2.90405797958374,12.457714080810549,2.3857500553131104,-0.9653419256210328,0.0829354971647262,-0.0553155578672885,64.01083374023438,82.72810363769531,-53.95882797241211,25.179631088561354,0.8647169659755853,13.012301725461022,0.9704757292142102,79.24926471710205,137.76948165893555,89.25636672973633
3794.465,-24.347110748291016,13.898350715637209,-4.325870990753174,0.78509920835495,-0.1889791637659073,0.2722558379173279,-15.501256942749023,-54.79634475708008,-143.48854064941406,10.165332794189451,1.31700599193573,5.927787780761719,-0.9604386687278748,0.0790657401084899,0.0059244027361273,64.92310333251953,82.66165924072266,-53.27144241333008,28.366513959826666,0.8521837434364123,11.8409105888511,0.9637058296982828,80.42436027526855,137.4580039978027,90.21709823608398
3816.778,-12.494519233703612,30.34026908874512,-1.3126860857009888,0.8162862062454224,-0.1866098344326019,0.2288231998682022,-15.488100051879885,-54.218658447265625,-143.81097412109375,19.57887840270996,-9.748495101928713,5.495384216308594,-0.9549066424369812,0.0543636307120323,0.0746132582426071,64.13677978515625,82.50244140625,-54.47649002075195,32.83851525295328,0.8680474973245591,22.551383193615514,0.9593587641857664,79.62487983703613,136.72109985351562,89.3344841003418
3837.053,-11.488667488098145,47.78827667236328,1.3410156965255735,0.7820494174957275,-0.1498572528362274,0.2851305305957794,-15.40600299835205,-53.29024887084961,-144.1968231201172,28.08749771118164,-18.1745719909668,3.218904495239258,-0.9575101137161256,0.0619009360671043,0.0557555891573429,62.41345977783203,82.30720520019531,-56.81458282470703,49.16815220307503,0.8457883346977886,33.60928355201789,0.961127478265466,77.81946277618408,135.59745407104492,87.38224029541016
3856.975,-13.307901382446287,68.19715881347656,4.067371368408203,0.7444013953208923,-0.1533256471157074,0.3101635575294494,-15.302123069763184,-51.95351791381836,-144.66143798828125,35.06013870239258,-23.38225173950196,0.0781386494636535,-0.9480702877044678,0.0902003943920135,0.009799325838685,60.309200286865234,82.10672760009766,-59.68737411499024,69.60241532651008,0.8208797864720911,42.14201143620209,0.952401915350552,75.61132335662842,134.06024551391602,84.97406387329102
3879.191,-16.90111541748047,91.13609313964844,6.610208511352539,0.698297381401062,-0.1382678896188736,0.3348127007484436,-15.204964637756348,-50.16033935546875,-145.21971130371094,39.57871627807617,-27.158700942993164,-5.992224216461182,-0.951616644859314,0.1046495959162712,-0.0090332608669996,57.64080429077149,81.95620727539062,-63.21492004394531,92.9254003579066,0.7866617994752918,48.3733043133476,0.9573961439762684,72.84576892852783,132.11654663085938,82.00479125976562
3894.614,-19.28659439086914,113.25542449951172,8.078581809997559,0.6928837299346924,-0.1738834679126739,0.2277306914329528,-15.08820629119873,-47.93206787109375,-145.88356018066406,46.20405197143555,-28.73367118835449,-5.586954116821289,-0.9836345911026,0.1397582739591598,0.0889799520373344,54.855804443359375,81.71261596679688,-66.99356842041016,115.16955928466224,0.7497896981434731,54.69599925810896,0.997490258507916,69.9440107345581,129.64468383789062,78.8899917602539
3916.857,-3.3148269653320312,132.25575256347656,11.534171104431152,0.661950945854187,-0.1951091140508651,0.2552125155925751,-14.669920921325684,-45.31724166870117,-146.54879760742188,54.80890655517578,-28.311777114868164,4.086155891418457,-0.9581472277641296,0.1102594286203384,0.1499720066785812,53.018287658691406,81.2882080078125,-69.96508026123047,132.79913127354382,0.7357853282160882,61.82450671978659,0.976060886655628,67.68820858001709,126.60544967651369,76.5837173461914
3940.525,-5.832590103149414,147.6048126220703,14.17202377319336,0.5104339122772217,-0.1040420085191726,0.4807358384132385,-14.320258140563965,-42.40843963623047,-147.20361328125,58.11161422729492,-22.944011688232425,-3.267586708068848,-0.9499804973602296,0.085183173418045,0.109193243086338,51.48231506347656,81.06503295898438,-72.7218017578125,148.3982684344255,0.7088543324789751,62.56248479197769,0.9600220220047402,65.80257320404053,123.47347259521484,74.4818115234375
3962.594,-35.259368896484375,168.01220703125,18.10410118103028,0.4732170104980469,-0.1284452676773071,0.4796348214149475,-14.612512588500977,-39.09191131591797,-147.84014892578125,50.69329833984375,-6.35488224029541,-17.717342376708984,-0.95732182264328,0.0875042751431465,-0.023879300802946,50.731712341308594,81.32046508789062,-74.54962921142578,172.62410980527304,0.6859169685371198,54.07494101479867,0.9616092196335352,65.34422492980957,120.4123764038086,73.29051971435547
3984.52,-48.154903411865234,189.8119201660156,24.903440475463867,0.5395576357841492,-0.1501007825136184,0.3452334403991699,-15.201108932495115,-35.30850601196289,-148.45944213867188,39.29530334472656,8.54513931274414,-28.411937713623047,-1.039920687675476,0.0906751155853271,0.0129306642338633,50.10014343261719,81.90763854980469,-76.02701568603516,197.40223176861736,0.6579048682097043,49.23797797910755,1.0439464619028012,65.3012523651123,117.21614456176758,72.43242645263672
3994.517,-35.63521957397461,212.648666381836,37.2899284362793,0.4436797797679901,-0.193356767296791,0.3965008854866028,-15.654583930969238,-31.00936508178711,-148.94729614257812,55.86678314208984,-1.242018699645996,-20.16140556335449,-1.093665361404419,0.077913761138916,0.2857481837272644,49.0020866394043,82.18414306640625,-78.30352783203125,218.8146771833224,0.6256608814894038,59.40641668528431,1.1330606786108592,64.65667057037354,113.19350814819336,70.64376831054688
4016.86,-26.64128494262696,222.29293823242188,38.771759033203125,0.1782104671001434,-0.200350746512413,0.6702409982681274,-15.93224048614502,-26.512086868286133,-149.47396850585938,75.1903305053711,6.729461669921875,-8.903327941894531,-0.9811360836029052,0.0258563719689846,0.1821290850639343,50.11984634399414,82.42233276367188,-78.7215347290039,227.21610363248092,0.7218880716368629,76.01408227634407,0.9982322225540866,66.05208683013916,108.934419631958,70.75243377685547
4037.864,-53.21532440185547,233.6859741210937,44.07806015014648,0.237919345498085,-0.0946542471647262,0.5813689827919006,-16.72538185119629,-21.78693199157715,-150.00926208496094,62.02349472045898,18.52182579040528,-32.703182220458984,-0.9523302912712096,0.0593205615878105,-0.1507624089717865,50.326168060302734,83.18421173095703,-79.80755615234375,243.68808062504647,0.6352597387061827,72.52220387780194,0.9660130520126404,67.05154991149902,104.97114372253418,70.20170593261719
4059.14,-65.32015228271484,251.10060119628903,50.23902893066406,0.1943405717611313,-0.2312904596328735,0.6306787133216858,-17.8348445892334,-16.687437057495117,-150.5878448486328,66.888671875,30.478689193725582,-40.26105499267578,-1.1330981254577637,0.2223017960786819,0.231549933552742,51.47298049926758,84.19977569580078,-80.06135559082031,264.276737991203,0.6992990590489354,83.80929226101604,1.1776862155022385,69.30782508850098,100.8872127532959,70.5264892578125
4082.676,-9.405969619750977,256.4732971191406,60.05932235717773,-0.0834591016173362,-0.4396129250526428,0.5613802671432495,-17.91162109375,-11.44041347503662,-151.04576110839844,49.576210021972656,3.71722936630249,-25.14669418334961,-1.0823849439620972,0.1844807416200637,0.2704331576824188,49.725196838378906,84.61478424072266,-82.84581756591797,263.5794882035665,0.7178946648735729,55.713325359875554,1.1308069701406185,67.6368179321289,96.05519771575928,68.19994354248047
4104.250999999999,31.56987953186035,246.0940704345703,52.31013870239258,-0.1052849516272544,-0.1345793753862381,0.8633000254631042,-17.205738067626953,-6.433866024017334,-151.5237579345703,13.749361991882324,-14.32291030883789,-20.672016143798828,-0.9030036926269532,0.1399620920419693,0.0651792958378791,45.21586227416992,84.69163513183594,-87.65743255615234,253.5651778296361,0.8800474210422412,28.662221936694166,0.916107742960728,62.42160034179688,91.12550115585329,63.86632537841797
4114.249,-13.93612003326416,250.19618225097656,44.803260803222656,-0.1976420283317566,-0.2912742793560028,0.8972511291503906,-17.44230079650879,-1.3924932479858398,-152.18975830078125,9.861124038696287,9.250299453735352,-12.826483726501465,-0.8343395590782166,0.1068036705255508,0.1093400716781616,44.8718376159668,84.9621810913086,-88.21865844726562,254.55780725239407,0.9638270933829888,18.63675111376812,0.848224483939923,62.31413841247559,86.35467433929443,63.971099853515625
4142.231,32.69834899902344,255.1558837890625,39.77945327758789,-0.3948514461517334,-0.5413683652877808,0.851752758026123,-16.80394172668457,3.714373588562012,-152.95567321777344,5.587411403656006,14.10866928100586,-21.36072540283203,-1.0453524589538574,0.1075216084718704,0.1447746008634567,43.56447982788086,85.4306869506836,-89.63174438476562,260.30004218690266,1.0837297321138637,26.20218129869529,1.060793262037626,60.36842155456543,81.71631336212158,63.32392883300781
4162.29,87.3184585571289,253.58384704589844,33.62604904174805,-0.4173238575458526,-0.2755413055419922,0.7266089916229248,-15.141324996948242,8.773181915283203,-153.7098388671875,-4.277835369110107,11.869571685791016,-30.63266372680664,-1.1652005910873413,0.1483494937419891,0.1320783048868179,39.77901840209961,85.98711395263672,-93.33897399902344,270.2961188429251,0.8820673669533525,33.1292422860674,1.1820087429395645,54.92034339904785,77.21393203735352,60.37086486816406
4183.676,44.87972640991211,249.521240234375,23.60338592529297,-0.4712417125701904,-0.0781612321734428,0.957772970199585,-14.404321670532228,13.718530654907228,-154.5177459716797,-24.00875473022461,17.07313346862793,-18.104537963867188,-0.9846937656402588,0.1008302569389343,0.0945911407470703,38.523807525634766,86.46741485595703,-94.13031005859376,254.62159962946492,1.0702836036891772,34.57869987461608,0.994352068793039,52.92812919616699,72.7488842010498,60.38743591308594
4204.119000000001,11.467304229736328,251.43826293945312,13.942764282226562,-0.6690760254859924,-0.4371547698974609,1.0797436237335205,-14.462443351745604,18.655271530151367,-155.4997100830078,-31.772937774658203,16.450592041015625,1.5306028127670288,-0.9025708436965942,0.0413613244891166,0.1110069155693054,41.19210815429688,86.68009948730469,-90.83719635009766,252.08550099546903,1.3433589668132002,35.81178993435932,0.910311717138084,55.65455150604248,68.02482795715332,64.66251373291016
4214.386,90.16183471679688,241.9179077148437,5.302267074584961,-0.8240159749984741,-0.4991686344146728,0.7859224677085876,-13.067750930786133,23.37516593933105,-156.635009765625,-23.943836212158203,15.297700881958008,-2.6048641204833984,-0.9931543469429016,0.0472980625927448,0.0360276103019714,43.637351989746094,86.96294403076172,-87.94509887695312,258.2276990347025,1.243320464677249,28.53265255658329,0.9949324862927532,56.70510292053223,63.58777809143066,68.68991088867188
4233.993,96.9569091796875,231.6172332763672,-5.173323154449463,-0.7927807569503784,-0.0073661813512444,0.7128763794898987,-11.650047302246094,27.883394241333008,-157.83578491210938,16.210309982299805,30.27158737182617,4.979276180267334,-0.9023185968399048,-0.041152112185955,-0.032125636935234,53.83974838256836,87.36373901367188,-78.10162353515625,251.1452732199785,1.0661839999048666,34.69778585171873,0.9038276401443996,65.48979568481445,59.48034477233887,79.73416137695312
4256.945,20.691808700561523,232.88839721679688,-12.04408836364746,-0.8817141056060791,-0.140719935297966,0.9359856843948364,-11.922317504882812,32.38966369628906,-159.19940185546875,43.14052581787109,26.473613739013672,-2.287334680557251,-0.9180417060852052,-0.1980817019939422,0.0229406468570232,63.62174606323242,87.7210922241211,-69.21690368652344,234.11581870950224,1.2935575231148642,50.667436210901535,0.939448353053466,75.54406356811523,55.33142852783203,89.98249816894531
4274.217000000001,29.692779541015625,232.27001953125,-20.809261322021484,-0.9786962270736694,-0.4214801788330078,0.9649933576583862,-12.28653335571289,36.84131622314453,-160.8831329345703,54.9682731628418,13.708633422851562,-9.385400772094728,-1.1514854431152344,0.0568675398826599,0.0138259893283247,68.89281463623047,88.04975891113281,-65.07865142822266,235.08306720537485,1.4376035706557444,57.42406666616144,1.1529717259237109,81.17934799194336,51.20844268798828,95.80448150634766
4296.652,81.25756072998047,222.772216796875,-28.67163848876953,-1.0518512725830078,-0.2758001983165741,0.5950908064842224,-11.87179946899414,41.07633590698242,-162.80490112304688,53.59834671020508,20.530000686645508,9.55062770843506,-1.1304069757461548,0.2404133677482605,-0.0693816021084785,81.06818389892578,87.93928527832031,-53.88327026367188,238.8562634849901,1.2395926415512464,58.18486218842616,1.1577704111432314,92.93998336791992,46.86294937133789,108.921630859375
4321.386,50.50865936279297,222.0948181152344,-37.071380615234375,-1.1013838052749634,-0.0631217211484909,0.4870103597640991,-12.412015914916992,45.26602554321289,-165.06564331054688,63.94587326049805,27.48748016357422,27.05981636047364,-0.9147059321403505,-0.0359789207577705,-0.051175870001316,95.0047607421875,87.34435272216797,-41.01421737670898,230.76290898882613,1.2059061857044533,74.6784435714425,0.9168426226468928,107.41677665710448,42.07832717895508,124.05142593383788
4334.752,10.659101486206056,228.15530395507807,-40.28886795043945,-1.1004142761230469,-0.169551208615303,0.7675764560699463,-14.175949096679688,49.5606575012207,-167.7574005126953,74.39069366455078,27.43095588684082,-5.364887237548828,-1.065843939781189,-0.2255610525608062,0.014682657085359,107.4194793701172,87.3460464477539,-29.945575714111328,231.93027410852443,1.3523434502193654,79.46832488375766,1.089548839116316,121.59542846679688,37.7853889465332,137.81182479858398
4356.745,3.319897651672364,227.66070556640625,-37.79755401611328,-1.0736209154129028,-0.2800931632518768,0.8361635804176331,-16.59276008605957,53.744239807128906,-170.89146423339844,69.9729995727539,9.463241577148438,-11.60571575164795,-1.2391669750213623,0.009787043556571,0.1043035387992858,113.05306243896484,87.56377410888672,-25.62392807006836,230.8009394890161,1.3893464590696294,71.55743321601284,1.2435874743705109,129.6458225250244,33.81953430175781,145.26753616333008
4379.052,33.384613037109375,228.1211700439453,-30.66527938842773,-1.1140034198760986,-0.2716636657714844,0.3581726849079132,-18.8298282623291,57.90449142456055,-174.349365234375,77.77360534667969,-1.721704602241516,17.991119384765625,-1.090065360069275,0.0499462783336639,0.0850093811750412,110.3294448852539,87.22899627685547,-29.81974983215332,232.58151252803063,1.2012878252151675,79.84596628556356,1.0945152876182704,129.159273147583,29.32450485229492,144.52961540222168
4401.5740000000005,10.251416206359863,237.4190673828125,-29.82445526123047,-1.1607885360717771,-0.0797501057386398,0.287565678358078,-22.4840145111084,62.14493560791016,-178.79966735839844,105.27442169189452,3.348094701766968,16.444740295410156,-0.988771915435791,-0.1195360273122787,0.0824122875928878,111.29159545898438,86.8889389038086,-30.85621833801269,239.50449520372183,1.1985341564638556,106.60367293896736,0.9993750785998508,133.77560997009277,24.74400329589844,147.94344902038574
4424.709,-26.857391357421875,236.1632232666016,-24.572689056396484,-1.315449833869934,-0.1725776195526123,0.577296793460846,-28.02187156677246,66.2330322265625,175.68002319335938,118.45169067382812,-1.5357930660247805,1.305486798286438,-1.0463193655014038,-0.116662822663784,0.019291928038001,113.20684814453124,86.91484832763672,-31.240449905395508,238.95230599778435,1.4468803986297756,118.46883969892848,1.052979870321634,141.2287197113037,20.68181610107422,-206.92047309875488
4434.6810000000005,-15.663562774658203,227.1678924560547,-17.718175888061523,-1.2996275424957275,-0.248528704047203,0.3067054450511932,-35.02310943603516,69.96237182617188,168.4586944580078,93.23323059082033,-25.3527946472168,-2.8864572048187256,-1.0041424036026,0.0869577899575233,-0.058543387800455,107.24439239501952,87.13590240478516,-39.06956100463867,228.3955610744692,1.3582586263200822,96.66194244903352,1.009599401843255,142.2675018310547,17.17353057861328,-207.52825546264648
4456.4490000000005,0.5501302480697632,222.56887817382807,-18.29579162597656,-1.301361322402954,-0.1815515756607055,0.0034614454489201,-44.38056182861328,73.17146301269531,158.5735626220703,57.60188293457031,-26.14719581604004,-9.564987182617188,-0.9801297187805176,0.2290109544992447,-0.0604660548269748,99.6131820678711,87.45116424560547,-47.85578536987305,223.3202726267084,1.3139688914414398,63.977665997236215,1.0083434071306117,143.99374389648438,14.279701232910156,-206.42934799194336
4476.609,-9.543157577514648,216.8246459960937,-23.06775665283203,-1.338158130645752,-0.1460670530796051,0.0219903010874986,-57.6922492980957,75.59742736816406,144.9200439453125,41.37350845336914,-13.340901374816896,-11.304911613464355,-0.9193702340126038,0.1690037995576858,-0.1195626854896545,95.4877471923828,87.74250030517578,-52.830196380615234,218.25700530538515,1.346286128559086,44.917122323473045,0.9423901247438994,153.17999649047852,12.14507293701172,-197.7502403259277
4499.111,-23.99093246459961,197.8602752685547,-19.05663299560547,-1.3468470573425293,-0.1810103952884674,0.1706414520740509,-73.41372680664062,76.94811248779297,129.19654846191406,26.721662521362305,8.985912322998047,-18.252084732055664,-0.9444851279258728,-0.1254612505435943,-0.2949471771717071,101.51750946044922,88.13679504394531,-47.34554672241211,200.2184023285532,1.3696277831004515,33.58470582345968,0.9973898533585918,174.93123626708984,11.188682556152344,-176.54209518432617
4518.994000000001,-26.07631492614746,173.00006103515625,-12.343253135681152,-1.2415353059768677,-0.2091277539730072,0.0404723286628723,-89.00452423095703,77.2721939086914,113.69042205810548,15.977404594421388,21.282012939453125,-46.97607421875,-0.9795516729354858,-0.2559085786342621,-0.3739090263843536,124.9894790649414,89.12686920166016,-24.17449188232422,175.38914224166476,1.2596754910913623,53.99030543842474,1.0792676408477244,213.99400329589844,11.85467529296875,-137.8649139404297
4541.424,-29.49579429626465,152.44161987304688,-9.957281112670898,-1.178327560424805,-0.212642565369606,-0.051731739193201,-102.7013931274414,76.78617858886719,100.15222930908205,23.904464721679688,26.552703857421875,-40.33427810668945,-1.0027084350585938,-0.134334534406662,-0.2805465459823608,162.50082397460938,89.23126983642578,13.511765480041504,155.58790697815442,1.1984777315843596,53.88249721530864,1.049845863607864,265.2022171020508,12.445091247558594,-86.64046382904053
4565.794000000001,-31.83942604064941,136.01551818847656,-7.089132308959961,-1.1382346153259275,-0.2122717201709747,-0.0186710823327302,-113.63099670410156,75.8316421508789,89.48646545410156,22.88654136657715,28.47852325439453,-26.672021865844727,-1.0303232669830322,-0.0451343283057212,-0.1823974251747131,-177.00782775878906,88.42566680908203,33.860084533691406,139.8721774892052,1.1580094697479737,45.2351280852308,1.0473165532868094,-63.3768310546875,12.594024658203123,-55.62638092041016
4585.008,-35.99284362792969,119.84151458740234,-4.883373260498047,-1.1260647773742676,-0.1831308603286743,0.130463033914566,-122.14989471435548,74.62708282470703,81.31446838378906,25.539268493652344,38.25466537475586,-33.69612503051758,-0.9886468648910522,-0.0023183084558695,-0.1306587904691696,-164.30189514160156,87.34619903564453,46.17001724243164,125.2250803370815,1.1482941252422536,57.01844000143885,0.9972460666956122,-42.152000427246094,12.7191162109375,-35.14445114135742
4595.124,-31.04635238647461,109.13632202148438,-3.034497022628784,-1.085970163345337,-0.2208303362131118,0.0098409280180931,-128.68370056152344,73.34183502197266,75.10675048828125,28.78085899353028,39.81269454956055,-34.808895111083984,-1.0363969802856443,-0.0325879231095314,-0.0876172184944152,-157.1735076904297,86.26670837402344,52.775238037109375,113.50692028710247,1.1082391785767869,60.20836877508414,1.04060436788171,-28.48980712890625,12.92487335205078,-22.331512451171875
4625.085999999999,-23.73184585571289,103.23170471191406,0.4374761581420898,-1.085432529449463,-0.2196764945983886,-0.08686413615942,-133.99627685546875,72.03803253173828,69.927978515625,44.87521362304688,31.714784622192383,-33.31037521362305,-1.0742270946502686,-0.0530428513884544,-0.0221398454159498,-151.7138671875,85.38815307617188,57.40311813354492,105.92533573624432,1.1108406350223317,64.25880062854033,1.0757637137026033,-17.71759033203125,13.350120544433594,-12.524860382080078
4644.923000000001,-21.42105865478516,98.27506256103516,1.790071964263916,-1.0425022840499878,-0.1942004859447479,-0.0161061808466911,-138.48049926757812,70.66014099121094,65.53768920898438,59.86253356933594,21.50027656555176,-24.697513580322266,-1.0192382335662842,-0.0298757031559944,0.0517837852239608,-147.81893920898438,84.81575012207031,60.194766998291016,100.59847927729506,1.0605584614023331,68.23307112233253,1.0209900561780734,-9.33843994140625,14.155609130859377,-5.342922210693359
4655.321,-17.490039825439453,88.26097106933594,5.0078630447387695,-1.0329174995422363,-0.2205237448215484,0.0746267810463905,-142.13006591796875,69.36376953125,61.95874786376953,65.49788665771484,24.98888397216797,-24.796836853027344,-0.9904951453208924,-0.02364232391119,-0.0468589551746845,-145.16555786132812,84.13371276855469,61.62471771240234,90.1164757381938,1.0588288054922057,74.35926705338743,0.9918847483776732,-3.035491943359375,14.769943237304688,-0.3340301513671875
4676.598,-10.919533729553224,77.02052307128906,6.839301109313965,-1.0407921075820925,-0.2152619063854217,-0.033373974263668,-144.98114013671875,68.20466613769531,59.0445442199707,68.17967224121094,22.89679908752441,-27.093524932861328,-1.027233600616455,-0.0509971678256988,-0.0820899829268455,-142.34658813476562,83.43875122070312,63.07561874389648,78.0908011913675,1.0633436517438808,76.85564526214705,1.031769522063246,2.634552001953125,15.234085083007812,4.031074523925781
4701.337,-15.260689735412598,67.18424224853516,3.2349095344543457,-1.0091196298599243,-0.1865486949682235,-0.0786560326814651,-147.2349090576172,67.12448120117188,56.84654235839844,66.03955078125,15.967022895812988,-19.86275100708008,-1.009962797164917,0.0526523739099502,-0.0555585771799087,-140.34487915039062,82.97280883789062,63.7565803527832,68.97155716240201,1.0292276786212882,70.78627667220515,1.0128592595389512,6.8900299072265625,15.84832763671875,6.910037994384766
4715.18,-8.951658248901367,57.06225204467773,-2.38925838470459,-0.9773122668266296,-0.2236094325780868,-0.0688536688685417,-148.71603393554688,66.13068389892578,55.3359489440918,30.7592716217041,10.714569091796877,-11.74419403076172,-0.9405726194381714,0.1842281520366668,-0.0383612029254436,-139.40963745117188,82.65240478515625,64.07310485839844,57.80952645926391,1.0049284914581524,34.624570393765744,0.9592124093909103,9.306396484375,16.52172088623047,8.73715591430664
4736.299,3.5162081718444824,41.87642288208008,-5.194687843322754,-0.9722800254821776,-0.2163798660039901,-0.0210084281861782,-149.40126037597656,65.35839080810547,54.41135787963867,-15.262693405151367,14.827123641967772,-18.039045333862305,-0.9634746313095092,0.1268785148859024,-0.0772220641374588,-139.17881774902344,82.19357299804688,64.6065673828125,42.34363346591918,0.99628813523919,27.896246378876675,0.9748562816673526,10.222442626953123,16.835182189941406,10.195209503173828
4758.644,10.549653053283691,28.28870964050293,-6.171162128448486,-0.9585053324699402,-0.2220222651958465,-0.0502161793410778,-149.57864379882812,64.80793762207031,53.901554107666016,-28.417787551879883,13.262752532958984,-25.38197898864746,-0.993759274482727,-0.0506805479526519,-0.0734802410006523,-138.34930419921875,81.68319702148438,66.01238250732422,30.816059363340703,0.9851639575642324,40.34496389234263,0.9977601712730024,11.229339599609377,16.875259399414062,12.110828399658203
4775.035,11.950425148010254,19.687610626220703,-5.4546308517456055,-0.9500622153282166,-0.2058035880327224,-0.1118376553058624,-149.56126403808594,64.4129638671875,53.57393264770508,-18.88822364807129,8.57957935333252,-18.70096206665039,-1.0058915615081787,-0.1649965196847915,-0.0335299558937549,-137.28182983398438,81.30937957763672,67.46151733398438,23.66786156619751,0.978509576338328,27.930273122151632,1.0198852597050774,12.279434204101562,16.89641571044922,13.887584686279297
4796.47,10.00026512145996,10.58619785308838,-6.092507362365723,-0.9427513480186462,-0.1841598749160766,-0.068559244275093,-149.3670196533203,64.1685562133789,53.48408889770508,4.174531936645508,5.520995140075684,-7.811186790466309,-0.9723079204559326,-0.1208259537816047,-0.0519498810172081,-136.75054931640625,81.13839721679688,67.90811157226562,15.785801640863925,0.9630136726421132,10.436605928287603,0.9811627762131402,12.616470336914062,16.96984100341797,14.424022674560549
4818.526999999999,12.197711944580078,0.3717211484909057,-6.6956048011779785,-0.9377260804176332,-0.2229135781526565,-0.0593392848968505,-148.89471435546875,64.09342956542969,53.654258728027344,13.479926109313965,5.691473484039307,-0.8708341121673584,-0.9754828214645386,-0.0149975540116429,-0.0788511410355568,-137.0543975830078,81.09271240234375,67.32991027832031,13.919535802200606,0.9656820470280616,14.658090952883365,0.9787794256324344,11.840316772460938,16.999282836914062,13.675651550292969
4842.269,21.167556762695312,-11.616647720336914,-6.825829029083252,-0.9370515942573548,-0.2152768671512603,-0.0896398499608039,-147.98182678222656,64.22000885009766,54.11396026611328,9.431544303894045,-0.4880926609039306,-0.2419091463088989,-0.9830843210220336,0.0240497011691331,-0.0782253146171569,-137.06622314453125,81.16292572021484,67.1344223022461,25.09190916400369,0.9656319808973328,9.447263224712875,0.9864848555414476,10.915603637695312,16.942916870117188,13.020462036132812
4863.685,21.053709030151367,-21.77095413208008,-7.897975444793701,-0.9264188408851624,-0.1808595210313797,-0.0564550794661045,-146.79693603515625,64.50166320800781,54.88936614990234,-3.5445032119750977,-6.095420837402344,1.811274528503418,-0.9572777152061462,0.0180812161415815,-0.0255425423383712,-136.89208984375,81.36299896240234,67.38873291015625,31.29873997262472,0.9455946335995312,7.279998188347697,0.9577891082469908,9.90484619140625,16.86133575439453,12.499366760253906
4873.610000000001,17.676908493041992,-31.95803451538086,-7.83387279510498,-0.945271134376526,-0.1863446533679962,-0.032707929611206,-145.41610717773438,64.94502258300781,55.95573806762695,-18.43331527709961,-6.559203147888184,3.438638925552368,-0.958057463169098,-0.0035156367812305,-0.029387928545475,-137.0730438232422,81.58013153076172,67.58397674560547,37.35182227050697,0.9640184935901251,19.8654095276323,0.9585145344647512,8.343063354492188,16.635108947753906,11.628238677978516
4895.954,20.13249015808105,-41.14919662475586,-6.714043617248535,-0.974665641784668,-0.1972715705633163,-0.0492390617728233,-143.74595642089844,65.53829956054688,57.27889633178711,-23.49578094482422,-10.461921691894531,7.959067821502685,-0.9839719533920288,-0.0276810973882675,-0.045947216451168,-137.41720581054688,81.89881134033203,67.71764373779297,46.29958881591029,0.9956473627908148,26.923043815322547,0.9854329986936474,6.3287506103515625,16.360511779785156,10.43874740600586
4916.013000000001,25.64453315734864,-54.02978515625,-3.931771039962769,-0.9963911771774292,-0.1857886612415313,-0.0411991737782955,-141.63050842285156,66.35054016113281,58.95749282836914,-23.87795639038086,-12.110438346862791,13.257408142089844,-1.011144757270813,-0.0842825099825859,-0.0857084244489669,-138.11521911621094,82.27383422851562,67.50127410888672,59.935954054303465,1.0144013882694354,29.876050424713856,1.0182647964388931,3.515289306640625,15.923294067382812,8.543781280517578
4939.081,22.71776390075684,-68.3648452758789,-2.4891130924224854,-1.0324150323867798,-0.1434547156095504,-0.0247704815119504,-139.0500946044922,67.37187957763672,61.1994743347168,-9.365123748779297,-14.312853813171388,15.807143211364746,-1.0190198421478271,-0.0741216167807579,-0.1250931173563003,-138.77011108398438,82.7005844116211,67.03954315185547,72.08359418225663,1.042628232536961,23.290107419498074,1.0293414111824577,0.2799835205078125,15.328704833984377,5.840068817138672
4961.994,12.514378547668455,-75.72370910644531,0.3422820270061493,-1.0687601566314695,-0.1384406089782714,-0.0387088619172573,-136.30349731445312,68.49708557128906,63.82855224609375,5.856677532196045,-23.29903030395508,20.24541473388672,-1.051769733428955,-0.0166877284646034,-0.0326494239270687,-138.669189453125,83.38085174560547,67.04092407226562,76.75159248027303,1.0783841850695548,31.41691109208263,1.0524086836021893,-2.365692138671875,14.883766174316406,3.212371826171875
