Timestamp (ms),Wrist Gyroscope X (deg/s),Wrist Gyroscope Y (deg/s),Wrist Gyroscope Z (deg/s),Wrist Accelerometer X (g),Wrist Accelerometer Y (g),Wrist Accelerometer Z (g),Wrist Roll (deg),Wrist Pitch (deg),Wrist Yaw (deg),Arm Gyroscope X (deg/s),Arm Gyroscope Y (deg/s),Arm Gyroscope Z (deg/s),Arm Accelerometer X (g),Arm Accelerometer Y (g),Arm Accelerometer Z (g),Arm Roll (deg),Arm Pitch (deg),Arm Yaw (deg),Wrist Gyroscope Magnitude (deg/s),Wrist Accelerometer Magnitude (g),Arm Gyroscope Magnitude (deg/s),Arm Accelerometer Magnitude (g),Difference Roll (deg),Difference Pitch (deg),Difference Yaw (deg)
0.0,-1.253289,-15.92597,-4.688187,-0.985051,0.098472,0.189747,20.276596,78.06469,170.249573,6.318392,10.003928,-11.601821,-1.000026,0.14018,0.031458,84.629028,82.687477,134.739517,16.648914412218893,1.007981215794223,16.571146713818237,1.0102930460217967,64.35243200000001,4.622787000000002,-35.51005599999999
19.986,-2.6120145,-14.6060545,-5.3677415,-0.984736,0.0861335,0.1944975,19.764491,77.9592285,169.8098375,5.0771135,8.9010885,-11.8047815,-1.008054,0.142243,0.0463585,85.088619,82.810642,135.1646955,15.778849660732646,1.007448880601145,15.631996809091818,1.0190952107076403,65.324128,4.8514135,-34.64514199999999
39.971,-2.5639610000000004,-13.057893,-6.017176333333334,-0.9881463333333332,0.0900646666666666,0.213157,19.27757633333333,77.86727633333334,169.38250733333334,5.978499333333335,6.990646666666667,-11.232315,-1.023618666666667,0.1428646666666666,0.0642683333333333,85.29381533333333,82.91790766666666,135.30817133333335,14.604412916491947,1.0148796612953128,14.518143660815245,1.0355365306929865,66.016239,5.050631333333333,-34.074335999999995
59.957,-3.95457475,-11.15964725,-6.4883690000000005,-0.9902455,0.0890305,0.22453375,18.7862595,77.80010200000001,168.9741975,5.79565925,4.7635865,-10.85685575,-1.02861325,0.1421649999999999,0.073947,85.20820975,83.01711075,135.1655005,13.500937762908586,1.0192781686515031,13.19669425505497,1.041020779864438,66.42195025,5.217008749999998,-33.808696999999995
79.942,-5.115769800000001,-9.2343912,-6.88596,-0.9894714,0.0837694,0.2234822,18.295537000000003,77.7626936,168.5830446,5.0509144,2.6984196000000003,-10.3842026,-1.0279828,0.1381351999999999,0.076352,84.8793104,83.10773,134.79337460000002,12.604028189544383,1.017848347010084,11.85853567063144,1.040028652720145,66.5837734,5.345036399999998,-33.789669999999994
99.927,-6.40948,-5.7224926,-7.814664,-0.9875304,0.0779624,0.228994,17.3245852,77.6874708,167.798337,4.016184600000001,-1.0760155999999998,-9.581988,-1.027796,0.1342738,0.0803308,84.29769280000001,83.2889908,134.1318084,11.614530935872992,1.0167264522839563,10.4451923077014,1.0396379698775338,66.97310759999999,5.601519999999999,-33.66652859999999
119.913,-7.779649000000001,-2.7162314,-8.4052016,-0.9849618,0.0785284,0.2341988,16.3728442,77.6677672,167.058069,3.7642032,-4.527098,-8.4915168,-1.0229512,0.1293134,0.0736616,83.1682938,83.4400224,132.9241882,11.77065272269085,1.0154632120304703,10.332942446233622,1.033720051230293,66.7954496,5.772255199999998,-34.13388079999999
139.898,-9.970270800000002,-0.6266307999999999,-8.8862528,-0.979949,0.0690978,0.2279994,15.3838356,77.6918854,166.323685,2.327276,-7.1263796,-8.0643792,-1.0095006,0.121474,0.0616672,81.5900392,83.5753098,131.2937622,13.370282525449833,1.0084930713526,11.010708953780624,1.0186511854566311,66.2062036,5.883424399999998,-35.029922799999994
159.883,-11.1008966,0.5179712000000001,-8.988906199999999,-0.9740038,0.0592884,0.2189893999999999,14.381309800000002,77.74073340000001,165.5975618,0.8057076000000001,-8.492390799999999,-7.8920748,-0.9979936,0.1129802,0.0540442,79.72438819999999,83.7009278,129.4049972,14.29330732057208,1.0000774340526637,11.621304181778283,1.0058213195128844,65.3430784,5.960194399999997,-36.1925646
179.869,-11.6359306,0.8617406000000001,-9.1724436,-0.9687422,0.0533803999999999,0.2227198,13.3467242,77.79147040000001,164.8486726,-0.2546529999999999,-9.3122994,-8.075549800000001,-0.990677,0.1102812,0.0524644,77.6324112,83.8194994,127.3104338,14.84153628789438,0.9954471490124628,12.32875796006757,0.998176023890476,64.285687,6.028028999999998,-37.5382388
199.854,-12.247176,0.5502616,-9.3280476,-0.9668178,0.0464804,0.2236868,12.263551,77.83303839999999,164.0617066,-1.4874046,-9.7906868,-8.4743746,-0.9909626,0.1067013999999999,0.0619652,75.30191499999998,83.9332062,125.0021132,15.40482326517498,0.99344495090329,13.033991918093266,0.9986149154562832,63.038364,6.100167799999997,-39.0595934
219.84,-11.938304,0.5051802000000001,-9.7391598,-0.9643078,0.0361144,0.224622,11.1232224,77.87176980000001,163.2092316,-3.0992596000000003,-10.7586436,-9.001730799999999,-0.9925008000000002,0.1013328,0.0766362,72.6060256,84.0387374,122.3606764,15.415237365698395,0.9907819265167286,14.366105233349842,1.000599461076669,61.4828032,6.166967600000001,-40.84855520000001
239.826,-10.9605582,0.9542754,-10.2728004,-0.9632404,0.028033,0.2294089999999999,9.9401584,77.91461939999999,162.2889252,-4.1594296,-11.7988036,-9.281989,-0.9943868,0.0960222,0.0886787999999999,69.56417300000001,84.1269286,119.39441359999998,15.05240531120766,0.990578824002492,15.577802822761948,1.0029403274754285,59.6240146,6.212309200000002,-42.8945116
259.81,-9.8308776,1.5101552000000005,-11.1501846,-0.9639466,0.0220004,0.2305308,8.693062399999999,77.9665436,161.275348,-4.6295462,-13.215376799999998,-9.457452,-0.9968306,0.0882416,0.0943184,66.16000740000001,84.1918212,116.07468099999998,14.941664556813809,0.9913735496775976,16.897404543781764,1.0051635616383436,57.466945,6.225277600000004,-45.200667
279.796,-8.5952388,2.2860134000000003,-11.7803678,-0.9655904,0.0157128,0.2249489999999999,7.408966799999999,78.0341568,160.1939698,-4.7006950000000005,-14.1591098,-9.5059424,-0.9931342,0.080071,0.0908839999999999,62.5539054,84.23459299999999,112.5537552,14.760794450072186,0.991571361656336,17.69010640792188,1.000493281190154,55.1449386,6.200436200000001,-47.6402146
299.781,-8.019766999999998,2.6834546,-12.326253,-0.9665988,0.0087986,0.2210812,6.0740528,78.1078856,159.04441219999998,-5.039738399999999,-14.2601922,-9.6943248,-0.989057,0.0712748,0.0872315999999999,58.2884504,84.2632766,108.3928086,14.948381328577325,0.9915984835188284,17.964742637991517,0.9954512536546428,52.2143976,6.155391,-50.6516036
319.766,-7.748525000000001,2.4417514,-12.7260042,-0.9690386,-0.0009084,0.2156868,4.6817132,78.17486699999999,157.8264038,-5.7579614,-13.1431462,-10.1881334,-0.9858512,0.0591607999999999,0.0878948,54.0884718,84.29234779999999,104.3121766,15.098111553218986,0.9927524511048864,17.598138358777042,0.9915281562644198,49.4067586,6.117480799999998,-53.51422720000001
339.752,-7.260301200000001,1.9131972,-12.8310748,-0.9697314,-0.0094989999999999,0.210334,3.2660442,78.2277556,156.56817,-6.2953984,-11.5068386,-10.5376304,-0.982742,0.048869,0.088792,50.0530386,84.3266236,100.407625,14.866363965812363,0.99232535526558,16.82501203649426,0.9879544711113968,46.7869944,6.098867999999999,-56.160545
359.737,-6.212121600000001,1.3623092,-12.8141962,-0.966974,-0.0165818,0.2114418,1.8548802,78.26178420000001,155.2865142,-5.7295138,-9.7001768,-10.6346004,-0.9803182,0.0436232,0.0883183999999999,46.2802626,84.3649246,96.7551942,14.305592101751175,0.9899602555428576,15.492433120828014,0.9852547369122564,44.4253824,6.103140399999998,-58.53132000000001
379.723,-5.137845,0.5799084,-12.8544906,-0.965734,-0.0210232,0.212874,0.4527014,78.27261179999999,153.9841948,-5.2613956,-8.3250364,-10.625955,-0.9813936,0.0380674,0.0941152,42.687793,84.40186159999999,93.274498,13.855384281278663,0.9891407754057256,14.487906487241329,0.9866307292674196,42.2350916,6.129249799999999,-60.7096968
399.708,-3.5290608,0.2274816,-12.7965262,-0.963041,-0.0271656,0.2095883999999999,-0.9197628,78.2715072,152.6700316,-4.4667010000000005,-7.3319928,-10.394823,-0.9793656,0.033942,0.0967076,39.8558618,84.4326554,90.5260544,13.276185476096726,0.9859580289844594,13.481909413876872,0.9847138659149266,40.7756246,6.1611482,-62.1439772
419.694,-1.1618748,0.4124435999999999,-12.6209062,-0.960042,-0.030745,0.205739,-2.2272276,78.2696808,151.36515179999998,-3.1706876,-6.4909406,-9.980033,-0.977876,0.0308896,0.0938256,37.2111718,84.459845,87.9392288,12.680983245918055,0.9823209419074806,12.320171606378343,0.9828524212614628,39.4383994,6.190164199999998,-63.425923
439.679,1.3528322000000002,0.6420414,-12.4858108,-0.9580644,-0.033711,0.2046041999999999,-3.467532,78.26689139999999,150.0759826,-1.9719614,-5.3507732,-9.704923399999998,-0.9776708,0.0281891999999999,0.088932,34.7593022,84.4942658,85.52162,12.575287012790898,0.9802482872854203,11.256329055282444,0.982111869795534,38.2268342,6.227374399999997,-64.5543626
459.664,3.4549174,0.510969,-12.1287762,-0.9606206,-0.0324608,0.2027838,-4.612518199999999,78.25825339999999,148.84058220000003,-1.6783968000000002,-3.812516600000001,-9.330311,-0.9762848,0.0247234,0.0853286,32.530816800000004,84.5440538,83.3223112,12.621598776283069,0.9823272928222244,10.21797445682102,0.9803184315295514,37.143335,6.285800399999997,-65.518271
479.65,4.505325000000001,0.1144699999999999,-11.613813,-0.9618626,-0.0354882,0.2003143999999999,-5.6775722,78.2394836,147.6664734,-1.9078986,-1.3976894000000002,-9.197965,-0.9782078,0.0181315999999999,0.0827768,30.533788,84.6296586,81.3604398,12.457596442953754,0.9831403422021496,9.497166570508243,0.9818713019116304,36.2113602,6.390174999999999,-66.3060336
499.635,5.296310200000001,-0.4990736,-10.9586332,-0.9652422000000002,-0.0384888,0.2051701999999999,-6.649655,78.2034132,146.5722718,-2.0320274,1.7439509999999998,-8.9729364,-0.9810716,0.0096096,0.0769184,28.8359982,84.7677384,79.7022702,12.181609819928696,0.9875569367658354,9.363978218855312,0.9841291932451144,35.4856532,6.564325200000002,-66.8700016
519.62,5.499765200000001,-1.6566876,-10.088936,-0.9694124,-0.0395858,0.2119213999999999,-7.506633600000001,78.1399488,145.5925996,-1.5347152,4.909984,-8.554275800000001,-0.984177,0.0055986,0.0730206,27.4827272,84.95666200000001,78.3807462,11.609421203110031,0.9930952203154338,9.9819300782881,0.9868980290158248,34.9893608,6.816713200000004,-67.2118534
539.606,5.3455492,-3.1701942,-8.9779936,-0.972147,-0.0376886,0.2139567999999999,-8.21963,78.0466338,144.7649354,-1.3216826000000002,7.232391799999999,-7.990873400000001,-0.9854726,0.0067708,0.0737776,26.418150200000003,85.177594,77.34530620000001,10.919221428150234,0.9961263636934824,10.85856315258504,0.9882536229861036,34.637780199999995,7.130960200000004,-67.4196292
559.591,4.0742566,-4.5427428,-7.8157556,-0.9704892,-0.0383123999999999,0.215045,-8.815887,77.9277404,144.0848084,-2.0169588000000003,8.9374026,-7.613250000000001,-0.9867304,0.0046952,0.0791358,25.4915728,85.4206528,76.4633544,9.915750833322042,0.994767047773196,11.912466730190024,0.9899097948948884,34.3074598,7.492912400000006,-67.621454
579.577,3.1563244,-5.4264596,-6.492034800000001,-0.9671118,-0.0411814,0.2157324,-9.28841,77.7942184,143.55134579999998,-2.7364472,9.9454924,-6.770318399999999,-0.9868396,0.0043114,0.0816182,24.7591254,85.6708344,75.791188,9.030800814594382,0.9917366635427772,12.338483439800214,0.9902184177591123,34.0475354,7.876616000000004,-67.7601578
599.562,2.6815248,-6.1258586,-5.1582,-0.9638088,-0.039867,0.2203878,-9.620242200000002,77.64872599999998,143.1713806,-2.991813,9.7005344,-5.786039000000001,-0.988592,0.0044436,0.0872326,24.1476588,85.9025406,75.2456482,8.445338719092858,0.9894885360807776,11.68458642751524,0.9924431543155104,33.767901,8.253814600000002,-67.9257324
619.547,1.8280738,-6.459424200000001,-3.8150968,-0.9582892,-0.0368468,0.2236406,-9.8247496,77.4998842,142.93948060000002,-3.6908732,8.8160352,-4.7417426,-0.988201,0.0040352,0.0905062,23.622668,86.105069,74.800644,7.721462193597941,0.9847288944045668,10.669074210575726,0.9923451372775908,33.4474176,8.6051848,-68.1388366
639.533,0.4280334,-6.379026,-2.5025964000000003,-0.955543,-0.0370596,0.2289324,-9.9343838,77.3550416,142.8314484,-4.183394600000001,8.021358000000001,-3.4570306000000004,-0.987174,-0.0016691999999999,0.0918232,23.254294800000004,86.2807984,74.52219099999999,6.86572458240822,0.9832832158492892,9.684732062004068,0.991436731497719,33.1886786,8.925756800000002,-68.30925739999999
659.518,0.1265374,-6.2080584000000005,-1.1948764,-0.9527058,-0.0418914,0.2302446,-9.9480112,77.217836,142.82721859999998,-3.8824018,7.2701404,-2.0521002000000004,-0.987087,-0.0019682,0.0905744,23.165423800000003,86.4297912,74.5167908,6.323268966498759,0.9810279336373456,8.493473989080995,0.991235764748024,33.113435,9.2119552,-68.3104278
679.504,0.6455918,-6.0039884,-0.0398741999999999,-0.9506438,-0.0397192,0.235948,-9.8468916,77.08662260000001,142.9281464,-3.460962,6.123222,-0.9382898,-0.9878196,-0.0017075999999999,0.0923056,23.2489176,86.5452484,74.6745224,6.038729620655941,0.980292154426975,7.0959490820828215,0.9921243882867108,33.0958092,9.458625799999998,-68.253624
699.489,0.3059496,-5.571356,1.0674492,-0.9483368,-0.0390836,0.2419696,-9.6633614,76.9652816,143.1189454,-3.8613922,5.363912399999999,0.0911935999999999,-0.984255,-0.0025973999999999,0.0913046,23.522825,86.63702839999999,75.03003700000001,5.680938358322223,0.9794996178393128,6.609857958366091,0.9884842848993198,33.186186400000004,9.6717468,-68.08890840000001
719.474,-0.4138619999999999,-4.9755806,2.1027432,-0.947487,-0.0419908,0.2450159999999999,-9.426223,76.8580642,143.37904680000003,-4.3333776,5.2219968,1.1427914,-0.9803006,-0.0046082,0.086327,24.0968488,86.71935260000001,75.6946824,5.4174913961432924,0.9795548390517194,6.881379526468946,0.984105102515275,33.523071800000004,9.861288399999996,-67.6843644
739.46,-0.5900855999999999,-4.352138,3.0599724000000004,-0.9446134,-0.0430187999999999,0.2440274,-9.1298704,76.76708679999999,143.7011446,-4.182841,5.371715399999999,1.997739,-0.9792174,-0.0052143999999999,0.0785634,25.0134778,86.80011879999999,76.69839640000001,5.352825167622526,0.9765728158021604,7.095241101047881,0.9823777859101251,34.143348200000005,10.033031999999997,-67.0027482
759.445,-1.1215297999999998,-3.8503296,3.9396562,-0.9440676,-0.0408894,0.2467936,-8.778512800000001,76.68775339999999,144.08839740000002,-4.1001342,6.256432800000001,2.7077388,-0.974429,-0.0065209999999999,0.067594,26.3835624,86.8953872,78.1535784,5.621721986644541,0.976648686787158,7.95524363221837,0.9767923772829106,35.1620752,10.207633799999996,-65.93481899999999
779.43,-2.4884632,-3.7869846,4.865604800000001,-0.9462088,-0.0419798,0.2481516,-8.3892856,76.6120516,144.5413362,-3.9095384,8.5100052,3.3532374,-0.9710904,-0.0115508,0.0533472,28.4857916,87.03264920000001,80.3369358,6.648895511900788,0.9791080703313808,9.94730516601659,0.9726232105500258,36.8750772,10.420597599999995,-64.2044004
799.416,-3.8395438,-4.3616806,5.9491118,-0.9483728,-0.0414668,0.2467851999999999,-7.940702400000001,76.5290224,145.081778,-3.4922632,12.2901216,3.5422038,-0.968538,-0.0153392,0.0372784,31.7723116,87.2421632,83.695055,8.316146069991438,0.9808330124038036,13.258589629428736,0.9693765148832522,39.713014,10.7131408,-61.386723
819.401,-5.7106716,-5.7971106,7.2020122,-0.9517104,-0.0370085999999999,0.2542296,-7.411987000000001,76.41713279999999,145.741214,-5.520296,19.1685618,3.1734656,-0.9596502,-0.0202162,0.0162312,38.0085412,87.5746812,90.0320698,10.86679534916471,0.9857763496139884,20.19847304432735,0.960000340081148,45.4205282,11.1575484,-55.7091442
839.387,-7.747968399999999,-8.7786728,9.003895,-0.9585434,-0.0317848,0.263042,-6.7554154,76.2461564,146.5744872,-10.310435,28.5875148,2.4475984,-0.9443028,-0.0203386,-0.0276463999999999,50.6081972,87.97750720000002,102.7823352,14.770451436157373,0.9944882186122668,30.488388121662428,0.9449263252607368,57.3636126,11.7313508,-43.792152
859.372,-9.6000322,-13.658540399999998,11.3865536,-0.9644746,-0.0239614,0.2735962,-5.9221684,75.9773514,147.62771600000002,-12.6900836,35.8630792,1.6819658,-0.9413394,-0.0254662,-0.0714836,68.5396278,88.27355500000002,120.890526,20.20816535426069,1.002816176270387,38.07922898947445,0.944393084686541,74.46179620000001,12.296203600000002,-26.73719
879.357,-10.0315126,-21.9370214,14.8194838,-0.9710398,-0.0248068,0.276355,-4.8441456,75.5468612,148.9451324,-17.2689452,41.446677400000006,-1.0265707999999998,-0.9366508,-0.0359851999999999,-0.0976314,90.237008,88.41060780000001,70.8601502,28.3104442396526,1.009903835290905,44.91210731448355,0.9424126198357278,95.0811536,12.8637466,-78.0849822
899.343,-11.7722266,-31.9596776,19.591607,-0.9695538,-0.0121719999999999,0.2957962,-3.4820392,74.9080764,150.59534000000002,-27.8499956,46.300866,-5.9505888,-0.9380554,-0.0507901999999999,-0.106251,114.3475892,88.3274046,23.470088200000003,39.29169602168044,1.013744603247228,54.35809005416453,0.9454188769461924,117.8296284,13.4193282,-127.1252518
919.328,-17.605624,-42.6526258,25.9951936,-0.965931,-0.0151422,0.3150242,-1.9194052000000004,74.044261,152.5820922,-30.7960774,47.9292908,-8.100568599999999,-0.953546,-0.0582998,-0.1048774,136.7891358,87.9125746,-25.50498659999999,52.96182185655703,1.0161162480580064,57.54332725400106,0.9610661318696024,138.708541,13.8683136,-178.0870788
939.314,-17.8627782,-53.34327760000001,32.4314966,-0.971351,-0.021219,0.3408452,-0.1379632,72.95031879999999,154.8121552,-25.905638600000003,46.033461,-8.960489599999999,-0.9856792,-0.0588146,-0.0660876,153.1185516,87.23338759999999,-80.6357422,64.93370528353414,1.0296351108645432,53.57678617446216,0.9896414569729584,153.25651480000002,14.2830688,-235.4478974
959.299,-13.757460600000002,-63.5497832,38.95616739999999,-0.9699578,0.0149526,0.3902352,1.8724016,71.63257899999999,157.20957040000002,-24.2383456,43.4383804,-11.1909252,-1.0166385999999998,-0.0691992,-0.0288421999999999,164.3025726,86.50617679999999,-140.91805419999997,75.79858603842408,1.0456219323190574,50.98653838055824,1.0193990606192649,162.43017100000003,14.8735978,-298.1276246
979.284,-16.7215904,-70.3802352,44.1953696,-0.9683186,0.0264964,0.4455809999999999,3.82586,70.1398956,159.628293,-17.2615794,39.920689,-10.1756844,-1.0388712,-0.0691661999999999,-0.0232853999999999,171.2824126,85.7853852,-133.5450576,84.77157416488912,1.0662482815366787,44.6673044477236,1.0414314875521289,167.4565526,15.6454896,-293.1733506
999.27,-15.958246,-75.2141648,48.4477516,-0.9818008,0.0192176,0.4846924,5.6722974,68.52095340000001,161.9433962,0.2017731999999995,34.7121888,-5.578708600000001,-1.0553116,-0.0419443999999999,-0.030235,174.63069460000003,85.1203294,-130.1660064,90.87915512950909,1.0950930780751742,35.15819610495962,1.0565775224804477,168.95839719999998,16.599376,-292.10940260000007
1019.255,-7.914934199999999,-79.9291154,50.9874504,-0.986813,0.0588834,0.5351722000000001,7.503356200000001,66.7704262,164.094318,12.2770394,27.4268042,-3.4233674,-1.0691898,-0.0114495999999999,-0.0217547999999999,176.4582672,84.6065278,-128.5626434,95.13690015083164,1.1241336377038986,30.243589889589373,1.069472390053731,168.95491099999998,17.8361016,-292.65696140000006
1039.24,-6.9057294,-84.3163254,51.9491088,-0.976935,0.094608,0.5915893999999999,9.1157794,64.8975236,166.013492,16.3040876,19.5544092,-1.2968912,-1.0638812000000002,-0.0072831999999999,-0.0366344,177.4960114,84.2479204,-127.839688,99.275584776011,1.1460064075219474,25.49274638822102,1.0645366747928604,168.38023199999998,19.3503968,-293.85318
1059.226,-9.548314,-88.546347,51.996178400000005,-0.971183,0.0837706,0.6284402,10.3997748,62.9087784,167.66096520000002,20.6819704,13.968838600000002,1.9645392,-1.0338142,0.0001296,-0.0677692,177.72650760000002,83.982483,-128.01878040000005,103.12724390524374,1.1598064570821287,25.03461135563448,1.0360330503349977,167.3267328,21.073704600000003,-295.67974560000005
1079.211,-7.158140399999999,-94.4646178,52.687007,-0.9638102,0.10904,0.6685452000000001,11.5247328,60.785273,169.1033418,24.6793466,10.598546000000002,3.4414576,-1.0123844,0.004011,-0.0899876,177.67083440000002,83.77593859999999,-128.5675064,108.40075505596924,1.1780375663225175,27.078459268016807,1.0163838003619106,166.1461016,22.990665600000003,-297.6708482
1099.197,-7.442017799999999,-102.85215739999998,53.354022,-0.9560136,0.1434724,0.7060548,12.4454272,58.485202,170.3439178,26.2956914,9.317593,4.1692198000000005,-1.0136455999999998,2.880000000000313e-05,-0.0925284,177.55372,83.5935274,-129.2118194,116.10599284423854,1.19710472121271,28.207504662029127,1.017859964845538,165.10829280000002,25.1083254,-299.55573719999995
1119.182,-10.8546454,-112.5390318,54.0656028,-0.9516974,0.158679,0.7484076,13.0948534,55.9901948,171.37091660000002,27.7835488,10.1972964,4.061436,-1.005676,-0.0076151999999999,-0.108125,177.5392212,83.3867434,-129.783139,125.32336737962528,1.2210736676980305,29.87316019729969,1.0115004813998063,164.4443678,27.3965486,-301.1540556
1139.167,-13.321439799999998,-123.0673186,55.5212616,-0.9460278,0.1724048,0.7851252000000001,13.5533878,53.289007600000005,172.2467224,31.2448284,13.8763236,5.762218,-1.0129138000000002,-0.0073269999999999,-0.1168358,177.3984528,83.1017244,-130.5513856,135.66737321624004,1.241415962967659,34.6697968652383,1.019656145630026,163.84506500000003,29.8127168,-302.798108
1159.153,-15.2576384,-133.9027892,57.2013046,-0.9367958,0.1917712,0.8219304,13.8642652,50.3774804,173.011911,34.6398472,16.929171,6.8345032,-1.0378544,0.0122916,-0.0894022,177.1513244,82.7668642,-131.4944184,146.4060850273197,1.2609251153384329,39.15643342769358,1.0417704125164815,163.28705920000002,32.3893838,-304.5063294
1179.138,-16.5959188,-144.54929199999998,58.4676514,-0.9177998,0.2124072,0.8636548,14.0474976,47.2601204,173.6733948,28.4864712,13.2570788,6.095304,-1.0837371999999998,0.0451196,-0.0457938,176.79299,82.5197632,-132.42567739999998,156.80685124939336,1.2780347824120124,32.00596679668113,1.085642284127898,162.74549240000002,35.259642799999995,-306.0990722
1199.123,-16.9881252,-154.28650520000002,59.4524514,-0.8845256000000001,0.2284738,0.9104426,14.1316612,43.9535858,174.24450380000002,12.145235,4.2350838,3.9559062,-1.088004,0.0756872,-0.0311592,176.31779160000002,82.4593154,-133.14730219999998,166.21527024347031,1.289764142095973,13.457037633203152,1.091078435312732,162.1861304,38.5057296,-307.391806
1219.109,-15.708065200000002,-163.189505,60.2811828,-0.8501282,0.2312658,0.9361162,14.160625199999998,40.4847594,174.743747,-11.3160908,-7.729348400000001,1.2493652000000004,-1.1168596000000002,0.080525,-0.0184838,175.661331,82.6529784,-133.5827544,174.67506649272954,1.2855019901141032,13.760728581197956,1.1199112878257815,161.50070580000002,42.168219,-308.32650140000004
1239.094,-14.5637908,-171.3249298,61.3922562,-0.8073482000000001,0.2417641999999999,0.9578928,14.1587048,36.866469,175.20113220000002,-38.68527340000001,-22.2005382,-6.6945592000000005,-1.133288,0.0928114,0.0008017999999999,175.6505826,83.1588424,-132.82243639999996,182.5742169496217,1.2758603609865462,45.10245444856313,1.1370823584055818,161.4918778,46.2923734,-308.0235686
1259.08,-15.613239600000004,-178.2186738,62.5592858,-0.7497946000000001,0.2485453999999999,0.9806392,14.092498799999998,33.1182684,175.6253112,-67.1564564,-37.1178944,-13.8043668,-1.1467906,0.1056131999999999,0.0076495999999999,176.3497708,83.9821852,-130.78412759999998,189.5239646631631,1.259214040037261,77.96337770802131,1.1516689388199892,162.257272,50.863916800000005,-306.40943880000003
1279.065,-15.618331,-183.8832368,63.1266136,-0.6889137999999999,0.2530603999999999,0.9979696,13.9877222,29.267977,176.0191284,-90.5783738,-45.793719,-20.545176,-1.1248378,0.0989152,0.0090897999999999,106.93887,84.9871048,-126.390277,195.04344742614185,1.2387837230133272,103.55486834028838,1.1292151777070305,92.9511478,55.7191278,-302.4094054
1299.05,-15.5805904,-188.488208,62.9667304,-0.6279808,0.2589974,1.0083466,13.8484054,25.3417746,176.3799714,-107.5068466,-50.4601012,-29.0137002,-1.120568,0.0689414,0.0056401999999999,42.5736296,86.0212006,-116.5953658,199.3373233730455,1.215813474224957,122.25276552407986,1.1227009268340344,28.725224199999992,60.679426,-292.9753372
1319.036,-15.741231,-192.27770400000003,62.491010200000005,-0.5696184,0.2591275999999999,1.0134333999999998,13.6732944,21.3570382,176.71138000000002,-116.69577180000002,-52.746088400000005,-37.7052198,-1.0938979999999998,0.044382,0.0027871999999999,-14.765043800000004,86.814026,-99.5405936,202.7896155248673,1.191074930865342,133.49807713096322,1.094801518455213,-28.43833820000001,65.45698780000001,-276.2519736
1339.021,-16.8338762,-195.0720552,62.546494200000005,-0.5076965999999999,0.2669362,1.0158584,13.452974799999998,17.321452599999997,177.0353242,-119.1371032,-53.9620796,-43.2041306,-1.076238,0.0030899999999999,-0.000806,-68.0195512,87.1915268,-78.329984,205.54452083327203,1.1666100725489044,137.7394362357638,1.0762427376665546,-81.47252600000002,69.8700742,-255.3653082
1359.007,-17.619717599999998,-197.2380158,62.3588836,-0.4515746,0.26179,1.0096485999999998,13.1917208,13.2487374,177.35489520000002,-115.671457,-54.67605040000001,-47.2773416,-1.0699596,-0.0365216,0.0084823999999999,-119.130925,87.1069946,-55.03435880000001,207.61001827672757,1.1365931193470773,136.39832653155713,1.0706163290406512,-132.3226458,73.8582572,-232.389254
1378.992,-17.5303598,-198.669397,62.560355400000006,-0.3932484,0.257405,1.0029988,12.908549399999998,9.1423136,177.68573320000002,-111.3748368,-55.2654586,-53.1512436,-1.0552598,-0.0367483999999999,0.0147575999999999,-98.9149644,86.4822844,-32.4925906,209.0230630500744,1.1076588964699376,135.21715824081457,1.056002593347365,-111.8235138,77.3399708,-210.1783238
1398.977,-17.387791,-199.42399,63.01278920000001,-0.3278644,0.2567988,0.9945738,12.6045678,5.0090404,178.0385926,-110.1315644,-54.3785224,-59.6407524,-1.0330824,-0.0427006,0.0286759999999999,-83.4791154,85.332283,-14.772807599999998,209.8639432254703,1.0782475282212522,136.53938817219284,1.0343620736502863,-96.0836832,80.3232426,-192.81140020000004
1418.963,-20.4323094,-199.4827638,63.346076200000006,-0.2651032,0.2629082,0.9879856,12.2175044,0.8587083999999999,178.4209748,-103.6181244,-53.722792600000005,-62.30437920000001,-1.0180642,-0.069918,0.0272647999999999,-74.8312424,83.8905258,-4.0153378,210.29402675929748,1.0561798966486913,132.30529020569767,1.0208264354750418,-87.0487468,83.0318174,-182.4363126
1438.948,-20.5193478,-199.6858368,61.741117,-0.2091504,0.2442782,0.9628928,11.8021986,-3.2958498,178.799948,-90.213022,-53.7613394,-60.57029040000001,-0.9935344,-0.079086,0.0378262,-70.08368379999999,82.39682619999999,2.5619802,210.01771968350977,1.0151740112449883,121.23296181977412,0.9973946163809988,-81.88588239999999,85.692676,-176.2379678
1458.933,-19.3641708,-199.5362732,59.7251784,-0.1476988,0.2420166,0.9392462,11.3836338,-7.4438168,179.1711026,-77.532016,-53.2569168,-56.5422294,-0.9660746,-0.1003716,0.0381769999999999,-67.3650978,80.938936,6.863082400000001,209.1812428690212,0.9811067191755646,109.7476031519076,0.9720247292022564,-78.7487316,88.3827528,-172.3080202
1478.919,-21.8038032,-198.7092194,57.4202238,-0.0767542,0.2400326,0.9101312,10.890291,-11.5637164,107.535455,-66.402703,-50.7452094,-49.896413,-0.964596,-0.142228,0.0500413999999999,-65.52599479999999,79.6072832,10.0691586,207.98519613132024,0.94437580310692,97.33471771686928,0.9763085521053064,-76.4162858,91.1709996,-97.4662964
1498.904,-24.8188318,-197.098581,54.6687804,-0.0116402,0.2133362,0.8824096000000001,10.3101524,-15.6381336,35.89571200000001,-49.8701994,-47.78210299999999,-37.5236552,-0.9715796,-0.1713868,0.0616054,-63.6341834,78.512999,13.006587200000002,206.0400460943301,0.9079066750821034,78.60146852869133,0.988501684196623,-73.9443358,94.1511326,-22.8891248
1518.89,-20.1646816,-195.0501618,52.2390586,0.0520931999999999,0.1831932,0.8552334,9.7922486,-19.6596826,-35.7370974,-37.54262,-45.2930696,-27.977977,-0.9486448,-0.1561062,0.0766815999999999,-61.68810719999999,77.61457060000001,15.7574586,202.92880339086855,0.8761835529659524,65.14351592650932,0.9644564116765671,-71.4803558,97.2742532,51.49455599999999
1538.875,-16.9565572,-192.2312014,51.3507216,0.1152246,0.1812304,0.8209122000000001,9.298204,-23.619426200000003,-107.3309114,-34.4002768,-43.0559092,-24.6401626,-0.9577572,-0.1470326,0.0844386,-60.0561468,76.7920014,18.1312856,199.69290481287743,0.8485387477529591,60.36826959512506,0.9726496372201864,-69.35435079999999,100.4114276,125.462197
1558.86,-21.0420614,-188.59991180000003,49.8864378,0.1705903999999999,0.1730044,0.789179,8.6828408,-27.4993158,-178.88974620000002,-38.8763884,-38.6588952,-26.227716800000003,-0.9460228,-0.1325104,0.0902186,-59.129872,75.97967080000001,19.8792892,196.217613264718,0.82573306887427,60.77645005800552,0.9595090098659628,-67.8127128,103.4789866,198.7690354
1578.846,-23.035279,-184.9971834,47.8002044,0.2141433999999999,0.1428596,0.75511,7.987350400000001,-31.297423200000004,-178.4172974,-38.8472632,-34.5392122,-21.9993894,-0.9317298,-0.1454354,0.0759934,-58.4989454,75.28032540000001,21.3315264,192.4563365681236,0.797782785710321,56.4450190140772,0.9460691690488386,-66.4862958,106.5777486,199.7488238
1598.831,-19.851409,-181.593451,45.3893408,0.2542808,0.1280416,0.7141637999999999,7.3204288,-35.012955,-177.92197879999998,-32.338534,-30.851406200000003,-17.2592218,-0.9081672,-0.1529576,0.062855,-57.9099988,74.6991258,22.6131824,188.2297854847453,0.7688194260095409,47.91107161114381,0.9231004504270378,-65.2304276,109.7120808,200.5351612
1618.817,-20.3785984,-177.2460206,42.7138358,0.3095952,0.1175218,0.659586,6.608523,-38.6176436,-177.40645439999997,-26.6372428,-26.7057736,-11.0135884,-0.9298352,-0.162483,0.0675982,-57.29945339999999,74.2649598,23.8040302,183.4554737805157,0.7380475951686857,39.29427664438198,0.9463422959433232,-63.9079764,112.8826034,201.21048460000003
1638.802,-24.1108806,-171.3512574,38.535339,0.371469,0.0924437999999999,0.6216924,5.8038356,-42.0842834,-176.89753420000002,-24.0463782,-21.001226,-5.0679288,-0.9208264,-0.1687608,0.0667736,-56.8114102,73.9902482,24.818042,177.27820037363148,0.7300934969832289,32.32589829165433,0.9385415175742412,-62.6152458,116.0745316,201.7155762
1658.787,-23.7370608,-164.2920868,34.6543584,0.4322128,0.0568388,0.5816988000000001,4.970785599999999,-45.392636,-176.3751984,-18.8812758,-15.137543,5.2580726,-0.9251108,-0.1933735999999999,0.0595318,-56.1978276,73.9498048,25.8579854,169.57671537282846,0.726919560605381,24.76479580734284,0.9469780233272788,-61.1686132,119.3424408,202.2331838
1678.773,-21.5921582,-156.2819642,31.2133084,0.4896625999999999,0.0331942,0.5320156,4.129878199999999,-48.5342704,-175.822043,-11.4497676,-8.7622094,13.6142694,-0.9147586,-0.2053522,0.056806,-55.49319579999999,74.10995199999999,26.8398568,160.8245760175273,0.7238175981528495,19.82982155641433,0.9392442408419656,-59.623074,122.64422240000002,202.6618998
1698.758,-23.3177872,-146.2810456,27.1469892,0.5491402000000001,0.0084234,0.4785432,3.2228876,-51.4779548,-175.2592072,-7.1540988,-4.524102000000001,21.0462246,-0.9250966,-0.2128694,0.0619184,-54.6277074,74.4326968,27.8994126,150.5948954126888,0.728443207937201,22.68462471499607,0.9512891195879832,-57.850595,125.9106516,203.1586198
1718.743,-27.980156800000003,-134.2633652,22.3913148,0.6071804000000001,-0.0211238,0.4390086,2.2052141999999995,-54.1933562,-174.7046358,-4.9035662,1.4087475999999994,23.9827152,-0.9330678,-0.2220321999999999,0.0746388,-53.9084104,74.8584658,28.7592358,138.96370528974052,0.7495617412492183,24.519383345479948,0.9620211887994566,-56.1136246,129.051822,203.4638716
1738.729,-30.8101422,-121.3359146,17.8282784,0.6576092,-0.0539541999999999,0.4141696,1.1192758,-56.6516248,-174.1604494,-1.6253410000000006,7.172911600000001,26.2333666,-0.925796,-0.2277674,0.0702622,-53.38245979999999,75.38115260000001,29.3520814,126.4496601217679,0.7790361822062182,27.24485120821348,0.9559879700433476,-54.5017356,132.0327774,203.5125308
1758.714,-29.2316816,-108.9826248,13.5680778,0.6982344,-0.0817458,0.3737709999999999,0.0897467999999999,-58.862674600000005,-173.6571626,5.2382486,11.1165768,26.0884012,-0.9139374,-0.231005,0.0657772,-52.9926054,75.94184440000001,29.6641934,113.6476856458072,0.7961899356321958,28.83786062310902,0.9449717039063128,-53.08235219999999,134.80451899999997,203.321356
1778.7,-29.200109,-95.8717636,9.0030094,0.7335244000000001,-0.0953496,0.3430906,-0.887143,-60.812499200000005,-173.22517720000002,12.2585988,12.4398402,23.5814576,-0.9249634,-0.2245884,0.0715386,-52.6316008,76.4754548,29.7999982,100.62353402481278,0.8153899382650488,29.344641951836717,0.9545234476135618,-51.7444578,137.28795399999998,203.0251754
1798.685,-30.5515,-82.6977722,5.209455,0.7709304,-0.1088734,0.3250967999999999,-1.8406116,-62.502163,-172.859656,15.7783638,14.284237999999998,19.7107606,-0.9257678,-0.2174198,0.0805548,-52.4454246,76.963739,29.6796486,88.31451806181201,0.8437268682707455,29.00879699119401,0.9543618101914598,-50.604813,139.465902,202.5393046
1818.67,-28.924243,-70.3223404,1.5594724,0.7980176,-0.1216234,0.3080938,-2.6704312000000003,-63.9421906,-172.599634,20.1844372,14.5637658,19.227102,-0.9120658,-0.215174,0.0715061999999999,-52.2156342,77.4452484,29.5138214,76.0544235835292,0.8640290104711531,31.451490118536476,0.9398281813417174,-49.545203,141.387439,202.1134554
1838.656,-24.9302786,-58.6221366,-1.4657488,0.820739,-0.1231709999999999,0.2791552,-3.3104252,-65.1549112,-172.4608216,26.4403456,13.9868198,19.3499832,-0.9166824,-0.2152543999999999,0.0795938,-51.79722460000001,77.91478099999999,29.4123924,63.719872176326426,0.8756204811726597,35.62505934599118,0.9449742071546504,-48.4867994,143.06969220000002,201.873214
1858.641,-22.5428278,-46.2100066,-4.554400599999999,0.8421606,-0.1200853999999999,0.2631752,-3.7808842,-66.1294434,-172.4588684,31.273542400000004,13.2019804,18.1336658,-0.924882,-0.1993528,0.0850392,-51.2576334,78.3583006,29.3345066,51.61672558403697,0.8904584018249028,38.48579706947319,0.9499367970178226,-47.4767492,144.48774399999996,201.793375
1878.627,-20.091347,-33.5611236,-7.2440876,0.8607254000000001,-0.1226233999999999,0.2493603999999999,-4.034275,-66.84524839999999,-172.6355102,31.7495312,12.141681599999998,16.5284972,-0.9248518,-0.1876702,0.0878393999999999,-50.6914148,78.76392659999999,29.2730916,39.78049832173247,0.9044696354885996,37.79741238743679,0.9477798880138996,-46.6571398,145.609175,201.9086018
1898.612,-17.2446466,-20.6639024,-9.731066,0.8711016,-0.1180447999999999,0.2327458,-4.0423782,-67.2944168,-173.0097778,31.2261806,11.033197,13.939035800000005,-0.9305122,-0.1813554,0.0867118,-50.1901704,79.1153748,29.155515399999995,28.619370088315595,0.9093531655782808,35.931914921672444,0.9519777684994752,-46.147792200000005,146.4097916,202.1652932
1918.597,-15.4542054,-7.186645999999999,-12.015242,0.8748495999999999,-0.111968,0.2149314,-3.8408028,-67.4705918,-173.56814879999996,30.905787,9.6824068,11.205126,-0.934123,-0.1676109999999999,0.0874108,-49.726629,79.41013339999999,29.0045544,20.852970665909197,0.9077963220624546,34.270563464961164,0.9530581694768896,-45.8858262,146.8807252,202.5727032
1938.583,-14.1194752,6.9318376,-14.346372,0.8759482000000001,-0.1028394,0.2041532,-3.4469144,-67.3579712,-174.3033386,30.1627408,6.864044999999999,9.2029066,-0.9557258,-0.1500577999999999,0.099881,-49.1131318,79.63946539999999,29.0185086,21.28916019946707,0.9052843312163532,32.27382122120548,0.9725766613935788,-45.6662174,146.9974366,203.3218472
1958.568,-13.058203600000002,21.6402284,-16.8664946,0.8735231999999999,-0.0893317999999999,0.1993042,-2.8725926,-66.94273539999999,-175.2097444,25.5226806,1.5902238000000004,6.5008962,-0.9742988,-0.1398156,0.121233,-48.286824,79.7532746,29.340126400000003,30.38576651254743,0.9004138579381815,26.38555832547185,0.991717698729734,-45.4142314,146.69600999999997,204.5498708
1978.554,-12.28458,36.5625948,-19.226078,0.8663612,-0.0761204,0.1980491999999999,-2.1808186,-66.227237,-176.23119219999998,18.171528,-4.1343148,0.6786158,-0.9942312,-0.1341931999999999,0.1346302,-47.5410874,79.7016464,29.726866,43.09728900461688,0.8919638612534928,18.648257509062145,1.01223948981045,-45.3602688,145.9288834,205.9580582
1998.539,-11.8582494,51.7066212,-21.165638,0.8567678000000001,-0.0662142,0.2010828,-1.4302616,-65.20519340000001,-177.314258,9.7898078,-9.2747378,-8.572831599999999,-1.0131176,-0.1229792,0.1307226,-47.1996902,79.4527556,29.8703886,57.11547064237441,0.8825359345966146,15.9798166341685,1.0288923914643162,-45.7694286,144.65794899999997,207.1846466
2018.524,-11.6845028,67.44757460000001,-22.488286,0.8464919999999999,-0.0536506,0.2162004,-0.6827996,-63.8634866,-106.3993868,-1.3163352000000004,-13.350868600000002,-22.8976726,-1.0270576,-0.1238608,0.1379916,-47.6490828,78.93383779999999,29.4298338,72.05155051991296,0.8753112051747767,26.53830893689377,1.0436620588892556,-46.9662832,142.7973244,135.8292206
2038.51,-10.9578878,83.0312798,-23.0446518,0.826668,-0.0461504,0.2367664,0.0157589999999999,-62.2135462,-35.426666600000004,-17.47285,-12.3772186,-39.4569192,-1.0179696,-0.141784,0.1247724,-49.3996718,78.162854,27.9865,86.86382852975407,0.8611435245144214,44.892588476830056,1.0353419536471609,-49.4154308,140.37640019999998,63.4131666
2058.495,-10.048743,98.0937668,-22.9873258,0.804163,-0.038605,0.2645229999999999,0.629225,-60.267973600000005,35.646603199999994,-33.4564256,-6.353662399999999,-59.0369072,-1.0381372,-0.1575349999999999,0.1154472,-52.6811774,77.1323958,25.294614,101.25108131930334,0.8474319407026147,68.15466126071584,1.056349458388028,-53.3104024,137.4003694,-10.351989199999997
2078.48,-9.6949094,111.46879119999998,-22.2461576,0.7745856,-0.027797,0.3103866,1.1244694,-58.0583384,106.846408,-54.216424200000006,-0.6522327999999995,-70.497818,-0.9844008,-0.159254,0.112976,-56.9608206,75.95071859999999,21.995820400000003,114.07968358926772,0.8349223714788818,88.93699119838081,1.0035787702680043,-58.08529,134.00905699999998,-84.85058760000001
2098.466,-9.676547,124.0688324,-20.074955,0.7443678,-0.0169966,0.3450222,1.465727,-55.612385,178.211206,-73.75761200000001,2.7965362000000007,-69.2582172,-0.8943945999999998,-0.1993654,0.1177341999999999,-61.5117332,74.79840540000001,18.815506000000003,126.0544110818599,0.8206172217186525,101.216138003694,0.9238774838018078,-62.9774602,130.4107904,-159.39569999999998
2118.451,-11.5550132,136.6350678,-17.825423,0.7047728,0.0015324,0.3995844,1.6427768,-52.91558620000001,177.71621399999998,-82.216993,5.6847196,-56.4361258,-0.8618509999999999,-0.242062,0.1030192,-65.6854882,73.8684188,16.197425600000003,138.27655545280157,0.8101695752081536,99.88486507077086,0.9011071598947816,-67.328265,126.78400499999998,-161.5187884
2138.437,-9.708005000000002,146.8722076,-16.0366556,0.6515326,0.010337,0.4392534,1.758847,-50.0061532,177.328235,-78.9905618,4.5212808,-39.3608,-0.866564,-0.2623102,0.0993588,-68.89577419999999,73.2086562,14.5058958,148.0637195575288,0.7858403984546226,88.36981051350098,0.9108303784226128,-70.65462120000001,123.2148094,-162.8223392
2158.422,-7.6010176,155.9973602,-13.630212599999998,0.6018912000000001,0.0198702,0.488626,1.823011,-46.9009414,177.050348,-70.64777360000001,1.0327254,-14.9333646,-0.8028000000000001,-0.2721998,0.1060406,-70.821544,72.935147,13.97105,156.77606498903222,0.7755148027997145,72.21620188479312,0.8542980627207346,-72.644555,119.8360884,-163.07929800000002
2178.407,-6.01577,165.4796478,-11.7816766,0.5477986,0.0326278,0.525981,1.8563178,-43.5920586,176.8504456,-51.7493198,3.5811669999999998,11.424592,-0.8333124,-0.2972742,0.0873538,-71.90087439999999,73.1612594,13.928183,166.00756376807635,0.7601341275431593,53.11627019295524,0.8890512878084368,-73.7571922,116.753318,-162.9222626
2198.393,1.9456045999999996,172.692227,-11.7547848,0.4809546,0.0411906,0.5836916000000001,2.0276028,-40.1094612,176.67349560000002,-25.2844214,6.9651102,26.921250800000003,-0.9152287999999998,-0.2884846,0.0833473999999999,-72.3406526,73.7047134,14.0019968,173.10276025867807,0.7574363845895443,37.58415184978134,0.9632309743116444,-74.3682554,113.8141746,-162.6714988
2218.378,13.3280464,177.2800506,-11.341867,0.4182323999999999,0.045429,0.6218695999999999,2.3903419999999995,-36.5204204,176.5437592,-7.8739256,9.458583999999998,36.1119118,-0.9343906,-0.262395,0.0977727999999999,-72.3510988,74.4461914,14.1570992,178.14177249770702,0.7508021935602746,38.15145723940791,0.9754467949679264,-74.74144079999999,110.96661179999998,-162.38666
2238.364,16.7196846,182.656656,-11.360629800000002,0.3654666,0.0630312,0.6768106,2.7935594000000004,-32.817490199999995,176.4547944,5.6503844,16.2059218,44.8344338,-0.9173904,-0.2322245999999999,0.1037296,-72.35083479999999,75.400647,14.0427218,183.7717762434658,0.7717586126253209,48.007136963393904,0.9519943491289642,-75.1443942,108.2181372,-162.4120726
2258.349,22.2096118,187.2302186,-12.6327714,0.2927228,0.0639676,0.705645,3.2928628000000004,-29.0256106,176.3800142,21.8683514,23.2018102,54.56422339999999,-0.9476356,-0.2209851999999999,0.0905978,-72.34052899999999,76.58754280000001,13.6070722,188.96562789712613,0.7666246523003287,63.19654472165241,0.977269487076743,-75.6333918,105.61315340000002,-162.772942
2278.335,31.9171658,190.6884644,-14.779709400000002,0.224738,0.0807454,0.7430398,3.9707046,-25.1696714,176.3143008,38.900082600000005,23.5952874,57.711877400000006,-0.9837114,-0.1923856,0.0965729999999999,-71.8971774,77.8448944,13.266988,193.90522359617648,0.7804710966135774,73.48887539490622,1.006988918462522,-75.867882,103.0145658,-163.0473128
2298.32,31.150853,194.9781434,-16.5594714,0.1709218,0.1207288,0.8014442,4.6162402,-21.2371934,176.27156699999998,48.2251866,22.9749222,60.5070052,-0.9709708,-0.1442389999999999,0.1081932,-70.9429964,79.1605514,13.2569382,198.1440590565006,0.8283130510732764,80.7131547579061,0.9875702264142432,-75.55923659999999,100.3977448,-163.0146288
2318.305,27.5321426,198.6497436,-20.2967906,0.0976194,0.115272,0.8113938,5.1892606,-17.239047399999997,176.2036776,57.1388286,26.0512264,65.08387819999999,-0.9794716,-0.1430354,0.0948558,-69.8644884,80.5774672,13.196981,201.5730617348279,0.8253345260673397,90.4401643755509,0.9943949736665808,-75.053749,97.8165146,-163.0066966
2338.291,32.671171599999994,201.7443114,-24.6294754,0.0163219999999999,0.1106992,0.8400402,5.8640694,-13.1761292,176.09972240000002,72.6093314,24.847503,68.2434798,-0.9931624,-0.153881,0.0876592,-68.05282379999998,82.0336928,13.5742898,205.85136311051235,0.8474598858829131,102.69705909568708,1.008828553461588,-73.91689319999999,95.209822,-162.5254326
2358.276,35.397011799999994,204.3276244,-27.8381484,-0.0424964,0.1564644,0.8725528,6.5902936,-9.054450999999998,175.989566,89.4820632,20.4865196,67.551001,-1.0247043999999998,-0.120251,0.0868456,-64.3954432,83.4459304,15.4784704,209.23118563841587,0.8874882766933657,113.9731321669804,1.035384744247142,-70.9857368,92.5003814,-160.5110956
2378.261,26.208502,207.5755218,-31.1162554,-0.1081778,0.1642104,0.9082878,7.1264194000000005,-4.8596018,175.86925639999998,101.4269882,21.6977032,63.359211,-1.0100218,-0.0954068,0.0933138,-59.74196639999999,84.79978940000001,18.1578398,211.52471292438696,0.9293299841874466,121.54264222083026,1.0188002548252135,-66.8683858,89.6593912,-157.7114166
2398.247,25.943372600000004,209.9533568,-34.6052826,-0.1993018,0.1362944,0.9038122,7.6521928,-0.6082082,175.7225614,120.1651322,26.6520988,64.61506879999999,-1.0096218,-0.1233323999999999,0.0623246,-51.9678286,86.2873352,23.6456088,214.3618347497436,0.9355072762001586,139.01474915676093,1.0190345507833187,-59.6200214,86.8955434,-152.0769526
2418.232,32.706168000000005,211.266397,-37.7265016,-0.285355,0.1608038,0.929171,8.3002432,3.679258,175.5609098,149.26579139999998,26.4158286,66.43594279999999,-1.038111,-0.0970646,0.0397154,-27.3293672,87.59320840000001,45.2818748,217.08632580054564,0.9852127107180662,165.50470379604852,1.04339508235918,-35.629610400000004,83.9139504,-130.279035
2438.218,31.1243038,212.141156,-39.45719,-0.3576633999999999,0.1922076,0.9417718,8.9047444,7.990962000000001,175.41486500000002,165.42947999999998,28.567044,62.755401600000006,-1.0645524,-0.0039735999999999,0.0354784,4.347751600000004,88.3308212,73.5759994,218.01252761882083,1.025573494427659,179.22396403925902,1.0651508431716514,-4.556992800000001,80.3398592,-101.8388656
2458.203,24.2642582,213.8209412,-42.2049944,-0.4469706,0.1781608,0.9431308000000002,9.3624088,12.3454392,175.2575592,167.184088,33.8398416,56.27770519999999,-1.0380716,0.032452,0.025812,37.39262620000001,88.58811019999999,103.1958516,219.2929790803941,1.058782174873397,179.6185799478521,1.038899436121976,28.030217400000005,76.242671,-72.0617076
2478.189,29.310209,213.6726104,-44.607648600000005,-0.5414747999999999,0.1767744,0.9327774,9.9051322,16.706197600000003,175.0854676,163.2928602,34.983744200000004,53.9676688,-1.0217756,0.0337778,-0.004644,70.74626760000001,88.365988,133.19340459999998,220.2383143333488,1.092939991710963,175.5019368162479,1.0223443075912342,60.841135400000006,71.65979039999999,-41.89206300000001
2498.174,33.7785516,211.6798858,-46.2804574,-0.626779,0.2015958,0.9225096,10.5262934,21.0349504,174.9148896,150.63072019999998,30.862565400000005,48.9373198,-1.0634582,0.0950026,0.0041591999999999,100.4362426,87.557591,159.7198672,219.2971621741789,1.1333652295314165,161.35976289102382,1.0677013328167386,89.9099492,66.5226406,-15.195022400000008
2518.159,29.6928292,210.15658560000003,-47.50600440000001,-0.696509,0.2092228,0.9013468,11.0553318,25.3401024,174.7509522,119.9004286,25.916596200000004,38.9276202,-1.0836904,0.1620349999999999,0.0427769999999999,112.69691,86.530766,169.5614994,217.4954597939997,1.1581558707665736,128.69787236583596,1.096571974840758,101.6415782,61.19066359999999,-5.189452800000003
2538.145,25.0512508,209.81920760000003,-49.067067,-0.7549124,0.2073383999999999,0.8901378000000001,11.4852652,29.650704,174.58840019999997,83.28562300000002,17.927425000000003,34.5184988,-1.0393406,0.1355722,0.0323145999999999,116.5586546,85.7079892,171.78540379999998,216.93142259368256,1.1854228135045994,91.92069584720493,1.0486433796073669,105.0733894,56.0572852,-2.8029964000000005
2558.13,28.8579132,207.7175504,-49.3532058,-0.8165106,0.2065596,0.8695312,11.9970232,33.929679,174.4430296,53.0819066,11.331596,32.3665686,-1.019529,0.1112642,-0.0257982,116.9715986,84.99532,171.15633259999998,215.44163669349624,1.210553978985638,63.19563781731178,1.0259067458428566,104.9745754,51.06564100000001,-3.286696999999998
2578.115,30.4822074,204.1539946,-49.3599938,-0.885413,0.2086076,0.8213334,12.546236,38.1448474,174.3220946,31.276937600000004,4.363574399999999,25.9259964,-1.0430828,0.1301506,-0.0332496,115.77046500000002,84.47050759999999,169.3380158,212.23672506672705,1.2255863353115193,40.85884110582975,1.051696934594924,103.224229,46.3256602,-4.984078799999997
2598.101,26.0964586,200.5419524,-49.9115418,-0.944245,0.2028254,0.7665374,13.0028426,42.29773659999999,174.1939238,9.8402564,-1.4490762,18.6982216,-1.0450918,0.1221397999999999,-0.0288912,113.9989578,84.13844279999999,167.3695464,208.3008925298174,1.2330110901808304,21.17909249363282,1.0526013977801474,100.9961152,41.8407062,-6.824377399999998
2618.086,21.634671,196.8967834,-49.850357,-0.992661,0.1920694,0.737652,13.3655148,46.3925516,174.0658416,-2.9772478,-4.7673504,14.735292399999995,-0.9934362,0.088768,-0.0539558,111.87880400000002,83.90381299999999,165.305017,204.2583178124509,1.2515578246494885,15.770874307167713,0.9988525765337344,98.5132892,37.5112614,-8.760824599999996
2638.072,21.1187088,191.617807,-48.8971374,-1.0385996,0.1853518,0.701786,13.7298878,50.3716668,173.94927979999997,-5.6178006,-4.0603254,13.415482,-0.9924856,0.0772508,-0.087933,110.2142716,83.6842254,163.7483214,198.8826635651859,1.2671022092473043,15.100366989830729,0.9993635798832174,96.4843838,33.3125586,-10.200958399999996
2658.057,19.782584000000003,184.888211,-48.59067,-1.0732114,0.1797878,0.6549514000000001,14.0623086,54.2147554,173.82784439999998,-2.4991128,-5.7639714,10.6829146,-1.0004528,0.0847164,-0.0836392,108.58831340000002,83.5266142,162.1664276,192.18755008466724,1.2700660213078532,12.393288322234538,1.0075108878982104,94.5260048,29.3118588,-11.661416799999994
2678.042,16.4498142,177.2319092,-48.1226326,-1.089955,0.1636096,0.6052518,14.2924146,57.9135606,173.6692414,-1.1842154000000005,-5.7713668,9.3435422,-0.9926668,0.0644609999999999,-0.1048594,107.0684968,83.3968932,160.6646668,184.38420158529348,1.2574178878322035,11.045941412886464,1.0002690088729131,92.7760822,25.483332599999997,-13.004574599999994
2698.028,12.772666400000002,168.25201120000003,-46.4019088,-1.101474,0.1431828,0.57575,14.420240799999998,61.4282602,173.4992188,4.628205599999999,-4.8517068000000005,7.947118399999999,-0.9711626,0.0521847999999999,-0.1283822,106.04096239999998,83.2865204,159.53881239999998,175.00004977169047,1.251093261668306,10.397886170402913,0.9810005291877472,91.6207216,21.8582602,-13.960406399999991
2718.013,11.6810346,156.2890764,-43.3354538,-1.1095218,0.1313222,0.5456519999999999,14.513364200000002,64.677534,173.32828679999997,12.13616,-4.4485,6.8781082,-0.9842204,0.0624561999999999,-0.1251166,105.3085878,83.1865174,158.55835580000002,162.60591479815045,1.2433906264694454,14.641854534399227,0.9941049925888914,90.7952236,18.5089834,-14.769930999999996
2737.998,10.1755998,142.13710799999998,-40.427299600000005,-1.1146714000000002,0.1166516,0.499413,14.5405488,67.62813899999999,173.1323944,18.9007696,-7.712045599999999,4.023515399999999,-1.0026966,0.0760175999999999,-0.0854422,104.247423,83.1529846,157.1115266,148.12449782139882,1.2269935901745863,20.80633112739487,1.0091974617002164,89.7068742,15.524845599999995,-16.020867799999998
2757.984,6.5201218,128.3935748,-37.60533339999999,-1.1076348,0.1003759999999999,0.4815196,14.4143854,70.28118459999999,172.8624266,20.9946908,-6.879936199999999,2.2419442,-1.006784,0.0656132,-0.0677388,103.50781120000002,83.1541962,155.94476939999998,133.9461949378749,1.21193701021596,22.20668542803245,1.011191208276496,89.0934258,12.873011599999998,-16.917657199999997
2777.969,4.5494996,115.1625628,-33.802341,-1.0888664,0.0959574,0.486071,14.204606000000002,72.6448808,172.55784599999998,23.8909216,-2.230616,0.8604186000000003,-0.9912316,0.0637518,-0.0786772,103.6033342,83.158664,155.56017160000002,120.10708586238626,1.196287121348684,24.0102499529686,0.9963907258910232,89.3987282,10.5137832,-16.9976744
2797.955,5.4080556,100.9983462,-29.9347092,-1.0709018,0.088805,0.4821333999999999,13.9553246,74.70656579999999,172.201828,23.7822584,4.8498106,-0.5814449999999999,-0.9874358,0.0743726,-0.0824976,104.8675934,83.13864900000002,156.35410159999998,105.47985502168794,1.177781647277542,24.27868521457181,0.9936632209950008,90.9122688,8.432083200000003,-15.847726400000004
2817.94,7.512586400000001,84.5462808,-25.6290064,-1.0564978,0.0886476,0.4833736,13.7194772,76.43539100000001,171.8256928,21.1280552,12.6400892,-2.3224144000000004,-0.9854413999999998,0.0779238,-0.0749842,107.3031754,83.09674079999999,158.38124399999998,88.66430240283377,1.1652021436504312,24.72974282445192,0.9913574036088296,93.5836982,6.661349800000001,-13.444448800000009
2837.925,11.71603,66.043869,-20.879598,-1.0478326,0.0844106,0.496736,13.5344288,77.79674059999999,171.425769,16.5388506,21.981452,-3.6693326000000006,-0.9971864,0.0782757999999999,-0.078249,111.0708938,83.014232,161.84228519999996,70.24966622050005,1.1626800766810792,27.752149699200725,1.003309883939952,97.536465,5.217491400000003,-9.58348380000001
2857.911,18.9594826,45.8160506,-15.392280200000002,-1.0446294,0.0980772,0.515508,13.502335,78.7526336,171.0439758,13.316193000000002,26.7443326,-4.235951999999999,-1.0155622,0.0921213999999999,-0.077615,115.4092146,82.885524,165.94378360000002,51.9181544625459,1.1690244730407486,30.174883787331737,1.0226812908388418,101.9068796,4.132890400000005,-5.100192200000009
2877.896,26.2199478,24.3682806,-9.7580682,-1.043883,0.1041458,0.5218116,13.6229674,79.26806939999999,170.678949,10.9263946,24.9868562,-3.080181,-1.0313608,0.1036023999999999,-0.0733241999999999,119.36179180000002,82.7191528,169.7047668,37.10146435157125,1.171676325288345,27.4447917956604,1.0391414703340638,105.7388244,3.4510834000000044,-0.9741822000000012
2897.882,34.5197732,2.7753500000000004,-3.5806616,-1.0425916000000002,0.1191536,0.5241198,13.9863768,79.3392274,170.4017028,11.612771999999998,22.558984,-1.211413,-1.024575,0.100549,-0.088815,122.7322706,82.5106368,172.86713559999998,34.815778705863416,1.1729860994639112,25.40141244287036,1.03332092606847,108.7458938,3.1714094000000017,2.465432800000002
2917.867,41.848125,-17.3300408,2.167885,-1.0426718,0.1307849999999999,0.516245,14.545789,78.9903414,170.1828368,14.0747308,21.5742122,-0.1197061999999999,-1.0225274,0.0918076,-0.1224504,125.8728666,82.267027,103.7486022,45.34639572797947,1.1708023312093463,25.75963914183225,1.033917317597824,111.3270776,3.276685599999999,-66.4342346
2937.852,45.3438324,-36.2064728,8.427675400000002,-1.0440482,0.1425464,0.4954534,15.2629688,78.2427476,170.06213079999998,18.2066234,19.189468,-0.105615,-1.0184476,0.0978692,-0.1411203999999999,128.6575682,82.0262266,34.189325,58.63443972601934,1.1644012159250607,26.45237177042309,1.032825668518439,113.3945994,3.783479,-135.87280579999998
2957.838,43.4129054,-54.2784606,15.0350224,-1.047819,0.1494044,0.484083,16.038929000000003,77.11050879999999,170.0399476,19.9460252,16.9237208,-0.2052042,-1.0180336,0.1053194,-0.1425603999999999,131.05018460000002,81.7984786,-35.798596200000006,71.11176793571936,1.1638654056158555,26.15909699815889,1.0333479832048256,115.0112556,4.687969799999999,-205.8385438
2977.823,38.7476868,-71.8657736,22.0691156,-1.0536326,0.1713375999999999,0.4939158,16.8239936,75.6009874,170.1203826,21.334789,15.9128394,-0.7135296000000001,-1.0171372,0.1174146,-0.1387358,133.25903320000003,81.578331,-105.9981292,84.57611075737353,1.1762019581883716,26.625191153018783,1.033248224832078,116.4350396,5.9773436,-276.1185118
2997.809,31.2520166,-88.5414878,28.7810558,-1.0659188,0.1855792,0.5111724,17.511767999999996,73.7192368,170.2506836,21.228569,14.2904664,-2.1187614,-1.016636,0.1169178,-0.1397012,135.3335144,81.39323879999999,-176.3302336,98.20709127332373,1.196628492970078,25.677981259970963,1.0328286177940076,117.8217464,7.6740020000000015,-346.5809172
3017.794,21.9771888,-104.49680779999998,35.3474012,-1.0796778,0.1996256,0.5325002000000001,18.0501002,71.4807144,170.4103118,20.0768154,11.4825106,-4.0847596,-1.0088236,0.1107442,-0.1465911999999999,137.25484,81.26675420000001,-174.7938444,112.48119149233236,1.2202913565981857,23.486417931957646,1.025416166084795,119.2047398,9.786039800000005,-345.20415619999994
3037.779,11.2903536,-119.90728600000004,41.6736356,-1.0912068,0.2149836,0.5664976,18.3886248,68.896917,170.57186259999995,19.3845336,9.5514248,-5.7940858,-0.9935172,0.0980432,-0.1503728,139.1388578,81.18775640000001,-173.28158260000004,127.44379633556284,1.248146529635427,22.37322705506172,1.009604315928731,120.750233,12.290839400000005,-343.8534452
3057.764,0.5758552000000016,-135.235617,47.9877328,-1.0940607999999998,0.2296514,0.5986434,18.5356588,65.9717758,170.743109,21.2004602,8.115289,-7.0268756,-0.9921706,0.0939062,-0.1363202,140.9900082,81.1487396,-171.83834840000003,143.498523385665,1.2681020148166944,23.76329962238368,1.005884720448044,122.4543494,15.1769638,-342.5814574
3077.75,-9.6756398,-149.8233582,53.061914,-1.0924008,0.2376539999999999,0.634558,18.4782888,62.731111,170.8990296,22.224267000000005,6.711782,-8.810858,-1.0040494,0.083131,-0.1066756,142.8619352,81.164691,-170.3938172,159.2363758228887,1.2854893180888902,24.83137692515212,1.0131167970361166,124.3836464,18.43358,-341.2928468
3097.735,-19.8996534,-162.9255066,56.9654906,-1.0798882,0.2490716,0.6802992000000001,18.2069478,59.2286032,171.03632199999998,22.7180902,5.6177908,-10.576851199999998,-1.0155653999999998,0.0819442,-0.0910787999999999,144.80226120000003,81.21919700000001,-168.8892854,173.74056528515575,1.3003853997744057,25.6815298826772,1.0229287763086146,126.5953134,21.9905938,-339.92560740000005
3117.721,-30.3845562,-174.047522,60.1295164,-1.0628278,0.2624698,0.7318324,17.7343268,55.5087858,171.18024,23.4336458,5.2409176,-11.686162200000002,-1.0202538,0.0854546,-0.080663,146.8165496,81.28638000000001,-167.32352,186.6315083588763,1.316841672356491,26.705230943291923,1.0269989409169806,129.0822228,25.7775942,-338.50375999999994
3137.706,-39.406174400000005,-183.857611,61.8043716,-1.04696,0.2671966,0.7731548,17.076206399999997,51.61270879999999,171.32192700000002,21.9156972,3.2967940000000007,-13.5292978,-1.0403574,0.090499,-0.0574976,148.8768708,81.40319819999999,-165.68043219999998,197.92990691742727,1.3286412643804948,25.965525864145494,1.045867851471456,131.80066440000002,29.7904894,-337.0023592
3157.691,-45.4396614,-192.787445,62.2897102,-1.0256452,0.268463,0.8129734,16.2843542,47.5653584,171.46407779999998,14.1968618,-2.3449274,-17.0854304,-1.061542,0.1029234,-0.0345735999999999,150.8986604,81.6476852,-163.9221618,207.6337394899361,1.336018790197054,22.337446170787164,1.0670801178208318,134.61430620000002,34.0823268,-335.38623959999995
3177.677,-51.89677819999999,-200.5965086,62.3433304,-0.988164,0.2681912,0.8532906,15.3693372,43.386864200000005,171.62900699999997,0.4148780000000002,-11.5527322,-19.4590208,-1.0767251999999998,0.1369988,-0.0133695999999999,152.4427612,82.0641282,-162.371228,216.37681413546468,1.332853877475622,22.633851539997195,1.0854881729989692,137.073424,38.677264,-334.000235
3197.662,-56.7588524,-207.5005246,61.7715378,-0.9345826,0.2657574,0.8873096,14.3669574,39.0957106,171.8176942,-20.6568706,-21.433899,-21.3783666,-1.0989134,0.1598386,0.0164978,153.22775260000003,82.6686142,-161.1657806,223.81634863704,1.3158229205062817,36.64905029890053,1.1105994850324576,138.8607952,43.5729036,-332.98347479999995
3217.648,-58.4442268,-213.5923062,59.9045526,-0.8704098,0.2575802,0.918172,13.323211,34.712392400000006,172.00932619999998,-45.043555000000005,-32.871537000000004,-23.5576936,-1.1169518,0.165078,0.0368506,152.92272340000002,83.5029632,-160.5742248,229.4034793465229,1.2911237744508,60.53449198210782,1.1296858131036258,139.5995124,48.7905708,-332.583551
3237.633,-58.0067536,-218.8575894,57.7799226,-0.7999158000000001,0.2530488,0.9424542,12.279523,30.239621,172.207779,-67.4896734,-43.3433552,-25.8828256,-1.1227796,0.1495154,0.0405778,151.5161162,84.5603438,-160.6531738,233.67059583279212,1.261791940602221,84.28180774444773,1.1334175942106068,139.23659320000002,54.3207228,-332.8609528
3257.618,-60.0523888,-222.4697782,55.31523980000001,-0.7229270000000001,0.2408512,0.9581206,11.184529799999998,25.700885600000003,172.4182374,-84.4891194,-49.8014122,-28.252788599999995,-1.1099824,0.1197933999999999,0.0453016,149.203195,85.80803519999999,-161.33381660000003,236.97862217312996,1.2241845579873976,102.06278468559466,1.1173466883451528,138.0186652,60.1071496,-333.752054
3277.604,-58.2798378,-224.8859404,52.289370000000005,-0.641638,0.2203124,0.9685476,10.1117494,21.1200988,172.639032,-97.0626432,-53.3832618,-32.4224732,-1.0981434,0.093195,0.048672,143.543605,87.1382918,-93.36143180000002,238.1268651340784,1.182506376347933,115.42160159078786,1.103165082194211,133.4318556,66.018193,-266.00046380000003
3297.589,-53.2244812,-226.6172606,49.5906342,-0.5635376,0.2034894,0.975905,9.1245796,16.5069644,172.8758392,-105.4315168,-55.672963800000005,-39.0685688,-1.0809323999999998,0.0858859999999999,0.0535478,105.2223274,88.25531459999999,-57.42508800000002,238.0072671184972,1.1451520124206742,125.4656793752982,1.085660455782838,96.0977478,71.7483502,-230.3009272
3317.574,-50.4119126,-227.812979,47.792400400000005,-0.4895075999999999,0.1947454,0.975373,8.1779528,11.8671182,173.1446044,-115.2757154,-54.965139,-47.7272958,-1.0497298000000002,0.074059,0.0615356,65.33567719999999,88.6119156,-22.92437580000001,238.1684863050492,1.1085557949006986,136.33617212849938,1.0541366223390591,57.157724400000006,76.74479740000001,-196.0689802
3337.56,-49.6024994,-228.2500762,45.2727454,-0.4173596,0.1766014,0.964231,7.2300808,7.223927599999999,173.4352844,-120.622734,-53.4474206,-52.1707002,-1.0225082,0.0327888,0.0554306,25.677540600000007,88.38097839999999,11.90909519999999,237.9246240053476,1.065419406410039,141.87407333895203,1.0245343702819545,18.447459800000008,81.1570508,-161.5261892
3357.545,-44.18507,-228.5471922,42.1436538,-0.3473241999999999,0.1571102,0.9532106,6.3699996,2.5870184,173.73419800000002,-116.397499,-54.2925972,-54.56980600000001,-1.0130732,0.0007954,0.0506456,-13.045894599999992,87.51442879999999,47.61976979999999,236.56336789330445,1.0266100344347115,139.54901508450027,1.0143386604180873,-19.4158942,84.9274104,-126.11442819999998
3377.531,-39.0963146,-228.5200956,39.8387474,-0.2765934,0.1516584,0.941769,5.5894246,-2.0401728,174.0521056,-109.1719802,-52.8714532,-56.3402428,-0.9987214,-0.0225286,0.058047,-48.30471959999999,86.07172399999999,14.900250599999993,235.2383508332269,0.993193349038907,133.7465318542202,1.0006604952954423,-53.89414419999999,88.1118968,-159.15185499999998
3397.516,-39.2581708,-227.555844,37.490452600000005,-0.2053766,0.1404,0.918489,4.7780248,-6.639022600000001,174.38955979999997,-100.3416884,-50.6605004,-54.874993200000006,-0.972746,-0.0670059999999999,0.0570505999999999,-50.782032,84.35580139999999,14.329026799999994,233.94101852660884,0.9515848627151232,125.08479368189062,0.9767186675355192,-55.560056800000005,90.994824,-160.060533
3417.502,-37.144328,-225.888861,34.030733,-0.1349575999999999,0.1069402,0.8815942,3.9802586,-11.1938164,174.7292694,-84.798567,-50.8910868,-47.654168000000006,-0.966161,-0.0990488,0.0661876,-50.9458008,82.9254364,15.837618999999997,231.438046602036,0.8982528005230154,109.7798679572482,0.9734775503812092,-54.92605940000001,94.1192528,-158.89165039999995
3437.487,-27.905934600000005,-223.8067718,31.364737,-0.0579724,0.0834762,0.8575479999999999,3.3373264000000007,-15.6989752,175.0815032,-69.713661,-50.8259576,-40.8479492,-0.967466,-0.098968,0.0765622,-50.3638986,81.62857220000001,17.814236799999996,227.71025233071063,0.8635494470105344,95.45589269304278,0.97552390880431,-53.701225,97.3275474,-157.26726639999998
3457.472,-21.0070058,-221.0026856,30.4373256,0.019646,0.0801771999999999,0.8287004,2.7925062,-20.1433844,175.474176,-63.0559882,-48.40663539999999,-36.2536278,-0.9660578,-0.0822694,0.0889297999999999,-49.8801842,80.454007,19.570552599999992,224.0756839212459,0.8328017181034151,87.37039273854734,0.9736243815996188,-52.6726904,100.5973914,-155.90362339999996
3477.458,-21.601444000000004,-216.5856842,28.9424224,0.0893594,0.0671366,0.7866367999999999,2.1960768,-24.494419800000003,175.8978334,-58.714524,-46.7170564,-30.5750264,-0.9537494,-0.0967026,0.0843366,-49.3140428,79.3955598,21.332595599999998,219.5760569771834,0.7945375262013493,81.0229037160978,0.962341921016995,-51.5101196,103.8899796,-154.56523779999998
3497.443,-18.917543,-211.3433716,26.6622008,0.153534,0.0417759999999999,0.7413508,1.6165584,-28.734997600000003,176.339554,-49.89518520000001,-44.9599016,-21.4870914,-0.950811,-0.1157314,0.0798762,-48.3195246,78.4991838,23.3601064,213.85688463061476,0.7582340878598376,70.51678775196682,0.9611532250340734,-49.936083,107.23418139999998,-152.9794476
3517.429,-13.8964292,-205.1769746,24.9574642,0.2204214,0.0375739999999999,0.7043552,1.097009,-32.8369306,176.8077576,-40.530773800000006,-42.4462502,-17.5177458,-0.9535182,-0.1290722,0.0782525999999999,-47.3119166,77.69499679999998,25.217665599999997,207.15592356921377,0.7389950248959731,61.2478505645805,0.965391143501348,-48.4089256,110.5319274,-151.59009199999997
3537.414,-14.4125232,-197.9506654,23.5382822,0.2859916,0.0327478,0.6622990000000001,0.5228258,-36.776397800000005,177.3099488,-36.144169000000005,-39.3376344,-15.4930126,-0.9418352,-0.1174342,0.0859664,-46.4492556,76.9661806,26.842234599999998,199.86554852255085,0.7221520470623899,55.6226920627938,0.9530134087291952,-46.9720814,113.7425784,-150.4677142
3557.399,-17.257664600000002,-189.7930664,21.5131312,0.3430782,0.0168702,0.6140269999999999,-0.1548711999999999,-40.538324800000005,177.8429168,-32.20318240000001,-35.156772000000004,-10.5585062,-0.9240782,-0.1386468,0.0774999999999999,-45.662234,76.36253380000001,28.3165856,191.78646942625883,0.7035740271586778,48.83160479979225,0.937629833604648,-45.5073628,116.9008586,-149.5263312
3577.385,-14.9363248,-180.872873,19.5670662,0.3991576,-0.0055044,0.5618994,-0.8459137999999999,-44.1155174,178.4190032,-26.75998660000001,-29.3972348,-3.7302278,-0.9144086,-0.150184,0.0756106,-44.8294198,75.93407160000001,29.731882599999995,182.54029710034,0.6892662938063053,39.92754558144544,0.9297393637156168,-43.983506,120.049589,-148.6871206
3597.37,-13.487604,-170.5721008,18.0023396,0.4548442,-0.0161542,0.5199716,-1.5762246000000002,-47.4822792,107.04889819999998,-22.526381800000006,-24.5863348,1.565014,-0.9133146,-0.1482724,0.0824886,-43.93802639999999,75.64391499999999,31.123562599999996,172.04895019749438,0.691024362275195,33.382255836256164,0.9289416732523522,-42.36180180000001,123.1261942,-75.92533559999997
3617.359,-14.606748199999998,-158.7857268,16.4409928,0.510879,-0.033323,0.4690421999999999,-2.3970642,-50.6300346,35.73321839999999,-18.455459200000004,-17.537857600000002,8.5643688,-0.908489,-0.1480366,0.0793898,-42.993704,75.5515398,32.48880959999999,160.3014983480569,0.6943402338557373,26.86128880793243,0.9238884339597504,-40.596639800000005,126.1815744,-3.24440879999998
3637.341,-16.0362594,-146.163072,14.4281648,0.5618652,-0.0434818,0.4290551999999999,-3.297641,-53.5406746,-35.5469604,-12.589985600000006,-10.243135400000002,13.262079,-0.9058172,-0.1583043999999999,0.0830109999999999,-42.0821706,75.6211366,33.701119199999994,147.7463270999223,0.7082877484111383,20.95977813893033,0.9232853887050312,-38.7845296,129.16181120000002,69.24807960000001
3657.326,-15.7596218,-132.8267256,11.982064,0.6091284,-0.0640966,0.3925176,-4.2449082,-56.1981194,-106.7963226,-7.029895000000006,-2.6006732,16.7754288,-0.9080766,-0.1598674,0.0995588,-41.23558479999999,75.84029860000001,34.7306976,134.2939856084286,0.7274722318603508,18.37383836404611,0.9274010198979512,-36.9906766,132.038418,141.5270202
3677.312,-15.0440472,-119.1136626,9.9956246,0.6517302,-0.0790804,0.3637734,-5.2244662,-58.58843999999999,-178.0155366,-0.8809402000000055,4.9282278,18.446741600000003,-0.9060744,-0.1608409999999999,0.1034694,-40.54733639999999,76.1875824,35.47011719999999,120.4753106876533,0.750557825756124,19.11401999951448,0.9260380998386188,-35.3228702,134.77602240000002,213.4856538
3697.297,-13.7187686,-105.9196838,7.822948799999999,0.6891026,-0.0912298,0.3264926,-6.1772062,-60.7190522,-177.2495392,4.219143999999995,12.6334458,17.2978914,-0.8999718,-0.1559748,0.1035174,-40.2100196,76.63174140000001,35.742157,107.09053439085898,0.7679731034284729,21.8316782625722,0.919235133756886,-34.032813399999995,137.3507936,212.99169620000004
3717.282,-13.837038799999998,-93.105284,5.7187686,0.7245338,-0.0971938,0.31325,-7.112194799999999,-62.590757800000006,-176.5184418,7.231625999999994,18.7195332,16.5587176,-0.9051318,-0.1557538,0.1101156,-40.17238539999999,77.15168000000001,35.6435652,94.3014414830108,0.7953121554464511,26.017464641781064,0.9250125766437124,-33.0601906,139.7424378,212.162007
3737.268,-13.6776752,-80.81197039999999,4.051865600000001,0.7566878,-0.109438,0.2943867999999999,-8.032714,-64.2197136,-175.813147,10.012295999999996,24.3712336,16.8692518,-0.910006,-0.1628276,0.1136822,-40.40875999999999,77.7525588,35.2082616,82.06138539927066,0.819278152111406,31.28537605126696,0.9314222404229996,-32.376046,141.97227239999998,211.02140860000003
3757.253,-12.418676,-69.0328666,2.3468480000000005,0.79017,-0.1180909999999999,0.2728226,-8.889897999999999,-65.6211646,-175.15939939999998,12.716646399999991,27.416830600000004,16.6982614,-0.9111326,-0.1613272,0.1101745999999999,-40.81599419999999,78.39357279999999,34.54366879999999,70.18025277912211,0.844243024402192,34.52864940298794,0.9318409320950436,-31.9260962,144.0147374,209.7030682
3777.239,-10.795329,-58.0260322,0.947322,0.8232528,-0.1199505999999999,0.2561502,-9.6547862,-66.809494,-174.576889,14.847972999999996,27.6939518,16.546740800000002,-0.9265652,-0.1544654,0.1223044,-41.1976502,79.029492,33.8604694,59.02928900186213,0.8704862113257394,35.51354529770066,0.947280843207314,-31.542864,145.838986,208.4373584
3797.224,-10.854480999999998,-46.9923182,0.1396486,0.8604973999999999,-0.1170246,0.2469925999999999,-10.3588322,-67.7861266,-174.066391,15.274282199999996,25.983005400000003,16.0198142,-0.9474544,-0.1452878,0.1359048,-41.47304619999999,79.6259214,33.27547659999999,48.22983754192931,0.9028598323475686,34.13289781639097,0.9681159535774834,-31.114214000000004,147.412048,207.34186760000003
3817.209,-10.7993592,-36.490081200000006,-0.8886892,0.890511,-0.1182358,0.2228467999999999,-10.9544798,-68.560028,-173.6729004,14.689504199999991,22.5927084,14.8492682,-0.9580622,-0.135236,0.1428538,-41.5998086,80.1516508,32.85240079999999,38.064970164278535,0.9255540188410832,30.768697934179457,0.978048650599386,-30.6453288,148.7116788,206.5253012
3837.195,-10.4692886,-25.5716788,-2.5154310000000004,0.9187054,-0.1217665999999999,0.1961226,-11.3616868,-69.1174424,-173.472583,14.578351399999995,17.6867362,14.1860376,-0.9650862,-0.124322,0.1430307999999999,-41.408069,80.594322,32.754142599999994,27.74606555092488,0.9472649001707388,26.95538220353935,0.9835167222081584,-30.0463822,149.7117644,206.2267256
3857.18,-10.814165,-14.0222128,-4.449710400000001,0.9435318,-0.1205416,0.1783158,-11.5381634,-69.4423478,-173.5218018,15.252199999999991,12.4835628,14.0395058,-0.9728708,-0.1212993999999999,0.1415928,-40.7927896,80.9541654,33.07094179999999,18.258382707665454,0.9677701480576056,24.19869145490676,0.990575418100429,-29.2546262,150.3965132,206.59274360000003
3877.166,-11.8627908,-1.9045475999999997,-6.9851122000000005,0.9610664,-0.1184024,0.1620828,-11.4582852,-69.526143,-173.8634674,15.387982199999993,5.9776628,13.1076908,-0.9873672,-0.1197821999999999,0.144252,-39.6998712,81.196971,33.867324,13.897658060688473,0.9818037418906896,21.07923164743974,1.005012638018388,-28.241586,150.72311399999998,207.7307914
3897.151,-12.730847399999998,10.570178,-9.5272042,0.9670212,-0.117376,0.1527642,-11.1286566,-69.362967,-174.48854980000002,13.569363199999994,-2.1841134,11.8129538,-1.0071906,-0.1216493999999999,0.160937,-38.100129,81.281668,35.21141639999999,19.09373610224747,0.9860243543782676,18.123019794684,1.027196280765132,-26.9714724,150.644635,209.6999662
3917.136,-12.3840516,23.756538,-11.4279538,0.963242,-0.1206582,0.1516352,-10.5746676,-68.93730919999999,-175.3461792,9.872167199999996,-11.6458318,9.38081,-1.0134178,-0.1227676,0.1672915999999999,-36.151614,81.17481219999999,36.982057,29.126207439895797,0.9825409842191214,17.918835893962168,1.0344438121025037,-25.5769464,150.11212139999998,212.3282362
3937.122,-11.807108,37.588955,-12.463730600000002,0.9505838,-0.1197558,0.1562802,-9.8700588,-68.23965439999999,-176.35615539999998,4.233594999999996,-20.104614,4.656700600000001,-1.0235306,-0.1206154,0.1701505999999999,-34.2408162,80.87144,38.8275824,41.32410819104346,0.970759760892529,21.0666487888098,1.04456411509006,-24.3707574,149.11109439999998,215.1837378
3957.107,-12.2073756,51.8745698,-12.4938962,0.9324266,-0.112502,0.169281,-9.1153438,-67.2558226,-177.4342284,-3.5552302000000053,-27.3598038,-4.417703,-1.0435862,-0.110919,0.1749225999999999,-32.900819799999994,80.34876560000001,40.2499548,54.73653673033143,0.9543228601225898,27.94127100805716,1.0639422434428478,-23.785476,147.6045882,217.6841832
3977.092,-12.57153,66.4446182,-11.6053236,0.9073628,-0.108737,0.1893998,-8.386785999999999,-65.9807454,-106.5005766,-14.400241000000005,-31.6851946,-18.3850072,-1.0401952,-0.1089318,0.1724212,-32.7805416,79.60036459999999,40.6511656,68.61205572015305,0.9332755596461744,39.361491174014255,1.0600005949827198,-24.3937556,145.58111000000002,147.1517422
3997.078,-11.9594638,80.7265304,-9.7651824,0.8772477999999999,-0.1053264,0.2117416,-7.72992,-64.4195302,-35.4862944,-27.978433400000007,-30.326061600000003,-34.1143024,-1.0154454,-0.1221564,0.1457814,-34.30378299999999,78.69454479999999,39.655001,82.1897820419966,0.9085658249749216,53.53735495823339,1.0331039458970623,-26.573863,143.114075,75.14129540000002
4017.063,-11.2979302,94.6924056,-7.321552599999999,0.8453198000000001,-0.098688,0.2410363999999999,-7.187145599999999,-62.586363000000006,35.6537752,-40.097241800000006,-24.280511,-52.0685256,-1.0241184,-0.1357648,0.1354959999999999,-37.51221999999999,77.6517104,37.1804916,95.64465503933585,0.8845357153563671,70.0604265798221,1.0419259782506625,-30.3250744,140.23807340000002,1.526716400000015
4037.049,-10.3713456,107.104466,-4.3425042,0.8101882,-0.0906728,0.2757254,-6.7725054,-60.50968,106.9431794,-57.75558100000001,-16.5901482,-66.00625219999999,-1.0031218000000002,-0.1258818,0.1513275999999999,-42.0236,76.5159194,33.7231838,107.69303036606786,0.8606108134832144,89.2623407907026,1.022252227059565,-35.2510946,137.0255994,-73.21999559999999
4057.034,-9.6048728,118.5686902,-1.1736002,0.771584,-0.0884974,0.3103676,-6.487415400000001,-58.2066368,178.3820984,-78.22163700000002,-11.3055922,-71.207907,-0.9413564,-0.1621174,0.1479254,-47.13574059999999,75.34365360000001,30.064843799999995,118.96287326169116,0.8363621858934801,106.38142191789468,0.9666001485458608,-40.6483252,133.5502904,-148.31725459999998
4077.02,-8.3928938,129.8531874,2.0229844,0.733466,-0.0808404,0.3497682,-6.2988622,-55.6749626,177.94861759999998,-91.421701,-6.5627932,-69.05642759999999,-0.8934444000000001,-0.208145,0.1434198,-52.17807979999999,74.21152179999999,26.74403879999999,130.13986095797182,0.81660598648271,114.75969615328114,0.9285130456533178,-45.8792176,129.8864844,-151.20457879999998
4097.005,-8.264425800000001,141.0840178,5.496881999999999,0.690545,-0.0634624,0.3943814,-6.1988824000000005,-52.909488,177.619803,-93.79784080000002,-2.2165501999999995,-55.23536839999999,-0.852698,-0.2420606,0.1478035999999999,-56.5236266,73.2955002,24.186202599999994,141.43272791018472,0.797757207366201,108.87558934772748,0.8986284646333655,-50.3247442,126.2049882,-153.4336004
4116.99,-10.187927599999998,151.7392516,8.5894198,0.6400577999999999,-0.0511394,0.4402166,-6.1981878,-49.9072336,177.3638794,-85.4496196,0.4708436000000002,-32.074418800000004,-0.8157448,-0.2700672,0.1366224,-59.69364079999999,72.744554,22.672243799999997,152.32324995683217,0.7785113232887239,91.27227139081266,0.8700813475903503,-53.495453,122.6517876,-154.69163559999998
4136.976,-10.4983534,162.2303558,11.1666874,0.5816346,-0.0541806,0.4737412,-6.2550838,-46.6749658,177.1628174,-65.1183634,-0.0058577999999997,-10.7946628,-0.8241308,-0.3035594,0.1285356,-61.5347822,72.5239806,22.1172054,162.95274982213468,0.7521070867309787,66.00701501487538,0.8876155053311993,-55.2796984,119.1989464,-155.04561199999998
4156.961,-7.986808600000001,172.39606020000002,13.8389324,0.520255,-0.0527666,0.502966,-6.3031334,-43.2216858,177.00965879999998,-40.70120420000001,3.750667,7.885038400000001,-0.8611144,-0.2952842,0.1315476,-62.4117788,72.67140199999999,22.0567898,173.1349379358968,0.725551084525797,41.627266987450206,0.9197910304643984,-56.1086454,115.89308780000002,-154.952869
4176.947,-3.4427154,180.804193,16.018235400000002,0.4515462,-0.0430416,0.5645038,-6.294003000000001,-39.5885246,176.8969634,-16.873556000000008,10.4959838,27.5349018,-0.8817997999999999,-0.2687334,0.1359262,-62.53204099999999,73.2411224,22.287195199999992,181.5450146961807,0.724162336965573,33.956639780028915,0.9318070934490892,-56.238038,112.829647,-154.6097682
4196.932,2.9891806,187.380487,17.0845654,0.3835226,-0.0382412,0.6107258,-6.183575,-35.818539,176.81202079999997,4.587913999999993,12.605382600000002,38.1024818,-0.9212592,-0.230794,0.1431682,-61.92871979999999,74.03568419999999,22.819974999999992,188.1814668981073,0.7221758628435597,40.39484799678184,0.9604590139677384,-55.745144800000006,109.8542232,-153.99204579999997
4216.918,8.691716,193.5432098,16.909993,0.3198912,-0.0453418,0.6343764000000001,-5.971252,-31.919987799999998,176.7310822,17.538290599999993,16.396254199999998,43.3310966,-0.926353,-0.2025234,0.1649563999999999,-61.0033552,74.95952000000001,23.4129994,194.47485145892648,0.7119126881448595,49.53799270781566,0.9624740111075832,-55.03210320000001,106.8795078,-153.31808279999998
4236.903,11.7788906,200.1041076,15.6509488,0.2520058,-0.0428694,0.6823138,-5.6897596,-27.89607,176.62604979999998,31.5540894,24.5633094,54.0176872,-0.9349442,-0.2052838,0.1557778,-59.84383919999999,76.1411408,23.9592952,201.0605588883592,0.7286266742032164,67.20808922280386,0.9698086505228338,-54.1540796,104.0372108,-152.66675459999996
4256.888,21.0980402,204.2462218,13.2261812,0.17356,-0.0324562,0.7505976000000001,-5.2132046,-23.7963894,176.4889802,54.063675799999984,30.3109622,63.5890098,-0.9398512,-0.176407,0.1418522,-57.97421199999999,77.54848940000001,24.769398399999996,205.75854365977327,0.7710857511614386,88.79863533772256,0.9667273423438896,-52.7610074,101.3448788,-151.71958179999996
4276.874,28.939955399999995,207.82205800000003,10.1675764,0.1024128,-0.0268404,0.7619768,-4.578351199999999,-19.6294792,176.3265198,74.4086212,27.591312800000004,66.8257834,-0.9752856,-0.1438804,0.1447704,-54.75174499999999,78.96715079999998,26.537241999999992,210.0735785855975,0.7692967128580753,103.7478133646018,0.9964145923197232,-50.1733938,98.59663,-149.78927779999998
4296.859,29.613639,212.7428588,5.6444496,0.032249,-0.0205472,0.7909820000000001,-3.9252406,-15.369257199999998,176.1148864,89.19782239999999,29.543064800000003,67.8758642,-0.9727768,-0.1378274,0.1399504,-50.68176679999999,80.39587379999999,28.8604292,214.86821867485665,0.7919057454980613,115.91452514493506,0.9924097990594208,-46.7565262,95.765131,-147.2544572
4316.844,33.130758400000005,217.00614,1.106381,-0.0561382,-0.0205984,0.8381906000000001,-3.209917,-11.0363734,175.86058640000002,111.7297086,30.984912,71.6259818,-0.9752676,-0.1542214,0.1172,-44.8697726,81.8729644,32.48678279999999,219.52342933904788,0.840320934827974,136.28600010383528,0.9943173395992452,-41.6598556,92.9093378,-143.37380359999997
4336.83,45.422681,218.4219206,-1.9168966,-0.1409079999999999,-0.0024796,0.8633694000000001,-2.2653232,-6.675661,175.610794,133.98802619999998,25.9712906,71.20196,-0.9954876,-0.1116776,0.1054522,-35.7888548,83.17920219999999,38.945084,223.10318204901407,0.8747959383402052,153.93835846936634,1.007267399740685,-33.5235316,89.85486320000001,-136.66571
4356.815,46.601981,220.9862974,-5.0830280000000005,-0.2193864,0.0142617999999999,0.871279,-1.3132206,-2.2628345999999997,175.3710478,143.0643964,21.8346008,64.8546784,-1.0327744,-0.0721284,0.115116,-24.119554399999995,84.1966628,47.80534479999999,225.90379688118213,0.8985882746203625,158.58846307269366,1.0416703705289498,-22.8063338,86.4594974,-127.56570299999998
4376.8,42.2078922,224.7214782,-8.1393928,-0.2994268,0.0306445999999999,0.9065408,-0.4621742,2.2260896000000003,175.13939499999998,147.84626139999995,25.543712,57.1039846,-1.0070932,-0.0673701999999999,0.097715,-11.389572799999993,85.0740524,57.6201378,228.7957574858253,0.955202450861617,160.53617439659232,1.014062955915105,-10.927398599999998,82.8479628,-117.5192572
4396.786,46.2716484,226.36575,-10.5594766,-0.395268,0.0223333999999999,0.9159968,0.4519015999999999,6.7511336,174.9263212,160.9707274,27.1642052,56.87652039999999,-1.0081440000000002,-0.0327101999999999,0.0735516,4.760141200000007,85.7394486,70.5755744,231.2877445192064,0.997890630374792,172.87107246917984,1.0113526189132058,4.3082396,78.988315,-104.35074679999998
4416.771,54.456099,226.271582,-12.2051376,-0.4861548,0.0593275999999999,0.9099282,1.5167128,11.2785518,174.7583616,162.28725260000002,23.424744,53.8751334,-1.071189,0.0709158,0.0878346,22.315636000000005,85.98524019999999,84.8919744,233.05205625120635,1.0333613031462132,172.5931661068582,1.077121089463854,20.7989232,74.7066884,-89.86638719999999
4436.757,51.119037000000006,227.9391908,-16.2181462,-0.567878,0.0816047999999999,0.909869,2.4984792,15.8451674,174.5898862,142.3463972,20.9229132,42.9769354,-1.0742619999999998,0.1320496,0.1168965999999999,37.32732540000001,85.971991,97.049864,234.1633167524981,1.0756423027326696,150.15752418367413,1.088641702579742,34.8288462,70.1268236,-77.54002219999998
4456.742,48.5704446,230.1978608,-19.8744462,-0.6453242,0.0928263999999999,0.9059062,3.4167696,20.462838,174.4217618,114.06645199999998,18.5721358,36.7088498,-1.0195782000000002,0.1311312,0.0999487999999999,49.71845600000001,85.798703,107.1497862,236.10408047573964,1.116121009049216,121.25848157420124,1.0328237314034376,46.3016864,65.33586499999998,-67.27197559999999
4476.728,53.376265,230.0402802,-23.046637,-0.7346526,0.0986176,0.8789072000000001,4.4251886,25.0833028,174.26431240000002,88.16781399999999,14.1856,34.870372,-1.0315798,0.157328,0.0796698,60.428300600000014,85.4562606,116.0854736,237.2734786208828,1.1497468155765251,95.8683342731946,1.0465449156075817,56.003112,60.3729578,-58.1788388
4496.713,56.0931472,229.0301668,-26.1946872,-0.8228742,0.1273378,0.8403024,5.484063600000001,29.6909968,174.12106,55.58552599999998,5.4906198,27.5649658,-1.0798288,0.1820222,0.1118116,66.29319240000001,85.0128418,120.8353012,237.2496999044309,1.1829813979011845,62.28743810785603,1.1007561730450754,60.80912880000001,55.32184500000001,-53.2857588
4516.698,50.7901656,229.2588564,-30.5041424,-0.8952470000000001,0.1308799999999999,0.8106478000000001,6.4189068,34.3138744,173.9639952,21.89674559999999,-3.0033841999999997,19.7819816,-1.0510064,0.152308,0.1083698,67.97790460000002,84.6049544,122.0820192,236.7905548434538,1.2148031202848637,29.66166853949162,1.0674999734224822,61.5589978,50.29108,-51.88197599999999
4536.708,46.3105264,230.0689638,-33.602554,-0.959788,0.1385586,0.791866,7.2573604,38.9721608,173.80638100000002,3.2576995999999894,-5.1492786,19.5625496,-0.9735996,0.0984444,0.0024277999999999,68.63670820000002,84.1812728,122.6767778,237.07704358451437,1.2519757395948057,20.489534490483628,0.9785670008866844,61.379347800000005,45.209112,-51.12960319999999
4556.669,45.914621,228.0639438,-35.54781799999999,-1.0329678000000002,0.158665,0.7584496000000001,8.104378200000001,43.5998688,173.67777080000002,5.0634061999999895,-3.582991599999999,19.6499718,-0.9530324,0.0876813999999999,-0.1049662,69.3234712,83.768698,123.26671159999998,235.34009910710992,1.2912950297286832,20.605758973953478,0.9627962850458864,61.219093,40.168829200000005,-50.4110592
4576.654,43.1753258,222.3225162,-38.337204,-1.1125478000000002,0.163323,0.6743206,8.871146200000002,48.123314,173.52019639999995,6.86735039999999,1.7597438000000012,16.0454358,-0.9437772,0.0607902,-0.1698516,70.4249452,83.4522766,124.2410356,229.69795640791637,1.3111618058798846,17.54175617690373,0.9608644117035662,61.553799000000005,35.3289626,-49.27916079999999
4596.64,37.6502024,211.7230838,-39.5481522,-1.1719616,0.1572978,0.6136282,9.500075,52.442553,173.3308806,6.8577663999999885,11.0030998,11.6251042,-0.930514,0.0199949999999999,-0.2200782,72.93255160000001,83.2773802,126.6273362,218.6509965606769,1.3322072502409823,17.413793752843937,0.95639454114724,63.43247660000001,30.8348272,-46.70354439999999
4616.625,31.6101534,196.1622408,-37.6884922,-1.2080166,0.1434675999999999,0.5759672,10.0195824,56.4592574,173.15445839999998,12.245907199999987,22.339577,8.9090334,-0.9259734,0.0241213999999999,-0.2169802,77.2141098,83.20394280000001,130.687973,202.23562732109832,1.3459662973496624,26.98869800142749,0.9513616487107096,67.1945274,26.7446854,-42.46648539999999
4636.611,28.1871318,176.57908940000002,-33.5140286,-1.2134094000000002,0.1382469999999999,0.552206,10.543265600000002,60.0522734,173.0622894,17.586035599999985,29.5442308,7.5765346,-0.9839364,0.0581666,-0.148038,82.450209,83.1523086,135.60192560000002,181.92822575248016,1.3403007391825763,35.20701774125625,0.9967093066910332,71.9069434,23.1000352,-37.46036379999999
4656.596,24.5819084,157.166391,-30.3296516,-1.187072,0.1257352,0.5319606,11.0454342,63.2311142,173.017569,15.702099799999989,32.43132820000001,5.5441642,-1.0203914,0.0693376,-0.0783301999999999,87.8916396,83.101648,140.760391,161.94268259704808,1.3068784770036577,36.45661453867922,1.0257397000212871,76.8462054,19.8705338,-32.25717799999999
4676.581,21.8251168,139.76172179999998,-26.7031524,-1.142319,0.1102951999999999,0.5471276,11.5355664,66.044686,173.023758,14.09519099999999,32.117508400000006,4.6866476,-1.0304462,0.0749085999999999,-0.0417664,93.2233946,83.0017472,145.8422574,143.95392649015122,1.2713796992188449,35.38606252293602,1.034009236717622,81.68782819999998,16.957061200000005,-27.181500599999985
4696.567,20.0573044,124.42169640000002,-22.8417052,-1.0987133999999998,0.1034358,0.5644134000000001,12.0613626,68.52941659999999,173.11594540000002,15.376531399999989,33.0500508,4.8889592,-1.0101716,0.0828154,-0.049884,98.7100784,82.8280458,151.05578599999998,128.081214435575,1.2395291792292586,36.7783291876756,1.0147873991037335,86.6487158,14.2986292,-22.06015939999999
4716.569,20.857607,109.2468292,-19.4529492,-1.0686927999999998,0.1041785999999999,0.569721,12.686141,70.6940324,173.304007,17.27904339999999,33.8868322,4.2321948,-1.0102184,0.0855282,-0.0830776,104.2393982,82.60490739999999,156.275897,112.90848813352432,1.2155408258511105,38.272630040215255,1.0172306406688505,91.5532572,11.910875,-17.028109999999987
4736.538,22.7031854,92.8346802,-16.894057,-1.0632504,0.0956647999999999,0.5430432,13.3821086,72.539943,173.537796,18.64888239999999,33.5343396,1.3259488,-1.0255318,0.086207,-0.0826896,109.4586442,82.3953112,161.159915,97.05215936321198,1.197726631634047,38.39389127709483,1.0324653454757695,96.0765356,9.855368199999996,-12.377880999999984
4756.523,22.5529996,74.9126488,-13.9418284,-1.067479,0.0859039999999999,0.5308042000000001,14.0749036,74.04056999999999,173.78727099999998,17.26703399999999,32.809081000000006,-0.910783,-1.0496987999999998,0.087228,-0.0503636,114.2553744,82.1985796,165.6501494,79.46645405656898,1.1952589725221223,37.08659845408859,1.05452016903917,100.1804708,8.1580096,-8.13712159999999
4776.509,21.829583,56.63905140000001,-10.2847534,-1.0631762,0.0925037999999999,0.553272,14.76622,75.1787964,174.0626342,16.05572459999999,29.4863938,-0.1344212,-1.065076,0.1009426,-0.0309276,118.3470614,81.9790132,169.4561278,61.56532295005479,1.2020858917917971,33.574570448759765,1.070295665090969,103.58084139999998,6.800216799999999,-4.606506399999989
4796.494,22.6278252,38.962993,-6.8290814,-1.0536518,0.0942027999999999,0.570515,15.452283,75.96984699999999,174.32508539999998,15.93856239999999,24.264098,1.2372734,-1.06704,0.1146304,-0.027817,121.4338426,81.7444078,172.2539946,45.57158818351221,1.201891695784641,29.057100140906098,1.0735400671112187,105.9815596,5.774560800000001,-2.071090799999996
4816.479,25.1528298,22.4333514,-3.771549400000001,-1.0450062,0.0984549999999999,0.5661258,16.1182892,76.4241042,174.52160640000002,13.988424999999989,18.873745000000003,1.7626068,-1.0639841999999995,0.1118992,-0.042607,123.6939378,81.5372026,174.25734559999998,33.91378313990184,1.192572751025731,23.558460625368884,1.070700315335379,107.5756486,5.113098399999998,-0.2642607999999938
4836.465,25.9221478,6.7108588,-1.0024174,-1.0401143999999998,0.1059288,0.5645968,16.684593200000002,76.559465,174.6054748,13.025965999999988,14.6909308,2.0053478,-1.0523004,0.1007946,-0.0763368,125.45432580000002,81.35746160000001,175.7738952,26.795488669595205,1.1882038639589756,19.736277708892047,1.0598693269755286,108.7697326,4.797996600000002,1.1684204000000022
4856.45,25.810484,-9.1280198,2.5837000000000003,-1.0381458,0.1132971999999999,0.5571398000000001,17.1624594,76.3694702,174.6016816,14.468398999999987,12.1684676,1.8691708,-1.0393922,0.1010118,-0.1039636,126.9676496,81.1923326,177.0108856,27.498678795052104,1.183633268512473,18.997367523818216,1.0494512657980073,109.8051902,4.8228624,2.409204000000005
4876.435,24.6246744,-25.5060018,6.887684200000001,-1.0403586,0.1248612,0.5383473999999999,17.555624599999998,75.8400604,174.534372,14.495153399999989,11.1391984,1.3972044,-1.0285486,0.1120681999999999,-0.1186818,128.35547160000002,81.0320604,106.1209472,36.11607551723399,1.1780298209069922,18.334213733331275,1.0414206036296958,110.799847,5.192000000000002,-68.41342479999999
4896.421,22.8332712,-41.971197,11.3384934,-1.0409256,0.1337024,0.52301,17.853612400000003,74.9691406,174.404895,12.34091799999999,10.760238800000002,0.5795061999999999,-1.0224352,0.117287,-0.1288368,129.68181740000003,80.8800462,35.2127166,49.10703700985636,1.1725791643215906,16.383431372932463,1.0371735147034369,111.828205,5.910905600000001,-139.19217839999996
4916.406,20.1631356,-58.2685894,15.970705,-1.0447928000000002,0.1550037999999999,0.5282608,18.0540816,73.75915979999999,174.2290528,11.288819599999988,11.344574,-0.6740426000000002,-1.0104006,0.1114348,-0.155223,131.1759228,80.7289048,-35.5057192,63.69335888526216,1.1809647097872655,16.01846249268121,1.0283099079851366,113.1218412,6.9697450000000005,-209.734772
4936.392,16.1247826,-75.0679778,21.3454466,-1.0535818,0.1714891999999999,0.5335407999999999,18.174454,72.1874268,174.0500122,12.081722599999988,10.8834208,-2.4176436000000003,-1.0055714,0.1057682,-0.165319,132.78233000000003,80.6054642,-106.126877,79.69214513006916,1.1933603564190156,16.4396432403457,1.0245443496453437,114.607876,8.4180374,-280.17688919999995
4956.377,10.5816498,-92.21521,26.748118,-1.0701881999999998,0.1755465999999999,0.542413,18.180902,70.24692239999999,173.8579986,12.454665599999988,8.558385800000002,-3.8082794,-1.0013212,0.111161,-0.1670036,134.25997900000002,80.52765500000001,-176.88533339999998,96.59750558050588,1.2125721647637304,15.584211712432843,1.0212204051542448,116.079077,10.280732600000002,-350.743332
4976.362,5.594144599999999,-109.2832686,31.7664486,-1.0780242,0.1841873999999999,0.5609952,18.090771600000004,67.94093720000001,173.649295,14.037740999999988,5.841967000000002,-4.434672000000001,-0.9962998,0.1147068,-0.1592432,135.53098440000002,80.4956986,-175.884256,113.94399723707213,1.22913660287514,15.838341660658596,1.01544538907443,117.4402128,12.554761400000002,-349.533551
4996.348,0.4592790000000001,-125.6394682,36.2718806,-1.0836442,0.202612,0.5915174000000001,17.9095426,65.28778179999999,173.429361,16.470570599999988,3.550922000000001,-5.6257938,-0.9956866000000002,0.1059808,-0.1549028,136.7510924,80.5151932,-174.98431699999998,130.7713127143691,1.2510912074027218,17.763397727343335,1.0132218971360816,118.8415498,15.227411400000005,-348.413678
5016.333,-6.571097400000001,-141.1042082,40.0017822,-1.0836897999999997,0.2083615999999999,0.622409,17.593785,62.311288000000005,173.2017304,18.615271199999988,1.9566208000000012,-7.621032,-0.99801,0.0957908,-0.1365578,138.0373352,80.5911088,-174.0604736,146.81185058422724,1.2669613657328307,20.2098197802347,1.0118536802351812,120.4435502,18.279820800000003,-347.262204
5036.318,-14.427302,-154.69732359999998,43.034185,-1.0826004,0.2132526,0.6617200000000001,17.1323522,59.06512239999999,172.97725839999998,19.250176799999984,1.2635222000000017,-9.7825084,-0.9999352,0.0918536,-0.1275301999999999,139.4828706,80.70455480000001,-172.9880462,161.21833038031545,1.2866132503153076,21.630147151076457,1.0122111637124145,122.35051839999998,21.639432400000004,-345.9653046
5056.304,-21.392634800000003,-167.08881219999998,45.8377144,-1.0742314,0.2335487999999999,0.7038826,16.5719302,55.5799616,172.795096,20.513528999999988,1.0899898000000017,-12.0347802,-1.0130400000000002,0.0890626,-0.1129442,141.1564088,80.8513184,-171.7099396,174.57781086813125,1.305361581061033,23.80816843564949,1.0232001664544432,124.5844786,25.2713568,-344.5050356
5076.289,-29.8696948,-178.18526000000003,47.981749,-1.0649676,0.2446723999999999,0.7474166,15.8833242,51.8870728,172.66624459999997,18.30043739999999,-0.3270639999999986,-16.0579982,-1.026006,0.0922525999999999,-0.100701,143.0867736,81.07013079999999,-170.1269226,186.93430339510124,1.3238776931148435,24.348968891569463,1.035055334580601,127.2034494,29.18305800000001,-342.7931672
5096.275,-38.339722,-188.246463,49.5397904,-1.0428204,0.2519847999999999,0.7901286000000001,15.0710826,48.0086472,172.5996248,11.89243719999999,-5.341953599999998,-19.4736838,-1.0396926,0.110524,-0.0735584,144.82294000000002,81.41309659999999,-168.6096894,198.39570546744096,1.332394059813072,23.434822200368387,1.0481350558402862,129.7518574,33.4044494,-341.2093142
5116.26,-44.651557,-197.2012084,50.4165108,-1.0117996000000002,0.2499178,0.8254116,14.1769512,43.9712554,172.58839419999998,0.3731809999999896,-13.202614,-21.1951562,-1.060571,0.1480442,-0.0376374,145.935861,81.9005538,-167.4908418,208.3840269746964,1.3294741993478325,24.97364464458793,1.0715150512584506,131.7589098,37.92929840000001,-340.079236
5136.246,-47.2057684,-205.4614286,50.6049346,-0.9613432,0.2569997999999999,0.8637368000000001,13.2666148,39.7862788,172.620697,-17.67860060000001,-22.498738600000003,-21.9115578,-1.0834556,0.1852862,-0.0020328,145.9813626,82.5487,-167.0876404,216.80323479703347,1.3176763278819728,36.03945786201829,1.0991865835051118,132.7147478,42.7624212,-339.7083374
5156.231,-50.3794546,-212.3679684,49.410884,-0.8963314,0.2610757999999999,0.9053354,12.3060602,35.482186,172.6704712,-41.12503300000001,-31.141094599999995,-23.3151128,-1.0951686,0.1853396,0.0154834,144.81586280000002,83.358368,-167.4371338,223.78489427528007,1.3004625094422215,56.60945678077085,1.110848669004775,132.5098026,47.876182,-340.107605
5176.216,-51.34831380000001,-218.1798826,47.709462,-0.824429,0.2509032,0.9319638,11.3303162,31.069849000000005,172.7353912,-62.89998460000002,-38.4384658,-23.445620400000003,-1.1010406,0.1737322,0.034823,142.08030079999995,84.2949784,-168.9345978,229.16217677832984,1.269327426758628,77.35386759353992,1.1152066720990328,130.7499846,53.2251294,-341.669989
5196.202,-49.6687506,-222.9300628,46.1083008,-0.74792,0.2401933999999999,0.9549906,10.3923206,26.5677696,172.823236,-81.9650268,-43.1994148,-23.8131664,-1.1021978,0.1644118,0.0456486,137.1460556,85.3058822,-100.2630432,233.00380488060756,1.236561459003118,95.6635873850718,1.1153273174212317,126.753735,58.7381126,-273.0862792
5216.187,-48.559465,-226.5286194,44.9127242,-0.662316,0.2445565999999999,0.9768098,9.484631,21.992271,172.9465972,-97.9184494,-46.8871758,-28.3918408,-1.0943435999999995,0.1305204,0.0555713999999999,128.1137178,86.462683,-35.3868712,235.98811377571863,1.2052500984590708,112.21642754700852,1.1034997372791164,118.6290868,64.47041200000001,-208.3334684
5236.173,-51.4028106,-228.5575502,42.6601692,-0.577823,0.225709,0.9831464,8.511044199999999,17.3738688,173.0875304,-106.7938324,-49.8913558,-34.6635656,-1.0836332,0.0822752,0.0648508,104.879455,87.6142012,15.607164,238.11907258171823,1.1624976627258052,122.8642861141796,1.0886853296237256,96.3684108,70.2403324,-157.4803664
5256.158,-50.3406608,-229.32421600000004,40.257782,-0.4940032,0.1927494,0.9835384,7.547022800000001,12.7354002,173.25117160000002,-108.7496078,-52.2853164,-39.9469662,-1.075581,0.0766744,0.0788,73.99933160000002,88.20492379999999,58.9908974,238.2109720087529,1.1173805426465775,127.10622178432445,1.0811858726307702,66.4523088,75.4695236,-114.26027419999998
5276.143,-46.8492774,-229.3400972,38.4746192,-0.4129768,0.1816263999999999,0.9911022,6.645925399999999,8.0994316,173.452609,-108.94759820000002,-53.4155038,-46.4288738,-1.0432283999999998,0.0628563999999999,0.074429,41.288874800000016,88.2824218,100.5289916,237.2172660225065,1.0889543412650688,129.91703322541193,1.047767196293394,34.642949400000006,80.18299019999999,-72.92361739999998
5296.129,-46.6837516,-229.0632936,36.092461400000005,-0.3463252,0.1668771999999999,0.9691132,5.7337584,3.4731646,173.678198,-105.8854262,-54.9557136,-50.8515572,-1.0139606,0.0227368,0.0730838,9.771517800000012,87.8327804,71.19673220000001,236.54181640513545,1.0425783128614945,129.6832094316984,1.016845269571059,4.037759400000001,84.3596158,-102.48146579999998
5316.114,-47.1498328,-228.32219560000004,32.5725774,-0.2786153999999999,0.1373845999999999,0.9461182,4.7933406,-1.1321638,173.90940220000002,-93.634535,-55.1244644,-46.83023,-0.992032,-0.0117756,0.0645916,-17.29808519999999,86.8107224,46.0823684,235.404130242338,0.995811587503158,118.31822835855004,0.9942023076667644,-22.0914258,87.9428862,-127.82703379999998
5336.099,-39.7410758,-227.712903,28.830486,-0.2164892,0.1082167999999999,0.920385,3.986846,-5.7162162,174.1380706,-77.154548,-54.739141800000006,-41.330735,-0.9879466,-0.032396,0.0689212,-29.35940419999999,85.3427384,35.5073906,232.9457366457368,0.9516758890209838,103.23481766209032,0.9908774480615654,-33.3462502,91.0589546,-138.63067999999998
5356.085,-31.7075442,-226.5680452,26.787291400000004,-0.1455492,0.1051247999999999,0.8932752,3.3186874000000004,-10.2713134,174.3875274,-65.4385362,-54.45848679999999,-38.179114600000005,-0.9786618,-0.0391949999999999,0.079946,-33.11394039999999,83.972986,33.0097268,230.338894773533,0.9111401517498392,93.30366335886508,0.9827036835792567,-36.4326278,94.2442994,-141.37780059999997
5376.07,-30.6917022,-223.9137666,24.175097,-0.0684534,0.0959245999999999,0.8595105999999999,2.6475712,-14.7670366,174.64387200000002,-57.41098360000001,-54.4501142,-33.4493272,-0.982949,-0.0469937999999999,0.0979568,-34.02936559999999,82.67084059999999,33.2156426,227.2967020699864,0.8675516517009693,85.90514224681297,0.98893512856288,-36.6769368,97.4378772,-141.42822939999996
5396.055,-29.3363212,-219.77652900000004,21.2159134,0.0094144,0.0714675999999999,0.8338481999999999,1.9827584000000005,-19.1742772,174.9023956,-51.44649240000001,-52.0115362,-29.47781,-0.9798424,-0.0558265999999999,0.1000256,-34.20388019999999,81.4733538,34.0578446,222.7385404958777,0.8369582244176587,78.87257292965198,0.9865155136948836,-36.1866386,100.647631,-140.84455099999997
5416.041,-23.7420536,-215.0921692,19.2351918,0.0745924,0.0554935999999999,0.7960048000000001,1.4038052,-23.4838348,175.1793702,-49.0695898,-49.7261266,-28.243310200000003,-0.9765704,-0.0492668,0.1095722,-34.49594099999998,80.3423998,34.741776200000004,217.25174099161896,0.8014157519051894,75.35381132253973,0.9839324320049828,-35.8997462,103.8262346,-140.437594
5436.027,-22.8536382,-209.1269622,17.788277599999997,0.141704,0.0507123999999999,0.7580722,0.8170598,-27.671528,175.4813874,-50.77880120000001,-46.7041922,-27.268,-0.9583974,-0.0440391999999999,0.1053556,-35.01970799999999,79.29047879999999,35.232768199999995,211.12270820058976,0.7728681851018322,74.18431130881828,0.9651760616150608,-35.8367678,106.9620068,-140.24861919999998
5456.012,-25.373907600000003,-202.4010344,14.9356942,0.2011428,0.0386311999999999,0.7161945999999999,0.164684,-31.7149774,175.7806794,-50.3849986,-42.5897026,-23.902586000000003,-0.9331738,-0.0794402,0.1010836,-35.55850739999998,78.3460252,35.706613000000004,204.53138848186416,0.744906370408013,70.17025344806619,0.9419883123327168,-35.7231914,110.0610026,-140.07406639999996
5475.997,-25.7740514,-195.3755156,11.9722676,0.2531776,0.0146687999999999,0.6707726,-0.5121477999999999,-35.6057882,176.07790540000002,-45.600178000000014,-38.1903732,-18.286941,-0.9223192,-0.0986452,0.0872808,-35.87444139999999,77.5466874,36.316413,197.43158058684963,0.7171122309276005,62.22775144519078,0.9316767251682958,-35.3622936,113.1524756,-139.7614924
5495.983,-22.342705,-188.2127928,9.7214472,0.3059474,0.0007653999999999,0.6307,-1.1487024,-39.3390108,176.390088,-36.526621800000015,-34.1538048,-12.6742476,-0.9194262,-0.0971662,0.0889696,-35.823287999999984,76.886525,37.118993200000006,189.78345127000705,0.7009899338820209,51.58791558749825,0.9288172034329684,-34.6745856,116.22553580000002,-139.2710948
5515.968,-20.2629592,-180.0491576,7.6062256,0.36215,-0.009061,0.5883102,-1.7707642,-42.8989558,176.7151246,-30.46695420000001,-29.0752602,-6.255131,-0.913683,-0.1034786,0.08937,-35.53087619999999,76.38665,38.0497352,181.34536480398003,0.6909005830400203,42.57619895845288,0.9238568298426764,-33.76011200000001,119.2856058,-138.66538939999998
5535.953,-19.6791822,-170.8411376,5.4259736,0.4218712,-0.0149834,0.5440994,-2.3947354,-46.2745982,177.040796,-25.33167000000001,-22.244638,1.3782266,-0.9075794,-0.1220454,0.0929054,-35.015534999999986,76.08083939999999,39.1090766,172.05640266502965,0.6886537364636599,33.74043469341929,0.9204492709077888,-32.620799600000005,122.3554376,-137.93171939999996
5555.939,-19.724912,-160.7349486,3.2902308,0.4762641999999999,-0.031322,0.5041564000000001,-3.0353662,-49.45397899999999,177.36738599999998,-19.008275800000007,-14.6636166,9.4799566,-0.9088999999999998,-0.1286928,0.0861764,-34.22053679999999,75.99427019999999,40.3292488,161.97413828623894,0.6942494735659509,25.81096235746635,0.9220018539508472,-31.185170600000003,125.4482492,-137.0381372
5575.924,-15.985153399999998,-149.766684,1.8095262,0.5274753999999999,-0.0497164,0.4618145999999999,-3.6373508,-52.4242976,177.71734339999998,-10.736231000000007,-7.289236799999999,14.086208,-0.9048568,-0.1333966,0.0933451999999999,-33.299600199999986,76.07623579999999,41.5099214,150.62821498858,0.7028333677389541,19.152568627500056,0.9193877352677922,-29.6622494,128.5005334,-136.20742199999998
5595.909,-14.3599968,-137.32878739999998,1.0488142,0.5854152,-0.0545096,0.4163422,-4.2428592,-55.1681514,178.09601460000002,-4.903316200000008,0.1635562000000011,17.8492562,-0.9070706,-0.1356546,0.0991114,-32.33307599999999,76.31665639999999,42.6176424,138.08151711245253,0.7204325647720542,18.511218416975677,0.9224978663907468,-28.0902168,131.4848078,-135.47837219999997
5615.895,-15.8968558,-124.1966906,0.0051483999999999,0.6396826,-0.0571766,0.386026,-4.893119799999999,-57.6664004,178.479465,-0.4213962000000084,7.892617600000003,19.27847,-0.9146286,-0.1342948,0.1069966,-31.47740779999999,76.693364,43.5178354,125.20993573524484,0.7493190675582198,20.835795950193603,0.930606706217272,-26.584288,134.3597644,-134.96162959999998
5635.881,-17.404547,-111.4338244,-0.2544508,0.6812706,-0.0675826,0.3628378,-5.6149884,-59.915091800000006,178.8987916,4.763686199999992,15.2802842,18.2314384,-0.9112988000000002,-0.1268732,0.1072588,-30.881774199999988,77.18146820000001,44.043358,112.78510638331136,0.7748214680530993,24.260361447798644,0.9263189310043924,-25.2667858,137.09656,-134.85543359999997
5655.866,-15.36771,-98.7698276,-0.2852356,0.7179146000000001,-0.0860338,0.328945,-6.337351,-61.9156464,107.3550508,11.384183199999992,20.482175,17.458914200000002,-0.9068746,-0.1281317999999999,0.1072616,-30.425210599999996,77.7441804,44.2902674,99.95862501117814,0.7943601202607039,29.222128685377264,0.922141176355855,-24.0878596,139.6598268,-63.06478339999999
5675.851,-13.3175608,-86.4274234,-0.5259102,0.758956,-0.0845746,0.3071774,-7.0230918,-63.6766716,35.812310800000006,16.28354539999999,24.6786376,17.629533400000003,-0.918952,-0.1288954,0.1131732,-30.016807599999986,78.372983,44.3869652,87.44903385837391,0.8231190849275213,34.423675755033926,0.9348234997278364,-22.9937158,142.0496546,8.57465440000002
5695.836,-12.0244284,-75.14940659999999,-0.8283777999999999,0.7940256,-0.0868504,0.2953526,-7.6841652,-65.2115028,-35.734784000000005,18.555360799999992,28.6319442,17.393438,-0.9238484,-0.1240179999999999,0.1140352,-29.735007799999988,79.06328900000001,44.307541,76.10983116824252,0.8516177568382894,38.29649237919752,0.939084850982913,-22.0508426,144.2747918,80.04232500000003
5715.822,-9.4845256,-64.786615,-0.5735072000000001,0.8265701999999999,-0.0953208,0.281017,-8.3174756,-66.5391128,-107.263193,19.88010119999999,30.5038258,16.219762600000003,-0.9318052,-0.1209746,0.1214608,-29.58451259999999,79.7659012,44.0667024,65.47969623878636,0.8782225826803134,39.85953475593193,0.9474431436919264,-21.267037,146.305014,151.3298954
5735.807,-5.712042800000001,-54.3995528,-0.066598,0.8613412,-0.1021528,0.260299,-8.8947518,-67.664061,-178.7760348,19.28832539999999,29.52089400000001,16.0076722,-0.9507108,-0.1162507999999999,0.1366765999999999,-29.387077999999992,80.4386704,43.8852754,54.69865823841224,0.9055934113973444,38.726841448253616,0.9674945822715704,-20.4923262,148.10273139999998,222.66131020000003
5755.793,-3.6934704,-44.193701,0.3937825999999999,0.8944964000000001,-0.0953192,0.2473828,-9.4200432,-68.59332739999999,-178.3040348,17.449381399999993,27.2179166,14.6136496,-0.9724966,-0.0997609999999999,0.1512232,-29.15881219999999,81.0510376,43.7704544,44.349520813748825,0.9329564883945232,35.4803417390363,0.9892271480053508,-19.738769,149.64436500000002,222.0744892
5775.778,-3.5539242,-34.1939006,0.7676512,0.9223338,-0.0936026,0.2242055999999999,-9.9071682,-69.3325012,-177.871207,14.977921999999992,24.2620042,12.920725999999998,-0.982613,-0.0856779999999999,0.1609734,-28.90070399999999,81.5894164,43.73396,34.38666171391005,0.9537972721813373,31.30380417147375,0.9993905457630464,-18.9935358,150.9219176,221.605167
5795.764,-3.5048192,-23.8617178,0.2806958,0.9434698,-0.0954476,0.1997032,-10.2819332,-69.8611984,-177.55631739999998,13.82241139999999,19.6348386,11.2713682,-0.9883756,-0.0742935999999999,0.1695716,-28.48117979999999,82.02437739999999,43.8819068,24.119372382457698,0.9690855875246728,26.526019016408604,1.0055647135828107,-18.1992466,151.8855758,221.4382242
5815.749,-2.9244872,-12.902453400000002,-0.9660554,0.9586032,-0.0950826,0.1733958,-10.4693018,-70.16815039999999,-177.426761,13.339079199999992,14.2529232,10.283856,-0.9940856,-0.0658762,0.1708397999999999,-27.77008299999999,82.3514846,44.332147000000006,13.264961068846173,0.9787884854914468,22.064327496611057,1.010807642985469,-17.3007812,152.519635,221.758908
5835.734,-3.0966918,-1.5229850000000007,-2.8783716,0.9666932,-0.0892696,0.1551651999999999,-10.428843,-70.2437226,-177.5401978,12.61570659999999,7.2580642000000015,8.909524800000002,-1.0039308,-0.055914,0.1711386,-26.732250599999983,82.5388656,45.1241338,4.493774191267158,0.9831281929135384,17.06502801376019,1.0199469824430092,-16.303407599999996,152.78258820000002,222.66433160000005
5855.72,-3.2687517999999995,10.413966399999998,-4.833001,0.9674724,-0.085726,0.1431534,-10.1586444,-70.0754654,-177.89932860000002,9.609084199999993,-2.2312187999999984,6.332543,-1.0153308,-0.0482641999999999,0.1783982,-25.46394419999999,82.5266464,46.2060568,11.9370571405323,0.9817559206693484,11.722369101125077,1.032013558144233,-15.3052998,152.6021118,224.1053854
5875.705,-2.9467806000000003,23.1737578,-6.6961416,0.958291,-0.0846268,0.1390998,-9.664518,-69.64240579999999,-106.4888976,3.3771237999999904,-13.183705399999996,1.2164408000000004,-1.0233548,-0.0448551999999999,0.1815002,-24.34469419999999,82.2697128,47.2603278,24.30112916728043,0.9720247375037736,13.663629878418842,1.0402929194463066,-14.6801762,151.9121186,153.74922540000003
5895.691,-2.819563,36.7391214,-8.1705692,0.9422034,-0.080166,0.143083,-9.006538,-68.9415406,-35.2528136,-5.415785200000009,-23.4524396,-6.043495200000001,-1.0265468,-0.0397045999999999,0.1778856,-23.71885759999999,81.7696198,47.9908744,37.7421671053332,0.9563715697450234,24.81675818386862,1.0426015895531524,-14.7123196,150.7111604,83.24368800000002
5915.676,-3.1027154,50.853775,-8.9102086,0.920149,-0.079467,0.1564988,-8.2626292,-67.9604766,35.880825800000004,-14.092582800000008,-29.9720184,-15.5559924,-1.0233594,-0.0501145999999999,0.1686816,-24.022432999999985,81.0752428,47.9551674,51.72161145884316,0.9367395906501657,36.59114204959517,1.0383782629081175,-15.7598038,149.0357194,12.07434160000002
5935.661,-3.0642118,65.3862206,-8.8637204,0.894249,-0.0768128,0.1782112,-7.503283400000001,-66.7011512,106.9908814,-24.481080400000007,-33.50125,-27.068195,-1.0128028,-0.0681239999999999,0.1616409999999999,-25.51465459999999,80.2145738,46.9240532,66.05537659900592,0.9150632284439584,49.5413385938631,1.0278804424371737,-18.0113712,146.915725,-60.066828199999975
5955.647,-2.9296552,80.1954712,-8.100405599999998,0.8657742,-0.0750164,0.2030972,-6.7864324,-65.159475,178.1395662,-35.65740960000001,-30.4982576,-39.1727002,-0.9943764,-0.0965548,0.136401,-28.412034799999997,79.2874894,44.692320200000005,80.65676073005552,0.8924353748605218,61.123604417419706,1.0083216188701896,-21.6256024,144.4469644,-133.44724599999998
5975.632,-3.006422,94.9593306,-6.3642992,0.8350296,-0.0747174,0.235184,-6.171154400000001,-63.3313386,177.38608399999998,-44.0275132,-23.5891104,-52.2841678,-0.9925148,-0.1233614,0.119831,-32.56324019999999,78.3155794,41.3489402,95.21983693301148,0.8707287962361875,72.30838298965148,1.0073048852209543,-26.3920858,141.646918,-136.03714379999997
5995.618,-3.7055434,109.1796812,-3.7740382,0.804002,-0.0707808,0.2700038,-5.699768199999999,-61.2264046,176.76557,-58.07756740000001,-15.922732999999996,-63.354221200000005,-1.0040558,-0.121725,0.1419601999999999,-37.6623182,77.29349520000001,37.3147052,109.3077179487248,0.8510764887288803,87.4087787647749,1.0213215573572705,-31.96255,138.51989980000002,-139.45086479999998
6015.603,-5.889115599999999,122.9658156,-0.7921323999999996,0.7696,-0.062025,0.3164036,-5.4010868,-58.8452188,176.2802216,-82.7184166,-9.4018606,-66.74916900000001,-0.9433226,-0.149337,0.1519647999999999,-43.26372499999999,76.268872,33.2597224,123.109304938589,0.834411468472216,106.70605882396534,0.9670844677063116,-37.862638200000006,135.1140908,-143.02049919999996
6035.589,-7.938597199999999,135.6122222,2.912933600000001,0.7285121999999999,-0.0621904,0.3555016,-5.2721012,-56.197706,175.93432,-96.9252166,-2.5642543999999985,-66.260121,-0.9124924,-0.201431,0.1335208,-48.91773919999999,75.288353,29.4313494,135.8756097233202,0.8130061863255162,117.43711784831692,0.9439516046129696,-43.645638,131.486059,-146.50297059999997
6055.574,-9.9971786,147.15894020000002,6.773862200000001,0.6865902,-0.064381,0.3936161999999999,-5.2947852,-53.302263800000006,175.71097099999997,-97.4978202,-0.6555345999999985,-55.310392,-0.8693886,-0.2301974,0.1411665999999999,-53.72662499999999,74.4456192,26.4783,147.65358942420625,0.7940306850490603,112.09591487898652,0.9103600330266484,-48.4318398,127.747883,-149.23267099999998
6075.56,-13.9948072,158.2188752,10.3190948,0.6400748,-0.0509028,0.4424026,-5.455944799999999,-50.16349340000001,175.561621,-91.6093004,-1.1443937999999985,-35.9068896,-0.8450932,-0.268341,0.1541062,-57.19100419999999,73.85667099999999,24.7878596,159.17145100679875,0.779747975393101,98.40161725141265,0.8999656270356552,-51.7350594,124.0201644,-150.77376139999996
6095.545,-14.6179046,167.5058778,13.2470086,0.5846310000000001,-0.0452684,0.4794646,-5.6685806,-46.8201814,175.461612,-76.2554616,1.844741000000002,-13.581036,-0.8194996,-0.3137573999999999,0.1399777999999999,-59.43717039999999,73.6345992,24.0394286,168.6635273830466,0.7574489665005294,77.47737109646566,0.8886040090770241,-53.7685898,120.4547806,-151.42218339999997
6115.53,-10.427057,175.2585176,16.1122224,0.5195034000000001,-0.064024,0.5028156,-5.8492352,-43.3041986,175.4184174,-42.40065440000001,6.223970800000002,7.321220800000001,-0.8875908000000001,-0.3122752,0.1208765999999999,-60.47123119999999,73.8155166,23.8492846,176.30619733775052,0.7258142894645434,43.47589654130027,0.9486539839199748,-54.621996,117.1197152,-151.56913279999998
6135.516,-0.6360433999999998,183.3239564,17.260709600000002,0.4626828,-0.0684262,0.5430764,-5.8425264,-39.608445,175.38157959999998,-10.103744400000004,10.071673,24.6004008,-0.8955658,-0.2757952,0.1465844,-60.44234239999999,74.3259748,24.092533000000003,184.1358456065828,0.7167213506651243,28.43772085523207,0.9484661727210096,-54.599816,113.9344198,-151.28904659999995
6155.501,3.2955876,191.8967194,18.6453346,0.4054242,-0.0360322,0.6072442,-5.7581966,-35.7291134,175.35671680000002,7.037251399999995,13.019547200000002,35.586051600000005,-0.9131694,-0.235614,0.1685724,-59.77426379999999,75.059616,24.6394926,192.82857754092768,0.7310353068191167,38.54086902286575,0.9580234674234864,-54.0160672,110.7887294,-150.71722419999998
6175.486,7.851072,197.5049042,19.2300812,0.3271601999999999,-0.0353304,0.628205,-5.5997928,-31.739699600000005,175.349823,20.656052799999998,19.705704600000004,45.5781776,-0.9355146,-0.2039137999999999,0.1611668,-58.76612399999999,76.0369416,25.253848400000003,198.59411506275544,0.7091710341329516,53.78064321292551,0.9709496084070688,-53.16633119999999,107.7766412,-150.0959746
6195.472,17.084082000000002,203.7145752,17.4916172,0.2375144,-0.0785,0.6555394,-5.256188400000001,-27.6301094,175.317813,42.36229239999999,24.9029228,54.03480520000001,-0.9530654,-0.1906937999999999,0.1556178,-57.15116579999999,77.2108278,26.0449926,205.17663287755383,0.7016460968035951,73.03752155137663,0.98433463909,-51.8949774,104.8409372,-149.27282039999997
6215.457,27.2583438,211.409198,15.3595826,0.168151,-0.0447186,0.7157768000000001,-4.6925198,-23.3780228,175.2572204,60.8857002,22.6067222,59.7286208,-0.952901,-0.1596056,0.1640463999999999,-54.1729752,78.43389900000001,27.8414728,213.71191610054976,0.7366212998584823,88.23627666749343,0.9800027983150456,-49.4804554,101.8119218,-147.41574759999995
6235.442,25.2666396,218.06557,12.729285400000002,0.095317,0.0025319999999999,0.752726,-4.1634034,-19.0066474,175.17388,73.5010796,20.252649600000005,64.8866616,-0.9700126,-0.1237334,0.1666854,-49.80330359999999,79.69006820000001,30.791342,219.89322545930293,0.7587411762841133,100.11422162599492,0.9919770264514598,-45.6399002,98.6967156,-144.382538
6255.428,26.446894,222.8964782,7.993796200000001,-0.0013988,-0.0282164,0.7665584,-3.6014448000000003,-14.5483546,175.0291962,93.14508659999998,23.0478704,66.3656288,-0.9873874,-0.1391463999999999,0.1644604,-44.34745419999999,80.968831,34.4376608,224.6022684077288,0.767078811127618,116.66879691552528,1.0106150708750985,-40.7460094,95.5171856,-140.5915354
6275.413,39.235273600000006,228.5555176,2.7624570000000004,-0.0941662,-0.0463274,0.7868912,-2.7788670000000004,-9.9820684,174.8256194,121.155336,23.502397,70.073365,-0.9762994,-0.1485068,0.1410451999999999,-36.13179559999999,82.2108322,40.2916874,231.9152053845276,0.793858464621144,141.9198879242854,0.9975512701258216,-33.3529286,92.1929006,-134.533932
6295.399,47.0329558,234.5800812,-2.2823221999999994,-0.1744316,0.0053569999999999,0.8106729999999999,-1.8176148,-5.2956204,174.5916136,150.84247599999998,14.484458400000005,73.1579338,-1.0262516,-0.1080944,0.1401002,-24.001079399999988,83.1224166,49.469574,239.259529427164,0.8292441096906024,168.27161192202647,1.0413956077562263,-22.1834646,88.418037,-125.12203959999997
6315.384,43.8408476,240.037619,-6.7998134,-0.2606386,0.0385383999999999,0.8289302,-0.9310732,-0.5000050000000001,174.3430266,168.5558656,15.776052800000002,66.17986140000001,-1.0208076,-0.0541859999999999,0.1538565999999999,-10.647588599999988,83.78682699999999,59.5038392,244.10308460924944,0.8697947830129586,181.76836282762977,1.0337582561592047,-9.7165154,84.28683199999999,-114.8391874
6335.37,43.2252116,245.8208192,-11.282878399999998,-0.3678082,0.0203745999999999,0.8516382,-0.0738878,4.4130388,174.0763274,184.1174592,17.625149200000003,64.6438964,-1.000048,-0.0364679999999999,0.1363859999999999,4.243484200000012,84.2139388,70.7558274,249.84714810262105,0.927893108074222,195.93039072170467,1.0099638896138814,4.317372000000001,79.80089999999998,-103.32049999999995
6355.355,53.5757606,250.7539064,-15.2304036,-0.4804092,0.0362413999999999,0.8305282,0.968346,9.4286398,173.8112028,187.8944672,11.683516600000004,64.1347334,-1.0729712,0.029676,0.1395648,19.547117200000013,84.2785398,82.3372392,256.8654295395692,0.960147660265774,198.88212436718248,1.0824168302481627,18.5787712,74.8499,-91.47396359999996
6375.34,52.5622306,256.6204836,-18.815471,-0.580766,0.0785953999999999,0.82988,1.973675,14.566734399999998,173.56537459999998,163.0936318,3.4195646000000024,47.4470882,-1.105228,0.1711634,0.2043562,31.61407200000001,84.0622984,91.1596528,262.6230809310128,1.015956297316553,169.88952979635363,1.136920093041723,29.640397,69.495564,-82.40572179999997
6395.326,43.1316074,263.010303,-20.4785924,-0.6793456,0.1087263999999999,0.8496524000000001,2.7833548,19.8372752,173.3702484,112.3108098,1.723017000000003,35.3230846,-1.0136566,0.2219606,0.1822841999999999,39.34500280000001,83.7328978,96.6539598,267.30904920661567,1.093270815087497,117.74721691476542,1.0535624045330965,36.561648000000005,63.89562259999999,-76.71628859999997
6415.311,42.7509342,267.92366359999994,-22.8807728,-0.7979320000000001,0.0988875999999999,0.8226874000000001,3.5846338,25.210057400000004,173.2041686,67.63725019999998,-3.2610521999999973,31.6310016,-0.962978,0.1826064,0.0851002,44.64398160000001,83.2879028,100.6083756,272.2760761722261,1.1503429019977132,74.73922891151423,0.9838260871947848,41.0593478,58.0778454,-72.59579299999999
6435.296,47.988203,269.961139,-26.0175274,-0.9311764,0.1193227999999999,0.7564797999999999,4.4769266000000005,30.630400400000003,173.0496948,28.37186699999999,-5.423335199999996,21.6180714,-0.9668042,0.1707094,0.0146612,47.14850900000001,82.895787,102.5525422,275.42475547662065,1.2056488320920151,36.07930726625368,0.9818691415720529,42.6715824,52.2653866,-70.49715259999998
6455.282,41.3766574,269.3385192,-28.7915542,-1.0539522,0.1562583999999999,0.7177948,5.2236866,36.0455482,172.905835,-1.0203182000000113,-0.2109303999999966,11.6077468,-0.916421,0.1606896,-0.069495,48.31607720000001,82.71427159999999,103.7487108,274.014998304285,1.2847028070189774,11.654412324772348,0.9329941863774716,43.0923906,46.6687234,-69.15712419999997
6475.267,29.5517974,264.3762908,-30.3429076,-1.1669964,0.1671326,0.685534,5.727189,41.3661396,172.770514,-14.05235860000001,9.357913400000005,11.8205252,-0.876496,0.0892758,-0.1962248,50.44920180000001,82.648549,106.1791154,267.7476870270945,1.3637341268560084,20.609806923615974,0.9026181798616068,44.7220128,41.28240939999999,-66.59139859999998
6495.253,23.541252,253.44407640000003,-30.657237599999995,-1.2620708,0.1704906,0.6407846,6.115597599999999,46.4746598,172.6485902,-11.495625800000012,23.11777780000001,8.0286048,-0.891027,0.0433194,-0.2874647999999999,54.07018720000001,82.7844468,110.0540054,256.374641150874,1.425655867486316,27.037743211636247,0.9372522053238392,47.954589600000006,36.309787,-62.59458479999999
6515.238,17.9918722,236.6202818,-30.5099174,-1.3239768,0.173944,0.5866324,6.3897718,51.2549432,172.52313859999998,-6.85388740000001,37.79965120000001,2.1409714,-0.9389978,0.036799,-0.2696778,59.62517700000001,83.12348779999999,115.7765686,239.25659924885537,1.4585296208181715,38.4756177581226,0.9776487869468669,53.2354052,31.868544600000007,-56.74656999999998
6535.224,10.198531,215.0572754,-27.6730396,-1.3312368,0.1546519999999999,0.5526056,6.5235102,55.6069916,172.4243074,-6.707006600000011,49.07060260000001,0.7150708000000001,-0.9804842,0.0455962,-0.2116872,67.37310700000002,83.5039138,123.6947068,217.07012428644475,1.4496487877860622,49.532002819476055,1.0041114233728845,60.84959680000001,27.89692220000001,-48.72960059999998
6555.209,4.285010600000001,191.8395326,-22.6737464,-1.2899476,0.1221841999999999,0.5580422,6.6093074000000005,59.48435980000001,172.41396500000002,-5.929547800000012,55.782082200000005,2.987761,-0.9870362,0.056285,-0.1605366,76.61811820000003,83.76578359999999,133.0990388,193.22232365811172,1.4107816579670436,56.17585733634301,1.001588968227486,70.0088108,24.2814238,-39.31492619999998
6575.194,6.1258398,168.90286559999998,-17.4498958,-1.2258234,0.1118885999999999,0.5795218,6.8505852,62.889903200000006,172.5222474,-0.9690354000000116,59.2223166,5.3469386,-1.0104062,0.0599064,-0.1136135999999999,86.76619860000001,83.8477492,143.31014420000002,169.91233852954227,1.3605173955053866,59.47109857291404,1.0185369486986515,79.91561340000001,20.957846000000004,-29.21210319999998
6595.18,10.538529,146.8291076,-14.064163399999998,-1.171019,0.0946971999999999,0.5809932,7.250205800000001,65.845127,172.69269720000003,3.155939799999988,58.6490866,5.0398838,-1.0476332,0.0506974,-0.0530379999999999,96.90319060000002,83.76091,153.4279878,147.87713861255946,1.3106510429916425,58.94977305938527,1.050199303729059,89.65298479999998,17.915783,-19.26470939999998
6615.165,13.1881578,126.502176,-11.1312678,-1.1293028,0.0708377999999999,0.5969786,7.7655638,68.3837126,172.9238922,6.40475139999999,54.79742040000001,5.4109314,-1.0682262000000002,0.0650244,-0.0238991999999999,106.2899016,83.48628860000001,162.731955,127.67393297665735,1.279346027021087,55.435154023468215,1.070470251208524,98.5243378,15.102576000000004,-10.19193719999998
