Timestamp (ms),Wrist Gyroscope X (deg/s),Wrist Gyroscope Y (deg/s),Wrist Gyroscope Z (deg/s),Wrist Accelerometer X (g),Wrist Accelerometer Y (g),Wrist Accelerometer Z (g),Wrist Roll (deg),Wrist Pitch (deg),Wrist Yaw (deg),Arm Gyroscope X (deg/s),Arm Gyroscope Y (deg/s),Arm Gyroscope Z (deg/s),Arm Accelerometer X (g),Arm Accelerometer Y (g),Arm Accelerometer Z (g),Arm Roll (deg),Arm Pitch (deg),Arm Yaw (deg),Wrist Gyroscope Magnitude (deg/s),Wrist Accelerometer Magnitude (g),Arm Gyroscope Magnitude (deg/s),Arm Accelerometer Magnitude (g),Difference Roll (deg),Difference Pitch (deg),Difference Yaw (deg)
0.0,-1.869445,-2.462659,0.653547,-0.93905,0.349371,-0.052176,97.66507,69.463501,-51.016678,-4.854206,5.358974,0.554211,-0.954168,0.269713,0.115065,67.613823,71.409721,-140.810257,3.1601641792025617,1.003293243831035,7.251832048222917,0.9982092109462826,-30.051247000000004,1.946220000000011,-89.79357900000001
19.972,-2.2539345,-2.4258085,0.7280785000000001,-0.9356285,0.347854,-0.0497844999999999,97.574326,69.458771,-51.0780125,-3.8975525,5.1298865,0.2403855,-0.9518635,0.277483,0.118536,67.71456549999999,71.431736,-140.67272200000002,3.390407926949905,0.9994406394421332,6.44704864118061,0.9985448018077356,-29.8597605,1.9729650000000016,-89.59470950000001
39.958,-2.290819,-2.352288,0.7470873333333333,-0.9327396666666666,0.3502746666666667,-0.0470026666666666,97.485456,69.45219933333333,-51.13934833333334,-3.728387,4.601604,-0.0957139999999999,-0.949552,0.281224,0.123365,67.77657833333333,71.45277166666666,-140.57224533333334,3.367380288790102,0.9974491859516788,5.923241525075691,0.99797538151249,-29.708877666666663,2.000572333333338,-89.43289700000001
59.944,-2.40373575,-2.07415675,0.6335295000000001,-0.9307325,0.351331,-0.045169,97.40846275,69.4470025,-51.186368,-3.730879,4.14408,-0.21200025,-0.9482775,0.285158,0.1268085,67.81730075,71.469763,-140.491352,3.237503885212939,0.9958597776184406,5.580125559970946,0.9983114231754036,-29.591162,2.022760500000004,-89.304984
79.929,-2.607939,-1.8012372,0.4478872,-0.9296412,0.3525416,-0.0453559999999999,97.342084,69.4440506,-51.2165536,-3.525935,3.7956674,-0.1837324,-0.9474,0.2874569999999999,0.1285862,67.852127,71.4827822,-140.419937,3.2010005033284017,0.995276598340381,5.183923825680458,0.9983650122472442,-29.489957,2.038731600000003,-89.2033834
99.915,-2.939586,-1.3548386,0.1460204,-0.9277348,0.3524016,-0.043451,97.20898,69.44109639999999,-51.2771584,-3.0289308,2.9996502,-0.369322,-0.9467774,0.2909761999999999,0.1321646,67.9263076,71.51149480000001,-140.27557660000002,3.2400733696418227,0.9933613321519013,4.278869226002669,0.99926076457067,-29.282672400000003,2.070398400000002,-88.99841819999999
119.901,-3.0506484,-0.8315695999999999,-0.1999869999999999,-0.9277008,0.3529508,-0.041014,97.1007264,69.4435164,-51.3085976,-2.9260664,2.1913652000000003,-0.2896211999999999,-0.9449348,0.2917522,0.1327596,67.95894000000001,71.53144560000001,-140.17705059999997,3.168273735054425,0.9934209529385214,3.6671278211250615,0.9978207423420502,-29.1417864,2.087929200000005,-88.86845299999999
139.887,-3.1296296,-0.3203666,-0.5355792,-0.9290686,0.3524028,-0.0405848,97.0204774,69.45185539999999,-51.3102746,-2.7110316,1.7291624,-0.177404,-0.9458264,0.290641,0.1304382,67.975856,71.5468248,-140.0999052,3.191247604161162,0.9944864619213476,3.2204296485078383,0.9980350163382044,-29.044621399999997,2.0949694000000023,-88.7896306
159.873,-3.0598034,-0.0004701999999999,-0.7565647999999999,-0.9311746,0.351792,-0.0408574,96.961232,69.46442859999999,-51.2931572,-2.1047388,1.4903768,-0.1350596,-0.9463848,0.290172,0.126816,67.998288,71.56054400000001,-140.0303404,3.1519497718616387,0.9962495039315804,2.5825161214900167,0.9979610599171894,-28.962944,2.096115400000002,-88.7371832
179.859,-2.8768218,0.2528378,-0.9296788,-0.9333058,0.3504458,-0.0406812,96.9206282,69.4808578,-51.2598624,-1.4208026,1.2626156,-0.1293968,-0.9472834,0.2895588,0.1239746,68.02607579999999,71.57335520000001,-139.9699828,3.033864415763091,0.9977609608943016,1.9051566112475795,0.9982784381214292,-28.8945524,2.092497400000005,-88.71012040000001
199.844,-2.754201,0.4039583999999999,-1.027876,-0.9341652,0.3509726,-0.0398058,96.8899108,69.4986542,-51.218306600000005,-0.9735626,1.1606922,-0.1125156,-0.9470042,0.2903926,0.1213764,68.0621934,71.585019,-139.91077560000002,2.967378406726644,0.9987146181745014,1.5191083830665144,0.9979363944808104,-28.827717399999997,2.086364800000004,-88.69246899999999
219.83,-2.7989038,0.4585628,-1.1049782,-0.9341968,0.3509274,-0.0403346,96.86284179999998,69.51767720000001,-51.1711738,-0.8108952,1.1551756,-0.2768908,-0.9480488,0.2904353999999999,0.12034,68.0990174,71.59993899999999,-139.85441559999998,3.043865822547624,0.9987495087148528,1.4382802951243685,0.9988147798038431,-28.7638244,2.0822618000000035,-88.6832418
239.816,-3.0020256,0.5080696,-1.170368,-0.9338394,0.3503516,-0.039975,96.8345628,69.53794400000001,-51.1193626,-0.8140466,1.0006206,-0.4132014,-0.946861,0.2919218,0.1198542,68.125682,71.6152192,-139.8088682,3.2619095139079994,0.9981985119403454,1.3544921000426249,0.9980626833490368,-28.708880800000003,2.0772752000000025,-88.6895056
259.802,-3.22481,0.5316327999999999,-1.2173748,-0.932849,0.350526,-0.0390348,96.8021134,69.5586486,-51.0655396,-1.1847474,0.8245243999999999,-0.5437230000000001,-0.9463258,0.2915392,0.1191602,68.13296499999998,71.6316758,-139.7759916,3.487697574878143,0.9972960689223838,1.5424336578054565,0.9973599040197676,-28.6691484,2.073027200000001,-88.710452
279.788,-3.4302256,0.4807068,-1.1764344000000002,-0.931599,0.3507988,-0.038622,96.7622164,69.5780838,-51.0179596,-1.7387818,0.7041286,-0.7192350000000001,-0.9452138,0.2918152,0.118079,68.1205642,71.65019079999999,-139.752374,3.65807662467108,0.996206883014989,2.009093879980276,0.9962569391991608,-28.6416522,2.072107,-88.73441440000002
299.774,-3.481501,0.4135893999999999,-1.0986382,-0.9314526,0.3513099999999999,-0.0404888,96.7205888,69.5955414,-50.9742706,-2.1246792,0.6396572,-0.7558038,-0.9443954,0.2923174,0.1172618,68.09794459999999,71.6684876,-139.7316038,3.674086457786833,0.9963242469558794,2.344069627916142,0.9955312469346002,-28.622644200000003,2.0729461999999983,-88.75733320000002
319.759,-3.4339834,0.366566,-1.0639992,-0.9317054,0.3517472,-0.0404438,96.6774246,69.61207440000001,-50.9356414,-2.1887128,0.6347848,-0.7495182,-0.9448046,0.2934279999999999,0.1171962,68.075029,71.685988,-139.709915,3.613683290139328,0.9967129707470652,2.398998331663888,0.9962382609896088,-28.6023956,2.073913599999998,-88.7742736
339.745,-3.2339464,0.286562,-1.0182084,-0.9326164,0.3519036,-0.0400378,96.6334502,69.627861,-50.903894,-2.2144724,0.6653074,-0.6781724,-0.9466488,0.2943306,0.1178412,68.05463879999999,71.70195939999999,-139.684982,3.4025395579989244,0.9976033874595456,2.4096555253766625,0.9983291045818709,-28.5788114,2.0740984,-88.781088
359.731,-3.0889638,0.247477,-0.9933530000000002,-0.9338916000000002,0.3509866,-0.0399668,96.5906188,69.64384,-50.8756286,-2.2781688,0.55343,-0.6474618,-0.9482872,0.2931994,0.1194961999999999,68.0240632,71.7168992,-139.6690886,3.254180758017053,0.998470059156688,2.43218926661818,0.9997468897969326,-28.566555600000004,2.0730592000000003,-88.79346000000001
379.717,-2.9504002,0.2738334,-1.004982,-0.9361628,0.3506693999999999,-0.0379652,96.5492522,69.660591,-50.8492904,-2.3372578,0.4415814,-0.6076636,-0.9508428,0.291908,0.1200116,67.98551339999999,71.731125,-139.660205,3.1288711848587822,1.0004055040888369,2.454999634878132,1.0018558254112215,-28.5637388,2.0705340000000008,-88.81091459999999
399.703,-2.7999212,0.3428438,-1.0531644,-0.9380316,0.3499428,-0.0364634,96.512944,69.67882979999999,-50.8213998,-2.1311832,0.3614718,-0.6203636,-0.9525668,0.2924716,0.1210113999999999,67.94537820000001,71.74468399999999,-139.6572478,3.0110223929481563,1.0018447112252278,2.248878540598055,1.0037763217962257,-28.5675658,2.0658542000000013,-88.83584799999998
419.688,-2.6614024,0.390526,-1.0648466,-0.9400086,0.3494738,-0.0368824,96.4831482,69.6976408,-50.7886026,-1.933955,0.194196,-0.6040854,-0.954139,0.2935486,0.1205462,67.902089,71.7563782,-139.66192919999995,2.89300390129936,1.0035479143469732,2.035390183462168,1.005526428403252,-28.58105920000001,2.058737400000001,-88.8733266
439.674,-2.5564714,0.401506,-1.1034776,-0.9404896,0.3501347999999999,-0.0375915999999999,96.4575592,69.7167006,-50.7514542,-1.7278585999999998,0.1049128,-0.6167724,-0.9536894,0.292679,0.1190962,67.8599076,71.7681824,-139.6700378,2.813257169324504,1.0042550444333154,1.83763713246102,1.00467326707134,-28.5976516,2.051481800000002,-88.9185836
459.66,-2.4712732,0.4124348,-1.1268205999999998,-0.9404036,0.3506208,-0.0388202,96.4365632,69.7356674,-50.7097482,-1.5158142,0.2313286,-0.5251042,-0.9532708,0.2941666,0.1174334,67.83531500000001,71.7786424,-139.6645262,2.7471837138920354,1.0043908025333763,1.62078377057436,1.004514713741795,-28.601248200000004,2.042975000000001,-88.954778
479.646,-2.3109368,0.370378,-1.0808513999999998,-0.9395494,0.3498846,-0.0392181999999999,96.41722260000002,69.7538224,-50.6711894,-1.3787645999999998,0.4460732,-0.4454521999999999,-0.9516984,0.2955187999999999,0.1167742,67.82956700000001,71.7883272,-139.6423094,2.577954325693184,1.0033495779481647,1.5160477513773236,1.003343121520071,-28.587655600000005,2.0345047999999992,-88.97112
499.632,-2.2247446,0.3068424,-0.9403764,-0.9376318,0.3492854,-0.038729,96.3948684,69.769124,-50.6389178,-1.4995994,0.6091374,-0.4285987999999999,-0.95084,0.2936494,0.1154786,67.8318816,71.7998688,-139.609146,2.4347378847308963,1.0013259301872692,1.6743785903792965,1.001829318186646,-28.562986800000004,2.0307447999999995,-88.9702282
519.618,-2.1492382,0.2447906,-0.8028616,-0.9354932,0.3492639999999999,-0.0383188,96.3694092,69.78128380000001,-50.61290219999999,-1.7623551999999996,0.7715417999999999,-0.4294836,-0.9489124,0.2908716,0.1155472,67.8360258,71.8135788,-139.56834700000002,2.307321829945307,0.9993003549362324,1.9711998282222016,0.9991957696008126,-28.5333834,2.032294999999999,-88.95544479999998
539.604,-2.1485718,0.2007362,-0.6906334,-0.933725,0.3475776,-0.0378336,96.3407028,69.79177580000001,-50.591836,-1.7213444,0.9369096,-0.3661343999999999,-0.9474272,0.28966,0.1156132,67.850746,71.8275512,-139.51716900000002,2.265751596036344,0.9970375845151076,1.9937102449570951,0.9974405380342628,-28.489956800000005,2.035775399999997,-88.925333
559.589,-2.0947772,0.1263406,-0.6317262,-0.9327134,0.3462462,-0.0359036,96.3060638,69.801787,-50.5788026,-1.5402007999999998,1.1304012,-0.3427304,-0.9458254,0.288344,0.115064,67.8804382,71.8428908,-139.4540466,2.1916047674283425,0.9955550140735367,1.9410021907164967,0.995473592676953,-28.4256256,2.0411037999999992,-88.875244
579.575,-2.0866716,0.016744,-0.581506,-0.9305076,0.3451204,-0.0353848,96.2650696,69.8111466,-50.5697494,-1.4278478,1.233282,-0.4251699999999999,-0.9441128,0.2868326,0.1156678,67.91398919999999,71.86069319999999,-139.3890044,2.166247436425156,0.9930783293501878,1.93403809693316,0.9934792194623095,-28.3510804,2.0495465999999998,-88.81925499999998
599.561,-2.3273626,-0.0815915999999999,-0.6038396,-0.9297306,0.3447949999999999,-0.0351147999999999,96.2141144,69.8210922,-50.563217,-1.402859,1.4748794,-0.5333108,-0.9416552,0.2860196,0.1169968,67.9561432,71.88182520000001,-139.3151366,2.4058046727856937,0.9922276098660026,2.104210785026538,0.9910650727784932,-28.257971200000004,2.0607330000000017,-88.7519196
619.547,-2.7509428,-0.20951,-0.6415032,-0.9284312,0.3435216,-0.032872,96.1450546,69.83250720000001,-50.5650306,-1.2802117999999998,2.123493,-0.7955796,-0.9393996,0.2849972,0.1168887999999999,68.0306854,71.91256560000001,-139.209735,2.832508973433637,0.990490863755946,2.6040567723927217,0.9886141836193936,-28.1143692,2.0800584000000013,-88.6447044
639.533,-3.929964800000001,-0.3079136,-0.583117,-0.9270922,0.3439196,-0.0283001999999999,96.039856,69.84260839999999,-50.5786468,-1.451105,3.3347474000000004,-1.3080082000000002,-0.9360042,0.2813276,0.1157786,68.158177,71.96297,-139.04505600000002,3.9849039574364906,0.9892328036842692,3.864858521873602,0.98420209568836,-27.881679,2.120361600000001,-88.4664092
659.518,-7.034845799999999,-0.4883723999999999,0.114531,-0.9249658,0.346138,-0.0177618,95.842691,69.8379956,-50.621627,-2.2645556,6.202903600000001,-2.5625518,-0.928549,0.2707558,0.1094837999999999,68.41088540000001,72.0624634,-138.7323666,7.052707308602874,0.9877695721942846,7.083141736833139,0.973395423811454,-27.4318056,2.224467800000002,-88.11073960000002
679.504,-13.8923206,-0.917354,1.176588,-0.9262312,0.3452712,-0.003078,95.4589218,69.8143506,-50.7161178,-3.729114,10.335277200000002,-4.2096868,-0.9261488,0.2549314,0.095445,68.85719900000001,72.2311554,-138.1876218,13.972203453150987,0.9884967938677798,11.76629546543559,0.965324487658114,-26.601722800000005,2.416804800000002,-87.47150400000001
699.49,-22.7076724,-2.1669906,3.1693826,-0.9255728,0.344464,0.0156426,94.7992522,69.75367700000001,-50.9152298,-6.3184434,15.1424312,-6.442728,-0.926479,0.2479678,0.0826382,69.5155578,72.47777860000001,-137.36878940000005,23.02996352909385,0.98771713882599,17.62738476710941,0.9626424255023668,-25.2836944,2.7241016,-86.45355959999999
719.476,-33.059572,-4.4197784,6.457134999999999,-0.9222672,0.3473528,0.0402702,93.774684,69.627493,-51.2800774,-10.0033262,20.4780692,-8.8489076,-0.927388,0.2543092,0.067345,70.42128600000001,72.7993134,-136.2179228,33.97299419151211,0.9863328266217848,24.448333663808928,0.9639797823469328,-23.353398,3.171820400000001,-84.93784539999999
739.462,-43.7193062,-7.8332924,10.7605468,-0.929208,0.3505718,0.0696362,92.3272552,69.41564760000001,-51.865313,-15.4977564,26.2023822,-12.0021862,-0.9307488,0.2637502,0.043557,71.59085540000001,73.2079774,-134.68274219999998,45.70041106891978,0.9955788741077626,32.72304631247049,0.968377358755604,-20.7363998,3.792329800000002,-82.8174292
759.448,-51.297245,-11.687300400000002,14.9619764,-0.9284394,0.3656914,0.079398,90.5499786,69.10946179999999,-52.6422326,-20.788986,31.195275400000003,-15.1217164,-0.9284628,0.260641,0.0136144,73.04066780000001,73.698201,-132.7534942,54.69790739163631,1.0010164643552673,40.422684882032144,0.9644491970820444,-17.509310799999994,4.588739200000001,-80.1112616
779.434,-54.591707,-16.5551128,18.9879056,-0.9291258,0.385404,0.0679096,88.53279719999999,68.7062606,-53.61328900000001,-23.2918828,34.3722258,-16.4060432,-0.9294754,0.2517898,0.0014551999999999,74.73480980000001,74.218689,-130.5237716,60.12376229136933,1.0081779154562949,44.644372145830296,0.9629770195577048,-13.797987399999991,5.512428400000002,-76.9104826
799.419,-54.75538720000001,-22.095479,22.2651242,-0.9388318,0.4030319999999999,0.0570514,86.33268899999999,68.2168458,-54.7844582,-21.2535066,36.39338300000001,-16.658348999999998,-0.9379866,0.2617324,-0.0038692,76.714804,74.7283128,-128.0445068,63.10386973318507,1.0232765041557437,45.31766168268983,0.9738263098201648,-9.617884999999998,6.5114670000000014,-73.26004859999999
819.405,-51.1923492,-27.6267198,23.598401000000003,-0.9498932,0.416884,0.049754,84.04424900000001,67.6742432,-56.136309,-19.235451,36.3727044,-15.7941222,-0.951252,0.2819238,0.0038133999999999,78.82613819999999,75.1876894,-125.47294459999998,62.77560667392434,1.0385397543562018,44.07301324633606,0.9921572146237712,-5.218110799999996,7.5134462000000015,-69.3366356
839.391,-45.931552800000006,-32.911418600000005,23.561754,-0.9546606,0.4337374,0.0522508,81.71868579999999,67.09479239999999,-57.64905080000001,-18.4498816,34.51249320000001,-13.965932,-0.9642348,0.275825,0.016612,80.9057358,75.58273940000001,-122.950589,61.22111783069737,1.0498738683536035,41.55186607798366,1.0030474259475672,-0.8129499999999978,8.487947000000002,-65.3015382
859.377,-40.255662400000006,-38.4521282,23.535008,-0.9633534,0.4303758,0.0758373999999999,79.33922580000001,66.4814044,-59.34455319999999,-17.1638492,31.257433400000004,-11.7277814,-0.986391,0.261972,0.0332532,82.85151820000002,75.9058642,-120.5922532,60.43989675646438,1.0578395028339411,37.538856118453616,1.021127959158518,3.512292400000001,9.424459800000005,-61.2477
879.363,-34.155461200000005,-43.5029562,24.4313778,-0.9756056,0.443562,0.132098,76.9330962,65.801459,-61.196860400000006,-16.1147242,28.3821324,-11.1460854,-1.0018798,0.2570706,0.0307312,84.6897918,76.19112720000001,-118.368689,60.46482406432816,1.079816380779325,34.4886212446553,1.0347912029418496,7.7566956,10.389668200000004,-57.171828600000005
899.349,-29.563117400000003,-48.3237508,25.8830358,-0.9808376,0.4651952,0.1828643999999999,74.525775,65.0328074,-63.14748540000001,-16.767759,25.8949944,-10.6883054,-1.004932,0.251989,0.0207388,86.4050154,76.44503180000001,-116.2608918,62.28237586999042,1.1008580110369184,32.64886443939179,1.036251358778573,11.8792404,11.4122244,-53.1134064
919.334,-28.962958800000003,-53.787396,28.6638772,-0.9854336,0.5013946,0.230063,72.0682448,64.133002,-65.1682374,-15.673195000000002,23.921679,-10.4675972,-1.004509,0.226465,-0.0021245999999999,88.0701018,76.68836519999999,-114.2306642,67.48003265446745,1.12933826149968,30.45433234908482,1.0297228953612525,16.001856999999998,12.5553632,-49.0624268
939.32,-31.3745106,-59.9977324,32.2507244,-0.9853378,0.529712,0.2671852,69.532489,63.0776042,-67.22835699999999,-11.5401916,22.0803148,-9.7533732,-1.001578,0.2149433999999999,-0.0133852,89.72549419999999,76.90758659999999,-112.2973802,74.994646694656,1.1501622990482168,26.755272613267984,1.0244697745012294,20.1930052,13.8299824,-45.0690232
959.306,-36.7255574,-66.9336906,36.171810400000005,-0.9861314,0.5687172,0.308861,66.88428640000001,61.843722,-69.31409,-6.868747200000001,20.2953158,-8.561588400000002,-0.9980664,0.2275434,-0.0164859999999999,91.3642744,77.081639,-110.4778764,84.48245599703392,1.1795293590931937,23.073368359436643,1.023808735012805,24.479988,15.237917,-41.163786400000006
979.292,-45.1450982,-74.8827332,39.8196564,-0.9821748,0.5950002000000001,0.3457883999999999,64.07747420000001,60.42716839999999,-71.41427300000001,-5.006111,18.4105886,-7.1556252,-0.9923868,0.243881,-0.012639,92.8933364,77.20603779999999,-108.8085466,96.07865870631254,1.1992756952968069,20.376797882534092,1.0219927824090735,28.8158622,16.778869399999998,-37.394273600000005
999.278,-55.0491044,-83.57415180000001,43.4326476,-0.981177,0.6095604000000001,0.3854456,61.1017554,58.8179848,-73.524658,-6.030467799999999,16.1652266,-6.27521,-0.9882158,0.2289982,-0.0136701999999999,94.225084,77.3116118,-107.320543,109.09371027642854,1.2177193835759208,18.35917627401307,1.0144937246434402,33.1233286,18.493627000000004,-33.795885
1019.264,-64.2250626,-92.805382,47.0465172,-0.9843112000000002,0.6087768,0.4235486,58.00529780000001,57.00774679999999,-75.6091414,-7.98157,14.475375000000003,-5.2529654,-0.98235,0.208785,-0.0125626,95.3718934,77.4008024,-105.9818742,122.27457779436304,1.2324249053088956,17.344612608793607,1.0043707072808128,37.3665956,20.3930556,-30.3727328
1039.249,-71.6110488,-102.8105914,50.5151314,-0.9895096,0.6088386,0.4574899999999999,54.8518112,54.9822302,-77.64877,-8.0383656,13.6794856,-4.1259462,-0.9764872,0.2063484,-0.0241113999999999,96.4690202,77.46191860000002,-104.693979,135.09233329324428,1.2486435798265731,16.394117232872443,0.998342763561874,41.617209,22.479688400000004,-27.045209
1059.235,-77.9084792,-113.55751519999998,53.475065,-0.9941334000000002,0.6057682000000001,0.4907742,51.677002,52.735404,-79.625621,-8.688584599999999,12.644516200000002,-2.2866268,-0.9722974,0.2095832,-0.0309413999999999,97.451964,77.4806334,-103.5098252,147.7315909560622,1.263374704714496,15.511413681734425,0.9951104069413405,45.774962,24.745229400000003,-23.8842042
1079.221,-81.8740814,-124.5588778,56.0740868,-0.9925902,0.6005888,0.529695,48.5450974,50.262641,-81.5210008,-9.307865,11.605204600000002,-0.3245162000000002,-0.9728014,0.2131166,-0.0359926,98.309804,77.45690300000001,-102.4408768,159.25634195956874,1.2753505419477738,14.880270005283798,0.9965223109857,49.7647066,27.194262,-20.919876
1099.207,-83.5270034,-135.1459062,58.416707,-0.980991,0.6018008,0.5794824000000001,45.521103800000006,47.5642738,-83.3017596,-9.2617938,10.896754400000004,2.3934982,-0.98349,0.2231894,-0.029828,99.041028,77.3749908,-101.5005662,169.27400248214923,1.2885291602720523,14.499962568263449,1.0089379554543283,53.51992419999999,29.810717,-18.1988066
1119.193,-83.1951462,-145.3185594,60.155185800000005,-0.959534,0.6020141999999999,0.630922,42.652083000000005,44.6504052,-84.9608308,-10.3968672,9.938037,4.7956356,-0.9934771999999998,0.2374531999999999,-0.0200614,99.588614,77.2414748,-100.722641,177.92572168172657,1.2966067885992425,15.161053650580891,1.0216571973416717,56.936531,32.591069600000004,-15.761810200000005
1139.179,-80.76133580000001,-154.785083,61.6728304,-0.9296384,0.6071814,0.6966778,39.9862016,41.5278092,-86.4841462,-14.441194,9.134300200000002,7.2101424,-1.007212,0.2522613999999999,-0.0067401999999999,99.8944718,77.0576856,-100.1064896,185.1603448070467,1.310822933989698,18.546419539027845,1.0383435159762882,59.90827019999999,35.5298764,-13.6223434
1159.164,-76.728975,-163.7149444,62.80233080000001,-0.8949776,0.6085326,0.7579710000000001,37.552299600000005,38.2120416,-87.873581,-18.027141800000003,8.742459,9.6862772,-1.0181026,0.2543166,0.005158,100.0156432,76.828935,-99.6037126,191.40023871029612,1.3212936337565244,22.25381757899593,1.0493981332775089,62.46334360000001,38.6168934,-11.730131599999998
1179.15,-71.9989098,-172.37489,63.396029,-0.8566670000000001,0.6047695999999999,0.8170147999999999,35.3496144,34.7179452,-89.1455612,-20.2520318,8.852957400000003,13.0735678,-1.0283534,0.2557198,0.0165514,100.01434,76.5367948,-99.1784274,197.27139226930365,1.329337354245415,25.679521447558614,1.0598005851317311,64.6647256,41.8188496,-10.0328662
1199.136,-65.9880066,-181.553662,63.3261262,-0.8149422,0.5886518,0.8510552,33.3802484,31.0434262,-90.3338026,-21.7251382,9.1756482,15.6479466,-1.0286226,0.261159,0.0212236,99.9500074,76.1934386,-98.78584,203.28882768157771,1.3171699527513978,28.30251548000131,1.0614701680729044,66.569759,45.1500124,-8.452037399999998
1219.122,-58.42859940000001,-190.5914824,63.3497262,-0.7610552,0.5774852,0.8992576,31.664161,27.1955758,-91.4504806,-21.5387816,9.345962000000002,18.9589626,-1.0384028,0.25811,0.023048,99.8511458,75.790715,-98.4316316,209.17027083428985,1.312005489631747,30.177945281051542,1.0702487362533255,68.1869848,48.5951392,-6.981150999999997
1239.108,-51.1509444,-199.3733124,62.9170486,-0.6989974,0.5548336,0.924856,30.1834496,23.17918,-92.517398,-19.0787292,8.533944400000001,21.8406302,-1.0476322,0.2499968,0.0349992,99.679927,75.34431000000001,-98.2009172,215.2317165635554,1.2852222802424955,30.229774105050407,1.077616151738512,69.4964774,52.16513,-5.683519199999997
1259.093,-43.5031486,-207.4653992,62.4331086,-0.6222136,0.5334362,0.9410412,28.9400078,19.0148258,-93.5453642,-16.9585646,6.693158600000001,23.2001718,-1.056845,0.257046,0.047603,99.3813004,74.8800476,-98.1440796,220.98033589617975,1.2479032348675276,29.50659683675233,1.0886964892705404,70.4412926,55.86522180000001,-4.598715399999998
1279.079,-35.6513928,-214.2788728,61.8263612,-0.5311052,0.5128118,0.9439476,27.935194000000003,14.7249682,-94.541838,-14.989885,2.180434200000001,22.5735474,-1.057278,0.2653752,0.0734426,98.8262314,74.441153,-98.3950194,225.8516240283681,1.1983679515207506,27.18484849753262,1.092545002072592,70.89103739999999,59.71618479999999,-3.853181399999997
1299.065,-28.673144200000003,-219.5251344,60.908059,-0.430175,0.4909454,0.952286,27.1466354,10.3447984,-95.51689,-14.370141999999998,-5.181415199999999,21.1695346,-1.0533042,0.2705802,0.0924774,97.7873764,74.0487838,-99.1610214,229.61538598883035,1.154524379215164,26.10550209736545,1.0914281707379738,70.640741,63.7039854,-3.644131399999998
1319.051,-22.234190000000005,-223.59003,59.6132318,-0.334905,0.4683149999999999,0.9323596,26.563971,5.8963974,-96.4857208,-14.8842814,-13.2549622,19.5684806,-1.0532682000000002,0.2849727999999999,0.1104248,96.2210174,73.6962142,-100.464853,232.46633761901427,1.0957986685345809,27.931367469395248,1.0967119194784565,69.6570464,67.79981679999999,-3.979132199999998
1339.037,-16.4894038,-226.1569886,58.181547,-0.2398878,0.4460696,0.9104906,26.172403,1.4096666,-97.4572204,-15.227855,-20.6714938,18.3406612,-1.0613392,0.296517,0.1142686,94.2305128,73.3686432,-102.2059952,234.1024911050995,1.041881652262559,31.55278239835037,1.1078901306950977,68.0581098,71.9589766,-4.748774799999995
1359.023,-11.200022000000002,-227.5105958,56.1029772,-0.1542082,0.4208257999999999,0.8781326,25.964251,-3.0945348,-98.452736,-14.223100399999998,-26.778487,17.983447599999998,-1.0648064000000002,0.3047898,0.1183597999999999,91.94924,73.0403642,-104.274724,234.5933838469772,0.9858962349434346,35.253203238565355,1.1138754570960976,65.984989,76.13489899999999,-5.821987999999996
1379.009,-5.943776800000002,-227.9191254,53.2949776,-0.0759496,0.3953266,0.8509947999999999,25.9441526,-7.5905692,-99.4983292,-11.216574,-31.789690399999994,18.9622692,-1.06698,0.3170663999999999,0.1101896,89.4841126,72.6706132,-106.6008212,234.1427146915608,0.941405126411982,38.677688674978974,1.118534384968616,63.53996000000001,80.26118239999998,-7.102491999999995
1398.995,-0.6900820000000024,-227.4248016,50.0589638,-0.0106826,0.3813462,0.814199,26.1297292,-12.0644324,-100.6176162,-5.8406154,-33.953266,22.5007778,-1.0684468,0.319065,0.105137,87.124994,72.2047486,-108.934865,232.8699560971655,0.8991435112362208,41.14877959213913,1.1200155478493323,60.9952648,84.269181,-8.317248799999996
1418.981,3.101026999999997,-225.857373,46.4439774,0.0504434,0.3608444,0.7786536,26.5019368,-16.4906404,-101.8325714,1.2408662000000004,-35.00448279999999,25.0656998,-1.0485106,0.3294928,0.096689,85.01105820000001,71.6557222,-111.16954819999998,230.60401632158877,0.8596828754883279,43.071369510215455,1.1033080921869467,58.509121400000005,88.1463626,-9.336976799999997
1438.966,7.073744799999997,-223.65593860000004,42.5428048,0.1075858,0.3454642,0.7382746,27.0834794,-20.8389088,-103.16828619999998,6.8643714000000005,-35.17340299999999,28.328997000000005,-1.0153912,0.3315042,0.0877796,83.1708072,71.0202226,-113.2436738,227.77600175785287,0.8221737060064862,45.68172440203583,1.0717367129249795,56.0873278,91.8591314,-10.0753876
1458.952,9.764477799999998,-220.78504620000004,39.14274,0.160154,0.3317672,0.7102191999999999,27.8646508,-25.096555,-104.6369522,10.9761926,-33.154608,32.2101002,-0.9998798,0.3343058,0.0747964,81.69460480000001,70.3018968,-115.0289642,224.4404948910745,0.80008130259398,47.50995043693477,1.056936366965694,53.82995400000001,95.3984518,-10.392012
1478.938,12.082542999999998,-217.405963,36.3833666,0.2093639999999999,0.3184476,0.6587456,28.8550332,-29.2498528,-106.2496032,12.1629256,-29.5635936,32.460527400000004,-0.9702642,0.3312346,0.058291,80.5734774,69.5805086,-116.4739242,220.76025448086037,0.7610439697948601,45.55906786560989,1.0269015623319502,51.7184442,98.8303614,-10.224320999999998
1498.924,14.480738799999996,-212.9882904,34.517801,0.2644904,0.3038223999999999,0.6089524000000001,30.0652344,-33.270538,-108.0064834,11.3521502,-25.3140556,32.0520814,-0.9502322,0.3331552,0.045177,79.7664828,68.8762758,-117.57660520000002,216.2525889546393,0.7301275559103902,42.391138781064576,1.007955645121788,49.7012484,102.1468138,-9.5701218
1518.91,17.267473199999998,-207.7414826,33.2747444,0.3201286,0.2949992,0.559334,31.5170708,-37.1457478,-109.9162276,9.668666,-20.2630504,31.2539464,-0.9372712,0.327657,0.03726,79.2535906,68.208281,-118.336203,211.0968920624938,0.7087745566078117,38.48224888577289,0.9935918274615788,47.7365198,105.3540288,-8.419975399999998
1538.895,20.0603154,-201.422992,32.7683472,0.3703888,0.2918242,0.5066626000000001,33.2309894,-40.8657136,-111.9887908,7.048202400000001,-14.299998400000002,29.1923162,-0.9261648,0.325493,0.0351628,79.00405599999999,67.6067382,-118.7605972,205.05463305763,0.6921388712605586,33.26196681545081,0.9823254818602032,45.7730666,108.4724518,-6.771806399999997
1558.881,23.5613584,-194.2761902,32.5155846,0.4236166,0.289706,0.4477182,35.23586,-44.4161904,-114.2389602,3.863093400000001,-10.5016434,25.114815,-0.8988728,0.3297674,0.0267544,78.86519639999999,67.0978438,-119.0008224,198.38255702092252,0.6810522570572687,27.494761995734976,0.9578280882298036,43.6293364,111.5140342,-4.761862199999997
1578.867,27.2512948,-186.019632,32.402665,0.4712106,0.2928274,0.3935506,37.5608,-47.7767458,-116.6881454,-0.2775479999999994,-6.1069494,22.6007192,-0.8819064000000001,0.3318863999999999,0.019215,78.847342,66.6554304,-119.0236816,190.7770144875796,0.6801980524108254,23.41291037491309,0.9424843219337498,41.286542,114.4321762,-2.3355361999999986
1598.853,31.0218796,-176.8960082,32.3218554,0.5168514,0.29705,0.3449068,40.224105,-50.9341394,-119.35262,-4.938567399999999,-3.1955782,18.9965984,-0.8705487999999999,0.338733,0.0111096,78.8553604,66.29384,-118.9204864,182.4808402751091,0.6887196620310763,19.88647577544952,0.9341941349005568,38.6312554,117.2279794,0.432133600000003
1618.839,34.75551899999999,-166.7731902,32.278178600000004,0.5564502,0.302192,0.294258,43.230249,-53.8651048,-122.2367234,-9.1434738,-0.5835109999999999,15.1911446,-0.8537822,0.339182,-0.0017513999999999,78.8783372,66.018248,-118.7124206,173.3872079600402,0.698243940545165,17.740193698957082,0.9186901227088492,35.648088200000004,119.8833528,3.524302800000001
1638.825,38.2311866,-155.8348174,32.1857454,0.5975212000000001,0.305009,0.2522374,46.558899,-56.551732,-125.3274994,-12.383944599999998,0.0920232,10.6039592,-0.843426,0.3508574,-0.009571,78.8341522,65.8300232,-118.508728,163.6521804006564,0.7167187596883453,16.303818658230714,0.9135425204399408,32.275253199999995,122.3817552,6.8187714
1658.811,41.023567,-144.2332412,31.9554486,0.6284420000000001,0.312996,0.2085894,50.1888054,-58.975348800000006,-128.6159256,-15.2056146,0.8239713999999999,7.192601999999999,-0.8352700000000001,0.3565264,-0.0110556,78.7341202,65.70981,-118.304239,153.32094316070493,0.7324038374915577,16.841115395428982,0.908245161334934,28.5453148,124.6851588,10.311686599999996
1678.796,43.2273512,-132.1875472,31.538702,0.6603234,0.3152286,0.1626679999999999,54.078907,-61.1335084,-132.07373819999998,-16.9483418,1.1704358,4.993460799999999,-0.8379428000000001,0.3631616,-0.0129084,78.5949068,65.6334626,-118.10452440000002,142.60729732508491,0.7495711714503966,17.70736740717506,0.9133461066742224,24.5159998,126.766971,13.969213799999997
1698.782,44.4128508,-119.8607238,30.8813048,0.6882384,0.3170494,0.1233441999999999,58.1515594,-63.0231836,-135.64489439999997,-17.529191,2.2827822,3.6314156,-0.8353042,0.3701576,-0.0186198,78.4858614,65.58613740000001,-117.8599748,131.5018988919683,0.7677279524340377,18.04635173510262,0.9138361189663275,20.334302,128.609321,17.78491959999999
1718.768,44.664524,-107.1551298,29.8506102,0.715888,0.318381,0.0850098,62.3094374,-64.64956459999999,-139.2510834,-18.433968,3.494492,2.1792664,-0.838804,0.3793516,-0.0183168,78.3997316,65.56913,-117.5707078,119.86742875324292,0.7880918447751124,18.88840524250941,0.9207797195859604,16.090294199999995,130.2186946,21.6803756
1738.754,43.6941048,-94.1053282,28.385056,0.7418178,0.3185144,0.0397389999999999,66.4070548,-66.0220248,-142.77258619999998,-19.0815662,5.1600568,0.8621681999999996,-0.8339352,0.3880996,-0.021736,78.3749514,65.5787996,-117.2025636,107.56718362970297,0.8082847638828781,19.78574458617365,0.9200769918953522,11.967896599999998,131.60082440000002,25.5700226
1758.74,41.88736659999999,-80.3140434,26.3915872,0.7706976,0.3134617999999999,-0.0047604,70.28478240000001,-67.1540636,-146.0653292,-19.5843556,6.7834182,-0.5145134000000001,-0.8348813999999999,0.3945668,-0.0203728,78.4042512,65.6171906,-116.765213,94.34729949964164,0.8320190815799599,20.732256770118443,0.923647639908228,8.119468799999998,132.7712542,29.3001162
1778.726,38.7433308,-65.6289856,24.0096418,0.7973442000000001,0.3110992,-0.0442011999999999,73.733191,-68.05992140000001,-148.94544079999997,-19.967479,8.4208838,-2.1267614000000004,-0.828839,0.4006292,-0.020478,78.49067679999999,65.6871308,-116.2582488,79.90414464674247,0.8570263890894609,21.77463238819598,0.920813331950423,4.757485799999998,133.74705219999998,32.687192
1798.712,34.4673912,-49.92151260000001,21.2253578,0.8199892,0.3080808,-0.0870756,76.5640062,-68.76262820000001,-151.2433626,-20.2396606,10.2339284,-4.6286546,-0.8239746,0.4027936,-0.0128373999999999,78.626007,65.8079774,-115.6911864,64.27032200124579,0.880271678267931,23.14738851589138,0.917246763136769,2.0620007999999985,134.5706056,35.5521762
1818.697,29.094167,-33.2495062,17.931065,0.8401104,0.298468,-0.122968,78.5949892,-69.2832794,-152.795804,-20.320121,12.3154512,-7.0845286000000005,-0.8242689999999999,0.4050966,-0.0069904,78.83133380000001,65.980185,-115.045848,47.68147761974195,0.8999943112243322,24.79451957990798,0.91846148824255,0.236344600000001,135.2634644,37.749956000000005
1838.683,23.372869599999994,-15.811688400000005,13.9357278,0.8518938,0.2875946,-0.1374172,79.7142838,-69.632019,-153.49403999999998,-19.7241086,14.8519146,-8.5692808,-0.8246673999999998,0.4063502,-0.0036359999999999,79.1491468,66.1871048,-114.2902634,31.47228991848212,0.9095697814260544,26.135271201568496,0.9193530476148972,-0.5651369999999986,135.8191238,39.203776600000005
1858.669,17.778937999999997,1.956497199999994,9.3538272,0.8541646,0.279788,-0.1448428,79.85642859999999,-69.8112212,-153.26910700000002,-18.670087,17.910708399999997,-9.5783872,-0.8214908,0.4068772,-0.0074578,79.630023,66.419606,-113.3813966,20.184464347336828,0.9104163473647648,27.58824251978591,0.9167615879525712,-0.2264055999999982,136.2308272,39.8877104
1878.655,11.779005399999996,19.772509799999995,3.7746022,0.846861,0.2742254,-0.1467296,79.0152894,-69.80317840000001,-152.12290339999998,-16.6232172,20.8833128,-9.3648004,-0.8245650000000001,0.4111504,-0.009523,80.2999542,66.6504348,-112.3120896,23.32262278931273,0.9021655606607468,28.286809472134887,0.921435173071964,1.2846648000000016,136.4536132,39.8108138
1898.641,5.888658999999997,37.359011,-3.1154164,0.8312278,0.264695,-0.1370572,77.2536484,-69.5691758,-150.1181976,-13.8993436,23.916289,-8.2978682,-0.8261987999999999,0.4175419999999999,-0.01831,81.19298560000001,66.859352,-111.0616808,37.94835736974383,0.8830559294799395,28.87966843138877,0.925894721329288,3.939337200000003,136.42852779999998,39.0565168
1918.626,1.4068705999999973,54.42065019999999,-11.0259648,0.8120922,0.2557558,-0.109704,74.7378052,-69.0722428,-147.39531240000002,-10.7583188,26.4059354,-6.506351400000002,-0.8313900000000001,0.4230806,-0.0278078,82.2988648,67.0286528,-109.6501786,55.54420179322719,0.8584519428310942,29.246323808159005,0.9332629854104364,7.561059600000002,136.1008956,37.745133800000005
1938.612,-2.7869758000000027,71.2464098,-19.6439714,0.7877506000000001,0.2546904,-0.0951592,71.6216218,-68.2611374,-144.1050932,-7.4304039999999985,26.7039456,-4.6637868,-0.8472974000000001,0.4248097999999999,-0.028725,83.4998918,67.154663,-108.2065414,73.95744557421747,0.8333507550828523,28.108050831155644,0.9482622927480562,11.87827,135.4158004,35.89855180000001
1958.598,-6.394854200000003,87.7323328,-28.8439594,0.7634576,0.2484042,-0.0763392,68.1107438,-67.0933824,-140.4436858,-3.9112481999999993,24.0396126,-2.9238392000000006,-0.855863,0.4220156,-0.031603,84.6565294,67.2346848,-106.88645019999998,92.57337831492411,0.8064736989090469,24.530586460733847,0.9547760947056436,16.5457856,134.3280672,33.5572356
1978.584,-8.151198600000004,104.0931886,-38.4018692,0.7388522,0.240161,-0.0501228,64.43717740000001,-65.53345800000001,-136.60758360000003,-0.6699543999999993,19.8142576,-1.4432226000000004,-0.866967,0.4170212,-0.033109,85.68031479999999,67.2750276,-105.7791612,111.24988768347464,0.7785192190599278,19.878041518479325,0.9626186504631208,21.2431374,132.80848559999998,30.8284224
1998.57,-7.506711000000003,120.3191134,-47.891164,0.7156326,0.2362747999999999,-0.016803,60.8216692,-63.561995,-132.770166,2.7854766000000004,12.852329,-0.7953530000000004,-0.8907706,0.4093756,-0.0174586,86.4144364,67.2952898,-105.0553972,129.71739801844035,0.7538157202571462,13.174742009162744,0.980492450972306,25.5927672,130.85728479999997,27.7147688
2018.556,-5.695115000000003,136.2399294,-57.2513824,0.6903492,0.2372287999999999,0.0042493999999999,57.413821600000006,-61.165349000000006,-129.0588426,7.129333400000002,2.189643,-0.2923034000000003,-0.9037826,0.3936254,0.0020752,86.6949434,67.29807459999999,-104.9116518,147.89007229862062,0.7299846429141095,7.463737165351962,0.9857830643924452,29.2811218,128.4634236,24.1471908
2038.542,-2.116620600000003,151.4116578,-66.1931204,0.667951,0.2421814,0.0330863999999999,54.3597254,-58.3598406,-125.5837588,10.5318194,-8.557303000000001,-0.3519272000000003,-0.9043024,0.3743766,0.0214906,86.4994768,67.29500900000001,-105.3524294,165.2619114883933,0.7112700463058458,13.574627334189517,0.9789701298618256,32.1397514,125.6548496,20.2313294
2058.527,1.832610799999997,165.90416259999998,-74.73418939999999,0.6447362,0.2565217999999999,0.0678656,51.7108758,-55.16302499999999,-122.3881212,15.125670000000005,-19.8702364,0.0966089999999996,-0.914933,0.3594364,0.0505666,85.8188218,67.2711534,-106.4119416,181.96908719787157,0.6972043754373892,24.9724151983677,0.9843037646831996,34.107946000000005,122.4341784,15.976179600000004
2078.513,5.799052599999997,178.911017,-82.304965,0.6207906,0.2649642,0.1338854,49.47611920000001,-51.6277344,-119.4823884,22.550174,-28.989601600000004,1.0318629999999998,-0.9268148,0.350778,0.0859756,84.8190598,67.2131974,-107.9714798,197.0200199946266,0.6881222977517586,36.74196632745406,0.9946972818794672,35.3429406,118.8409318,11.510908600000004
2098.499,10.009824199999995,189.845392,-88.538867,0.5893406,0.2848156,0.1917585999999999,47.6555624,-47.8080544,-116.8601854,29.893148,-32.2643112,7.147625,-0.9197774,0.3390483999999999,0.103513,83.8381546,67.027095,-109.667227,209.71552258665133,0.6820657076013131,44.56090907624052,0.9857277637676236,36.1825922,114.8351494,7.192958400000006
2118.485,13.643560199999996,198.600226,-94.0678388,0.5490200000000001,0.3179463999999999,0.2603594,46.2165662,-43.7440956,-114.50372160000002,41.0130546,-32.6426462,15.282839200000002,-0.9246004,0.3394484,0.1233673999999999,83.1074156,66.6731124,-111.3312362,220.17482780437203,0.6857841430372388,54.60016641525933,0.9926382177437456,36.8908494,110.417208,3.172485400000005
2138.471,15.752067399999998,204.756183,-99.1221648,0.4956671999999999,0.3479138,0.3565395999999999,45.1017736,-39.4811134,-112.3963974,57.69349139999999,-30.8308584,26.8511572,-0.9353504,0.3530883999999999,0.1448242,82.8587186,66.08591,-112.8328598,228.0316330221357,0.7027449549832713,70.7111407246541,1.0102107888457537,37.75694500000001,105.5670234,-0.4364623999999992
2158.456,17.789412799999997,207.5709536,-103.0660674,0.4257502000000001,0.3802638,0.448482,44.2904966,-35.0937016,-110.5255112,75.6023798,-27.6506352,39.0688902,-0.9337574,0.3626826,0.153645,83.2045378,65.2613746,-114.082518,232.43230893204907,0.7259475839993409,89.47991752257364,1.0134339329342197,38.91404120000001,100.3550762,-3.557006800000002
2178.442,19.3099622,207.7362886,-105.743666,0.341888,0.4384636,0.5320898,43.7455168,-30.6376176,-108.8648864,89.867775,-25.9784,48.6594288,-0.9298724,0.3619088,0.1478396,84.00738820000001,64.2614304,-115.1562042,233.8994722965135,0.7695825415983655,105.44588309247968,1.0087106657150802,40.2618714,94.899048,-6.291317800000002
2198.428,17.519674399999996,206.0260956,-108.160353,0.2475402,0.4843522,0.6348900000000001,43.367475,-26.151831,-107.3914092,101.588501,-23.9467084,46.8278456,-0.9329142,0.3767779999999999,0.1408044,85.1373366,63.3106224,-116.1337448,233.35027966631404,0.8360373893318886,114.39630895338831,1.0159313189901171,41.7698616,89.4624534,-8.742335600000004
2218.414,14.829459199999995,202.8384766,-108.9549788,0.1528688,0.5249370000000001,0.6861164000000001,43.1056564,-21.6940348,-106.0679306,103.9871308,-18.1113406,38.6010308,-0.9222656,0.3798809999999999,0.1217136,86.5382018,62.5436204,-116.8690444,230.7261317122134,0.8773160424450246,112.38942836925574,1.0048371069627755,43.4325454,84.23765519999999,-10.8011138
2238.4,12.420429799999996,198.1336,-107.8340772,0.0575504,0.5622936000000001,0.7254333999999999,42.9398886,-17.322861,-104.8612076,96.6028138,-11.2603094,21.9970342,-0.9292972,0.3836316,0.0942539999999999,88.04423220000001,62.1221636,-117.3286482,225.91896496521116,0.919641103353194,99.7134279596142,1.0097773551443905,45.1043436,79.4450246,-12.4674406
2258.386,8.575472799999996,193.6383668,-105.5113584,-0.0260664,0.5982877999999999,0.757309,42.8069014,-13.0507342,-103.7252198,81.5840484,-0.6062144000000004,0.0527311999999994,-0.945908,0.39427,0.066997,89.65536340000001,62.1495652,-117.3388702,220.68530214340996,0.9654763955264778,81.5863176630234,1.026975839722143,46.848462000000005,75.20029939999999,-13.6136504
2278.372,5.2190565999999965,188.710074,-102.3000044,-0.1015379999999999,0.6175132000000001,0.7788106,42.7013374,-8.892179000000002,-102.639972,62.756707000000006,12.9978216,-20.6437668,-0.924336,0.409782,0.0459794,91.4255918,62.5781716,-116.7505188,214.71847028404312,0.9990888190199108,67.3313652581177,1.0121424967090158,48.72425439999999,71.47035059999999,-14.110546799999998
2298.357,4.6699379999999975,183.3351596,-98.3372054,-0.1687139999999999,0.6368933999999999,0.7555326,42.665731,-4.864937,-101.5882874,44.475034,21.4894198,-32.9754722,-0.9198532,0.427142,0.0292674,93.2006544,63.228644,-115.7504136,208.0956391478762,1.0024605360922294,59.39028186037478,1.014611639208323,50.5349234,68.093581,-14.162126199999998
2318.343,7.008101399999997,177.9166384,-94.504831,-0.2195006,0.6590642,0.7908899999999999,42.7492552,-0.9631286000000004,-100.5598404,30.79894220000001,22.398178,-40.1882212,-0.9502462,0.4351058,0.0237024,94.7787138,64.013656,-114.6661438,201.58027380457543,1.0526410239117607,55.36557000138944,1.0453930847168638,52.0294586,64.9767846,-14.106303399999998
2338.329,9.100291199999996,172.7595308,-91.8774842,-0.2562624,0.6799654,0.8111161999999998,42.935192,2.836301,-99.556935,22.711598200000005,20.6633838,-44.863777,-0.9374026,0.441308,0.0132115999999999,96.187695,64.87824939999999,-113.592653,195.88298263269888,1.089005442021921,54.36497594564055,1.03617128493571,53.252503,62.0419484,-14.035717999999996
2358.315,14.062991399999998,166.7123292,-90.3222642,-0.303209,0.698195,0.8163863999999998,43.280278800000005,6.530712599999999,-98.5950332,19.0582054,16.0820066,-44.0457458,-0.9209862,0.448613,-0.0003058,97.3952222,65.71185460000001,-112.6668702,190.12858765745943,1.1161983290665507,50.61495680556539,1.024436087744414,54.1149434,59.18114200000001,-14.071836999999997
2378.301,20.216364199999997,160.79115299999998,-90.1104372,-0.3420169999999999,0.7228006,0.8141093999999999,43.7996628,10.1397676,-97.6793168,20.633125,6.500482,-41.1138176,-0.9558882,0.4623536,0.0035539999999999,98.2374082,66.49846500000001,-112.178592,185.42488278791387,1.1411355970338142,46.457810012354415,1.0618407287574725,54.4377454,56.3586974,-14.4992752
2398.287,25.469688999999995,154.87827439999998,-90.6712114,-0.3705101999999999,0.7437335999999999,0.8374668,44.4630844,13.6679904,-96.8113054,22.5963188,-3.3869536000000005,-38.59842,-0.977604,0.437613,0.0085919999999999,98.6742948,67.2689086,-112.176642,181.2656986735822,1.179732222657006,44.85424288176299,1.0711155591480317,54.211210400000006,53.6009182,-15.365336599999996
2418.272,27.7885224,148.71136159999998,-91.5141252,-0.4166892,0.758132,0.8150547999999999,45.2174104,17.1104816,-95.988074,25.3325898,-9.9331422,-37.8668542,-0.9588338,0.4326862,-0.0006679999999999,98.8620192,68.03394460000001,-112.505092,176.81093336449112,1.1885740809153125,46.62945492866652,1.051941086713928,53.64460879999999,50.923463000000005,-16.517018
2438.258,30.659813,142.6651062,-90.9626604,-0.4755141999999999,0.7831068,0.7884036,46.0840402,20.4429216,-95.179645,26.9675724,-15.002681999999998,-33.4274504,-0.961971,0.4076314,0.0002556,98.7978546,68.732048,-113.1398224,171.9522091957471,1.2086977501016705,45.4942289591419,1.0447734818793593,52.7138144,48.2891264,-17.9601774
2458.244,30.815729999999995,137.213446,-89.816672,-0.5143364,0.7802488000000001,0.7523312,47.0052438,23.6704586,-94.3651948,28.760905200000003,-20.9776288,-30.1448416,-0.9827686,0.3820306,0.0098042,98.4110046,69.3926194,-114.1563614,166.86573509196967,1.1997217830646572,46.64720841682884,1.054456079132725,51.4057608,45.722160800000005,-19.7911666
2478.23,28.9314632,133.05241999999998,-87.478026,-0.5502711999999998,0.7800450000000001,0.715379,47.9591148,26.7824074,-93.5017914,28.7950422,-25.458714800000003,-28.1769526,-0.9984416,0.3598852,0.0192512,97.7169128,70.0303436,-115.4972076,161.84060387803189,1.1929106040334456,47.65754161085281,1.06149592297429,49.757798,43.247936200000005,-21.9954162
2498.216,26.771257,130.1175278,-84.363283,-0.5941217999999999,0.7733898,0.6540692,48.9659822,29.793358,-92.5496856,27.3870336,-29.499781,-27.8752992,-0.9957882,0.3577324,0.029696,96.698529,70.6606492,-117.1477156,157.36719721937578,1.1742738242709492,48.96242430624745,1.058512381450968,47.7325468,40.8672912,-24.59803
2518.202,24.364708799999995,128.479686,-81.21070879999999,-0.6303124,0.7662714,0.6123648,50.0336358,32.7123414,-91.4804656,23.3510808,-33.7864218,-25.4255292,-1.015262,0.3578306,0.0502422,95.2231246,71.2342302,-119.18763880000002,153.9345574371323,1.1659572154803794,48.30375562702859,1.0776474124690318,45.1894888,38.5218888,-27.7071732
2538.196,21.0157572,128.5632522,-79.2620332,-0.6599510000000001,0.7474578000000001,0.5639306,51.1633348,35.5784576,-90.2701492,19.2507216,-40.02057119999999,-23.9771114,-1.0330308,0.371776,0.075372,93.1557082,71.755327,-121.7564316,152.48816929168,1.1455331539498104,50.46918141185753,1.1004776082722627,41.9923734,36.1768694,-31.486282400000004
2558.173,17.285362799999994,130.1239182,-77.9917192,-0.706306,0.745556,0.5339164000000001,52.3714914,38.4189994,-88.8877838,14.2061418,-45.710172,-22.597671400000003,-1.0277416,0.3804086,0.0938648,90.5053954,72.2066698,-124.8242874,152.68833000141026,1.1574923917507882,52.9328729790257,1.0998973133904637,38.133904,33.7876704,-35.9365036
2578.159,13.999815199999995,131.2419694,-77.5248826,-0.7645373999999999,0.7165317999999999,0.4983417999999999,53.668085,41.2487716,-87.3332352,7.8255984,-51.2141638,-20.5617464,-1.010729,0.3790733999999999,0.1011814,87.2799804,72.55800200000002,-128.3569352,153.07043078193928,1.1602929828440918,55.73971635260827,1.084208204052395,33.611895399999995,31.3092304,-41.023700000000005
2598.145,10.733665199999995,131.86167,-77.341774,-0.8237844000000001,0.7042806,0.4796517999999999,55.0647966,44.055037600000006,-85.6025636,1.5710326,-54.3751304,-18.4248834,-0.9935242,0.3775334,0.0924832,83.6615876,72.79598560000001,-132.1685014,153.24640807954248,1.1851994559832366,57.43343344908837,1.066852823206388,28.596791,28.740948000000003,-46.56593779999999
2618.131,7.382631199999996,130.76189119999998,-76.5795074,-0.8920743999999999,0.6726751999999999,0.4429503999999999,56.5633746,46.8164704,-83.697667,-5.2700204,-55.34395979999999,-17.2131336,-0.959469,0.3601526,0.0605734,79.8179658,72.9449022,-136.0734116,151.71551136011934,1.2018709234732987,58.19810108321302,1.026625439990321,23.2545912,26.128431800000005,-52.3757446
2638.117,4.914877199999998,127.0935638,-74.60019539999999,-0.9504169999999998,0.6381134,0.4111062,58.16399779999999,49.478244200000006,-81.6545442,-11.5993642,-53.18208920000001,-15.857319,-0.9350046,0.3364756,0.0140441999999999,75.982103,73.01435719999999,-139.839154,147.45209096853776,1.2163426708074496,56.69510055894389,0.9938041411516456,17.818105199999998,23.536113,-58.1846098
2658.103,3.704509399999997,120.7483932,-71.30312040000001,-0.9908264,0.6067644,0.3792734,59.8649872,51.983356,-79.5101992,-16.0510984,-47.918331,-14.1813466,-0.9193504,0.3117356,-0.028156,72.41056819999999,73.0247544,-143.2365204,140.2784118424977,1.2221899623184114,52.48728224114272,0.9711730034466156,12.545581,21.0413984,-63.7263212
2678.088,2.5684333999999973,112.2248274,-66.8843994,-1.0145329999999997,0.5824298000000001,0.3446792,61.630777,54.2870012,-77.32628199999999,-16.664775,-39.10767,-13.566797599999996,-0.9040784,0.2807738,-0.0718722,69.40323179999999,73.0365616,-146.03356019999998,130.6695512282366,1.2195513236144182,44.62266885506615,0.9493983848974256,7.772454799999997,18.7495604,-68.70727819999999
2698.074,1.358779799999997,101.11608420000002,-60.9238068,-1.0251252,0.5479816,0.301224,63.39836660000001,56.3446596,-75.173723,-14.7711074,-27.8792286,-13.17935,-0.8936406,0.2510348,-0.1122286,67.10091399999999,73.0936662,-148.13236379999998,118.05938760424816,1.2007919918910184,34.19257620560189,0.9349905087418589,3.7025473999999976,16.7490066,-72.9586408
2718.06,1.4395363999999973,88.2305344,-53.9721848,-1.0210444,0.5295726000000001,0.2722331999999999,65.1146064,58.12047199999999,-73.14034140000001,-10.423158,-14.9885384,-13.0010682,-0.9019714,0.2348068,-0.1225456,65.6442124,73.225731,-149.43760379999998,103.43933583333693,1.1819854993291414,22.41263662317064,0.9400553514679656,0.5296059999999969,15.105259,-76.2972624
2738.046,1.411772999999997,74.5036378,-47.1283042,-1.004903,0.516898,0.2491083999999999,66.6940658,59.61552819999999,-71.3090974,-6.133099,-2.4790280000000005,-13.0647934,-0.90823,0.241779,-0.1070362,65.070273,73.4480056,-149.91527119999998,88.16950836431411,1.1571813067810766,14.644087877135556,0.94593634344571,-1.623792800000004,13.832477400000004,-78.6061738
2758.032,1.4688265999999972,61.166742,-40.5253868,-0.9814056,0.5130234,0.2412315999999999,68.080394,60.8424622,-69.7300034,-3.4384998,8.646383199999999,-14.055856599999998,-0.9158332,0.257828,-0.0721438,65.2464464,73.76889800000001,-149.670743,73.38824670044275,1.133376656499277,16.85675912136155,0.9541647948256528,-2.833947600000005,12.926435800000004,-79.9407396
2778.018,1.103175199999997,48.7313592,-34.262732,-0.9613876,0.5130649999999999,0.2323769999999999,69.2371596,61.826832,-68.4218566,-3.943857,18.263415,-15.1055704,-0.9248486,0.2621894,-0.0418024,66.0260942,74.1853866,-148.79027720000002,59.58101349511557,1.1142265845813228,24.02674744130029,0.962203541377852,-3.211065400000004,12.3585546,-80.36842060000001
2798.003,1.2384499999999972,37.716657,-28.6995388,-0.9423948,0.5216816,0.2359508,70.15465079999998,62.5981622,-67.39512319999999,-4.7072148,24.1233858,-15.252481800000002,-0.9437342,0.2616489999999999,3.160000000000107e-05,67.2260254,74.6527556,-147.4605592,47.41037334793784,1.1026932623654868,28.926351561998136,0.9793336716610944,-2.928625400000004,12.0545934,-80.065436
2817.989,0.9664397999999972,28.6142026,-24.2201744,-0.9199116,0.5339273999999999,0.2523758,70.8369766,63.2040132,-66.6314268,-5.1513902,26.650926,-14.4778498,-0.954415,0.2766572,0.0447118,68.6755278,75.1129744,-145.86564019999997,37.500979244378215,1.0931648387644746,30.76388812360187,0.9947091753854892,-2.1614488000000023,11.908961199999998,-79.23421340000002
2837.975,0.4775491999999971,21.1543102,-20.0586014,-0.9087666,0.5426856000000001,0.2662487999999999,71.3210724,63.681302800000005,-66.0805938,-6.5549672,27.666439200000003,-13.8374926,-0.9638746,0.279401,0.0730403999999999,70.213809,75.5509308,-144.1489318,29.156138005578285,1.0914452882414034,31.620810464873088,1.0062077635152291,-1.107263400000002,11.869627999999995,-78.068338
2857.961,-0.1992026000000028,14.4081108,-15.985406799999998,-0.906692,0.5468168,0.2773052,71.6182876,64.0464112,-65.7285674,-8.7063448,27.0736268,-12.6325778,-0.9730862,0.2591526,0.0796524,71.7337202,75.95846399999999,-142.4063018,21.521305003702945,1.094530570415135,31.118543181762508,1.0101491610366065,0.1154325999999997,11.912052799999996,-76.67773439999999
2877.946,-0.9713382000000028,8.1975154,-12.1674494,-0.9049876,0.5549474,0.2888988,71.73198099999999,64.308931,-65.5668044,-8.7535808,24.7005796,-10.6962424,-0.9834408,0.2574425999999999,0.0871392,73.1722396,76.3009536,-140.7467896,14.70338673685681,1.1001962050297938,28.30465351982996,1.0203066889793675,1.4402586000000013,11.9920226,-75.1799852
2897.933,-2.297850600000003,2.3109094,-8.449511600000001,-0.9031564,0.5567924000000001,0.2997675999999999,71.6541672,64.475679,-65.59122,-8.631735,21.6310052,-8.8656706,-0.991483,0.2638438,0.0908712,74.4676192,76.5750824,-139.2376772,9.056194891534927,1.1025288538484967,24.920019066211733,1.0300046917742074,2.8134520000000007,12.099403399999996,-73.6464572
2917.918,-4.209293600000003,-3.4572462,-4.6323796,-0.9050512,0.557591,0.3067014,71.3724412,64.54072260000001,-65.8018646,-8.814152,18.7644952,-7.547174,-0.9930228,0.256104,0.0847984,75.6031036,76.8035156,-137.89002720000002,7.150499608902275,1.106386526790886,22.062533648160244,1.0290161848962338,4.2306624,12.262793,-72.0881626
2937.904,-6.828281200000004,-9.4683758,-0.7021754000000001,-0.909488,0.5557904,0.3125295999999999,70.8471788,64.4852004,-66.22070160000001,-8.3368106,15.9088284,-5.9911552,-0.9911064000000002,0.2406544,0.0675766,76.6064116,76.9891296,-136.68975559999998,11.694811444767474,1.1107412577879332,18.93375748950551,1.0221413959075722,5.759232800000001,12.503929200000002,-70.469054
2957.89,-9.313799800000002,-16.0500348,3.4664238,-0.9154848,0.5555943999999999,0.3110346,70.06153119999999,64.28804240000001,-66.8679414,-6.9951178,13.3935234,-4.3595684,-0.98979,0.2415398,0.0556166,77.5070098,77.12550960000002,-135.6238742,18.87767405579664,1.1151412819636624,15.72653740454341,1.020352353493439,7.445478599999999,12.837467200000004,-68.75593280000001
2977.876,-11.998022000000002,-23.3252632,7.8320812,-0.9220354,0.5569257999999999,0.3170628,69.0037538,63.93595799999999,-67.75064259999999,-6.407614,11.7034366,-2.7903960000000003,-0.9882074,0.2444906,0.0373546,78.36260519999999,77.2185594,-134.6182986,27.374475907040704,1.1228732985972372,13.631370263477974,1.0186878251183136,9.358851399999995,13.282601400000004,-66.867656
2997.862,-15.251555000000002,-31.138418,12.4015082,-0.9298374,0.5642875999999999,0.3255389999999999,67.675989,63.4159142,-68.85627459999999,-6.1685696,9.8054468,-1.1151026,-0.9861426,0.2480638,0.0230563999999999,79.1278336,77.266687,-133.7115634,36.8240194858657,1.1353385955183235,11.637933307344614,1.0171255940080164,11.451844599999998,13.850772800000003,-64.8552888
3017.848,-19.009747200000003,-39.69487879999999,17.217200400000003,-0.9369292,0.5681383999999999,0.3303186,66.0833826,62.71250239999999,-70.1713992,-5.9159974,8.2666074,0.3047602,-0.9872132,0.2380546,0.0172562,79.79626160000001,77.2846542,-132.9091646,47.259770219165866,1.1444334602208903,10.169990261649492,1.0156562761455472,13.712878999999996,14.572151800000004,-62.73776539999999
3037.834,-22.612033400000005,-48.635957,22.2646046,-0.9385014,0.5787112,0.3438595999999999,64.26831899999999,61.8147202,-71.6547366,-6.012087999999999,6.5595904,1.7988286000000002,-0.985992,0.23718,0.0168013999999999,80.3348282,77.265538,-132.23726200000002,58.07299704495116,1.1549592872995826,9.077952008448497,1.01425680352954,16.066509199999995,15.450817800000005,-60.5825254
3057.819,-27.0500262,-57.4413276,27.252284,-0.939434,0.5894214,0.368791,62.2709162,60.7271248,-73.2508288,-6.7712448,4.5941924,3.2544796000000007,-0.9843444,0.2423302,0.0171392,80.7045976,77.2070816,-131.72217719999998,69.09339344024046,1.168743183430372,8.806134078956608,1.0138794680927512,18.4336814,16.479956800000004,-58.47134839999999
3077.805,-31.565622600000005,-66.30485,32.2391298,-0.9390272,0.5971006,0.3928543999999999,60.136004,59.443104600000005,-74.917557,-7.127402599999999,2.4348774000000004,4.662052,-0.9824356,0.2390182,0.0265225999999999,80.8701646,77.11414640000001,-131.40723880000002,80.20026903888403,1.1800999061348831,8.857946975807742,1.0114409801809296,20.734160600000003,17.671041800000005,-56.48968179999999
3097.791,-35.8212222,-75.402298,37.0141624,-0.942383,0.602606,0.4223035999999999,57.900987400000005,57.9585106,-76.62597980000001,-6.245573599999999,1.6969248,5.9770632,-0.9776438,0.2411045999999999,0.0285923999999999,80.9981018,76.99148100000001,-131.148294,91.3165632388569,1.195642103849626,8.80976888837989,1.0073412297515476,23.0971144,19.032970400000004,-54.5223142
3117.777,-40.0502484,-84.9917556,41.719039200000005,-0.9491762,0.6075982000000001,0.4600006,55.5929078,56.262384,-78.35713820000001,-6.3328896,1.2753304,6.9140112,-0.9699244,0.248995,0.0174783999999999,81.1255448,76.84568180000001,-130.88926080000002,102.80126044287088,1.2172557591936215,9.46232049703865,1.001527506465459,25.532637,20.583297800000004,-52.5321226
3137.763,-43.3458222,-95.3736832,45.9603716,-0.9560514,0.6086579999999999,0.5009484,53.2438738,54.3479874,-80.1082428,-7.036768,1.0849268,7.922443200000001,-0.9693332,0.2473448,0.0117133999999999,81.2434296,76.68200979999999,-130.6259216,114.39998036248984,1.2391320106705823,10.651679506275451,1.000461646665598,27.999555800000007,22.3340224,-50.51767879999999
3157.749,-45.524125600000005,-106.4725816,49.9533716,-0.9587482,0.6062168,0.5440262,50.8902582,52.2054338,-81.868167,-5.5351684,1.3190791999999998,9.15363,-0.9715934,0.2464346,0.0149929999999999,81.4127166,76.49682620000002,-130.3398894,126.11183916833868,1.2580387219366185,10.778079667971063,1.0024712150728918,30.522458400000005,24.2913924,-48.47172239999999
3177.734,-47.1365546,-117.6337662,53.7198946,-0.9584672,0.6083818,0.5890785999999999,48.5686754,49.8319138,-83.6098556,-3.7587532,1.8157686,10.192384,-0.9726508,0.2496762,0.0184419999999999,81.6561384,76.29238579999999,-130.013391,137.64223481835128,1.2789845132076618,11.014078846218244,1.00435446479372,33.087463,26.460472,-46.4035354
3197.72,-47.9823364,-128.6603624,56.9671464,-0.9484032,0.6086424,0.6336797999999999,46.3119934,47.2320862,-85.3137864,-2.1063752,1.6592822000000005,11.5298284,-0.9793082,0.251859,0.0305299999999999,81.8971418,76.0616684,-129.7212554,148.66421636783053,1.292851224919573,11.8375241007509,1.011637082835658,35.5851484,28.8295822,-44.40746899999999
3217.706,-47.1525892,-139.1398226,59.38781279999999,-0.9288054,0.607632,0.6755728,44.16837919999999,44.4217278,-86.9601578,-0.3092376,1.2991714,13.5725472,-0.9845034,0.2587322,0.0470044,82.1206494,75.7871734,-129.4812682,158.4618856715749,1.299343960078701,13.63809047176545,1.0190185030448466,37.9522702,31.3654456,-42.5211104
3237.693,-46.0831136,-148.7521852,61.3607002,-0.904926,0.6145150000000001,0.7212137999999999,42.161084,41.4150742,-88.52725540000002,2.6875432,1.1041662000000003,16.3742018,-0.9878262,0.2756492,0.0625175999999999,82.3755308,75.44937139999999,-129.2680052,167.3798120738576,1.3102171942130203,16.629989658331482,1.027468507146005,40.214446800000005,34.0342972,-40.7407498
3257.678,-44.9496504,-158.06048900000002,62.561164,-0.8809694,0.6183631999999999,0.7611543999999999,40.290690600000005,38.228844,-90.0204394,4.7631012,1.3662632,18.6351044,-0.9802602,0.290056,0.0687274,82.6884092,75.06112680000001,-129.03614480000002,175.83369556213125,1.3182701360077758,19.282658638580287,1.0245808891204249,42.397718600000005,36.8322828,-39.0157054
3277.664,-43.28864660000001,-167.5534974,63.1417792,-0.8595624000000001,0.6176408,0.7960233999999999,38.5570068,34.8722396,-91.457834,4.8473924,1.7851356000000005,21.712466,-0.9751488,0.3042064,0.0657832,83.0485914,74.6079424,-128.756381,184.21445571934103,1.3243794511641895,22.3184923771997,1.0236132791951462,44.4915846,39.7357028,-37.298547
3297.65,-40.82191,-177.2971344,63.2386732,-0.831753,0.6145414,0.8325769999999999,36.9678094,31.3382468,-92.8562744,3.4686998000000004,2.1395696,25.1527644,-0.9711942,0.3131972,0.064038,83.4176954,74.0862002,-128.437869,192.61316671140676,1.3276515530258532,25.48080048463297,1.022453678973028,46.44988600000001,42.74795339999999,-35.581594599999995
3317.635,-38.1391174,-186.9017486,63.0276618,-0.7928374,0.6120034,0.868002,35.525435,27.624604,-94.2255234,2.124045,3.2037532,28.7785474,-0.9766908,0.3204816,0.0677179999999999,83.828076,73.4963732,-128.046295,200.8963465515582,1.325355339693593,29.0341246154001,1.030154892366774,48.302641,45.8717692,-33.8207716
3337.621,-35.4551334,-196.0705688,62.9291846,-0.7430302,0.5967134000000001,0.8923154,34.228437199999995,23.7383054,-95.567688,-0.3265086,4.5635390000000005,31.7218052,-0.984829,0.3235412,0.0723184,84.2594678,72.85566259999999,-127.5789718,208.95170903438,1.3055219388921655,32.050045572777925,1.0391328203444448,50.0310306,49.1173572,-32.0112838
3357.607,-32.0615898,-204.5208374,63.007334,-0.6813002,0.5839282000000001,0.9085297999999998,33.096377000000004,19.677006,-96.880075,-1.9527412,4.951929,35.0612214,-0.9978452,0.328396,0.0798294,84.661833,72.15471640000001,-127.1048858,216.39464551852535,1.276937156935814,35.462995432916216,1.0535234734373031,51.565456,52.4777104,-30.2248108
3377.593,-28.0791758,-212.0494416,62.69121680000001,-0.5968760000000001,0.565757,0.9225907999999998,32.1398336,15.455139399999998,-98.1726334,-0.9599874000000002,3.7607458,38.6097104,-1.0106182,0.3359537999999999,0.0969743999999999,84.97610619999999,71.3852796,-126.7397582,222.89817060788928,1.2359270717439763,38.80431061044951,1.0694008304471436,52.83627260000001,55.9301402,-28.56712480000001
3397.579,-24.467381600000003,-218.4370362,62.185391800000005,-0.5066447999999999,0.5507966000000001,0.9246348,31.3554636,11.1005186,-99.4506716,1.4078339999999998,1.5846346000000004,41.6771902,-1.0243212,0.3449609999999999,0.1108708,85.19322199999999,70.555937,-126.5244506,228.4303274513252,1.189544182159553,41.73105853383124,1.086519372391988,53.837758400000006,59.455418400000006,-27.07377900000001
3417.565,-20.547299200000005,-223.7268648,61.62013,-0.4130581999999999,0.5322268,0.9137484,30.750422,6.6392276,-100.721602,4.8185404,-2.9776479999999994,43.3974334,-1.0313172,0.3627536,0.1328094,85.2052382,69.6840606,-126.5960968,232.96553813572663,1.1352614596329955,43.76553375552241,1.1012918223873087,54.4548162,63.044833,-25.874494800000008
3437.55,-16.753555400000003,-227.7790652,60.695046000000005,-0.314751,0.513461,0.883202,30.3215644,2.104335,-101.9988022,6.845167200000001,-10.554816,41.9815208,-1.0247074,0.3738846,0.1497413999999999,84.8486754,68.82634279999999,-127.1035934,236.32154529553333,1.068997737755324,43.825888963837855,1.1010165469264666,54.527111000000005,66.7220078,-25.104791200000008
3457.537,-12.8759798,-230.1936708,59.547077,-0.2075246,0.4888696,0.8516321999999998,30.0689834,-2.4517008,-103.2902374,5.6039586,-19.7636116,37.9722496,-1.0121876,0.394617,0.1734122,84.0231948,68.023314,-128.09188840000002,238.1192375920785,1.0036619697319211,43.17286688593738,1.100144583857776,53.9542114,70.47501480000001,-24.801651000000007
3477.522,-8.724745200000003,-230.7885042,58.418399,-0.106078,0.4656674,0.8095518,30.0019726,-6.997167999999999,-104.599156,1.7913802,-31.983297400000005,34.6826798,-0.9979976,0.4126862,0.1849647999999999,82.589224,67.23775959999999,-129.66087040000002,238.22712732055,0.9399323307504642,47.21258977970948,1.0956829315615169,52.5872514,74.2349276,-25.061714400000007
3497.508,-4.216166800000003,-229.2874758,57.3956138,-0.0091501999999999,0.4489076000000001,0.7602211999999999,30.1373588,-11.493061399999998,-105.9283414,-3.325086,-43.7238804,33.601085,-0.9904592,0.4150184,0.1975589999999999,80.62107979999999,66.4224336,-131.7065338,236.39961739541744,0.8829145102597646,55.24370396088703,1.0919154077510769,50.483721,77.915495,-25.7781924
3517.494,-1.5553026000000032,-225.82184160000003,56.1427588,0.0758958,0.4263405999999999,0.7209551999999999,30.4317594,-15.897199,-107.2813078,-7.8436274,-52.615425,31.809536,-0.9769018,0.4234382,0.1980488,78.3108138,65.5865074,-134.0406188,232.7013804760686,0.8410130082662455,61.98186847180352,1.0829867788869445,47.87905440000001,81.4837064,-26.759311000000004
3537.48,1.3448141999999972,-221.3563112,54.70088500000001,0.1417832,0.4087519999999999,0.6959705999999999,30.893241,-20.1945294,-108.67154839999998,-9.4888574,-59.0730498,32.4370316,-0.97088,0.4369387999999999,0.1948406,75.8731048,64.67918080000001,-136.4970916,228.01888486063385,0.8194850513405353,68.05750984608689,1.0823522295231809,44.9798638,84.87371019999999,-27.82554320000001
3557.466,3.761050799999997,-216.2040834,53.08638,0.1895748,0.394404,0.6560613999999999,31.5252362,-24.38249,-110.1186172,-10.0258296,-61.8109198,34.096344800000004,-0.9582154,0.4255698,0.1778088,73.4851042,63.69962840000001,-138.90516660000003,222.65784271715816,0.7886125034394267,71.29984428041028,1.0634389389272143,41.959868,88.0821184,-28.786549400000013
3577.452,6.134247199999997,-210.2965088,51.4096618,0.22785,0.3845548,0.6242124,32.3322278,-28.4436896,-111.635518,-10.1646612,-58.4270964,33.3137112,-0.9447196000000002,0.417029,0.1688154,71.3950972,62.7296286,-141.002185,216.5760926985469,0.767749397275439,68.02094739830285,1.0463780142674637,39.0628694,91.1733182,-29.366667000000007
3597.437,8.281849799999998,-204.5085816,49.6741966,0.2635072,0.3617287999999999,0.5950070000000001,33.313023,-32.365347199999995,-113.2418886,-10.502205,-54.6767006,29.547037,-0.9224706,0.424228,0.1572288,69.565512,61.8265394,-142.8240142,210.61784063086648,0.7445247472383172,63.03066947005588,1.027444548088995,36.252489,94.1918866,-29.582125600000005
3617.423,11.682307999999995,-199.1113128,49.0053162,0.2978078,0.3493997999999999,0.558019,34.5073684,-36.161439,-114.9474428,-12.267487399999998,-50.6845712,26.4021758,-0.9004002,0.4130132000000001,0.1440344,67.9316772,60.9972846,-144.4045012,205.3857644069041,0.7226028718057242,58.45076468114968,1.0010226430594065,33.424308800000006,97.1587236,-29.457058400000005
3637.409,15.493224399999995,-193.4915618,48.5284988,0.3570926,0.3381112,0.5115664,35.94168080000001,-39.8341306,-116.774167,-15.4994764,-44.8799096,22.9409618,-0.8825343999999999,0.3946762,0.140299,66.4755676,60.269107,-145.7226196,200.08508111774245,0.7096016418732133,52.73260644693555,0.976893074717392,30.5338868,100.1032376,-28.948452600000003
3657.395,18.2061962,-186.2005584,48.8914216,0.3784619999999999,0.3309026,0.4575918,37.5761856,-43.3664862,-118.6979982,-17.786335599999997,-39.761844,19.7158068,-0.8675407999999999,0.3845644,0.1315614,65.1739738,59.6359008,-146.82461859999998,193.3713645672845,0.6797942862057609,47.81287494107722,0.9580319511279152,27.5977882,103.002387,-28.1266204
3677.381,20.7407408,-177.65019539999997,49.4448328,0.4271696,0.3236405999999999,0.4061301999999999,39.4168816,-46.7373244,-120.721486,-19.338641000000003,-35.373413000000006,15.785333,-0.8580238,0.376936,0.1341771999999999,63.9696502,59.1064452,-147.7861176,185.56551873990736,0.6724275756425817,43.2947816822806,0.9467254673147228,24.5527686,105.8437696,-27.06463160000001
3697.367,22.8814726,-167.9601806,50.0405192,0.4638681999999999,0.3212419999999999,0.3536609999999999,41.463588,-49.9325988,-122.8476822,-20.7036856,-27.2295522,13.0110208,-0.8414949999999999,0.369459,0.1270656,62.9814308,58.6934982,-148.4707032,176.74342312327985,0.6659175868350677,36.597510471263,0.9277712295654356,21.5178428,108.626097,-25.623021000000005
3717.353,25.6867896,-156.821054,50.3628154,0.505072,0.3140322,0.2988757999999999,43.7170662,-52.9353234,-125.0646896,-22.7861056,-18.793782,8.5288578,-0.830217,0.3774996,0.125744,62.1595604,58.4285262,-148.917798,166.7005318307055,0.6656130194388328,30.74336132647984,0.9206398691264462,18.4424942,111.3638496,-23.8531084
3737.338,29.3240226,-144.4218596,51.168626,0.5249684,0.3100384,0.2543761999999999,46.15819019999999,-55.720862,-127.3332474,-24.7508544,-11.2107224,5.7466922,-0.8111659999999998,0.394008,0.1193054,61.509311,58.2718368,-149.1263794,155.99935935283614,0.6606231010186974,27.77246048698966,0.9096517806771774,15.3511208,113.9926988,-21.793132000000004
3757.324,33.325219399999995,-133.027603,51.2168734,0.5806058000000001,0.2989498,0.2313007999999999,48.8100654,-58.2937372,-129.683011,-25.9972084,-1.5300212000000002,2.6148008000000003,-0.8115456,0.4164101999999999,0.120276,61.07271060000001,58.2502684,-149.05729660000003,146.39016882583124,0.6928016584812136,26.173134941943054,0.9200380599298053,12.262645199999998,116.54400560000002,-19.374285600000004
3777.31,35.520385999999995,-123.081207,50.6433488,0.6124618,0.2907217999999999,0.2012627999999999,51.6716696,-60.66510559999999,-132.16136799999998,-28.5675346,9.0935876,-1.180097,-0.7966366,0.4283979999999999,0.1120646,60.8379656,58.3897972,-148.694229,137.75133435231874,0.707202471798791,30.003166457733755,0.9114346896167164,9.166296,119.0549028,-16.532861000000004
3797.296,37.92840639999999,-113.7620572,49.7169,0.6547192,0.2900669999999999,0.1845043999999999,54.7532698,-62.837957800000005,-134.7807498,-30.615732200000004,17.9209428,-5.6432064,-0.8045231999999999,0.4314287999999999,0.1224412,60.749161,58.6933632,-148.113739,129.8157918591942,0.7394849349087511,35.921150141051854,0.9210755866187744,5.9958912,121.531321,-13.332989200000007
3817.282,38.91908779999999,-105.2191968,48.1612756,0.6963586,0.2893855999999999,0.1638889999999999,58.053633000000005,-64.8174538,-137.5742922,-31.8929142,25.977470800000003,-9.1019034,-0.7986658,0.4326489999999999,0.1261474,60.8181626,59.1296394,-147.3206328,122.08719522472612,0.7716987298177445,42.12875040677502,0.9170416478096292,2.7645296000000004,123.9470932,-9.746340600000009
3837.268,38.0708678,-97.519476,46.0598564,0.7370677999999999,0.2868256,0.1370507999999999,61.560598600000006,-66.6121026,-140.571753,-34.3770358,33.997846,-14.469671,-0.8062856,0.4269342,0.1353427999999999,60.9824264,59.7348488,-146.3571898,114.37197884949038,0.802695950153506,50.46786603257996,0.9223269232809156,-0.5781721999999988,126.3469514,-5.785436800000008
3857.253,36.722975,-90.4371,43.7422264,0.7833558,0.2893304,0.1079437999999999,65.2864432,-68.2251466,-143.7968292,-37.2354826,38.92334,-18.1462932,-0.8165088,0.4173192,0.1524076,61.1858932,60.4482758,-145.283844,106.96180776188052,0.8420274661293656,56.840087245806274,0.9295536626273064,-4.100549999999998,128.6734224,-1.4870148000000083
3877.24,35.163683199999994,-83.35199420000001,41.8063546,0.824141,0.2869982,0.0827815999999999,69.1849776,-69.66397420000001,-147.2069182,-38.94298679999999,42.3209498,-21.311738400000003,-0.8365756000000001,0.4173485999999999,0.166701,61.426474,61.2429748,-144.1325286,99.6584709808842,0.8766009057620235,61.33358954528202,0.9496461508574234,-7.7585036,130.906949,3.0743895999999893
3897.226,31.94878299999999,-77.1400558,40.5856286,0.8606776,0.2768166,0.0405347999999999,73.25440819999999,-70.95801580000001,-150.819998,-40.1577436,43.09975,-23.1582222,-0.8395849999999999,0.4223905999999999,0.178167,61.6606864,62.0629294,-142.965869,92.83591003951724,0.905006315551643,63.29720433455504,0.9565878271660996,-11.5937218,133.0209452,7.854128999999995
3917.211,27.701850799999995,-71.946347,39.183678400000005,0.8934944,0.2656246,0.0113015999999999,77.4820906,-72.1096636,-154.646588,-42.0010366,42.296071,-23.448381,-0.8600302000000001,0.4169086,0.1883986,61.853888000000005,62.875634000000005,-141.80913700000002,86.4813854962124,0.9322104897066328,64.05365929463157,0.9741451422390608,-15.6282026,134.98529760000002,12.837450999999993
3937.197,22.9706368,-67.6115784,38.0917808,0.9239914,0.2508722,-0.0179436,81.8714904,-73.1350252,-158.7088896,-41.7382734,39.02687,-21.5861288,-0.8785202,0.413,0.1912539999999999,62.005903,63.620858,-140.7107788,80.93181978216052,0.9576110592447018,61.0830664339982,0.989416410983788,-19.8655874,136.7558832,17.998110799999996
3957.183,17.5237204,-63.0185418,37.2117508,0.946426,0.2373748,-0.0524168,86.3395904,-74.03935720000001,-162.947476,-41.0692518,35.2134808,-19.9535224,-0.8928208,0.405987,0.189941,62.092730800000005,64.30019300000001,-139.7051512,75.25378252856811,0.9771471179271216,57.66121512447578,0.9990155196805705,-24.2468596,138.33955020000002,23.2423248
3977.168,11.430421799999998,-57.733149,36.2708016,0.9641202,0.2234605999999999,-0.0967034,90.770523,-74.83186359999999,-167.256845,-39.1139846,30.061636799999995,-16.921421799999997,-0.9035858,0.391586,0.189599,62.1106126,64.8788926,-138.823355,69.13278588838062,0.9943912446175096,52.15304702620611,1.002873209413154,-28.6599104,139.71075620000002,28.43349000000001
3997.154,3.9277957999999984,-50.7262292,34.306453,0.9746198,0.2061722,-0.139971,94.8663024,-75.50766,-171.3831054,-36.625737,24.0552708,-14.7455124,-0.9058498,0.3822701999999999,0.183402,62.014357800000006,65.36368580000001,-138.1261534,61.36375661690408,1.0059734645833756,46.23343811564369,1.00016531612133,-32.8519446,140.87134580000003,33.256952000000005
4017.14,-1.9750598000000028,-41.1723352,31.523131,0.979177,0.1851423999999999,-0.18426,98.3563492,-76.07770400000001,-103.01850880000002,-33.1551712,17.9921656,-12.6197794,-0.8992766,0.3744002,0.1738334,61.81568219999999,65.75441459999999,-137.6215452,51.89190529435103,1.0134184985516892,39.77740856797734,0.9894907599483485,-36.540667,141.8321186,-34.60303639999999
4037.126,-7.191398200000004,-29.042667600000005,27.8513072,0.971375,0.1697122,-0.2247736,100.9238876,-76.560405,-33.82243040000001,-29.6488106,14.091501200000002,-11.9081568,-0.8866254,0.3703014,0.164062,61.5682876,66.09398060000001,-137.2511442,40.87649767462747,1.0113826144001092,34.92028886532383,0.9747533362913512,-39.3556,142.6543856,-103.4287138
4057.112,-10.709627200000003,-14.850459,23.0231692,0.9578648,0.1483104,-0.2514212,102.2873276,-76.969902,36.53237599999999,-26.1183518,12.4095606,-11.087499,-0.860406,0.3674564,0.1464072,61.3737654,66.4003878,-136.906253,29.415957697914404,1.0013558656325132,30.96930947096878,0.946972945204244,-40.9135622,143.3702898,-173.438629
4077.098,-11.811915600000004,0.6130848,17.025147999999998,0.9364626,0.1243037999999999,-0.2524038,102.2325958,-77.30629880000001,36.310144,-23.0511344,13.163471,-9.3327188,-0.8353697999999999,0.3704602,0.125555,61.3518018,66.678612,-136.4476958,20.730482086420917,0.9778145602043572,28.137722119862115,0.922413963771733,-40.880794,143.9849108,-172.7578398
4097.084,-9.364395800000004,16.6392666,10.1754442,0.9119212,0.1042078,-0.232321,100.7249146,-77.55437620000001,37.6243928,-21.5268392,18.0568906,-7.604543600000001,-0.8126906,0.37314,0.1046548,61.628114200000006,66.96940179999999,-135.7024138,21.635544050294804,0.9468012397706712,29.1081635876832,0.900362203833213,-39.09680039999999,144.523778,-173.3268066
4117.07,-6.603416600000003,32.263464,2.4745828000000003,0.8811508,0.0967576,-0.2144948,97.778215,-77.6722916,-31.5348572,-22.100874,26.078682800000003,-5.3141050000000005,-0.7911317999999999,0.3761664,0.0762655999999999,62.308876600000005,67.2915834,-134.5095976,33.02513860843747,0.9120289385350884,34.59459553308749,0.8793219701585762,-35.4693384,144.963875,-102.9747404
4137.055,-4.109977400000003,47.3674802,-6.497372999999999,0.8547404000000001,0.0840446,-0.1893832,93.51053299999998,-77.5888856,-99.2883912,-21.6265066,35.0947754,-0.8666291999999999,-0.7852560000000001,0.3780554,0.054268,63.532324,67.6054032,-132.74550159999998,47.98735198598723,0.8794945381431087,41.23227005958539,0.8732112498297077,-29.978209,145.1942888,-33.457110400000005
4157.041,-1.808740800000003,62.1032112,-15.953442199999998,0.8266859999999999,0.0793604,-0.1616946,88.1824004,-77.23329020000001,-165.8938568,-20.1063782,42.8353436,2.951137,-0.8048552000000001,0.3765557999999999,0.0377754,65.2529516,67.90502319999999,-130.481236,64.14509102544115,0.8460809413722306,47.41141545286605,0.8893891973291784,-22.9294488,145.1383134,35.4126208
4177.027,0.9718789999999972,76.683161,-25.8987958,0.8056036000000001,0.077189,-0.1388096,82.1910202,-76.532048,-159.740808,-16.780224800000003,47.792875,5.7216312,-0.8241988000000001,0.3678874,0.0261138,67.3541282,68.1783202,-127.880078,80.94442138673091,0.8211110808569814,50.97520876556538,0.9029544459997084,-14.836892,144.7103682,31.86073
4197.013,4.700006999999997,91.4689498,-35.8345398,0.7888652,0.0803838,-0.1200012,75.971791,-75.43028100000001,-153.2313384,-11.6440326,48.443113,7.5623074,-0.8458704000000001,0.3555568,0.0154934,69.66743,68.4025862,-125.1644424,98.35025717298736,0.8019788944074028,50.39352324984558,0.9176913517441256,-6.304361000000002,143.83286719999998,28.066896000000003
4216.999,8.487118799999996,106.3923202,-45.5043678,0.7680368,0.0867097999999999,-0.0973502,69.9328902,-73.895233,-146.770935,-2.6092248000000007,42.8186558,8.538888400000001,-0.8911528000000001,0.3464031999999999,0.0283687999999999,71.93036199999999,68.5476592,-122.696756,116.02587845796435,0.7790225779849516,43.73966110617987,0.9565319015754362,1.9974717999999985,142.44289220000002,24.074179000000004
4236.985,13.5848554,121.0287796,-55.581009,0.7433986,0.0915031999999999,-0.067864,64.4536864,-71.90482,-140.725888,8.858622800000001,28.952418800000004,6.4955724,-0.933865,0.3436318,0.0471423999999999,73.691179,68.6306716,-121.009369,133.87218661530247,0.7520770150644148,30.96627541514987,0.9961972987686726,9.237492599999998,140.53549160000003,19.716519000000005
4256.97,20.2663202,135.0458954,-65.83975219999999,0.718968,0.1068088,-0.0405946,59.7904418,-69.4618704,-135.3345688,21.8035884,9.49294,5.1926718,-0.9479848,0.3471852,0.0668072,74.710512,68.610318,-120.3910586,151.60142007446393,0.7279910894582434,24.34083436085809,1.011768721646365,14.920070199999998,138.07218840000002,14.943510200000006
4276.956,25.974643,148.8583466,-76.35187060000001,0.693351,0.1343542,-0.0230476,55.9954284,-66.5775618,-130.6673126,35.702695,-13.842919,5.4411234,-0.9717434,0.339232,0.0939895999999999,74.8395434,68.450203,-121.0222476,169.3017943661033,0.7066242651681303,38.677055996515726,1.03353646775318,18.844115,135.0277648,9.645065000000004
4296.942,29.6469796,162.49469000000002,-86.9373732,0.6640282,0.1668008,-0.0051278,52.9984382,-63.2690788,-126.706862,51.258041000000006,-38.482028,3.3526584,-0.9931332000000002,0.3230005999999999,0.1365822,74.0355348,68.1842422,-122.9867846,186.65897925499056,0.6846767497211512,64.18328103562139,1.05323199623798,21.0370966,131.45332100000002,3.7200774000000014
4316.928,32.4459734,175.5084046,-97.2061874,0.6390922,0.199766,0.0411905999999999,50.7063812,-59.57342680000001,-123.3735642,65.26885460000001,-56.4087992,0.7651482000000002,-0.9725446,0.3175994,0.1633008,72.62487180000001,67.8457488,-125.9057252,203.23627664360205,0.6708516679454557,86.27028144007545,1.0360403125120952,21.918490599999995,127.4191756,-2.5321609999999937
4336.914,33.659707,187.8796814,-106.3200088,0.612754,0.2374004,0.1173781999999999,48.9418114,-55.5288376,-120.5123718,75.93339540000001,-56.1651688,3.7533912,-0.9267248,0.3101296,0.1593336,71.5211516,67.4439132,-128.7274628,218.4849990949572,0.6675358089806119,94.52245589702731,0.9901446459079402,22.5793402,122.9727508,-8.215090999999996
4356.9,32.8991044,198.7607118,-113.8240158,0.5762038,0.274232,0.2137015999999999,47.5726616,-51.1852202,-118.017157,84.1551742,-45.478839,8.8906448,-0.9129202,0.3077486,0.1532222,71.1846618,67.0046614,-130.9011032,231.3959338415509,0.6729653652313765,96.07008746940971,0.975504759056992,23.6120002,118.1898816,-12.883946199999995
4376.886,32.8969766,206.5638002,-120.2876222,0.5270984000000001,0.3075284,0.2820623999999999,46.5692512,-46.6111876,-115.8475266,88.8418946,-29.560153799999995,13.429778199999998,-0.9022326,0.340165,0.1700877999999999,71.743263,66.5541258,-132.2082304,241.28805746869529,0.6722838965666811,94.58881472615226,0.9791147795006466,25.1740118,113.16531340000002,-16.360703799999996
4396.872,36.4469636,209.8849366,-125.6356706,0.463799,0.346326,0.3797555999999999,45.9664986,-41.8923552,-113.9816086,86.77305600000001,-12.617258599999996,21.471432,-0.9076486,0.3996418,0.1820149999999999,73.14002980000001,66.04095,-132.5651336,247.3143535954948,0.6922900594464434,90.27613668234278,1.0083000593147855,27.173531200000003,107.9333052,-18.583524999999995
4416.857,39.9762466,209.6447052,-130.8230974,0.3842528,0.3872167999999999,0.5093608,45.7146196,-37.0868422,-112.3878326,85.6573638,1.404002000000003,33.6619084,-0.9418858,0.4232956,0.1850618,75.2491042,65.39139559999998,-132.12184759999997,250.32715698451256,0.7463481018175901,92.04498504487653,1.049083359433482,29.53448460000001,102.47823780000002,-19.734014999999992
4436.86,40.52917179999999,206.4759644,-135.73714920000003,0.3048772,0.4486738,0.5588953999999999,45.7387576,-32.2495052,-111.0591506,86.5445876,3.011533800000003,38.6207216,-0.9677714,0.4217105999999999,0.202103,77.43019860000001,64.66305700000001,-131.6148774,250.39870469842103,0.7788596497620351,94.81874875565128,1.0748334454320445,31.691441000000005,96.9125622,-20.555726799999995
4456.829,40.5646752,200.966394,-139.97658099999998,0.2172766,0.4986076,0.6054354,45.9833674,-27.434876,-109.96154,85.647528,0.3037696000000028,38.0464592,-0.9699208,0.4210307999999999,0.2095672,79.40414720000001,63.9299912,-131.31020519999998,248.24670716828103,0.8138615872852581,93.71832470834045,1.0779293595301689,33.420779800000005,91.3648672,-21.348665199999992
4476.815,41.45022579999999,194.48107,-141.99516920000002,0.1207469999999999,0.5464933999999999,0.6781119999999999,46.3987932,-22.6892512,-109.0206984,82.8851882,-0.9999325999999972,35.406978599999995,-0.9747692,0.3980414,0.181254,81.20988000000001,63.245073000000005,-131.12909879999998,244.3432746841061,0.8792444249448271,90.13660977502326,1.068393636212141,34.8110868,85.9343242,-22.1084004
4496.801,38.90831059999999,188.385193,-142.0956148,0.030684,0.605842,0.7338391999999999,46.8743516,-18.0373904,-108.1733122,80.9860916,5.198967200000003,26.3396254,-0.959033,0.3415492,0.1487586,83.1448852,62.7525802,-130.7593294,239.1526736643003,0.9521060908725664,85.32029160054829,1.0288485176077184,36.2705336,80.7899706,-22.5860172
4516.787,30.518126399999996,183.2467134,-139.903537,-0.0433806,0.6736549999999999,0.7282654,47.2650978,-13.4944446,-107.3626296,74.0506042,11.950056200000002,4.873450199999999,-0.9170248,0.3251898,0.1206824,85.1194718,62.689263,-130.1924532,232.55905416899705,0.9930072649877844,75.16679015642544,0.9804321146866009,37.85437399999999,76.18370759999999,-22.829823600000005
4536.773,23.463810999999996,178.50989399999995,-135.28834840000002,-0.1258446,0.7023170000000001,0.7207667999999999,47.580387,-9.0895166,-106.54780879999998,60.49060899999999,18.3226422,-12.763979,-0.8980314,0.3612514,0.1014043999999999,87.0257294,62.9712484,-129.39978200000002,225.20939122366707,1.014194661699814,64.48063394766325,0.9732655453303996,39.4453424,72.06076499999999,-22.851973200000003
4556.758,19.466476799999995,174.4092684,-129.5276734,-0.1947359999999999,0.7354858,0.7219994,47.8741546,-4.828466000000001,-105.7013962,44.3896052,24.2476938,-25.27822,-0.9096578,0.3696544,0.090456,88.8280212,63.501972,-128.3647416,218.11683749597427,1.0488777837755932,56.54534561569879,0.9860547532851308,40.9538666,68.330438,-22.663345400000004
4576.744,15.763717399999994,170.3033296,-123.9781128,-0.2389781999999999,0.7685886,0.7592261999999999,48.1516578,-0.7040194,-104.8249984,28.5396756,25.8113328,-40.0991764,-0.9221038,0.3971936,0.0742938,90.3900542,64.3177282,-127.2474594,211.23989043872092,1.106464386635033,55.5759114385352,1.006756049186614,42.2383964,65.0217476,-22.42246100000001
4596.73,10.311427399999994,166.3236268,-120.1728606,-0.2856906,0.7853672,0.7327214,48.379251,3.3161158,-103.9399338,19.3160272,20.3033772,-49.13342300000001,-0.9277368,0.4343274,0.0490806,91.590228,65.300965,-126.3329284,205.4541087243528,1.111441140043934,56.56349784280981,1.0255460817346824,43.210977,61.984849200000006,-22.3929946
4616.716,11.180585199999992,161.5724336,-117.2456742,-0.3440658,0.782969,0.6829883999999999,48.6799346,7.2260696,-103.0674164,12.6893754,15.914573200000005,-48.7049028,-0.9439792,0.4589314,0.0350691999999999,92.5546384,66.25643,-125.5414106,199.94300413731264,1.0944838437479103,52.78694388707999,1.0502116971007511,43.8747038,59.030360400000006,-22.4739942
4636.702,16.109814399999994,156.600412,-115.836873,-0.399277,0.8203927999999999,0.7301938,49.129074,11.0576014,-102.2198518,11.1507744,12.081877600000002,-47.1954896,-0.967936,0.4592188,0.012519,93.391429,67.17070620000001,-124.8649244,195.4517748831929,1.168610052403829,49.97725257199305,1.0714190271459807,44.262355,56.11310480000001,-22.6450726
4656.688,17.847532199999996,150.70572199999998,-116.6658524,-0.4465408,0.8206614,0.7462751999999999,49.641204,14.829907,-101.4363648,15.0726392,7.271453800000003,-46.939074,-0.9619406,0.4582951999999999,-0.006633,94.1517622,68.0710526,-124.3655532,191.4201404382253,1.1957468350991525,49.83307296160238,1.0655553504911883,44.510558200000006,53.2411456,-22.9291884
4676.673,18.620753999999994,144.1881592,-117.122966,-0.5144206,0.8311870000000001,0.6873628,50.207499,18.529762400000003,-100.7119752,20.3407622,3.2315020000000034,-43.226111,-0.9536192,0.4389566,-0.0042857999999999,94.8336776,68.90069439999999,-124.0650878,186.6942604839533,1.194976151016078,47.88199958478421,1.049805145431208,44.6261786,50.370932,-23.353112600000003
4696.659,21.225058999999995,138.02389839999998,-116.3799668,-0.5633306,0.8354701999999999,0.7045128,50.8523644,22.1271058,-100.0260864,20.433016400000003,1.8655102000000028,-39.058465,-0.9599078,0.4101818,0.0033116,95.4437866,69.657161,-123.8424178,181.7839275938775,1.2295080745356006,44.11974587036056,1.0438788532423866,44.5914222,47.53005520000001,-23.816331400000003
4716.645,22.233979599999994,132.5674438,-115.3140976,-0.6021448,0.8321308000000001,0.751605,51.5416382,25.6316662,-99.36118000000002,22.650112,-1.198927599999997,-35.1851548,-0.9656292,0.3751646,-0.0043931999999999,95.9609802,70.35260480000001,-123.7693038,177.10397542071635,1.2727647482943107,41.86239504976452,1.0359573008536789,44.41934200000001,44.7209386,-24.4081238
4736.631,20.5634736,126.4822144,-112.4887436,-0.64194,0.8007387999999999,0.7004781999999999,52.2423852,29.0017888,-98.6952742,24.5562574,-4.238714199999997,-31.2274178,-0.9643754,0.3410912,0.0007348,96.3316284,70.9849336,-123.8914824,170.5119480937685,1.2425535393296658,39.9515719092515,1.022919184869284,44.0892432,41.983144800000005,-25.1962082
4756.62,18.6900868,121.3548738,-107.8234834,-0.6820064,0.8091100000000001,0.6506843999999999,52.9767136,32.217592,-97.981552,22.6863462,-6.251306399999997,-28.9912872,-0.9875504,0.3288466,0.0085696,96.5303894,71.58173380000001,-124.1546002,163.4081647657654,1.242248731190465,37.33957510639106,1.0408983220833243,43.55367579999999,39.364141800000006,-26.173048200000004
4776.603,14.191182599999996,117.7275986,-103.6938784,-0.7027918,0.7966580000000001,0.6449382,53.681665,35.2960316,-97.2081618,20.5182364,-7.691742399999997,-26.5774868,-0.9887136,0.323866,0.0034654,96.5792374,72.13062599999999,-124.5293302,157.52332383918025,1.242789429038757,34.44595376409857,1.0404113502735926,42.8975724,36.8345944,-27.321168400000005
4796.588,9.046727599999995,113.8135802,-99.266669,-0.7356834,0.7754386,0.6075555999999999,54.35502319999999,38.2415018,-96.373439,19.1796712,-8.989257599999997,-24.143858,-0.9734974,0.3322666,-0.0041574,96.5056978,72.6209748,-125.0046844,151.29192276048974,1.2294953820559391,32.11841245552824,1.0286474445878335,42.1506746,34.379473000000004,-28.6312454
4816.574,4.159853999999994,109.7127396,-93.7180332,-0.7689581999999999,0.761935,0.532542,55.0375482,41.0398806,-95.4479614,14.8940496,-9.919231399999996,-21.4537808,-0.9785118,0.3254786,0.0087962,96.234459,73.0600006,-125.5945206,144.35116682145323,1.2064172741370376,27.937225625828606,1.0312608956668723,41.1969108,32.020120000000006,-30.14655920000001
4836.56,-1.2660326000000062,106.971939,-88.1206148,-0.7969882,0.7503456,0.4977935999999999,55.7302094,43.6979296,-94.4044876,7.463014200000001,-9.892777,-22.570284,-0.9995164,0.2984148,0.0054445999999999,95.81671,73.53337400000001,-126.182637,138.59957187774413,1.2025003861037051,25.7484239820962,1.0431270633998333,40.0865006,29.8354444,-31.778149400000007
4856.546,-6.855588400000007,104.9988464,-82.03157060000001,-0.8183788,0.7349218,0.4718152,56.4515968,46.2127862,-93.2143478,4.924656799999999,-13.369502799999998,-21.4419244,-0.9899044,0.292109,0.0017713999999999,95.0736346,73.9844544,-127.0556488,133.42014620267733,1.1968556702275006,25.74396961799616,1.0321053855485496,38.6220378,27.771668200000004,-33.841301
4876.532,-12.714655600000006,103.1193664,-75.8605988,-0.8460844,0.7299384000000001,0.4460571999999999,57.2123696,48.5836336,-91.850888,3.1909248,-15.348471599999996,-19.9511936,-0.9801042,0.3023445999999999,0.0005091999999999,94.105028,74.3918472,-128.1252654,128.6471789199383,1.2031774205784282,25.373366107001697,1.0256786822838038,36.8926584,25.80821360000001,-36.274377400000006
4896.518,-20.019862600000003,101.1188324,-70.0217658,-0.8740636,0.7136334,0.4037905999999999,57.988681,50.8219216,-90.316397,0.7939017999999998,-16.889019199999996,-18.97321,-0.9753474,0.3055178,-0.0160882,92.977974,74.76984100000001,-129.3114408,124.61485003887869,1.1984601182721435,25.413617359795744,1.022204728507377,34.989293,23.947919400000004,-38.995043800000005
4916.503,-25.708013000000005,97.8687392,-64.06519060000001,-0.9042176,0.6883060000000001,0.3729073999999999,58.785704,52.9144776,-88.64120640000002,-0.6264902000000001,-18.2380134,-17.3069008,-0.9755812,0.307778,-0.0396074,91.7390566,75.10567160000001,-130.58698099999998,119.76452184023496,1.1960077536372915,25.150475901070266,1.02374543770031,32.9533526,22.191194000000003,-41.9457746
4936.489,-29.57251340000001,93.1620834,-58.5023878,-0.9189314,0.6700474,0.3579831999999999,59.5952996,54.8431732,-86.8782334,0.990327,-18.9329284,-14.2542304,-0.9526704,0.3116598,-0.0620215999999999,90.4922274,75.369232,-131.9071196,113.91328592628396,1.192287887900804,23.71960391032573,1.0042705814862647,30.896927800000004,20.526058800000005,-45.0288862
4956.475,-31.9595906,86.361238,-53.0551182,-0.9379534,0.6333439999999999,0.3435195999999999,60.37799160000001,56.59838940000001,-85.1116456,0.7688886,-15.415701599999997,-12.3408636,-0.9346018,0.3092111999999999,-0.0800282,89.5215684,75.5831724,-132.93931579999995,106.27570007969,1.1827455003049978,19.76188148667169,0.9876723158841296,29.1435768,18.984783,-47.8276702
4976.461,-32.725256800000004,77.7774742,-46.2615144,-0.9569382,0.5977398,0.3255005999999999,61.1275978,58.14225,-83.4015856,-0.4968009999999999,-10.202220199999998,-11.2927516,-0.9330098,0.270633,-0.1020581999999999,88.9653352,75.79164719999999,-133.52079780000005,96.23100145035912,1.174297333610036,15.22689551228981,0.976813894133514,27.8377374,17.6493972,-50.1192122
4996.447,-31.402061600000003,67.690873,-38.3830844,-0.9660448,0.5729074,0.3178787999999999,61.8307282,59.4381882,-81.8012636,-1.0961004,-5.378556799999997,-10.1294564,-0.9445192,0.2503238,-0.1135415999999999,88.798395,75.9881026,-133.6899568,83.91307960198962,1.1672670543072996,11.521119576551897,0.9837023019926506,26.9676668,16.5499144,-51.8886932
5016.433,-30.09302880000001,56.9122552,-30.8740294,-0.9646952,0.5589532,0.3249287999999999,62.4212998,60.4825958,-80.38347180000001,-2.009579,0.222785200000003,-9.749067,-0.9419408,0.2609366,-0.119183,89.0748704,76.16932360000001,-133.3840058,71.39888560544641,1.1613114284130333,9.956522905767306,0.984654745285473,26.6535706,15.686727799999996,-53.000534
5036.419,-28.467418,45.4339304,-23.430552,-0.9673652,0.5461966,0.3234818,62.85694579999999,61.2785492,-79.1986634,-5.807865,6.558666600000004,-9.3890718,-0.9466108,0.2736512,-0.1081192,89.7680068,76.33414300000001,-132.5690522,58.51176536563798,1.157050833349097,12.841420197693706,0.991285401560378,26.911061,15.0555938,-53.37038879999999
5056.405,-27.250203600000003,33.99199900000001,-16.266166199999997,-0.9619122,0.5473511999999999,0.3193909999999999,63.1040734,61.8305474,-78.2684922,-11.7969476,11.907685000000004,-8.9173142,-0.9600954,0.2668587999999999,-0.0992465999999999,90.762007,76.4906326,-131.319638,46.50395418782662,1.151902351560791,18.986295775582253,1.0014223304131775,27.6579336,14.660085200000005,-53.05114579999999
5076.392,-25.436401000000007,23.101139,-9.9254726,-0.9505096,0.5402087999999999,0.3162838,63.1530252,62.164129,-77.6090104,-16.5510092,15.302794000000002,-7.730757,-0.9728072,0.2707473999999999,-0.0767814,91.8954786,76.61580040000001,-129.8254744,35.765739545876485,1.1381254278119086,23.83014925546984,1.0126960977334514,28.74245340000001,14.4516714,-52.216464
5096.376,-22.934172000000007,13.6163716,-4.279438600000001,-0.9369038,0.5432336,0.3305838,63.0353166,62.3073182,-77.1968172,-20.2631928,16.970451600000004,-6.3934552,-0.98346,0.26525,-0.0452058,93.0188016,76.71218860000002,-128.2606108,27.012874997046147,1.1323326028362162,27.19318810570621,1.0196051679221914,29.983485,14.404870399999998,-51.0637936
5116.362,-21.044963000000006,5.437562,0.9281427999999998,-0.9247538,0.5443848,0.348342,62.7604928,62.2778076,-76.9995562,-22.8214796,17.143492200000004,-4.9956182,-0.9924828,0.2496061999999999,-0.0222082,94.0471342,76.7846176,-126.7372114,21.755895689040365,1.1282138760223968,28.977154055304467,1.0236300931105533,31.2866414,14.506810000000002,-49.737655200000006
5136.348,-18.956696000000004,-2.0613198,6.002335,-0.9156368,0.542244,0.3667319999999999,62.3563698,62.0897872,-76.99294760000001,-23.0223622,15.476267800000002,-2.8944148000000003,-1.001128,0.245087,-0.0092296,94.8877838,76.81520839999999,-125.400067,19.990832599131863,1.1255717057896577,27.891247073585017,1.030732795378686,32.531414,14.7254212,-48.4071194
5156.334,-16.631598000000007,-9.1469046,10.7708196,-0.9139522,0.5482844,0.3854356,61.8573578,61.758638,-77.1462588,-22.0305328,13.457971200000005,-1.078814,-1.0013070000000002,0.2445824,-0.0029404,95.5450792,76.8090606,-124.2700774,21.82398842216632,1.133351229282238,25.83844430143776,1.030749680858995,33.6877214,15.0504226,-47.1238186
5176.32,-14.786125200000006,-16.4461852,15.235575,-0.9152924,0.5569189999999999,0.4044453999999999,61.2427002,61.2755592,-77.4673082,-21.154084,11.465671600000004,1.3606646,-0.9989032000000002,0.2501814,-0.0042752,96.0257006,76.7518844,-123.3387726,26.85571171358896,1.1452052355974975,24.099964798144327,1.0297653194836387,34.783000400000006,15.476325200000002,-45.8714644
5196.306,-13.953533000000004,-24.2913388,19.582937,-0.9160066,0.5596850000000001,0.4239343999999999,60.495694,60.6419036,-77.9526398,-19.8340056,9.768678200000002,3.4827056,-0.99845,0.2541434,-0.0110138,96.3772906,76.6524826,-122.5671936,34.179842676999606,1.154138538465777,22.38178031820208,1.030345851670205,35.8815966,16.010579,-44.6145538
5216.291,-13.985563600000006,-32.5446138,23.9539622,-0.9169554000000002,0.5685986000000001,0.4498232,59.61024319999999,59.85363160000001,-78.5901092,-18.5527848,6.230892600000002,5.901811,-1.0057024,0.2387545999999999,-0.015378,96.448099,76.521637,-122.1108246,42.76143334454336,1.168953585378547,20.441654030620096,1.0337686197940623,36.8378558,16.6680054,-43.5207154
5236.277,-15.381394400000003,-40.8500756,28.0299846,-0.9178344,0.5717386,0.4656924,58.566772400000005,58.9035744,-79.3719162,-15.0958554,1.8513662000000035,8.3286204,-1.0097936,0.2328208,-0.008145,96.1951906,76.356363,-122.0574448,51.87481090944144,1.1773590887962262,17.340078570511373,1.0363179919979195,37.628418200000006,17.452788599999998,-42.6855286
5256.263,-16.997557200000006,-49.0936746,32.255857400000004,-0.9180858,0.5715298,0.4809809999999999,57.38416199999999,57.7815338,-80.27867280000001,-11.9429132,-2.2837203999999973,10.3525272,-1.0107478,0.2367288,0.0003534,95.6438188,76.15818499999999,-122.3750336,61.15182886150743,1.1835837827592437,15.96945127406857,1.038100074581367,38.2596568,18.3766512,-42.0963608
5276.249,-19.167529800000004,-57.202135600000005,36.4155158,-0.9125526,0.5721464,0.4974059999999999,56.0942626,56.4966584,-81.2789596,-9.8931768,-6.821670199999997,11.996799200000002,-1.0116398,0.2351745999999999,0.0073815999999999,94.7649872,75.9370776,-123.0716964,70.4667886795952,1.1863879970885245,16.980380518667623,1.0386417406631412,38.67072460000001,19.4404192,-41.7927368
5296.235,-21.289961200000008,-65.14914639999999,40.401712,-0.9104074,0.574671,0.5099469999999999,54.716551800000005,55.041443,-82.3467162,-8.6177646,-10.690614999999998,13.3817196,-1.0075334000000002,0.2323698,0.0124184,93.6182664,75.69570039999999,-124.0709502,79.5611215172152,1.1912742484519507,19.173563446377468,1.0340568131036905,38.901714600000005,20.6542574,-41.724234
5316.221,-22.781935000000004,-73.0209498,44.330336,-0.9095038,0.5766752,0.5171528,53.2931144,53.4168092,-83.4691908,-5.9939914000000005,-12.166856999999997,14.6146854,-0.9927422,0.2399627999999999,0.0156572,92.4374634,75.42474539999999,-125.160228,88.40958297555328,1.194654120261308,19.93864016182388,1.0214520884292713,39.144349000000005,22.0079362,-41.6910372
5336.207,-24.587301600000007,-81.1070634,48.2768142,-0.9106342,0.5834849999999999,0.5323431999999999,51.846312,51.6265748,-84.6202864,-4.6462288,-11.747461199999998,15.1497566,-0.9754632,0.2450154,0.0016533999999999,91.391835,75.1360858,-126.14137879999998,97.53738730682868,1.2054454255671967,19.72575503616271,1.0057652482179726,39.545523,23.509511000000003,-41.5210924
5356.192,-26.9461986,-89.92479700000001,52.156227,-0.9132752,0.5896404000000001,0.5554792,50.3668282,49.6597862,-85.79691599999998,-3.273264,-10.903982599999996,16.2105834,-0.9631592,0.2498124,-0.0076332,90.4998688,74.8204516,-126.9950546,107.39105525767675,1.2207802971377937,19.80894010095326,0.9950578603682504,40.1330406,25.160665400000006,-41.1981386
5376.178,-29.224281800000007,-99.64075,56.2737074,-0.9228082,0.595935,0.5837448000000001,48.862494600000005,47.500196800000005,-86.98811020000001,-2.1268606,-8.800734199999997,16.5724896,-0.9561846,0.2574792,-0.0246532,89.8580002,74.4923586,-127.6175888,118.10617194638527,1.2439740711683986,18.88448754965276,0.99055151707523,40.9955056,26.9921618,-40.6294786
5396.164,-32.0854428,-109.9681486,60.2573562,-0.9315188,0.612266,0.6118333999999999,47.3345032,45.137445,-88.195723,-1.0007096,-6.200856999999997,16.709223,-0.9597092,0.2702662,-0.0324722,89.4670882,74.15692,-128.0055588,129.43499651329788,1.2715883920770117,17.850775347354247,0.9975670459672974,42.132585000000006,29.019475000000007,-39.8098358
5416.15,-35.737616800000005,-120.8395886,63.703891,-0.9329538,0.6225244,0.6515614000000001,45.7628204,42.56669,-89.4147158,-1.3669938,-3.702762999999997,16.600678,-0.9657948,0.295038,-0.0345876,89.2662444,73.81404280000001,-128.1896926,141.20045735089096,1.2971012603107592,17.06345908493033,1.0104470887804071,43.503424,31.247352800000005,-38.7749768
5436.136,-39.11662980000001,-131.9285748,66.53999259999999,-0.9249312,0.6334472,0.6957213999999998,44.159658,39.787362,-90.6423402,-2.8796132,-2.525385599999997,17.5825152,-0.970483,0.3131342,-0.0268214,89.113829,73.44587720000001,-128.2914,152.84904380099178,1.319386731151727,17.994848856507037,1.0201027732520875,44.954171,33.6585152,-37.6490598
5456.122,-42.586430400000005,-142.9181012,68.65070820000001,-0.9091602,0.6421598,0.7315642,42.5370094,36.8080598,-91.8696076,-3.4354346,-1.056331199999997,18.4303224,-0.9716646,0.3159456,-0.0266789999999999,89.05698220000001,73.063472,-128.2823822,164.1709701536451,1.331963834614784,18.7775086276884,1.0220887858173184,46.5199728,36.2554122,-36.4127746
5476.108,-45.56194460000001,-153.619064,69.79212820000001,-0.8781182000000001,0.646767,0.7595954,40.9133652,33.640714599999995,-93.0934708,-2.5184182,-0.671955399999997,21.4427958,-0.9716612,0.3216694,-0.0107201999999999,89.0197112,72.62163380000001,-128.269458,174.7731351743019,1.329053910554948,21.600635314966503,1.0235778491008096,48.106346,38.9809192,-35.175987199999994
5496.093,-47.91371620000001,-163.87224099999997,70.3114458,-0.8350837999999999,0.6457972,0.799901,39.303479,30.2930382,-94.311505,-2.3947014,0.6783436000000029,24.6506936,-0.9572926,0.3360823999999999,0.0041878,89.0401718,72.1102262,-128.195166,184.64434727589835,1.3244850268505417,24.77602550442472,1.0145826921810563,49.7366928,41.817188,-33.883661000000004
5516.079,-49.406847600000006,-174.0025848,70.41543440000001,-0.7906632,0.6362236,0.8240795999999999,37.7343346,26.7496734,-95.5197904,-3.4335384,2.686510200000003,27.3638602,-0.9421248,0.347334,0.0158958,89.13139040000002,71.5412656,-128.0211548,194.10375964568928,1.3073010181925813,27.708976308123017,1.0042373836840968,51.3970558,44.7915922,-32.5013644
5536.065,-50.04000800000001,-183.8299958,70.43696600000001,-0.7406466,0.6295164,0.8510213999999999,36.2290168,23.0118214,-96.7128782,-6.934598799999999,5.519502800000003,29.6879736,-0.9343166,0.3441072,0.0250584,89.293013,70.932272,-127.6960954,203.1227115212704,1.2919309994030177,30.98272660936197,0.9959845367966113,53.0639962,47.9204506,-30.983217199999995
5556.051,-49.53742700000001,-193.2224824,70.41774600000001,-0.6844292000000001,0.6132542,0.8669457999999999,34.8147918,19.0814236,-97.8864974,-10.6590988,7.032165400000004,32.221025,-0.9428736,0.34726,0.039282,89.43102739999999,70.2787808,-127.313231,211.5361513555524,1.2633760579367963,34.65922949939516,1.0055561688443664,54.6162356,51.197357200000006,-29.4267336
5576.037,-48.1726862,-201.9644288,70.58790739999999,-0.6230452,0.5993998,0.8926225999999999,33.5123488,14.962231400000002,-99.0344314,-14.0205358,8.596985000000004,33.014192800000004,-0.9542374,0.3496941999999999,0.0499634,89.5637102,69.6170072,-126.8618502,219.3009139683301,1.2426747553216972,36.883878611730616,1.017522181778835,56.0513614,54.6547758,-27.8274188
5596.023,-46.22448680000001,-210.1865968,70.63152,-0.549241,0.5687022,0.8952456,32.335435,10.6658788,-100.1600556,-15.0913242,6.767367600000003,33.9867128,-0.9751608,0.3484806,0.05644,89.5635668,68.946527,-126.527614,226.5036871042049,1.1943837543625582,37.797380561260056,1.0370934326438483,57.22813179999999,58.2806482,-26.3675584
5616.009,-41.8587468,-217.2870118,70.6495604,-0.4669995999999999,0.5442576000000001,0.887444,31.334321,6.228913,-101.2638306,-13.783947799999998,3.055747800000003,35.0147812,-1.0010496,0.3470825999999999,0.0710922,89.3808168,68.2668274,-126.4140398,232.2868066967065,1.1409915927358625,37.75406884104286,1.0618948788763227,58.0464958,62.0379144,-25.1502092
5635.994,-36.956302400000006,-222.7543304,70.49463340000001,-0.3635598,0.5166814000000001,0.8615456,30.5185912,1.6835815999999997,-102.3485642,-9.4381526,-3.0715023999999973,32.5408622,-1.0050827999999998,0.3607616,0.0939806,88.97175000000001,67.63469860000001,-126.636078,236.5475709814688,1.0683614641877346,34.020884236208225,1.0719947388241975,58.4531588,65.951117,-24.2875138
5655.98,-32.152091600000006,-226.2635864,69.8096952,-0.2547548,0.4980534,0.8346128,29.8862884,-2.928424,-103.4221726,-9.7143188,-11.244145199999998,28.2022864,-0.9950986,0.405122,0.1251,88.19310920000001,67.0778628,-127.25615539999998,238.9610032385241,1.0047565492687471,31.877386172870903,1.0816631030990935,58.3068208,70.0062868,-23.833982800000005
5675.966,-27.659339600000003,-227.7883606,68.3325148,-0.1428491999999999,0.4694264,0.7920694,29.4352356,-7.551750799999999,-104.49938360000002,-15.8496814,-20.0034026,25.1945784,-0.986554,0.4390048,0.1407552,86.90814680000001,66.55504479999999,-128.29440140000003,239.41994250863056,0.9317408295089143,35.86244967668744,1.0889563975045464,57.4729112,74.1067956,-23.795017800000007
5695.952,-21.704740000000008,-227.4168914,66.2162238,-0.0419546,0.4455267999999999,0.7387360000000001,29.1990398,-12.1389654,-105.59591679999998,-24.8390172,-26.5274864,22.8545336,-0.9708724,0.4486689999999999,0.14706,85.198665,66.0564622,-129.6032654,237.85316169191168,0.8637043450599284,42.93033911160742,1.079594244261593,55.9996252,78.1954276,-24.007348600000007
5715.938,-15.499066000000004,-225.2808532,63.85284499999999,0.0594614,0.420905,0.6973882,29.183323,-16.6573394,-106.72302100000002,-29.4236494,-33.1858452,20.6807486,-0.9619138,0.4566096,0.151276,83.1739244,65.57135939999999,-131.1629852,234.6675727065551,0.816729440276399,48.93613009126166,1.0754789229076505,53.9906014,82.2286988,-24.43996420000001
5735.924,-8.609622400000005,-222.073706,60.939624,0.135811,0.3952019999999999,0.656729,29.4127072,-21.077096,-107.90779419999998,-29.5560332,-38.57495659999999,21.9465324,-0.9606672,0.4520866,0.1492033999999999,81.004712,65.03074960000001,-132.8858032,230.4441239600316,0.7784100641474261,53.32200914815228,1.0721592314702886,51.592004800000005,86.10784559999999,-24.978009000000007
5755.91,-0.1921496000000054,-217.834613,58.0556824,0.2023947999999999,0.3644101999999999,0.6136159999999999,29.9259544,-25.3768594,-109.16828,-24.9010678,-40.61429139999999,22.6047072,-0.9612542,0.4323862,0.1334692,78.91510020000001,64.4441216,-134.6305908,225.43827936102204,0.7418106526513891,52.7309835969522,1.0624412879386418,48.9891458,89.82098099999999,-25.462310800000004
5775.895,9.591785999999995,-212.566867,55.491537400000006,0.2614868,0.3423622,0.5676509999999999,30.759703,-29.5516572,-110.5206436,-18.149732,-39.9261436,20.8353512,-0.9332896,0.4313892,0.131352,77.06345519999999,63.8688034,-136.2725616,219.89994549312897,0.712611310858928,48.55534547366528,1.0365227770043453,46.303752200000005,93.4204606,-25.751918
5795.881,18.779510599999995,-206.1914672,53.60751259999999,0.314828,0.3328584,0.5422423999999999,31.908820400000003,-33.5826016,-111.9718002,-13.731235800000002,-37.18609719999999,20.7820512,-0.9243332,0.4358579999999999,0.1292854,75.48999319999999,63.2944634,-137.7128448,213.8722903314577,0.7098860502871711,44.75763972376638,1.0300867805381255,43.5811728,96.877065,-25.7410446
5815.867,26.6930668,-198.9307708,51.755815000000005,0.360285,0.3209944,0.5006248,33.3692798,-37.4524036,-113.5447068,-14.8003088,-31.488326399999995,22.1185994,-0.8990085999999999,0.4353767999999999,0.1201438,74.2047898,62.7134316,-138.8165984,207.2791252697329,0.6953185431378915,41.22858570780684,1.0060834724468144,40.83551,100.1658352,-25.2718916
5835.853,34.474326399999995,-190.6722808,50.366156,0.4088179999999999,0.3061972,0.4569185999999999,35.1466488,-41.148671,-115.246608,-20.7237804,-24.6879254,22.7094482,-0.8794502000000002,0.4453474,0.1096058,73.135756,62.1455926,-139.554849,200.20276600592743,0.6853199905429579,39.42952919033998,0.9918570423001696,37.98910719999999,103.2942636,-24.308240999999995
5855.839,42.3229486,-181.8691252,49.556482800000005,0.4566324,0.3026706,0.4211527999999999,37.2573022,-44.658396200000006,-117.0898362,-26.898725,-18.3097192,24.4077026,-0.8648982000000001,0.4365368,0.1047489999999999,72.24124299999998,61.581389,-139.963745,193.19279403414149,0.6910081922683405,40.675830292921134,0.974466842493104,34.9839408,106.2397852,-22.8739088
5875.825,48.5895762,-172.65840740000002,48.8839776,0.4972678,0.2997802,0.3845033999999999,39.688347,-47.9682784,-119.0943742,-30.485459,-14.279676399999996,27.0414058,-0.8620262000000001,0.4264304,0.0933854,71.4931518,60.9980188,-140.1336304,185.90727749928803,0.6964095762124757,43.17997216499417,0.966257154417891,31.8048048,108.9662972,-21.039256200000004
5895.811,54.54504259999999,-163.4396666,48.160569,0.5366432,0.294598,0.3417608,42.4556092,-51.074542,-121.2854386,-31.166533,-12.091409799999996,25.6645072,-0.8534117999999999,0.4226478,0.0909376,70.81719960000001,60.4582934,-140.210022,178.9053568145983,0.7011236339811118,42.14524765629544,0.9566673979591026,28.361590399999997,111.5328354,-18.9245834
5915.797,59.842215199999984,-154.1984648,47.7522552,0.5743921999999999,0.2962472,0.3089659999999999,45.5627802,-53.9698256,-123.679457,-33.0246804,-10.330568799999996,20.5842442,-0.8308327999999999,0.4247346,0.0923338,70.1140196,60.0233332,-140.275876,172.15845940123268,0.7163440458918325,40.26240525029412,0.937661000903546,24.5512394,113.9931588,-16.596419000000004
5935.782,64.00627,-144.96555619999998,47.476029,0.6055455999999999,0.3011886,0.2781193999999999,49.000557,-56.6477064,-126.29049519999998,-35.481434,-6.701971799999998,16.1602058,-0.826592,0.4222684,0.0971108,69.4342132,59.70086679999999,-140.258179,165.4260814179466,0.7312663311719472,39.56009145847245,0.933271366527014,20.4336562,116.3485732,-13.967683800000003
5955.768,65.8130044,-135.7001342,46.658412,0.6333873999999999,0.299614,0.2374043999999999,52.745897,-59.103015000000006,-129.1446852,-38.7325738,-1.164937599999997,10.9304752,-0.8192280000000001,0.4295426,0.1000051999999999,68.81398,59.5130584,-140.09805020000002,157.86983682899714,0.739803349961407,40.262198659315104,0.9303990548285184,16.068083000000005,118.6160734,-10.953365000000002
5975.754,66.22763219999999,-126.6816086,45.890421200000006,0.6619112,0.300682,0.2104143999999999,56.7627534,-61.3330238,-132.2358962,-40.87862320000001,6.202431800000003,5.3910904,-0.8183244000000001,0.4228564,0.100339,68.3238998,59.4878112,-139.7384462,150.13413996228667,0.7568423359833937,41.69647288035527,0.9265690873201632,11.561146400000004,120.820835,-7.502550000000002
5995.74,64.2453056,-117.817839,44.799968,0.6919248,0.3006044,0.1730427999999999,61.01595999999999,-63.3392602,-135.575946,-42.1387292,14.499316000000004,0.4042572000000001,-0.8126444000000002,0.426249,0.1009752,68.0180572,59.6141478,-139.1382752,141.47628639128305,0.7739940211566495,44.565301378343,0.9231874792626904,7.002097200000003,122.953408,-3.562329200000005
6015.726,59.8632202,-109.4562454,43.2940064,0.7194818,0.2955364,0.1399845999999999,65.45335539999999,-65.1222802,-139.1629852,-42.1730814,22.576322,-3.5925766,-0.8191858,0.4259228,0.097149,67.9288208,59.8770414,-138.2900422,132.05546478636143,0.7903110226318243,47.97046712765655,0.9283929850459232,2.4754654,124.9993216,0.8729429999999919
6035.712,53.3229928,-101.7375518,41.4772852,0.751294,0.2928642,0.1072353999999999,70.026014,-66.6873766,-142.99324339999998,-41.2102418,27.516167800000005,-7.2089484,-0.8191068000000001,0.4216495999999999,0.095199,67.9808334,60.24339199999999,-137.3036774,122.12385596175989,0.8134565416116586,50.0738699986938,0.926168010993362,-2.045180600000001,126.9307686,5.68956599999999
6055.698,45.37219319999999,-94.5779526,39.845952,0.7842578,0.2938318,0.0830571999999999,74.6650024,-68.0455782,-147.0276032,-39.20643,30.329402200000004,-8.9884874,-0.8265466,0.4124144,0.0967136,68.146759,60.6655944,-136.2334838,112.21107309250846,0.8416031856070413,50.37667810499441,0.928772544665205,-6.5182434,128.7111726,10.794119399999987
6075.683,35.56238439999999,-87.7751664,38.1071344,0.8187454000000001,0.2906472,0.0454961999999999,79.3108444,-69.2130282,-151.23273,-37.57190860000001,31.749129,-11.329201,-0.8392438,0.4141708,0.1056223999999999,68.36133120000001,61.1375824,-135.1442748,102.08485055550952,0.8699940971658602,50.477780293945145,0.941819355711508,-10.949513200000002,130.3506106,16.088455199999988
6095.669,24.820950399999997,-80.9341996,36.5837442,0.8482756,0.2865932,0.0076307999999999,83.8676376,-70.206093,-155.5238554,-35.88549880000001,30.9530722,-12.5230296,-0.8505592,0.4071539999999999,0.1187024,68.5662506,61.623214,-134.1035766,92.221443186186,0.8954135273437854,49.01722118914628,0.9504291621085708,-15.301387,131.829307,21.420278799999995
6115.655,13.803784799999995,-73.8606712,35.472281800000005,0.8803128000000001,0.2865998,-0.0306108,88.2422378,-71.0474686,-159.8123076,-34.0806446,28.7093848,-12.2026236,-0.871281,0.4024257999999999,0.1310082,68.741989,62.0848068,-133.1380736,83.09167227236333,0.9262975182307898,46.201981934428495,0.9686280266097403,-19.5002488,133.1322754,26.674233999999995
6135.641,3.127496999999994,-66.1463364,34.2295788,0.9048504,0.2752698,-0.0755624,92.3385346,-71.76053759999999,-164.0032408,-32.589703,27.123735000000003,-13.1155386,-0.8910218000000001,0.4038004,0.1463894,68.8772872,62.5473022,-132.2509886,74.54383355752763,0.9488084029275669,44.382463820145496,0.9891432998043104,-23.4612474,134.3078398,31.7522522
6155.627,-5.426441400000005,-57.51842419999999,32.965380800000005,0.927063,0.2601386,-0.124007,96.0477586,-72.3714248,-167.94256879999998,-31.305186600000003,24.1911258,-14.6600168,-0.8860142,0.4060394,0.1515545999999999,68.9148956,63.009935600000006,-131.5033782,66.51715357716225,0.9708221429427536,42.19172155895666,0.9863356192164816,-27.132863,135.3813604,36.4391906
6175.612,-11.326774000000004,-47.929526800000005,31.5819626,0.9412014,0.2482514,-0.1716344,99.2466142,-72.90319819999999,-171.4692748,-28.854688,19.452969400000004,-15.057300799999998,-0.886692,0.4056592,0.1583614,68.82863619999999,63.4391744,-130.9511872,58.50603140007698,0.9884063942666904,37.9174543638726,0.9878564786539592,-30.417978,136.3423726,40.5180876
6195.599,-14.704698600000006,-37.4447578,29.4303882,0.9544576,0.2275698,-0.1983966,101.8706056,-73.3791688,-174.4751984,-26.1692892,14.989723,-15.2676242,-0.8766984000000001,0.4160966,0.1564062,68.6415666,63.8285154,-130.57532959999998,49.84461653198069,1.0010686964246558,33.802719440340766,0.9829544061107616,-33.22903899999999,137.2076842,43.8998688
6215.585,-15.377692600000003,-26.342134999999995,26.626765,0.951415,0.2161444,-0.2217614,103.8296464,-73.80740979999999,-176.81445320000003,-23.303766,11.123971800000003,-15.027286999999998,-0.8662194,0.4249572,0.1539628,68.3839342,64.1753904,-130.3455842,40.48908643602056,1.0005433635811694,29.87687421686412,0.9770512855280628,-35.4457122,137.9828002,46.468869000000005
6235.57,-14.799153400000003,-14.412596400000002,22.448776,0.9498598,0.2077376,-0.2378006,104.959433,-74.1866396,-178.284842,-19.717854600000003,7.847909000000003,-13.816163799999998,-0.8528064000000001,0.4381144,0.1409888,68.1189104,64.4660734,-130.2102846,30.507137201713974,1.0009683688659496,25.323306416174265,0.9690721464853688,-36.8405226,138.652713,48.0745574
6255.556,-14.192083200000004,-2.112466,17.1484382,0.936395,0.1995532,-0.2420966,105.1971222,-74.515149,-178.8213288,-15.4443372,6.679971000000004,-11.247922399999998,-0.8501586,0.4449276,0.1316944,67.958188,64.69477219999999,-130.059595,22.359487267289865,0.9875564993390504,20.240190770458828,0.968542012195176,-37.2389342,139.2099212,48.7617338
6275.542,-12.327755800000006,10.0706162,10.9094072,0.9230416,0.1825004,-0.221099,104.55574339999998,-74.7829208,-178.4053682,-11.9893542,8.459576400000003,-8.245768,-0.8322394,0.4444278,0.1138638,68.0105286,64.877539,-129.7552522,19.297824726314317,0.9665386485452716,16.831569650817436,0.950317553913238,-36.5452148,139.66045979999998,48.650116
6295.528,-8.747254600000007,21.6865926,4.4826836,0.9037602,0.175863,-0.204437,103.0418686,-74.9732452,-177.01043399999998,-9.0378926,11.654658400000002,-4.7509074,-0.8224004,0.4355646,0.095499,68.32693019999999,65.0214706,-129.22889260000002,23.81002339128009,0.9431356110560348,15.49469864802798,0.9355100200929544,-34.7149384,139.99471580000002,47.7815414
6315.514,-5.144550200000006,33.2762854,-2.3804932,0.8894672,0.1672682,-0.1841986,100.6730958,-75.0638336,-174.6533448,-6.635801599999999,15.446513200000002,-1.3552199999999996,-0.810471,0.4248348,0.0765312,68.9191696,65.1314744,-128.4552856,33.75565603951165,0.9236122968264552,16.866097775144578,0.9182618764304004,-31.753926199999995,140.195308,46.1980592
6335.5,-1.4079650000000057,44.6536644,-8.778904800000001,0.8710402,0.161962,-0.1572926,97.5380388,-75.0337142,-171.41301900000002,-5.6408452,20.232716600000003,1.1819528,-0.7946302,0.407646,0.0597228,69.7807036,65.22938239999999,-127.4092848,45.53022379998275,0.8998242503260291,21.037560885418884,0.8950861572540824,-27.7573352,140.26309659999998,44.0037342
6355.485,3.6145219999999942,55.8848138,-14.9979452,0.8577842,0.153399,-0.1274816,93.7283968,-74.8503006,-167.3593324,-6.8026184,25.430266600000003,2.7197754,-0.7878076,0.3918898,0.0439662,70.8704222,65.3339264,-126.0884762,57.97512865851492,0.8806682379359437,26.46452823440349,0.8809945838109563,-22.857974599999995,140.18422700000002,41.2708562
6375.471,9.312822799999996,67.350058,-20.982843,0.8390527999999999,0.1579838,-0.1085182,89.364786,-74.4727112,-162.59473580000002,-7.7895876,30.1251348,3.7297812,-0.8072172,0.3845842,0.0340598,72.1577788,65.4473602,-124.5290356,71.15503272060391,0.86066525547481,31.3386772135666,0.8947986839739539,-17.2070072,139.92007139999998,38.06570020000001
6395.457,14.101192399999997,79.3967338,-27.353834800000005,0.8166518,0.162267,-0.093391,84.58407,-73.8505232,-157.27206740000003,-6.641290000000001,33.023253,3.8584322,-0.8413259999999999,0.3854154,0.0341377999999999,73.5863326,65.56872100000001,-122.8377576,85.1523178984317,0.8378380634784027,33.90471162844636,0.9260344800394852,-10.997737400000002,139.4192442,34.4343098
6415.443,18.845116,91.8372818,-34.2088488,0.7960974,0.1639,-0.076869,79.56690080000001,-72.928256,-151.5785676,-3.6437886,32.666298000000005,3.1952162,-0.8656834,0.3826046,0.0355876,75.04189140000001,65.6939026,-121.18003819999998,99.79714455678244,0.8164209229605522,33.023834225465656,0.9471327817420744,-4.525009400000002,138.6221586,30.3985294
6435.429,24.328914999999995,104.1061538,-41.5791472,0.7729586,0.1690162,-0.0503426,74.61023259999999,-71.67232659999999,-145.8123138,1.577254,26.98545140000001,1.3792518,-0.8980410000000001,0.3773635999999999,0.0344522,76.33050840000001,65.8226426,-119.8174102,114.71186881044936,0.7928214493510882,27.066670518740967,0.9747142547284308,1.720275799999996,137.4949692,25.994903600000004
6455.415,29.41578639999999,116.2662124,-49.7267394,0.7502202,0.1807696,-0.0288918,69.9459542,-70.04397880000002,-140.21132819999997,9.3149158,16.599781600000004,-1.5473068,-0.9144518,0.3827314,0.0450319999999999,77.2763642,65.9507036,-118.9956238,129.83015538282257,0.7722323049960031,19.09750150836791,0.9923372914957896,7.330409999999998,135.9946824,21.21570440000001
6475.401,33.041485599999994,128.2600692,-59.07747340000001,0.7265338,0.1967774,-0.0091222,65.7350152,-68.0122298,-134.9703858,18.9491866,1.3896322000000023,-4.535441400000001,-0.931312,0.3889388,0.0652919999999999,77.6916382,66.059427,-118.9598038,145.02597348465378,0.752765516097835,19.53389308729139,1.0113745482033054,11.956622999999995,134.0716568,16.010582000000003
6495.386,35.28572799999999,139.5995314,-69.1427872,0.7042995999999999,0.2177252,0.0147693999999999,62.085766,-65.5748916,-130.2265946,27.6119762,-12.616674999999995,-7.0790972,-0.911923,0.3963428,0.0782004,77.6254746,66.13987420000001,-119.63735040000002,159.7305130191913,0.7373332519638321,31.172348883137424,0.9973998574298074,15.5397086,131.71476579999998,10.589244200000005
6515.372,36.44743199999999,149.8879118,-80.0404128,0.6824702,0.2365452,0.0351949999999999,59.066577200000005,-62.74290400000001,-126.0700166,33.467455,-23.2667594,-7.025546,-0.8957976000000001,0.4040196,0.0896328,77.20112920000001,66.15971520000001,-120.83292079999998,173.78512331138592,0.7231582769740523,41.36146677467604,0.9867721196840537,18.134552000000003,128.90261920000003,5.237095800000003
6535.358,37.692244,159.4315276,-91.082193,0.6667538000000001,0.2610444,0.0586947999999999,56.65064639999999,-59.5288964,-122.4663118,40.237579,-29.8514374,-4.7779196,-0.8997449999999999,0.4149364,0.1248328,76.61431280000001,66.0974714,-122.3481322,187.4435465208508,0.7184357230350118,50.328914098472495,0.9986473396679127,19.963666400000005,125.6263678,0.1181795999999987
6555.344,36.7695312,168.6269164,-101.7657074,0.6458466,0.3009896,0.0945045999999999,54.7569062,-55.9663972,-119.3701142,47.2165868,-31.7197696,-0.6306632000000001,-0.9147812,0.4182178,0.1432148,76.11690680000001,65.9425626,-123.9158492,200.35791614474027,0.7187793051144976,56.88538993969236,1.0159927416322028,21.360000600000003,121.9089598,-4.545735000000005
6575.33,33.3381966,177.441275,-111.7551866,0.6247858,0.328887,0.1201489999999999,53.2504822,-52.0879556,-116.6953904,54.1992856,-26.5191898,5.9217894,-0.9119152,0.4148639999999999,0.1615896,76.0535798,65.6817046,-125.1607772,212.33479026802627,0.7162120753321881,60.62918090240659,1.0147968611082712,22.803097600000008,117.7696602,-8.465386800000001
6595.316,30.6751306,185.8383728,-119.7913254,0.598494,0.3620464,0.1678885999999999,52.0590874,-47.941813,-114.3425462,61.366364,-22.4369532,16.098104,-0.9489276,0.4017011999999999,0.1881843999999999,76.4020006,65.25221400000001,-126.1097808,223.2192332290556,0.7193464018113387,67.29336112778364,1.047492631251676,24.342913200000005,113.194027,-11.767234600000004
6615.302,26.7479734,193.8159638,-125.7631256,0.5504092,0.4093743999999999,0.2556092,51.0810906,-43.5695594,-112.2249756,72.5368734,-20.7799196,27.945682800000004,-0.9881879999999998,0.4076188,0.2167729999999999,77.12766119999999,64.6121032,-126.886322,232.58642622778183,0.7320339814138686,80.46343423188144,1.0907149687184272,26.046570600000003,108.1816626,-14.661346400000005
