Timestamp (ms),Wrist Gyroscope X (deg/s),Wrist Gyroscope Y (deg/s),Wrist Gyroscope Z (deg/s),Wrist Accelerometer X (g),Wrist Accelerometer Y (g),Wrist Accelerometer Z (g),Wrist Roll (deg),Wrist Pitch (deg),Wrist Yaw (deg),Arm Gyroscope X (deg/s),Arm Gyroscope Y (deg/s),Arm Gyroscope Z (deg/s),Arm Accelerometer X (g),Arm Accelerometer Y (g),Arm Accelerometer Z (g),Arm Roll (deg),Arm Pitch (deg),Arm Yaw (deg),Wrist Gyroscope Magnitude (deg/s),Wrist Accelerometer Magnitude (g),Arm Gyroscope Magnitude (deg/s),Arm Accelerometer Magnitude (g),Difference Roll (deg),Difference Pitch (deg),Difference Yaw (deg)
0.0,37.431583,-20.150635,-27.711409,-1.000942,0.193887,-0.150772,136.806229,69.559326,-85.084633,-3.961114,-12.476494,11.582496,-1.050947,-0.073261,-0.146357,-159.002167,76.455101,179.668747,50.74538092826179,1.0306353633157557,17.478773991417363,1.0636151288783928,-295.808396,6.895775,264.75338
19.986,42.702222500000005,-19.94707,-25.0778295,-1.015419,0.200482,-0.148224,137.3285525,69.890354,-85.034401,-12.6780545,-11.358966,10.331366,-1.0134375,-0.056019,-0.151963,-159.445267,76.6040075,179.434639,53.38785386635688,1.045580763050373,19.91221479193317,1.0262974462290402,-296.7738195,6.7136535,264.46904
39.972,42.987368,-20.491424,-22.190782,-1.0237726666666669,0.2213613333333333,-0.1602879999999999,137.71409633333334,70.19058966666667,-85.09718333333332,-19.309515333333334,-9.918805333333331,11.755699333333334,-0.9914036666666668,-0.048208,-0.1668673333333333,-160.166143,76.73534133333334,178.99261466666667,52.538015482950286,1.05962425220117,24.686768692247487,1.0065038243732056,-297.8802393333333,6.544751666666666,264.08979800000003
59.958,40.9805495,-21.771885,-20.16738025,-1.019018,0.24003575,-0.17388075,137.95605875,70.48225375,-85.25805299999999,-23.074276750000003,-8.03448375,12.9967815,-0.98565075,-0.04870625,-0.1777687499999999,-161.0386355,76.83859625,178.42295074999998,50.597862009409695,1.061248962695665,27.67474491342869,1.002736968621975,-298.99469425,6.356342499999997,263.68100375
79.944,37.9753636,-23.2283672,-18.5997786,-1.0089568,0.2451509999999999,-0.1788082,138.0610902,70.7770048,-85.50417039999999,-24.9370008,-6.899525,13.1621014,-0.9861976,-0.0519468,-0.1834364,-161.91042199999998,76.9256012,177.8565704,48.24559096227612,1.053596321868333,29.029267427696272,1.004456613856945,-299.9715122,6.1485964,263.3607408
99.929,35.285366200000006,-25.2959834,-14.729011,-1.0075354,0.2520042,-0.1783826,138.2906342,71.3757262,-85.9944002,-27.9756392,-5.215189199999999,12.5309816,-0.9762964,-0.0560069999999999,-0.2005338,-163.3759738,77.11104739999999,176.92753900000002,45.84634782705488,1.0537808363476533,31.09437387856381,0.9982510954887052,-301.666608,5.735321200000001,262.9219392
119.915,31.47106,-27.7178718,-10.9329252,-1.001498,0.2464935999999999,-0.1798116,138.171466,71.953775,-86.77155619999999,-25.6218012,-3.803842,10.8797232,-0.9769826,-0.0621996,-0.214873,-164.69662499999998,77.2480042,176.0981078,43.338630436062815,1.0469429546730422,28.094737720824227,1.0022645344777594,-302.868091,5.294229200000001,262.869664
139.901,30.892113399999992,-29.5350008,-7.477362600000001,-0.9868186,0.2431668,-0.1783014,137.7774138,72.5044572,-87.823752,-20.6774618,-2.9673182,8.051074600000002,-0.9769934,-0.0560086,-0.216785,-165.7262576,77.3487548,175.4662932,43.388361273806346,1.031858726362364,22.38709909758912,1.0023217064109309,-303.50367140000003,4.844297600000002,263.2900452
159.887,29.3432866,-29.905715800000003,-4.4535974,-0.9782692,0.2540634,-0.1694553999999999,137.130194,73.0093294,-89.10468,-16.901040400000003,-1.3549683999999995,5.024900199999999,-0.969135,-0.0334502,-0.2106478,-166.51452360000002,77.40400380000001,175.0071166,42.13329842062446,1.024828752269061,17.684194298508228,0.9923275969909736,-303.64471760000004,4.394674400000002,264.1117966
179.872,26.0696536,-29.1676666,-1.8146596,-0.9711354,0.256781,-0.1622372,136.26827400000002,73.458684,-90.538762,-19.217294200000005,1.2095100000000003,1.694238,-0.9654156,-0.0163378,-0.20712,-167.1508426,77.39511999999999,174.7529204,39.16213226034328,1.0175270788327946,19.329711669088542,0.9875185561963888,-303.4191166,3.936436000000001,265.2916824
199.858,23.4036212,-27.4221416,0.8493668,-0.9612398,0.2497808,-0.1574476,135.2633668,73.83880180000001,-92.064737,-26.558703200000004,3.2802040000000003,-1.6799024,-0.961446,-0.0030803999999999,-0.1975006,-167.705411,77.33748440000001,174.73407279999998,36.06140262336564,1.0055655860750408,26.81317821558705,0.981526559386204,-302.9687778,3.4986825999999978,266.7988098
219.844,22.6010146,-24.8068798,3.2044004,-0.9501522,0.2541261999999999,-0.1588706,134.2099642,74.1339586,-93.622197,-32.7319866,4.2890252,-3.2115548,-0.964872,0.0088317999999999,-0.1913172,-168.29283460000002,77.2599438,174.8091766,33.71135310669955,0.9962977447709296,33.16764640703674,0.9836962173817076,-302.5027988,3.125985199999997,268.43137360000003
239.83,21.13486,-21.2738592,5.5117034,-0.939611,0.2615982,-0.1567713999999999,133.15061980000002,74.33201,-95.1528304,-38.4516,3.7571934,-4.7349224,-0.9628278,0.0134438,-0.1895966,-168.86389479999997,77.18908200000001,175.0186798,30.48996993849938,0.9878662467268532,38.92379137415863,0.9814096896520026,-302.01451460000004,2.8570719999999965,270.1715102
259.815,19.6193936,-17.6585106,8.043383799999999,-0.9244034,0.2566856,-0.1619809999999999,132.1255312,74.4309006,-96.6168242,-43.476175000000005,1.5604450000000003,-6.2324164,-0.960536,0.0006668,-0.1906633999999999,-169.32848819999998,77.1536634,175.4384918,27.594195491011074,0.9729578549659382,43.9483309741296,0.979276459442276,-301.4540194,2.722762799999998,272.05531600000006
279.801,19.2404578,-13.8348256,10.89397,-0.9175552,0.2587002,-0.1673262,131.16372700000002,74.42472219999999,-98.007582,-38.5795552,-1.2612977999999997,-6.373445,-0.9488154,-0.0110637999999999,-0.1904235999999999,-169.599359,77.17110579999999,175.9549684,26.082104939918025,0.9679005092123468,39.12280348771234,0.9677986455790069,-300.76308600000004,2.746383599999996,273.96255039999994
299.787,17.2824556,-10.6828684,13.1207784,-0.9065182,0.2660426,-0.173739,130.2378602,74.3304214,-99.3207534,-25.2225114,-0.8929147999999998,-5.9187076,-0.923713,-0.0055464,-0.1994555999999999,-169.66502359999998,77.17497399999999,176.4090272,24.18598301991458,0.9605931251404,25.92302987340575,0.9450179920474108,-299.90288380000004,2.844552599999997,275.7297806
319.773,13.586797,-8.216601,14.9961524,-0.8951182,0.2713142,-0.177106,129.306453,74.1654082,-100.5639068,-13.7188512,2.6155022000000008,-5.081548,-0.8952092,0.0111318,-0.2180057999999999,-169.6830778,77.099884,176.6787904,21.840287807545845,0.9519530042648534,14.861691023643653,0.9214390688317486,-298.9895308,2.934475799999998,277.2426972
339.758,10.4168458,-6.717787,16.4673006,-0.8977688,0.265405,-0.1894746,128.3904266,73.9533706,-101.729216,-5.044807600000001,4.377314400000001,-2.337732,-0.8985342,0.0242664,-0.2282506,-169.81973240000002,76.9966446,176.65057700000003,20.61095164346147,0.9551592832211808,7.07643667259795,0.9273892942766592,-298.21015900000003,3.0432739999999967,278.379793
359.744,7.8436712,-4.8854712,17.3607586,-0.9164088,0.264014,-0.1849246,127.517282,73.7080018,-102.7979386,2.651421799999999,4.316806000000001,0.4710529999999998,-0.915532,0.0305606,-0.2223417999999999,-170.0502286,76.910788,176.36862200000002,19.666899753321896,0.9714451032346604,5.087901584343022,0.9426392042152714,-297.5675106,3.202786199999997,279.1665606
379.73,3.1397642,-2.5402352,17.517628000000002,-0.9458082,0.2635532,-0.1650882,126.6764082,73.442331,-103.7343278,1.7479943999999985,4.9436606,1.6807558,-0.93238,0.0367392,-0.2140432,-170.42247000000003,76.82453459999999,175.9602968,17.977157863502917,0.99562420329998,5.506378538536682,0.9573383543360624,-297.09887820000006,3.3822035999999995,279.6946246
399.716,-1.3424162000000002,0.6583822000000001,17.276877199999998,-0.9713382,0.267225,-0.1632726,125.9504714,73.1458068,-104.457988,-5.115658400000001,5.8787156,3.4011432,-0.9585118,0.0259291999999999,-0.2190284,-171.049475,76.7262054,175.42955940000002,17.341454211200947,1.0205709388940094,8.50276619918954,0.9835601832925324,-296.9999464,3.580398599999998,279.8875474
419.701,-3.9565990000000006,4.4588524,16.9156564,-0.9867202,0.2653455999999999,-0.1715184,125.4286238,72.8127136,-104.916263,-10.6003632,9.9887856,4.197668,-0.9610176,0.0079732,-0.2664537999999999,-171.91353139999998,76.42424020000001,174.7966706,17.935313541018672,1.0360712340693374,15.157966696523172,0.9973043802984322,-297.34215520000004,3.611526599999999,279.7129336
439.687,-7.4987716,8.5618584,16.09947,-0.99016,0.2659904,-0.164474,125.0898268,72.449945,-105.1087496,-19.928171,18.6807922,3.5256658,-0.9629768,-0.0296695999999999,-0.3187449999999999,-173.10590499999998,75.7714266,174.1289704,19.716235164237546,1.0383734468716734,27.541501701216497,1.0147920858616313,-298.1957318,3.321481600000001,279.23772
459.673,-10.5253158,11.5237678,14.9235034,-0.9869826,0.2510032,-0.1611258,124.908786,72.08204939999999,-105.0739564,-26.914406000000003,29.2300204,2.3836466,-0.9674924,-0.0705374,-0.3841364,-174.3506712,74.89115160000001,173.54773559999998,21.593759532046708,1.0310668176886697,39.805290025710704,1.0433493387458872,-299.2594572,2.8091022000000008,278.621692
479.659,-7.8286602,12.9031192,14.1559578,-0.9684074,0.229352,-0.1784114,124.9298172,71.7158202,-104.8882812,-28.8573016,38.6452992,1.904826,-0.9774986,-0.0880872,-0.4355453999999999,-175.58546719999998,73.80443740000001,173.0135864,20.692258138053795,1.011061748820872,48.26832675762813,1.0737609898236014,-300.51528440000004,2.0886172000000016,277.90186759999995
539.616,-10.4321486,14.2710816,12.5113828,-0.947152,0.2381707999999999,-0.1994786,125.0085694,71.23009019999999,-104.4699296,-33.1602126,44.6519452,2.5643018,-0.9906241999999998,-0.0769089999999999,-0.4623413999999999,-176.92810939999998,72.5965578,172.4554506,21.6570587572384,0.9968018624253268,55.67738817098451,1.0959064148277442,-301.93667880000004,1.3664676000000042,276.92538019999995
559.602,-19.4492436,15.353017599999998,10.2799762,-0.9405318,0.2510886,-0.1853596,124.987871,70.7708236,-103.9614914,-42.9201164,44.0486852,3.3588086000000006,-1.0248002,-0.077334,-0.436002,-106.3063748,71.52979280000001,172.0262452,26.8265938335566,0.990961014961416,61.59305687209948,1.1163752691098277,-231.2942458,0.7589692000000042,275.98773659999995
579.587,-34.322977800000004,16.0939616,6.986815999999999,-0.9430516,0.243048,-0.1696532,124.787285,70.371228,-103.3260468,-49.412780000000005,42.2474538,1.9429478,-1.0274146,-0.1069628,-0.4293866,-35.433404200000005,70.67075340000001,171.87574160000003,38.54734754635426,0.9885347028995995,65.04033537786425,1.1186575227193352,-160.2206892,0.2995254000000045,275.2017884
599.573,-44.31149800000001,16.8917198,4.209796,-0.928833,0.2280078,-0.1959594,124.5220764,70.00897219999999,-102.5483414,-55.9242728,43.2453038,-1.6978896,-1.0014927999999998,-0.132426,-0.4535166,35.5496218,69.7954176,171.982373,47.60841769232971,0.9762778217281184,70.7146619737159,1.10733995701564,-88.9724546,-0.2135545999999948,274.5307144
619.559,-53.488889400000005,19.0845912,1.4827568,-0.9100642,0.2539096,-0.2195402,124.2538162,69.649402,-101.5780382,-59.832012000000006,47.465399000000005,-5.810027400000001,-0.9698448,-0.1294632,-0.4953686,106.6775484,68.8434156,172.333206,56.81092745453551,0.9699921816745948,76.59366932446896,1.0966994602475375,-17.576267800000004,-0.8059863999999977,273.9112442
639.545,-62.2023134,21.2578536,-1.1171316,-0.9070268,0.2721812,-0.1965702,123.95813739999998,69.431801,-100.5625444,-64.4665304,53.9848662,-11.651043,-0.9431458,-0.1330998,-0.5097952,178.0423006,67.76193980000001,173.0397702,65.74398919294882,0.967171166381484,84.88843339014966,1.0803382353507258,54.08416319999999,-1.6698611999999995,273.6023146
659.53,-70.4415254,23.046281800000003,-4.714786,-0.8944449999999999,0.2734765999999999,-0.211612,123.6977324,69.25011140000001,-99.3350664,-68.9071624,66.3864288,-14.711072600000003,-0.8908792,-0.1661978,-0.525698,177.50685140000002,66.43647899999999,173.9515836,74.26552910004516,0.9589582615091023,96.80790575092468,1.0476859476586866,53.809119,-2.8136324000000017,273.28665
679.516,-70.3506792,24.8153588,-7.383520199999999,-0.8685188,0.2668846,-0.2515638,123.6065796,69.0837966,-97.929915,-68.30053860000001,85.94339219999999,-7.111265600000001,-0.9157508,-0.1232148,-0.5332475999999999,176.75306099999997,64.7153928,174.6078978,74.9635675966523,0.9427813326222788,110.00818303347644,1.0668338284594463,53.146481400000006,-4.368403800000003,272.5378128
699.502,-70.9846314,27.1325492,-9.4152936,-0.851081,0.2923442,-0.2473136,123.6462388,68.9160064,-96.368941,-70.5731582,97.9984238,-6.723445600000001,-0.922817,-0.0245298,-0.5013616,175.9365388,62.7593916,175.2625976,76.57441396875647,0.9332566724002566,120.95233129767608,1.0505029179072278,52.2903,-6.156614800000004,271.6315386
719.488,-71.9563492,28.174358,-12.1566816,-0.8465534,0.3032017999999999,-0.2355249999999999,123.7587098,68.7797454,-94.7048342,-81.462706,107.8904236,-2.924110200000002,-0.9266432,0.0370864,-0.4633452,174.7705414,60.607962,175.7875092,78.2259263059779,0.9295461345193148,135.2222851230211,1.036692719919572,51.01183160000001,-8.1717834,270.49234340000004
739.473,-66.1228028,28.1131052,-13.9831694,-0.8349754,0.3033702,-0.2701018,124.0680024,68.6625228,-92.9589388,-87.27976980000001,104.2654748,5.043778599999998,-0.9535928,0.0751782,-0.4606298,173.2006438,58.522451,175.9941742,73.19904890490758,0.9285323791965684,136.06795050332846,1.0616830047689,49.1326414,-10.1400718,268.95311300000003
759.459,-62.6777038,29.2189524,-13.633973,-0.8480831999999999,0.3293114,-0.2590702,124.429863,68.5194458,-91.2231096,-86.8250822,86.998341,12.729785199999998,-1.0123604,0.1331588,-0.4539883999999999,171.36174,56.75895319999999,175.8774902,70.48494131911248,0.9459431699738836,123.56922621359728,1.1174570742718306,46.931877,-11.7604926,267.10059979999994
779.445,-66.9529464,30.9061834,-13.3617386,-0.880405,0.3670736,-0.2248116,124.7133422,68.34895939999998,-89.4717438,-85.136978,54.45371439999999,13.6701348,-1.003604,0.2132066,-0.4096042,169.4821686,55.6112574,175.6517454,74.9428132805971,0.9799980853739052,101.9822760109786,1.1047414375125069,44.7688264,-12.737701999999995,265.12348920000005
799.43,-71.0751098,31.621794,-13.3517532,-0.9171326,0.3821444,-0.2009762,124.8935332,68.1754028,-87.7356674,-80.2761482,24.1057186,27.682088,-1.0141414,0.2836147999999999,-0.357889,167.16561280000002,54.9914514,174.780618,78.92957875457213,1.0136853463479485,88.27028738533988,1.1122071166352063,42.2720796,-13.183951399999994,262.5162854
819.416,-77.35393819999999,31.4081018,-10.801798,-0.9457668,0.4142286,-0.1987506,124.8370314,67.9652312,-86.11480399999999,-71.7608528,-8.453632000000006,41.3893426,-1.0077371999999998,0.332377,-0.3140064,164.472583,54.9176812,173.24421360000002,84.1830116695844,1.051457071896214,83.27161322704674,1.106620419852173,39.63555159999999,-13.047549999999998,259.3590176
839.402,-87.610533,28.8763484,-6.574601000000001,-0.9695396,0.4376396000000001,-0.1860444,124.3193312,67.7158722,-84.76461939999999,-64.432174,-31.792450400000007,53.500486,-0.9820828,0.3966062,-0.2564918,161.411969,55.175348,171.08657820000002,92.48067023855025,1.0798833150982934,89.5799472596347,1.0897573800628837,37.09263779999999,-12.540524199999997,255.85119760000003
859.388,-92.0705794,22.258577,0.0562198000000002,-0.9883016,0.4569322,-0.1985914,123.2832,67.42648319999999,-83.8796692,-56.5426232,-44.6014344,66.07726840000001,-0.9646216,0.4442994,-0.217133,158.0295104,55.5183716,168.3543396,94.722959211495,1.1067816551214429,97.73720677449464,1.0839942470861732,34.74631039999999,-11.908111599999996,252.2340088
879.374,-92.9453872,11.3631448,9.2958052,-0.99955,0.48523,-0.2167262,121.5889632,67.08369300000001,-83.6918992,-50.2722108,-50.7136636,76.4045198,-0.9661254,0.4445158,-0.2082026,154.3819364,55.8016036,165.15736099999998,94.0977048382161,1.132041784196343,104.57925941754507,1.0836701101449462,32.79297319999999,-11.282089399999998,248.84926020000003
899.359,-98.0452896,-1.9868628,21.5571176,-1.0218838,0.5345816000000001,-0.2090441999999999,118.9965758,66.6412462,-84.36914379999999,-46.993695200000005,-54.97811200000001,80.2639116,-0.973184,0.4337201999999999,-0.2117115999999999,150.5934354,56.022869,161.718561,100.40685113952196,1.1720594973441578,108.0430270446347,1.08628822663168,31.5968596,-10.618377199999998,246.08770480000004
919.345,-103.7851242,-16.353615,35.2132936,-1.0531088,0.5652708000000001,-0.1884216,115.5072418,66.0586276,-85.9030046,-45.7598282,-57.587487800000005,81.5242906,-1.0017656,0.4400598,-0.2159408,146.72186879999998,56.161257,158.15615559999998,110.80960596869502,1.2099883971826506,109.8020518289249,1.1152656069403557,31.214627,-9.8973706,244.0591602
939.335,-105.1362244,-29.8654198,49.4764226,-1.089328,0.5839876,-0.1473572,111.327623,65.2925806,-88.1711,-53.3528138,-57.11583720000001,76.18706440000001,-1.0041506,0.4459524,-0.2413522,142.7921722,56.235491,154.7129732,119.97285265513683,1.244745416914479,109.14765403490873,1.124919043749798,31.4645492,-9.057089599999998,242.8840732
959.317,-106.702797,-42.2817824,63.1761556,-1.1199819999999998,0.6217332000000001,-0.0775557999999999,106.6416594,64.2909928,-90.9777406,-76.792833,-47.991964200000005,59.99668419999999,-0.9870194,0.4645934,-0.2791438,138.14626,56.2908674,151.63190319999998,131.01321554308774,1.2833264410974627,108.62766656305612,1.1260442195483975,31.5046006,-8.000125399999998,242.6096438
979.302,-111.0344864,-53.8433258,77.3852522,-1.1667776,0.6891934,-0.0027285999999999,101.5513672,62.9766976,-94.1582414,-92.3931908,-40.559488400000006,41.0460754,-0.9085352,0.4484646,-0.3199192,132.597789,56.3734396,149.1880372,145.65794918704003,1.355125439110077,108.93279630679378,1.0624994125272915,31.0464218,-6.603257999999999,243.3462786
999.288,-119.51837,-66.4241036,91.8786056,-1.2198468,0.7214966,0.040366,96.169095,61.300412,-97.521875,-100.563118,-32.57229060000001,25.219811,-0.8290620000000001,0.4183616,-0.367565,127.3622162,56.4828528,147.318091,164.73761098644349,1.4178197957560756,108.6735187784425,0.998736330281201,31.1931212,-4.8175592,244.839966
1019.274,-122.72013239999998,-81.503457,106.27815099999998,-1.2726324,0.7062729999999999,0.100963,90.7081314,59.21411500000001,-100.9683594,-101.4131052,-24.70377940000001,10.521167,-0.739009,0.3914647999999999,-0.4249098,122.5656372,56.6284744,145.9975404,181.6537634600593,1.4589750866371092,104.9075287002416,0.9380444178481528,31.857505799999995,-2.585640599999998,246.9658998
1039.259,-119.6652128,-98.4131418,121.3027588,-1.3125542,0.7406544,0.1505758,85.3789016,56.67544399999999,-104.4163344,-86.84229940000002,-19.246550000000006,3.2289006,-0.6772176,0.358545,-0.4665968,118.319873,56.742652,144.988144,196.7721243619308,1.5146090385715516,89.00809205384881,0.8971570478712185,32.9409714,0.0672080000000008,249.4044784
1059.245,-116.9090636,-115.3717286,135.69772959999997,-1.3265074,0.7777926,0.2086812,80.26736460000001,53.6699914,-107.766519,-55.87320400000001,-23.386614000000005,3.6352316,-0.6252636,0.3343434,-0.4846178,115.38361360000002,56.8583762,144.1523774,213.0545440270533,1.551815405936853,60.67918546253115,0.8588332147078152,35.116249,3.188384800000001,251.9188964
1079.231,-114.1095504,-131.70589,148.3983948,-1.3085884,0.7923275999999999,0.2855858,75.47272339999999,50.2237306,-110.9140624,-29.810700200000007,-22.226829,7.43939,-0.6149001999999999,0.3407902,-0.5019975999999999,114.079834,56.90635520000001,143.307953,228.8875587103828,1.5561959630772595,37.921686373124565,0.8638528849183984,38.6071106,6.682624600000001,254.2220154
1099.217,-106.0241776,-147.15272220000003,157.7572876,-1.2579319999999998,0.8134589999999999,0.376939,71.1454924,46.3814332,-113.8105744,-5.799546800000006,-16.19253820000001,8.0240346,-0.5985685999999999,0.3464509999999999,-0.5116042,113.4122392,56.8904434,142.6500428,240.3797239318155,1.5447302259702176,18.979414314089016,0.8602624726004267,42.2667468,10.509010200000002,256.4606172
1119.202,-100.7460068,-161.67292179999998,165.0907868,-1.1938224000000002,0.8868856,0.4536442,67.25485080000001,42.185241,-116.4283982,14.952905399999995,-6.935167400000006,4.4700354,-0.6130086,0.3659442,-0.4942757999999999,113.4611894,56.861,142.3522736,252.0770902238789,1.5548540286543815,17.07826522936756,0.8683336154112888,46.2063386,14.675759,258.7806718
1139.188,-97.5248888,-175.9853118,169.5833956,-1.123501,0.9070046,0.5189316,63.744752600000005,37.6605576,-118.7953402,30.9447102,5.126307599999994,-4.2381002,-0.6301426,0.3951902,-0.4764795999999999,114.2814242,56.8853874,142.592804,263.1358241821544,1.5343408509521994,31.651470933860903,0.8833390061165418,50.5366716,19.2248298,261.38814420000006
1159.174,-94.6780138,-190.6493622,174.0582642,-1.0281096,0.9194086,0.5440908,60.5774002,32.8230286,-120.9447558,44.1219808,17.470965399999994,-11.9118212,-0.643356,0.4286066,-0.474877,115.8136888,56.9370186,143.3674988,274.9679707542258,1.4826855101506726,48.92724502794261,0.9072589076049682,55.2362886,24.11399,264.3122546
1179.16,-88.3876848,-204.6248962,177.49852919999998,-0.8885896000000001,0.910144,0.5687946,57.78567439999999,27.7064614,-122.9154894,55.5404264,26.330970999999995,-17.5555296,-0.6370242000000002,0.4554378,-0.4718736,117.8922486,57.00512619999999,144.5209838,284.9376402606861,1.3933703294362632,63.92382668483744,0.9142691701197412,60.1065742,29.298664799999997,267.4364732
1199.146,-83.8531648,-216.335193,180.9224854,-0.7364884,0.9247242,0.6058308,55.317541000000006,22.3323006,-124.710956,64.67518679999999,24.5234594,-19.939049,-0.6663138,0.4806358,-0.4568571999999999,120.147496,57.121301200000005,145.6659544,294.2196708254504,1.3283677832696938,71.98503680337144,0.9400549736605408,64.829955,34.789000599999994,270.3769104
1219.131,-82.5815736,-226.5148408,181.660553,-0.5911276,0.885055,0.6023845999999999,53.086477,16.752661,-126.36763019999998,71.8268722,18.448910199999997,-22.1749686,-0.7260352000000001,0.484352,-0.4421928,122.44116040000002,57.3186996,146.6845428,301.8762095912286,1.2229560085399311,77.40278476911398,0.9783958523598104,69.3546834,40.5660386,273.052173
1239.117,-83.858487,-237.3159152,182.0511016,-0.4493112,0.8456170000000001,0.5955336,51.0255212,10.9752694,-127.9243624,74.2311958,12.918353799999997,-22.7955084,-0.796216,0.4827016,-0.4379748,124.6770872,57.563128600000006,147.5746948,310.6343397677023,1.127656389980299,78.71968939226312,1.0289716608019874,73.651566,46.5878592,275.49905720000004
1259.103,-78.12955939999999,-248.2579836,180.658786,-0.319311,0.7922330000000001,0.5744594000000001,49.2554224,5.0247628,-129.4365038,69.6739784,10.364703199999994,-20.3601424,-0.8291522,0.4459662,-0.3987054,126.7304794,57.775119,148.3507934,316.81832559397475,1.0293669138156525,73.324114294385,1.022421252858351,77.475057,52.7503562,277.7872972
1279.089,-69.88729099999999,-258.9786714,178.83341059999998,-0.2254074,0.7315645999999999,0.5465312,47.820321,-1.0838194,-130.9537676,67.748397,9.383602999999994,-22.084973,-0.8964547999999999,0.409262,-0.3321986,128.7595444,58.0030426,149.14073779999998,322.3904068520899,0.9405804657345164,71.87241010110866,1.0399435094893374,80.9392234,59.086862,280.0945054
1299.074,-62.01436700000001,-268.514212,176.787906,-0.1214075999999999,0.6468304,0.4806864,46.7164994,-7.3180472,-132.515503,65.5370642,17.173354399999994,-25.0152998,-0.9588536,0.3864492,-0.2627894,130.9960236,58.1640756,150.2283508,327.4135419744524,0.8149777830388262,72.22046877019562,1.0666777766345186,84.2795242,65.4821228,282.7438538
1319.06,-54.744100200000005,-274.6480652,175.39557499999998,-0.0067715999999999,0.5903479999999999,0.460653,45.9294474,-13.6295948,-134.1117554,64.7791418,29.863642199999997,-22.8583288,-0.9741634,0.3601248,-0.2532326,133.46471259999998,58.105523000000005,151.61015,330.4422550982118,0.7488376339898789,74.9044560311537,1.0690233632514117,87.5352652,71.73511779999998,285.7219054
1339.046,-53.5791512,-275.558441,172.17768259999997,0.092066,0.5323552,0.4421783999999999,45.342757600000006,-19.9149688,-135.73793640000002,63.8395728,41.38463959999999,-21.101136200000003,-0.9154434,0.318859,-0.2147926,136.12015379999997,57.8253656,153.2398986,329.3149468748257,0.6981403474585894,78.95212092806207,0.9928965411860996,90.7773962,77.7403344,288.977835
1359.032,-59.0136558,-272.88781720000003,165.4978212,0.157131,0.4513446,0.4081208,44.8562684,-26.0725182,-137.43796379999998,70.34503779999999,47.32442999999999,-25.5548604,-0.9079306,0.3269266,-0.1812879999999999,139.09342339999998,57.471769,155.10082699999998,324.5610900416264,0.6284621599609638,88.54985549379408,0.9818779532853968,94.237155,83.54428720000001,292.5387908
1379.017,-61.656224,-266.414694,155.9194032,0.2051358,0.389204,0.338337,44.5412896,-32.0130694,-139.24138480000002,69.6475038,51.7639458,-31.516601400000003,-0.9215906,0.3662721999999999,-0.1874615999999999,142.2540588,57.0731956,157.2089418,314.7842744345657,0.5550066446689085,92.32322044947756,1.009270236346916,97.7127692,89.086265,296.4503266
1399.003,-58.308929,-255.3255034,143.3167878,0.2271671999999999,0.3311126,0.261564,44.505825,-37.628859,-141.1637238,61.68066119999999,55.80187159999999,-33.98121139999999,-0.898771,0.37627,-0.2718528,145.31623840000003,56.5736854,159.404941,298.5477274287993,0.4792245994631327,89.85029531583943,1.0115692602134765,100.8104134,94.2025444,300.5686648
1418.991,-51.2272186,-240.160394,128.3584198,0.2517164,0.2622955999999999,0.1964956,44.8448554,-42.8293442,-143.23564760000002,55.11698399999999,52.11303339999999,-37.8412686,-0.8499587999999999,0.3610796,-0.3070768,148.2096498,56.111844600000005,161.5668124,277.0868576913753,0.4132440545581751,84.76798797106792,0.9731929923359702,103.36479439999998,98.9411888,304.80246
1438.975,-38.14572,-220.767581,111.85859680000002,0.2788473999999999,0.207599,0.1214318,45.6817862,-47.5185012,-145.466455,49.03722439999999,45.6692698,-40.382142,-0.8763348000000001,0.3579128,-0.3669904,150.88798839999998,55.73563299999999,163.62524739999998,250.41119474371533,0.3682375582949137,78.23713295762639,1.015256720138823,105.2062022,103.2541342,309.09170240000003
1458.961,-19.6911838,-196.4817474,95.4957314,0.3145798,0.1745522,0.0659814,47.0694908,-51.6185064,-147.7991882,40.87018099999999,35.9584032,-42.2242624,-0.9338894,0.3789906,-0.4228755999999999,153.28047800000002,55.5015258,165.54402480000002,219.34505806245951,0.3657628551928695,68.89315489140111,1.0929808138279828,106.2109872,107.1200322,313.343213
1478.946,-4.511160200000001,-168.2267914,79.0469934,0.3697301999999999,0.1542842,0.0053086,48.8615738,-55.0623464,-150.1479584,35.23735159999999,34.40261019999999,-36.4870488,-0.9017856,0.3403577999999999,-0.4953066,155.3498322,55.1974274,167.2143646,185.9274887601853,0.4006647181817236,61.29041741160479,1.0836924510172432,106.4882584,110.2597738,317.36232299999995
1498.932,7.773416399999999,-137.0706924,62.5957848,0.4264522,0.1567994,-0.0329546,50.8533242,-57.8110136,-152.3635192,34.42531019999999,26.5902882,-31.3575584,-0.8625518,0.2845796,-0.5071184,157.165979,54.9600922,168.5902922,150.88748454484593,0.4555584884362929,53.62314684662485,1.040264499076057,106.3126548,112.7711058,320.9538114
1518.918,17.6904986,-102.1126892,46.3422616,0.4785902,0.1751672,-0.0752351999999999,52.760469,-59.8287642,-154.19876100000002,33.5759738,17.554908999999995,-29.5016658,-0.893573,0.2902833999999999,-0.5177444,158.7963194,54.854416,169.76612540000002,113.52339074646792,0.515162559597376,48.01946617353693,1.0727517990550843,106.0358504,114.6831802,323.96488639999995
1538.903,26.2527524,-63.6487568,30.911996800000004,0.5295398,0.1979806,-0.1048994,54.2959236,-61.109487,-155.3790772,29.858468999999992,2.703581399999996,-26.449287200000004,-0.9440094,0.3026555999999999,-0.5133484,160.1265104,54.990674,170.6671478,75.47133758536721,0.5749892189256769,39.98002397195968,1.1163694456954114,105.83058680000002,116.100161,326.046225
1558.889,33.4891036,-22.7638568,15.8575214,0.53878,0.2224602,-0.115752,55.227014800000006,-61.6487044,-155.6870058,30.5565754,-5.767758800000005,-20.437823400000003,-0.9031559999999998,0.2591503999999999,-0.5220746,161.2325712,55.2413988,171.28078620000002,43.48763296954546,0.594281881339184,37.21123442027219,1.0749007294263595,106.0055564,116.8901032,326.96779200000003
1578.875,37.9280352,18.2993696,1.2764535999999993,0.5606182,0.2675698,-0.1135485999999999,55.409133,-61.46426220000001,-155.0290864,33.57265439999999,-20.175675000000005,-17.3808836,-0.8453460000000002,0.2197114,-0.5170236,162.1830778,55.742497400000005,171.63095420000002,42.1311300071906,0.6314900225698264,42.85179225988352,1.0149858924945312,106.7739448,117.2067596,326.66004060000006
1598.861,40.5610524,57.652956800000005,-13.7136052,0.5638650000000001,0.2629312,-0.0838645999999999,54.8681342,-60.57256600000001,-153.4720246,35.706172599999995,-31.984362800000007,-15.0104756,-0.8446658000000001,0.2310983999999999,-0.5097648,162.9870054,56.4558412,171.759882,71.8131280975817,0.6277816700825216,50.23190821779728,1.0132753502830514,108.11887120000002,117.0284072,325.23190660000006
1618.847,44.6669724,90.4206738,-29.7457448,0.5305316,0.2591308,0.0024913999999999,53.9087104,-59.0267346,-151.3184632,32.13160679999999,-44.2565824,-9.4134726,-0.8738974,0.2170271999999999,-0.4813932,163.4687712,57.3715806,171.5843966,105.14678315352826,0.5904394610636724,55.4950331801752,1.021046954979466,109.5600608,116.3983152,322.90285980000004
1638.832,47.5332244,116.298523,-47.5322998,0.4920438,0.3092396,0.0530534,52.8188414,-56.8719572,-148.9131928,32.18816679999999,-52.31874980000001,-4.2667574,-0.864202,0.197507,-0.4616696,163.71616820000003,58.41034079999999,171.135486,134.32823008630524,0.5835673864929053,61.57544056919185,0.9994963388713136,110.8973268,115.282298,320.0486788
1658.818,49.8096182,135.3541108,-65.7354928,0.4867294,0.3396924,0.0714488,51.8448652,-54.17821640000001,-146.5407684,35.09362719999999,-54.73971920000001,1.0628448,-0.8050764000000001,0.1759358,-0.4915602,163.82502140000005,59.456459800000005,170.45904860000002,158.502013833728,0.5978305499583975,65.03175506793828,0.9595482508882188,111.9801562,113.63467620000002,316.999817
1678.804,60.2148016,150.1174102,-83.879445,0.4530494,0.3287614,0.1117864,51.291615,-50.999279,-144.35230719999998,31.63270719999999,-54.2540016,2.7939342,-0.801852,0.131749,-0.4958979999999999,163.80588079999998,60.4834488,169.7167084,182.19994640611296,0.5708187244609974,62.86438516940783,0.9519659948280716,112.5142658,111.4827278,314.0690156
1698.79,71.404061,160.6991302,-101.789493,0.4018988,0.3813846,0.234783,51.2499372,-47.397316,-142.42911999999998,28.6274212,-50.905079,3.254181799999999,-0.8199944,0.125543,-0.5056438,163.7363252,61.4433556,168.9869048,203.18427906588963,0.6017473852436752,58.493127901881785,0.971507855531184,112.486388,108.8406716,311.4160248
1718.775,68.5541762,168.9246582,-120.1906496,0.3882136,0.462354,0.2534458,51.4262472,-43.4058198,-140.77147219999998,25.279886999999995,-44.09923540000001,7.278904199999999,-0.842231,0.1328774,-0.5045341999999999,163.48790599999998,62.248124,168.13844,218.35981194743107,0.6547639224015019,51.34975847995938,0.9907392289403908,112.0616588,105.6539438,308.9099122
1738.761,65.090192,177.0457856,-135.9463792,0.3932152,0.4486998,0.2387896,51.7389312,-39.07164759999999,-139.2934144,19.198370399999995,-38.4820028,9.006758199999998,-0.8817658000000002,0.1356339999999999,-0.4848974,163.078479,62.93055360000001,167.2514374,232.51529263880303,0.64262755706493,43.93817996672224,1.0153979498366148,111.3395478,102.0022012,306.5448518
1758.747,66.3542858,186.9932098,-146.9271852,0.3878856,0.4382048,0.2490428,52.2010506,-34.450592,-137.8559846,9.734054599999991,-40.76377240000001,6.759339999999999,-0.9812416,0.125847,-0.4050014,162.4961486,63.6674212,166.38786320000003,246.89461214479755,0.6360039321122473,42.45145034589965,1.0689708503890647,110.295098,98.1180132,304.2438478
1778.733,66.556033,193.1782226,-152.9244874,0.3107419999999999,0.5106075999999999,0.4346704,52.7836472,-29.672713800000004,-136.42926640000002,10.088348399999994,-46.835635200000006,6.238846799999999,-1.0460564,0.148772,-0.3622626,161.83785400000002,64.522175,165.43344740000003,255.21251940715013,0.7390663491040029,48.31433231890029,1.1169607384880276,109.0542068,94.1948888,301.8627138
1798.718,49.861639,194.0616578,-159.6448608,0.2567064,0.5952172,0.4713473999999999,53.1792092,-24.7891386,-135.0997834,13.405266199999994,-56.2963774,5.244648799999999,-1.0490532,0.120516,-0.3121299999999999,161.1326508,65.5665352,164.3555146,256.1885861073869,0.8014674431713118,58.107569311505664,1.1011184584713123,107.9534416,90.3556738,299.455298
1818.704,43.2465824,194.0595428,-160.4704132,0.2276466,0.5757824,0.4111256,53.5403932,-19.8985322,-133.79508679999998,17.04183039999999,-62.67619940000001,2.618671799999999,-0.9565984,0.1261785999999999,-0.3071672,160.44322219999998,66.7386886,163.22543639999998,255.49975842181092,0.7432177376897567,65.00451827840155,1.01259726779029,106.902829,86.6372208,297.0205232
1838.69,50.7887214,193.8023346,-155.77785339999997,0.1750847999999999,0.6106936000000001,0.4319476,54.1379326,-15.093769,-132.43258980000002,17.738169999999993,-59.121270800000005,4.409118999999999,-0.8643822,0.1211546,-0.351948,159.63797319999998,67.82323899999999,161.96833199999998,253.7825422044808,0.768231794068535,61.882207994802464,0.9411176438054916,105.5000406,82.917008,294.4009218
1858.676,56.711393,188.5406526,-149.1615082,0.0355654,0.7919766000000001,0.6516490000000001,54.9750846,-10.47719,-131.0524568,13.524430599999992,-52.00835340000001,7.374266999999999,-0.8311282,0.0992694,-0.4159308,158.6572146,68.7464368,160.6210664,247.00792559619012,1.026225244196283,54.24167088337894,0.9346801212180774,103.68213,79.22362679999999,291.6735232
1878.661,36.4779284,179.5574984,-148.984085,-0.0496492,0.8755880000000001,0.6295888,55.5320358,-5.9816486,-129.7864214,5.2270785999999925,-43.935281200000006,8.7387666,-0.8485084,0.0876729999999999,-0.442723,157.51741959999998,69.5015912,159.28864140000002,236.1520528712566,1.0795839225785462,45.099859495379,0.9610706085031214,101.9853838,75.4832398,289.0750628
1898.647,30.372963,170.4625032,-141.6917266,-0.082783,0.8470929999999999,0.538784,56.052159800000005,-1.7120766000000005,-128.56102460000002,0.4813951999999929,-33.942391400000005,10.2557558,-0.9030653999999998,0.084313,-0.4684899999999999,156.35546879999998,70.050804,158.03572400000002,223.73316085350092,1.0073270444071278,35.46122110585888,1.020842141932904,100.303309,71.76288059999999,286.5967486
1918.633,40.365168800000006,163.3794772,-133.3140272,-0.158219,0.9390368,0.5975426,56.8524138,2.3272509999999995,-127.3133912,0.8911017999999927,-23.322607000000005,7.622291199999999,-0.9495862,0.0510631999999999,-0.485743,155.5286224,70.4087248,157.13033460000003,214.6970662833569,1.1242244093284934,24.55274695084055,1.0678331628459945,98.6762086,68.0814738,284.44372580000004
1938.626,41.2462158,152.9364992,-126.8119612,-0.3024588,1.0838852,0.7780150000000001,57.7569496,6.124601,-126.105539,6.126720799999992,-12.692428600000005,0.4140199999999993,-0.9567986,0.0207342,-0.4852284,155.3904052,70.624858,156.8465822,202.9090845890397,1.3680627882891487,14.099853335678729,1.073005157572954,97.6334556,64.500257,282.9521212
1958.604,21.2428364,140.7849794,-125.84784220000002,-0.3428342,1.0564382,0.6266426,58.3306932,9.7622952,-125.039769,13.034113999999994,1.5634673999999946,-6.0842622,-0.9342376,0.0136624,-0.4954784,156.0298614,70.6281464,157.2424836,190.0245981692152,1.2752560163526538,14.46896003844808,1.0575847007658914,97.6991682,60.86585120000001,282.2822526
1978.59,23.9083676,132.31073020000002,-115.8736312,-0.334205,0.9926628,0.5105078000000001,59.034261400000005,13.135252400000002,-123.965036,17.674250199999992,13.665167199999996,-9.3254034,-0.947962,0.0510436,-0.4912344,157.1823546,70.4240724,158.0846894,177.49489506694985,1.1651998242317412,24.20906985633457,1.0689006681110833,98.14809320000002,57.28882,282.0497254
1998.576,33.143051,128.8916232,-109.00448000000002,-0.3716354,1.0346556000000002,0.5140070000000001,60.00389259999999,16.3314132,-122.8109086,17.16137819999999,23.618777399999992,-11.891172200000002,-0.9387316,0.0562634,-0.5052014,158.6435668,70.0451462,159.2675752,172.02758215120556,1.2136013666742145,31.52395159056425,1.0675256631950727,98.6396742,53.713733000000005,282.0784838
2018.562,33.2559866,124.3450914,-104.574086,-0.4456075999999999,1.0466958,0.6076818,61.0526872,19.381433,-121.6128206,16.93690459999999,30.90142179999999,-14.0490226,-0.9349756,0.0203124,-0.5124682,160.3169554,69.5481842,160.6850038,165.8414962026969,1.2897346242412195,37.93588858464141,1.0664031236827656,99.2642682,50.1667512,282.2978244
2038.547,19.8646604,119.32464,-102.847792,-0.4885043999999999,0.996424,0.4873806,61.90218660000001,22.3431908,-120.4106004,21.046171799999996,34.32403179999999,-15.287145600000002,-0.9405582,0.0038292,-0.5030742,162.1629424,68.9768218,162.20011,158.77859667855802,1.2120384423984745,43.0671258274583,1.0666527274917177,100.2607558,46.633631,282.6107104
2058.533,17.1199074,115.0243714,-96.8891922,-0.4812328,0.9113254,0.4321566,62.7655554,25.1468618,-119.161078,25.14405319999999,33.331224,-18.0057334,-0.9374968,-0.0060645999999999,-0.4872925999999999,164.0981566,68.4170668,163.7307344,151.3645031390063,1.1175232970298918,45.46867427069412,1.056594107213437,101.3326012,43.270205,282.8918124
2078.519,20.3064884,114.350528,-93.2882552,-0.5121515999999999,0.9248908,0.3653586,63.782955,27.8560728,-117.81317,25.710955999999992,35.681670999999994,-22.3286542,-0.883318,-0.0055452,-0.485834,166.16210940000002,67.811122,165.39552020000002,148.96675898762936,1.1185746107887304,49.32345995740114,1.0081250487529014,102.3791544,39.9550492,283.2086902
2098.505,24.9978406,113.0049972,-90.1323806,-0.5622718,0.8814968000000001,0.4024578,64.99880040000001,30.471639,-116.3676942,18.62361439999999,45.573286,-26.7236256,-0.8408974,0.0136451999999999,-0.497777,168.23757940000002,67.0132918,167.238318,146.6931063801509,1.1203385498438942,56.01710074045833,0.97728019039516,103.238779,36.5416528,283.6060122
2118.49,26.4612942,108.7790634,-89.3803238,-0.6446364000000001,0.8436822000000002,0.4163565999999999,66.3149052,33.012474600000004,-114.8959458,2.698733399999992,61.04138559999999,-28.4212974,-0.8443834000000001,0.0519848,-0.4996405999999999,170.0379366,65.8939628,169.1445252,143.25476259975798,1.140486107396912,67.38771448737083,0.9825102924626083,103.7230314,32.8814882,284.040471
2138.476,24.6456884,103.25287939999998,-86.0932542,-0.6829594,0.8344152000000001,0.3491162,67.651164,35.4146268,-113.4082842,-18.61920340000001,79.38688579999999,-24.7939128,-0.8581742,0.0672051999999999,-0.5024784,171.24583760000002,64.3928086,170.8837494,136.67704810920762,1.1333862488762778,85.22728720431512,0.9967266620890805,103.5946736,28.9781818,284.2920336
2158.462,30.2290668,98.19095,-81.0750794,-0.7306824,0.8402284000000002,0.2917485999999999,69.1534544,37.6576462,-111.8908312,-37.844251400000005,96.2460884,-21.7356586,-0.894013,0.0980534,-0.5018622,171.92109399999998,62.54298180000001,172.479712,130.8756189716697,1.1510854787713554,105.67845452646802,1.0299220267619291,102.7676396,24.8853356,284.3705432
2178.448,35.0591976,90.8669662,-76.4657122,-0.793901,0.831869,0.319291,70.7990188,39.72901,-110.3841692,-53.037247600000015,109.539235,-17.4551974,-0.9284358,0.0921648,-0.501869,172.0746584,60.428716400000006,173.8577974,123.82632202000114,1.1934117368465085,122.94908520864196,1.0594148754107997,101.2756396,20.699706400000004,284.2419666
2198.433,35.1955906,83.3620056,-73.7189578,-0.8318548,0.8214980000000001,0.2861884,72.46929320000001,41.658892,-108.9134904,-60.75771960000001,106.4706314,-12.136805,-0.9698192,0.0889341999999999,-0.4624734,171.7834596,58.3646036,174.926703,116.71520172820428,1.203638306378457,123.18602955414596,1.0781188331189842,99.3141664,16.7057116,283.84019340000003
2218.419,31.4811574,80.467308,-69.3602466,-0.7949733999999999,0.7946074000000001,0.195631,74.1732804,43.4483076,-107.34749159999998,-60.472737200000005,88.88823699999999,-3.8914932000000007,-0.9882766,0.1146526,-0.4463544,171.1293976,56.6303666,175.5728028,110.80114952663284,1.1409010101684194,107.5788749743837,1.0904439954411598,96.9561172,13.182059,282.92029440000005
2238.405,34.14996240000001,83.0916564,-66.7261646,-0.7537780000000001,0.7587648,0.2528394,76.1219726,45.1520514,-105.55624400000002,-58.23200840000002,61.1985474,1.8706482,-1.0027194,0.165019,-0.4205225999999999,170.222635,55.4204446,175.86476739999998,111.90542586239224,1.0990145846145083,84.49691314394795,1.0997803065194975,94.1006624,10.2683932,281.4210114
2258.39,27.976253199999995,87.8002166,-66.93934199999998,-0.7653112,0.7640268000000001,0.2731594,78.1861878,46.8309684,-103.488591,-61.251568600000006,30.93597219999999,10.985315,-0.9914126,0.2362406,-0.3775376,168.82415780000002,54.764113,175.6443022,113.89655080602918,1.1153717953095463,69.49436076092005,1.0868501294754858,90.63797,7.9331446,279.1328932
2278.376,19.4078814,90.3273834,-66.6623148,-0.7618896,0.712698,0.2462605999999999,80.26711420000001,48.4718338,-101.2133316,-66.07916320000001,1.501109599999993,23.2163544,-0.9960948,0.2864192,-0.3528446,166.83685,54.6130684,174.82732219999997,113.9278994224916,1.071941455912831,70.055037298326,1.094869910292926,86.5697358,6.1412346,276.04065380000003
2298.362,16.0345782,90.11585540000002,-64.23242280000001,-0.8097000000000001,0.710199,0.2084833999999999,82.4252808,50.0197968,-98.7916458,-66.5784864,-19.505363800000005,36.5908986,-0.9797436000000002,0.3142036,-0.3422055999999999,164.3410248,54.782716400000005,173.40321339999997,111.82029883381456,1.0970241736974442,78.43499173609199,1.084309041124937,81.91574399999999,4.762919600000001,272.1948592
2318.348,11.9513994,85.0897354,-60.43550200000001,-0.8773858000000001,0.7289432,0.1478626,84.5232178,51.4299386,-96.3778854,-62.8665816,-32.85985000000001,44.9023884,-0.9600594,0.319843,-0.3169483999999999,161.5661286,55.123932,171.5525146,105.05022094242514,1.1502292725133716,83.95356638116343,1.0604102434623688,77.04291079999999,3.693993400000001,267.9304
2338.333,8.144595399999998,74.6044976,-54.2918824,-0.9319646,0.708314,0.0646264,86.4361588,52.6535538,-94.1439316,-56.421995800000005,-42.83907980000001,52.1897056,-0.963854,0.3273278,-0.332728,158.56257019999998,55.551551,169.279248,92.62706942850744,1.172366542437185,87.99087304249605,1.0709182713694074,72.1264114,2.897997200000002,263.4231796
2358.319,8.745638999999999,62.2499802,-46.70427840000001,-0.9763002,0.7094118,0.0844354,88.1519012,53.6685172,-92.1985138,-49.83906980000001,-44.65325180000001,57.4168578,-0.9486788,0.3116553999999999,-0.3423678,155.473883,55.9249816,166.7566528,78.31242466737586,1.2097754003419148,88.17335955076737,1.0556212693932612,67.3219818,2.256464400000003,258.95516660000004
2378.305,2.4919658,49.7751068,-40.0690614,-1.0203792,0.7397549999999999,0.134203,89.4820556,54.5013846,-90.5932052,-45.49667480000001,-45.0367414,57.92351140000001,-0.9435912,0.3227674,-0.3455592,152.396518,56.245932,164.1606658,63.94764133239588,1.2674468892330912,86.33301029556054,1.0554403384013895,62.914462400000005,1.744547400000002,254.753871
2398.291,-10.9215238,35.755825,-31.753250599999998,-1.0281284000000002,0.7335342,0.135039,90.210005,55.1417326,-89.4124954,-43.34690680000001,-43.84614320000001,54.8805222,-0.9215656,0.3365808,-0.3386234,149.4091614,56.5120102,161.6348418,49.05127549015409,1.2701794995106797,82.54277872465578,1.0378996083723897,59.19915640000001,1.3702776000000016,251.0473372
2418.276,-21.5871128,20.6424168,-21.15667,-1.0186584,0.7289860000000001,0.0986276,90.3333692,55.5554938,-88.7215424,-45.68280000000001,-42.4168622,50.8202858,-0.89483,0.3387432,-0.351931,146.4492616,56.7342042,159.2075378,36.60215151973646,1.2565082282135362,80.42891186338076,1.0194719776468797,56.11589240000001,1.1787104000000015,247.9290802
2438.262,-28.591859,4.846648,-10.7700058,-1.0084584,0.7384108,0.0854774,89.88313579999999,55.746846600000005,-88.56478260000002,-50.67628100000001,-38.811637600000005,45.0452744,-0.8683143999999998,0.3507104,-0.3558488,143.54631360000002,56.884434,156.9733888,30.93505168645785,1.2528149264747608,78.12493465569102,1.0017964116410878,53.66317780000001,1.137587400000001,245.5381714
2458.248,-30.8065398,-11.4371386,-0.5166925999999996,-1.007922,0.7449172000000001,0.0950558,88.9263884,55.719979,-88.97037660000001,-54.47418520000001,-37.00785800000001,41.489956,-0.8617956,0.3528052,-0.3807902,140.7143464,56.983356,154.9061952,32.865148790892285,1.2569184532233904,77.83594835186375,1.0060637861201644,51.787958,1.2633769999999998,243.8765718
2478.234,-31.6876068,-29.6105624,10.4882378,-1.0167284,0.7646864,0.1290938,87.45379779999999,55.4508338,-89.9850448,-56.853093000000015,-36.40268520000001,37.6616342,-0.8329044,0.3415126,-0.4087353999999999,137.9834106,57.057509200000005,153.0019106,44.61942360121933,1.278728719826829,77.30348222461625,0.988648179440634,50.5296128,1.6066754000000003,242.9869554
2498.22,-33.8085708,-47.8828426,22.7580442,-1.0186904,0.7993376,0.1617712,85.4874634,54.8926872,-91.562294,-62.334500200000015,-34.81445320000001,30.549959,-0.8151844,0.339989,-0.4507633999999999,135.3453248,57.1559352,151.3343874,62.878570680352944,1.3049293662782515,77.6591016024553,0.9916177534231222,49.8578614,2.2632479999999986,242.8966814
2518.205,-34.751348,-66.4670998,35.8295988,-1.0383476,0.8180574,0.216178,83.0963182,54.0020676,-93.652153,-67.8074356,-30.69364460000001,22.319576,-0.8150920000000001,0.3424787999999999,-0.4753382,132.8764344,57.2697314,149.9895906,83.12214923718723,1.3394463691408178,77.7052869134336,1.0037993331800337,49.7801162,3.2676638,243.6417436
2538.191,-35.92727119999999,-84.2529664,49.82500180000001,-1.0492317999999998,0.8362320000000001,0.271943,80.38378,52.730454400000006,-96.13837279999998,-68.7935982,-23.125791400000004,16.1995922,-0.795561,0.3140884,-0.4998702,130.6845856,57.3399592,148.9958436,104.2682212730604,1.3689866044648646,74.36254546897692,0.9906760543101868,50.3008056,4.609504799999999,245.1342164
2558.177,-37.4051604,-103.9088,65.3953882,-1.0796958,0.8636797999999999,0.348141,77.4090088,51.011934800000006,-98.9626312,-63.68697580000001,-15.616585400000009,9.2525732,-0.7582362,0.2956654,-0.5147573999999999,128.9025026,57.4029398,148.3746034,128.34617851661352,1.4257938046389036,66.22324921752661,0.9629721411351212,51.4934938,6.391004999999998,247.3372346
2578.163,-41.5487594,-122.5982104,80.101436,-1.0916723999999998,0.8853782000000001,0.3626440000000001,74.2502182,48.8309434,-101.9895036,-55.05277060000001,-9.176967800000009,4.0462416,-0.7352010000000001,0.2877869999999999,-0.5048826,127.53432639999998,57.4564248,148.0479524,152.22634676764682,1.4516038911125169,55.95888097365808,0.9371490316661272,53.284108200000006,8.6254814,250.037456
2598.148,-43.5280296,-138.5941714,92.399382,-1.076467,0.900447,0.3936772,71.0779448,46.2227402,-105.07616579999998,-42.29444440000001,-3.875347200000005,1.4556308,-0.7304946000000001,0.287743,-0.4978178,126.5928316,57.4799858,147.926819,172.16468714836088,1.4575897021102475,42.49655520217078,0.9296456081082728,55.5148868,11.2572456,253.0029848
2618.134,-45.85928800000001,-151.8596072,102.2458998,-1.0409718,0.9279618,0.470241,68.0050696,43.2360092,-108.0879134,-26.538901200000005,3.848604199999994,1.3777354000000002,-0.7096664,0.2856564,-0.5075782,126.13350540000002,57.4136398,148.0120576,188.7290084240281,1.4716867835023455,26.851874907053187,0.9180749464314774,58.1284358,14.1776306,256.099971
2638.12,-50.2634864,-164.9701358,109.6987454,-1.014752,0.9353134,0.5535054,65.02199320000001,39.912442600000006,-111.0001236,-12.60710520000001,10.592599999999994,-1.4220732000000005,-0.6844644000000001,0.3032885999999999,-0.4981052,126.1730288,57.31118300000001,148.358896,204.39026031904612,1.486909884812365,16.527690960022984,0.8992131449352596,61.1510356,17.3987404,259.35901959999995
2658.105,-56.2509284,-176.6036014,115.9921262,-0.95065,0.9388946,0.5892256,62.1707298,36.27798779999999,-113.7306976,-2.743195400000009,12.345754399999992,-6.2389196,-0.7011416,0.3327136,-0.4802328,126.5609254,57.256617600000006,148.87922679999997,218.6485131751614,1.4602894576434222,14.10201724871178,0.9126452898423132,64.3901956,20.978629800000004,262.6099244
2678.091,-59.99523899999999,-186.01124,121.0886518,-0.8553134,0.9405998,0.5823986000000001,59.5223572,32.3672674,-116.244789,6.401063399999991,14.882480399999997,-13.5334868,-0.712586,0.3493232,-0.4718842,127.35556040000002,57.27397,149.65792859999996,229.91753239748024,1.3983837546473286,21.109644726356187,0.9232985452516862,67.8332032,24.906702600000003,265.9027176
2698.077,-60.4787114,-195.0612644,126.85117320000002,-0.7538982000000001,0.9165566,0.5982012,57.1171616,28.1845104,-118.5557114,16.25449639999999,15.986993999999992,-20.5218908,-0.7306342,0.3564813999999999,-0.4536286,128.5284456,57.3821106,150.6476228,240.41171257687844,1.3290158662138838,30.674755620555043,0.9309587689546516,71.411284,29.1976002,269.2033342
2718.063,-59.4810324,-203.3769168,132.295558,-0.630364,0.887124,0.6072637999999999,54.9696914,23.7470266,-120.6745728,27.04475159999999,12.486703599999997,-26.6208314,-0.751038,0.353305,-0.4284592,129.98622759999998,57.622174,151.7105928,249.80447988171736,1.2462411831834317,39.950031543506704,0.9340555585904085,75.01653619999999,33.8751474,272.3851656
2738.049,-57.49840459999999,-210.1133882,136.9897674,-0.531496,0.8925608,0.6500308,53.0840224,19.0945474,-122.6115722,36.74594279999999,6.669450999999993,-31.1851638,-0.76982,0.3428913999999999,-0.4038076,131.62224439999997,57.995681000000005,152.7478578,257.3322731503674,1.2254357676603371,48.65449958775757,0.934482703109972,78.53822199999999,38.9011336,275.35943000000003
2758.034,-63.54167700000001,-215.0110596,137.5044188,-0.442955,0.8898923999999999,0.6007304,51.2800398,14.3067834,-124.40722660000002,44.5530322,1.5302101999999942,-33.8159816,-0.8075896,0.3358685999999999,-0.3792992,133.35553299999998,58.4766022,153.71846939999998,263.0109610944245,1.1614622805269743,55.953863432670666,0.9533501778542656,82.0754932,44.1698188,278.12569599999995
2778.02,-66.0702164,-219.7899994,136.68389580000002,-0.3463332,0.8103832000000001,0.557411,49.5940702,9.4149388,-126.1010972,51.07721559999999,-0.774321400000006,-33.1635696,-0.8416632,0.3317435999999999,-0.3755498,135.16034559999997,58.97124620000001,154.620807,267.124324430517,1.0427725730884372,60.90405467367033,0.9795347929784016,85.5662754,49.5563074,280.72190420000004
2798.006,-61.320509400000006,-223.9241302,137.3024292,-0.2699067999999999,0.7791341999999999,0.5550394000000001,48.159651,4.424520599999999,-127.689508,54.25062959999999,-0.8278712000000059,-28.574013,-0.8630082,0.3332052,-0.3698994,136.9242554,59.39156799999999,155.4044588,269.72982412614857,0.9939660546760336,61.32120678561662,0.9963104057946198,88.76460440000001,54.9670474,283.0939668
2817.992,-60.5175278,-227.479541,136.1255218,-0.2049604,0.748745,0.5731824000000001,46.883229,-0.6231135999999999,-129.2166824,52.913862,2.3690193999999942,-21.6151428,-0.8831194,0.3416336,-0.3535224,138.5454192,59.6648766,156.0617006,271.9181318520645,0.9649693799613126,57.207547080232445,1.0107380860574515,91.6621902,60.28799019999999,285.278383
2837.977,-62.8079636,-228.3234222,134.89648119999998,-0.1244378,0.682984,0.4705266,45.694616,-5.7054138,-130.66213220000003,52.98508539999999,9.471981599999994,-17.283477400000002,-0.8904396,0.344092,-0.3380637999999999,140.20380540000002,59.7650392,156.7666902,272.5316239573682,0.8386579705889643,56.5319051625924,1.0127038651958429,94.5091894,65.47045299999999,287.4288224
2857.963,-57.244867,-227.3018952,133.66913900000003,-0.0177536,0.5822938,0.4392362,44.7348542,-10.7822562,-132.025894,53.9914604,18.4636234,-12.0655006,-0.8755566,0.35695,-0.3216958,141.934378,59.639438600000005,157.53435380000002,269.8343289508598,0.7295955723699534,58.32288993105876,0.9987496433246924,97.1995238,70.4216948,289.5602478
2877.949,-50.8321,-223.4817872,132.853134,0.0635216,0.5470084,0.4428423999999999,44.0044718,-15.817663,-133.29476,51.103685,25.2629086,-7.420260400000001,-0.8820912,0.3605223999999999,-0.3179188,143.5869934,59.3396576,158.2875214,264.9112432761925,0.7066559096016108,57.48792426166548,1.0045564441148342,99.5825216,75.1573206,291.5822814
2897.935,-50.060687,-218.455777,128.11391580000003,0.1303458,0.4811082,0.4331182,43.3751092,-20.7377178,-134.5289214,51.94904999999999,32.10303939999999,-7.054994000000001,-0.8826069999999999,0.3426854,-0.3198894,145.3625244,58.9198486,159.1672638,258.15145614385983,0.6603381731023279,61.47423748986632,0.9993786209713114,101.9874152,79.6575664,293.69618519999995
2917.92,-51.1791424,-211.0382294,122.228688,0.1811142,0.4433263999999999,0.3753908,42.8159362,-25.4865942,-135.7304472,56.26226039999999,37.80292519999999,-10.41492,-0.8729418000000001,0.3392126,-0.3174115999999999,147.39134840000003,58.4270302,160.2455842,249.1912740352034,0.6084890328537071,68.57823020172364,0.9888592913051684,104.5754122,83.91362439999999,295.9760314
2937.906,-54.0349192,-202.074817,111.60910040000002,0.2238492,0.4221506,0.3609535999999999,42.3176016,-29.9706464,-136.97558279999998,55.62695319999999,39.59209159999999,-10.2849032,-0.8770754000000001,0.3510674,-0.314333,149.403888,57.8790358,161.32169800000003,237.08773787488732,0.598838120675329,69.04832274147685,0.9956479355258666,107.0862864,87.8496822,298.2972808
2957.892,-56.0831004,-190.1288086,99.8052094,0.2714176,0.3845684,0.3214092,41.8806892,-34.1285898,-138.254071,51.74639219999999,37.5883128,-10.3224096,-0.901619,0.3428264,-0.365793,151.26550600000002,57.349427000000006,162.3167144,221.9354812406294,0.5699686322184406,64.78520282299837,1.0316255524883822,109.3848168,91.4780168,300.5707854
2977.878,-53.5004466,-174.8983032,86.2838036,0.3143566,0.3463592,0.301137,41.5731078,-37.8828284,-139.55436079999998,51.79915319999999,39.20854979999999,-12.947983,-0.8632215999999999,0.2779002,-0.4128966,153.192862,56.7930642,163.3876098,202.2291003103212,0.5562987148620784,66.24283292118807,0.996425438333526,111.61975420000002,94.6758926,302.9419706
2997.863,-50.1292548,-155.5817688,72.1754526,0.3510376,0.335594,0.2587366,41.3722068,-41.1695482,-140.8265654,48.57709739999999,37.87315399999999,-14.4404844,-0.8369913999999999,0.2448925999999999,-0.4556924,155.048102,56.24128880000001,164.450894,178.68386868364703,0.550268441425928,63.26640321231677,0.9839626784723494,113.6758952,97.410837,305.27745940000005
3017.849,-44.4528278,-132.4010238,57.464187,0.3780968,0.317279,0.2110021999999999,41.2720932,-43.919436000000005,-142.0132018,45.52562859999999,34.76077439999999,-17.2372598,-0.8731656000000001,0.2390527999999999,-0.4929059999999999,156.83500080000002,55.749031,165.51465120000003,151.02389807668052,0.5367914701409477,59.81653134147388,1.030786462390344,115.56290760000002,99.668467,307.527853
3037.835,-33.3941014,-106.0068062,44.907695,0.4220054,0.2852088,0.1651628,41.2996026,-46.1088456,-143.0138792,38.1463184,24.206120199999997,-21.260868,-0.9389164,0.2323173999999999,-0.5192121999999999,158.4472964,55.467788000000006,166.5503202,119.87205695761988,0.5354543563464957,49.93097606420738,1.0977780691745305,117.1476938,101.5766336,309.5641994
3057.821,-19.8686022,-76.910492,34.2516328,0.4641612,0.2644234,0.1585392,41.410469,-47.7194024,-143.7256254,32.53182219999999,11.589537599999996,-23.1679282,-0.9439122,0.2108476,-0.5064835999999999,159.8683718,55.4357452,167.489984,86.50525696470675,0.5572252973346059,41.5859319303365,1.0917658122525913,118.4579028,103.1551476,311.2156094
3077.806,-9.742375,-47.3885888,23.5937188,0.4830274,0.2722816,0.181334,41.5062424,-48.7509072,-144.12491440000002,33.06275639999999,-5.541408000000006,-22.96631,-0.94548,0.2000592,-0.5000948000000001,161.1193422,55.716815,168.20986620000002,53.82616265265047,0.5833821718267709,40.63624562387998,1.0881410399813436,119.6130998,104.4677222,312.33478060000004
3097.792,-6.545493200000001,-18.0443032,11.373465200000002,0.5004524,0.2839152,0.1594652,41.4560112,-49.1801858,-144.2319456,37.21679079999999,-23.173679600000007,-22.1371728,-0.923483,0.2030706,-0.485836,162.2616884,56.31708199999999,168.70046380000002,22.311343972526345,0.5970674965762581,49.11377976934254,1.0630593298444635,120.8056772,105.4972678,312.9324094
3117.778,0.5666231999999993,10.694979,-0.7480478000000005,0.5361642,0.252086,0.1381129999999999,41.3284324,-49.018284,-144.04299,33.05392919999999,-43.557506,-17.550766799999998,-0.890921,0.2143443999999999,-0.4712755999999999,163.024753,57.2659598,168.83110960000002,10.736070657941111,0.6083540100358015,57.42689247875625,1.0304292509472543,121.6963206,106.28424379999998,312.8740996
3137.764,14.0390232,38.5174468,-11.5793274,0.5586096,0.2394164,0.1615894,41.2482046,-48.295337,-143.5526398,32.52689979999999,-56.505134600000005,-11.589603,-0.8678269999999999,0.1755338,-0.4824288,163.48722560000002,58.4356002,168.6192994,42.600102152898174,0.6288688511871772,66.22045261443752,1.008302218553981,122.239021,106.7309372,312.1719392
3157.75,23.8806566,64.0655052,-23.7813454,0.5558232000000001,0.2794316,0.1875534,41.2158554,-47.027031,-142.8494416,41.8297382,-62.8104354,-8.9850674,-0.8316155999999999,0.1423838,-0.4879258,164.00113860000002,59.7019364,168.2515656,72.38941293595668,0.64976744038799,75.99742909599414,0.9746431341631868,122.78528319999998,106.7289674,311.1010072
3177.735,27.0313856,87.96061560000001,-34.7345252,0.5459441999999999,0.3088383999999999,0.1964933999999999,41.1355536,-45.258473200000005,-141.9618286,44.9928676,-66.879419,-8.3949646,-0.8401679999999999,0.1270379999999999,-0.4740489999999999,164.5347538,61.0397782,167.8341218,98.35778029752548,0.6573019725147338,81.04128732494286,0.9730073874688722,123.3992002,106.2982514,309.7959504
3197.721,31.2006876,110.02090760000002,-43.9401056,0.5366198000000001,0.3177706,0.207317,41.03451220000001,-43.0348358,-140.8941346,40.4616992,-67.4287744,-8.101669,-0.8609745999999999,0.1489666,-0.4718893999999999,164.9823336,62.3862756,167.4212068,122.5104725971608,0.6572056774445882,79.05330960701731,0.9930498051926095,123.9478214,105.4211114,308.3153414
3217.707,34.7635518,130.0030014,-51.59383379999999,0.5181764,0.332464,0.2269893999999999,40.9362884,-40.4108108,-139.67434699999998,33.64391299999999,-63.1254746,-6.692675800000001,-0.8886787999999999,0.1221108,-0.4805553999999999,165.25463280000002,63.6395082,166.97420979999998,144.12220020850953,0.6561732092407614,71.84379120557821,1.0176416606621603,124.3183444,104.05031900000002,306.6485568
3237.693,34.941593600000004,146.1502778,-59.0554534,0.4849009999999999,0.3481548,0.3135094,40.830539,-37.4439378,-138.3753784,29.351144399999992,-56.2335052,-6.0223542000000005,-0.8922118000000001,0.137133,-0.4724714,165.4399904,64.7480286,166.538315,161.4570074063195,0.6742617358655316,63.71785883705083,1.018860431838532,124.60945139999998,102.1919664,304.9136934
3257.678,33.224607400000004,159.3338746,-66.9828986,0.440254,0.3633802,0.3632234,40.740158,-34.1778328,-137.0678008,22.359117199999996,-50.1304244,-5.2510188,-0.9046292,0.1369016,-0.4708549999999999,165.506659,65.729245,166.1301912,176.0053034337049,0.6766091874750151,55.14129823394989,1.0289803052537985,124.766501,99.9070778,303.197992
3277.664,33.19753680000001,169.89533079999998,-75.11086660000001,0.4045362,0.3764904,0.3712832,40.71852260000001,-30.637857,-135.7862792,15.262855599999993,-44.9967376,-3.9621436,-0.923517,0.1448028,-0.4424862,165.4411132,66.6085344,165.73193379999998,188.70119808478103,0.6657670561126016,47.679762348576425,1.0342366931062157,124.7225906,97.2463914,301.518213
3297.65,35.724746,179.7566406,-82.30166620000001,0.3578658,0.4121796,0.3777724,40.833699800000005,-26.854285800000003,-134.5263426,12.043237399999992,-40.25567540000001,-1.4292688000000002,-0.9607874,0.1067726,-0.4089736,165.25274960000002,67.3934632,165.26903399999998,200.90363753764717,0.6638312584290981,42.04285644774362,1.0496533816486662,124.4190498,94.247749,299.7953766
3317.636,41.5328536,187.6924774,-90.00572199999999,0.2871994,0.4360098,0.4176002,41.163399600000005,-22.8511724,-133.3079558,14.409729199999992,-39.7819962,-0.0343802000000001,-0.973154,0.0954392,-0.3608084,165.0247862,68.1729752,164.71438619999998,212.26039195631816,0.6685641091895675,42.31133062516823,1.0422667845245763,123.86138660000002,91.0241476,298.022342
3337.621,48.1758322,192.6951354,-96.8687606,0.2163602,0.4522322,0.4238248,41.7266922,-18.6860006,-132.1348418,16.04900259999999,-44.5463548,1.8603692,-0.9708968,0.0835064,-0.3174131999999999,164.61979960000002,69.03787539999999,163.9390504,220.98842231023556,0.6564702277757308,47.38574874350513,1.0248731895339247,122.8931074,87.72387599999999,296.0738922
3357.607,53.43129799999999,195.0648222,-101.3761856,0.1237186,0.5307348000000001,0.538763,42.4706216,-14.432204399999998,-130.9725524,13.859270999999993,-49.1679438,5.113176,-0.9798112,0.1072983999999999,-0.2899287999999999,163.8208006,69.9692626,162.80089719999998,226.23509779140824,0.7663232282046526,51.33917275315581,1.027424762869496,121.350179,84.401467,293.7734496
3377.593,45.47292899999999,195.8100188,-107.0989242,0.0273864,0.6391031999999999,0.5926352,43.134814600000006,-10.098480599999998,-129.8510406,12.634555599999992,-52.45009700000001,8.6840562,-0.9775286,0.1304428,-0.2896244,162.6674132,70.9278228,161.318521,227.77078456003247,0.8720202953109749,54.64483052040384,1.0278422938200005,119.5325986,81.02630339999999,291.1695616
3397.579,39.67159,192.687973,-112.1843872,-0.044211,0.6106248,0.583066,43.76822979999999,-5.7523168,-128.814357,9.990875799999992,-54.10678720000001,11.051178,-0.9436382,0.141563,-0.2968891999999999,161.2064116,71.8737136,159.5722564,226.46815829916653,0.8454485314033255,56.1203221261674,0.9993179336651974,117.4381818,77.62603039999999,288.3866134
3417.564,47.0030758,186.6543854,-112.5925384,-0.1173486,0.590573,0.6375341999999999,44.6361474,-1.5023668,-127.8217772,6.668247399999991,-49.47845160000001,12.8244746,-0.894253,0.1320395999999999,-0.3274689999999999,159.5623106,72.69233999999999,157.70809000000003,222.99378562432577,0.8769247507173006,51.546579371353005,0.96143581685839,114.9261632,74.19470679999999,285.5298672
3437.55,47.963686800000005,179.167743,-109.5863632,-0.2795258,0.7897934,0.8491302000000001,45.6059366,2.5765492,-126.8303984,4.575623799999991,-36.5612924,13.8082226,-0.8644592000000001,0.0976468,-0.3715106,158.0063262,73.24177399999999,155.9842162,215.43158167400816,1.1928664569436265,39.34884301334125,0.9459623311354634,112.4003896,70.6652248,282.8146146
3457.536,24.2662578,170.3710726,-112.02339320000002,-0.3687474,0.850844,0.7501676,46.1555138,6.5568312,-125.9460128,4.324674399999991,-22.747902000000003,12.4467694,-0.8793472,0.0347546,-0.3962601999999999,156.82636399999998,73.54184280000001,154.65901480000002,205.33970456424728,1.1927537824012633,26.28862724762165,0.9651329061186548,110.6708502,66.9850116,280.6050276
3477.522,21.242564,162.39957900000002,-106.6793898,-0.3921382,0.7507992,0.6645916,46.708387,10.3413206,-125.0596282,4.888297799999991,-11.924756000000006,10.8016714,-0.914291,0.0240782,-0.3890936,156.0052032,73.65618140000001,153.6973602,195.4619195464213,1.0766400519256378,16.815807030130873,0.993932403112606,109.2968162,63.314860800000005,278.7569884
3497.507,30.7300144,156.9609436,-97.3993086,-0.459852,0.796102,0.730095,47.5367256,13.9081878,-124.0622894,6.227078599999992,-2.7399576000000057,9.433988,-0.9615004,0.0232102,-0.3822629999999999,155.5188752,73.62158360000001,153.0574034,187.26370955576155,1.174002114705506,11.631165252222996,1.034962189528294,107.9821496,59.7133958,277.11969280000005
3517.493,26.388255800000003,151.8764496,-93.2322706,-0.5020370000000001,0.8779724,0.8347201999999999,48.355468,17.3278184,-123.01277480000002,9.59407799999999,4.645628199999995,6.6588650000000005,-0.9879838,0.0175104,-0.3862302,155.5015078,73.46877140000001,152.8334014,180.1528580636433,1.3113483506752888,12.568559071386984,1.0609393811913288,107.1460398,56.140953,275.8461762
3537.479,13.567532599999998,148.4582276,-90.7260634,-0.5109632,0.8609325999999999,0.7071734,49.0022064,20.6520034,-121.9169222,11.09469499999999,9.043118199999997,2.4665100000000004,-0.9889644,0.0335992,-0.3772186,155.9206178,73.25777120000001,153.0307006,174.51401623665157,1.2257171578975958,14.524252665879091,1.0589963941836442,106.9184114,52.6057678,274.9476228
3557.464,15.2867924,144.8715606,-84.100067,-0.5273960000000001,0.7969294,0.6660416,49.7614068,23.8245574,-120.7257722,7.640239199999991,12.997606599999994,-1.7590059999999998,-0.9750208,0.054249,-0.3701291999999999,156.6220004,73.0039702,153.59481799999998,168.20902580410083,1.1648409429320898,15.179101899309323,1.0443199409789512,106.8605936,49.1794128,274.3205902
3577.45,18.4412168,141.29391479999998,-79.33098600000001,-0.5530526,0.7909698,0.6166428,50.6740242,26.863148,-119.4490296,1.5553123999999912,17.680797599999995,-5.2365638,-0.964269,0.0558064,-0.3760228,157.5132266,72.6839842,154.48482359999997,163.0872593929595,1.1453160025384437,18.50543706225902,1.0364951542394203,106.8392024,45.8208362,273.9338532
3597.436,20.4142712,137.3513124,-74.4755578,-0.5996634000000001,0.7971831999999999,0.6529672,51.74669279999999,29.7488578,-118.0721802,-2.0749006000000088,23.629338799999992,-8.1808536,-0.9440234,0.0361304,-0.4004502,158.6199648,72.2701828,155.677588,157.57136223391194,1.1922514046700217,25.09137760765037,1.026082817433252,106.873272,42.521325,273.74976819999995
3617.422,10.3220294,132.5780168,-71.5044656,-0.6793739999999999,0.8439175999999999,0.6461072,52.7052636,32.505498,-116.6403686,-3.4435070000000088,29.1634788,-10.6829158,-0.9280934,0.0304148,-0.4149082,159.895688,71.76891479999999,157.081061,150.9846463396101,1.261427945368898,31.248854797687997,1.017069925624507,107.1904244,39.2634168,273.7214296
3637.407,1.6645359999999996,126.8341202,-69.0847786,-0.6941278000000001,0.7567284000000001,0.5196333999999999,53.559148400000005,35.136823199999995,-115.18972,-1.611510400000009,32.44994739999999,-12.4185662,-0.9285596,0.017741,-0.4157646,161.299164,71.2177446,158.58487259999998,144.4381229496367,1.15085626578429,34.78242140069976,1.0175450242845867,107.74001560000002,36.0809214,273.7745926
3657.393,9.5584056,122.5464066,-62.52085580000001,-0.7007918,0.6992046000000001,0.4498826,54.6738014,37.5899314,-113.637332,4.178067199999991,34.54674759999999,-13.8803066,-0.9264168,0.002486,-0.4155082,162.84526380000003,70.6237672,160.1225162,137.9051931514946,1.0873778429741705,37.46460898736065,1.0153331137047978,108.1714624,33.033835800000006,273.7598482
3677.379,20.1059834,117.8774598,-54.8167046,-0.7854136,0.755355,0.4950529999999999,56.1347672,39.8329726,-111.9508896,12.00875199999999,38.33494559999999,-15.0249738,-0.91432,0.0054558,-0.4227756,164.5472412,69.94717879999999,161.66753559999998,131.5454947939509,1.1968764229856648,42.88971923950015,1.007348021345652,108.412474,30.1142062,273.6184252
3697.365,18.2139814,113.1610322,-53.3220664,-0.8300611999999999,0.7787514,0.479786,57.653904,41.9554228,-110.2074524,16.02425499999999,43.26044319999999,-17.6591566,-0.9098296,0.016752,-0.4234676,166.3979554,69.1664368,163.29443379999998,126.4136507350966,1.2351720303437088,49.39725200847486,1.0036908581779151,108.7440514,27.21101400000001,273.5018862
3717.35,16.3059462,107.9689636,-50.6882346,-0.8488844,0.7333896,0.4244602,59.213311,43.947164,-108.4126724,13.38217799999999,51.04121799999999,-21.656107400000003,-0.8908099999999999,0.0199114,-0.4351117999999999,168.3234346,68.23074199999999,165.0692232,120.38470878479566,1.1994296525163783,57.037493025794376,0.9915952795617776,109.1101236,24.28357800000001,273.48189560000003
3737.336,17.1985686,102.7345688,-48.1372642,-0.8385301999999999,0.6880914,0.3652284,60.84943940000001,45.8084738,-106.5816758,3.899054199999992,62.9919938,-24.4470934,-0.8902134,0.0310974,-0.4464578,170.1197206,67.0521302,166.9245454,114.74919865982264,1.1445498919804935,67.68200855664746,0.996379201412374,109.2702812,21.243656400000003,273.5062212
3757.322,20.3073406,97.7409684,-45.4203764,-0.8703276000000001,0.7015002,0.4088176,62.6226442,47.543398800000006,-104.70157020000002,-10.725074200000009,77.99431539999999,-25.2502412,-0.90864,0.0711856,-0.460203,171.5727692,65.56404359999999,168.7455598,109.67541008964535,1.1902539611324805,82.678383704378,1.0210195103211102,108.950125,18.020644800000003,273.44713
3777.308,15.1917656,93.7595002,-45.7977744,-0.8683212000000001,0.6936956000000001,0.4025014,64.37884240000001,49.202162,-102.776509,-27.68790560000001,90.09716799999998,-26.8031816,-0.9209706,0.0725938,-0.4530293999999999,172.6453308,63.8485444,170.54511740000004,105.44699976667158,1.1820332773787547,97.99250145810808,1.0289277638042236,108.2664884,14.646382400000002,273.32162640000007
3797.294,9.1952126,90.7882202,-43.1125222,-0.8535046,0.656117,0.315697,66.1331918,50.7391608,-100.7512802,-44.27138880000001,98.4331406,-24.4196442,-0.9232918,0.0816563999999999,-0.44535,173.186859,61.9725854,172.1460542,100.92443922206544,1.1218842256307733,110.65874596033848,1.028334643055557,107.0536672,11.2334246,272.8973344
3817.279,10.837656,90.9207168,-38.36658559999999,-0.8367735999999999,0.6189495999999999,0.2301692,68.1268534,52.14331500000001,-98.5086532,-54.67670140000001,92.1498924,-18.250416,-0.9747328,0.119669,-0.4127126,173.16459640000002,60.2088662,173.3638154,99.27752223742424,1.0659580318313473,108.69324739600616,1.0652494502019705,105.037743,8.065551199999998,271.8724686
3837.265,17.7115784,92.979222,-35.5525292,-0.8535094000000001,0.6318352,0.2803034,70.4860596,53.4540038,-96.0137984,-61.65421540000001,73.59741819999999,-9.811472000000002,-0.974999,0.1650794,-0.3952456,172.5831358,58.7936294,174.10983300000004,101.10795253421703,1.0983005107432848,96.50951883157472,1.0649381872318788,102.0970762,5.3396256,270.1236314
3857.251,15.4633496,93.6139434,-35.97194460000001,-0.8636403999999999,0.6380034,0.2437601999999999,72.9729476,54.7164306,-93.3402434,-65.49574600000001,49.16414859999999,1.1727694,-0.9646448,0.2006504,-0.3717684,171.4520506,57.828063,174.3083834,101.47249074530345,1.1010640826163387,81.90348978966021,1.0530963471714068,98.479103,3.111632399999999,267.6486268
3877.237,13.6479062,91.3409576,-36.090056,-0.869487,0.600342,0.198205,75.50252359999999,55.9125494,-90.5980666,-67.4192644,24.772596599999996,16.812756999999998,-0.9447486,0.2586156,-0.3687433999999999,169.6764556,57.2694274,173.7978518,99.15607909257066,1.0750364561995096,73.76793037956594,1.046615326091148,94.173932,1.356877999999999,264.3959184
3897.222,14.208953400000002,84.8225968,-36.6154038,-0.9123496,0.596047,0.1978078,77.989189,57.0282904,-87.9481504,-68.33001560000001,2.6024045999999936,32.1792478,-0.9327846,0.3030334,-0.3409812,167.334436,57.05875619999999,172.6351656,93.47435520000016,1.1076017987390594,75.57292855627702,1.03835664887656,89.345247,0.0304657999999989,260.583316
3917.208,12.9697884,74.291314,-36.1833688,-0.9613942,0.6078728,0.1524108,80.27158179999999,58.0364578,-85.5383788,-70.4733506,-7.976234800000006,47.530283,-0.9080908,0.2966526,-0.3643215999999999,164.45052479999998,56.9558212,170.8784182,83.64598570585551,1.147613698389018,85.37705352397295,1.0224294080072032,84.178943,-1.0806365999999996,256.416797
3937.194,11.5844048,60.615475200000006,-32.8499666,-0.9811214,0.579641,0.0903395999999999,82.2418166,58.89358059999999,-83.4891142,-65.57311100000001,-13.275156800000008,57.866946600000006,-0.9206984,0.3035682,-0.3738524,161.310202,56.8584504,168.7013276,69.91104758128857,1.14312909758571,88.45703015074699,1.0390403326144564,79.06838540000001,-2.035130199999999,252.1904418
3957.179,12.201346199999998,47.96938780000001,-27.3359934,-0.991467,0.5729586,0.0910042,83.93287799999999,59.5720688,-81.79723960000001,-61.09232780000002,-17.789959200000006,62.96374840000001,-0.948649,0.3080462,-0.3773418,158.06960759999998,56.7602312,166.295276,56.5437136219747,1.148725438832361,89.51641624271396,1.06640246650253,74.1367296,-2.8118375999999983,248.0925156
3977.165,11.279344599999998,35.4725958,-22.6087484,-1.0174806,0.595663,0.1433924,85.2398192,60.096032,-80.5325928,-56.80947100000001,-21.155426200000004,61.39334799999999,-0.987948,0.3169218,-0.3823888,154.9105896,56.6849366,163.886026,43.550937666257305,1.1877047450116212,86.27868352989974,1.105758505454369,69.67077040000001,-3.411095399999998,244.4186188
3997.151,4.8813452,22.057937,-16.8641146,-1.0123464,0.6181546,0.1476428,86.03536220000001,60.4648186,-79.723816,-55.29992440000001,-26.142532600000003,55.542434,-1.0130192,0.3206924,-0.403899,151.8728484,56.6942224,161.587381,28.191815778687708,1.1953069645434014,82.62248860953133,1.136743558234398,65.8374862,-3.770596199999997,241.311197
4017.137,-3.3526946000000004,7.5112428,-9.7357676,-0.9963658,0.6229938,0.1552861999999999,86.20024719999999,60.665129,-79.4558594,-53.76541820000001,-30.850921600000003,46.4823364,-0.9899164,0.3383538,-0.383389,149.0450348,56.8100876,159.5058594,12.74537171849573,1.1853184745706613,77.47972092743368,1.1141835119424448,62.8447876,-3.8550413999999975,238.96171880000003
4037.122,-12.675906,-6.808643599999999,-2.130773,-0.9945108,0.6362766,0.1724416,85.689093,60.679195400000005,-79.7472856,-55.243619400000014,-31.90364180000001,39.04570579999999,-0.9398518,0.3324758,-0.3760354,146.3688506,56.9588906,157.6400972,14.545666508283007,1.1931620797003064,74.79483261519421,1.0654877688655278,60.6797576,-3.7203047999999983,237.3873828
4057.108,-21.444973,-22.443141,5.125218800000001,-1.0070182,0.6459402000000001,0.2018054,84.4717622,60.50799179999999,-80.644632,-57.449607000000015,-30.9242446,33.8554286,-0.8972776,0.3343914,-0.3808648,143.792581,57.1050484,155.94873660000002,31.461870775026764,1.21328060092315,73.50480456558454,1.0305254464275786,59.320818800000005,-3.402943399999998,236.5933686
4077.094,-29.0548908,-39.7412694,12.78346,-1.0136059999999998,0.6593148,0.2092029999999999,82.5737658,60.12215739999999,-82.1570572,-61.69413520000002,-28.126873600000003,32.416546999999994,-0.872704,0.3215184,-0.4063856,141.24226979999997,57.17663280000001,154.3828584,50.8622848729282,1.2271344767155878,75.15397431932304,1.014955964090029,58.668504000000006,-2.945524599999997,236.5399156
4097.08,-34.85849760000001,-58.1081094,20.9864718,-1.0236296,0.6586770000000001,0.2443354,80.0422976,59.483864,-84.2764512,-62.23431700000001,-20.982961000000007,30.622522600000003,-0.8304964,0.2947444,-0.439961,138.872589,57.123092,153.0430482,70.93729083904861,1.2415203325029842,72.46470696257263,0.984969143306185,58.8302914,-2.360771999999999,237.3194994
4117.065,-37.8835544,-76.0691536,29.4359508,-1.0357252,0.6717818,0.2640744,77.0320176,58.5484172,-86.8993562,-62.13858800000001,-16.350154800000006,28.3748412,-0.8144942000000001,0.287048,-0.4570718,136.67696519999998,56.9995896,151.89897760000002,89.93417049652581,1.262439212580804,70.24004053061847,0.9770936426427512,59.6449476,-1.5488275999999996,238.7983338
4137.051,-38.5390132,-93.960286,37.2946526,-1.0534778,0.6722758000000001,0.3186694,73.699901,57.300815,-89.914818,-59.33900920000001,-12.867919400000003,25.133787,-0.8293406000000001,0.2813991999999999,-0.470001,134.7053772,56.8515792,150.94672540000002,108.18817863420318,1.2896977990424114,65.71459968290114,0.9939277038950068,61.0054762,-0.4492357999999996,240.8615434
4157.037,-38.3499514,-112.7186036,46.3391102,-1.0904380000000002,0.7035318,0.3941452,70.1636842,55.673706200000005,-93.222034,-54.15838180000001,-4.952407600000005,20.924346000000003,-0.801226,0.2628863999999999,-0.4855194,133.11014099999997,56.6347602,150.3197388,127.76351397814652,1.356230977429096,58.270789558395606,0.9730372295844184,62.9464568,0.961054,243.54177280000005
4177.023,-41.34387840000001,-132.4130356,54.80486080000001,-1.1331798000000002,0.7189552,0.4538598,66.462841,53.6478006,-96.7270632,-44.022751800000016,1.0711273999999946,16.4479598,-0.7467817999999999,0.2485489999999999,-0.4864996,131.94444579999998,56.3867468,149.968167,149.15126900321107,1.4166798356689914,47.00729062107124,0.9252791595039844,65.48160479999999,2.7389462,246.69523020000003
4197.009,-43.47659900000001,-151.4406784,62.9826828,-1.1515756,0.7068852,0.4764346,62.74302659999999,51.193039,-100.2964754,-34.14756440000001,4.3241383999999945,11.5075756,-0.7076743999999999,0.2601992,-0.4780187999999999,131.1575624,56.165155600000006,149.8339966,169.68002848757553,1.4327606138401348,36.29295556363821,0.8927534112225166,68.41453579999998,4.9721166,250.130472
4216.994,-41.5458248,-168.2583558,70.7056786,-1.1502486,0.7305697999999999,0.5334732,59.22443919999999,48.3178818,-103.7804978,-22.70498960000001,6.713589399999995,7.5418122,-0.6983539999999999,0.2673346,-0.4809721999999999,130.7327638,55.9662666,149.8603212,187.17965391868367,1.463351539990388,24.848898700505217,0.8891008687691176,71.5083246,7.6483848,253.640819
4236.98,-42.049657,-183.3951386,76.85790399999999,-1.127162,0.7610448,0.6121184000000001,55.9289358,45.0569176,-107.107077,-12.97410600000001,10.484339599999997,2.692194,-0.6793756,0.2776992,-0.4929294000000001,130.6697052,55.7848618,150.0924104,203.2463724724357,1.4914329678096834,16.89664794806947,0.8841082767061735,74.74076939999999,10.7279442,257.1994874
4256.966,-44.0300686,-196.870102,81.9237076,-1.0759622,0.7591238,0.6447136,52.8768378,41.4530442,-110.2189636,-3.5783910000000114,11.731311399999994,-3.33609,-0.6811998,0.3003908,-0.4970848,130.964032,55.6694246,150.51962899999998,217.73373158365104,1.466157981112622,12.71054860345339,0.8951877449092565,78.08719419999998,14.216380400000002,260.7385926
4276.952,-41.8817524,-208.0516878,87.4037278,-0.9881592,0.7427222,0.6593192,50.1919182,37.5198726,-113.0596528,3.581778599999989,14.476766599999996,-11.6909714,-0.6879033999999999,0.3254612,-0.4964483999999999,131.6404084,55.6288012,151.22915659999998,229.5190571910317,1.4009984576744257,18.94953090200154,0.9086237363725206,81.44849020000001,18.1089286,264.2888094
4296.937,-35.4061492,-216.8410188,92.5327028,-0.8714062,0.732228,0.661846,47.962597,33.3057346,-115.6183792,12.243297799999988,14.869302199999996,-18.8959474,-0.7107428,0.3462226,-0.4945690000000001,132.6608186,55.667672800000005,152.1381836,238.4028605593224,1.3166422206121298,26.98242607843068,0.9325362793283702,84.6982216,22.3619382,267.7565628
4316.923,-29.740479800000003,-223.374173,97.5464386,-0.730926,0.7129192,0.6941928,46.1432672,28.8545348,-117.9099626,20.74044699999999,15.053895799999996,-27.027048200000003,-0.71547,0.3511032,-0.4899538,134.0329956,55.8084908,153.2650238,245.5520820227589,1.234670096332004,37.245768282077215,0.935534875931774,87.8897284,26.953956,271.1749864
4336.909,-25.4164922,-228.767862,102.6059602,-0.6426918,0.7601644000000001,0.7425842,44.6926364,24.2054438,-119.962053,30.92028279999999,8.520855399999993,-32.628128000000004,-0.7602485999999999,0.3583838,-0.4682693999999999,135.6033082,56.1245896,154.386322,252.0093566286135,1.2419073874102853,45.75219778288327,0.9621294678372344,90.9106718,31.919145800000003,274.348375
4356.894,-29.951003000000004,-234.6139892,104.5322908,-0.5713538,0.756203,0.7622706,43.3704592,19.3941858,-121.8708832,39.58078739999999,1.5115777999999942,-34.561217400000004,-0.771689,0.3536456,-0.4566222,137.2448214,56.55965260000001,155.3886016,258.58806300550594,1.2162831124404383,52.56806394399088,0.9638843066744056,93.8743622,37.1654668,277.2594848
4376.88,-36.753884000000006,-239.995639,105.012494,-0.5198894,0.7571475999999999,0.7048819999999999,42.1036074,14.4500422,-123.6744216,45.35913239999999,-6.9880914000000045,-33.2724996,-0.7843922,0.3446362,-0.4324524,138.8000826,57.0976058,156.1525146,264.5304871356113,1.157763408621174,56.68636117380867,0.959718871356107,96.6964752,42.6475636,279.8269362
4396.866,-42.0489846,-245.19618840000004,104.7924364,-0.447759,0.736915,0.6966902,40.9011316,9.3950114,-125.398378,48.85967259999999,-16.25934,-29.95895400000001,-0.8083560000000001,0.3384036,-0.3941474,140.1510682,57.7396714,156.59846499999998,269.9458142635803,1.1085617141512871,59.57493322353712,0.9608894796779284,99.2499366,48.34466,281.996843
4416.852,-44.94531,-249.3720582,105.009305,-0.3788854,0.7161714,0.6576876,39.806418,4.262980199999999,-127.0462204,51.67312399999999,-26.019252600000005,-24.058804,-0.8747526000000001,0.3535128,-0.3488502,141.220746,58.4609658,156.65087899999995,274.2871824174132,1.0435557482496467,62.65731640991656,1.005912457925957,101.414328,54.1979856,283.6970994
4436.838,-43.508552,-251.9216888,103.6118562,-0.2701517999999999,0.6166914,0.5938570000000001,38.8828842,-0.9131716,-128.6486314,50.38621519999999,-18.380679600000004,-15.502815000000002,-0.8612154000000001,0.3422434,-0.3421468,142.2170716,58.9485298,156.6469636,275.84950268251384,0.8977507528964819,55.82971733461303,0.987869901753748,103.3341874,59.8617014,285.295595
4456.823,-35.8953012,-250.77294,103.7170212,-0.1457512,0.5771032,0.5520904,38.2545524,-6.0937064,-130.166626,50.51751099999999,-13.360638800000004,-6.651925200000001,-0.8798912,0.3290022,-0.3136299999999999,143.081195,59.260463,156.488846,273.7384893855513,0.8118468608819277,52.67612073459453,0.990360918222382,104.8266426,65.3541694,286.65547200000003
4476.809,-32.251191,-246.2014952,102.081865,-0.0214382,0.5315112,0.5641968,37.8309134,-11.1959514,-131.62104200000002,55.50273059999999,-9.580984600000006,-2.633583800000001,-0.911893,0.3253296,-0.28963,144.0150482,59.4671432,156.2970004,268.4697799036464,0.7754236140813098,56.38514107097041,1.0105808869086927,106.1841348,70.6630946,287.9180424
4496.795,-33.101221800000005,-238.4329984,98.762094,0.063373,0.4930662,0.4964136,37.512255800000005,-16.150095,-133.0236726,58.59956279999999,0.3730819999999937,-0.5642764000000013,-0.9228598,0.3359313999999999,-0.2676222,145.1658752,59.48246759999999,156.2817416,260.1921152186054,0.7025360325110734,58.60346711915144,1.0179104861896453,107.6536194,75.6325626,289.3054142
4516.78,-33.9901142,-229.693826,93.0098296,0.1324862,0.4124948,0.4488991999999999,37.2602866,-20.917514,-134.4104004,62.24359979999999,16.596624799999994,3.0508887999999983,-0.8770328,0.3371589999999999,-0.3034672,146.5923798,59.1852806,156.5046266,250.1307857263243,0.6238710162991385,64.49047676428279,0.9873981289392236,109.3320932,80.10279460000001,290.915027
4536.766,-32.5465802,-219.5777556,86.784967,0.1903512,0.3742394,0.420604,37.1387848,-25.45686,-135.7947112,64.13562399999999,18.766307599999998,2.035741999999998,-0.8493300000000001,0.3310389999999999,-0.2933932,148.0933534,58.861278600000006,156.77642219999998,238.3386270293581,0.5943033170610778,66.8557911649975,0.957615704877087,110.9545686,84.3181386,292.5711334
4556.752,-32.8791462,-206.821524,77.92479019999999,0.2290172,0.3628998,0.3812292,37.1224884,-29.6898818,-137.2085632,62.05246959999998,21.062552399999998,-5.127545200000002,-0.8533352000000001,0.3109344,-0.3117936,149.7899386,58.57022400000001,157.3230102,223.44675869709448,0.5740042209500903,65.7299917605328,0.9602481000571468,112.6674502,88.26010579999999,294.5315734
4576.738,-34.573093,-190.2434936,67.5461982,0.2752834,0.331947,0.3165744,37.1688134,-33.5332564,-138.638922,52.18272399999999,20.544149999999995,-11.8501194,-0.9098622,0.3044518,-0.3163516,151.4812594,58.34433899999999,158.09368279999998,204.81790573090427,0.5349664586307445,57.31949156331493,1.0102566289486252,114.312446,91.8775954,296.7326048
4596.723,-33.8520226,-170.6197526,58.62358479999999,0.3211414,0.2925528,0.3158231999999999,37.2644752,-36.95482,-140.0117582,47.97374879999999,22.1603692,-14.414658400000002,-0.8896238000000001,0.3036384,-0.3730124,153.16944600000002,58.0992172,158.9602354,183.55866666055,0.5370877332801783,54.77540427778237,1.0113184632126322,115.9049708,95.0540372,298.9719936
4616.709,-31.9495558,-148.0169388,48.3034902,0.3560766,0.292811,0.2804052,37.4215102,-39.89332939999999,-141.313754,46.88258879999999,17.52780719999999,-13.7581994,-0.8666893999999999,0.240615,-0.4062456,154.73879399999998,57.9307906,159.7086852,158.94343475916753,0.5395886423708343,51.90846952627689,0.986955714212507,117.3172838,97.82412,301.0224392
4636.695,-33.165281,-122.5854156,37.9023442,0.3809973999999999,0.304095,0.225376,37.516329,-42.306201,-142.4825376,44.87532339999999,14.225709399999994,-16.8888668,-0.8680640000000001,0.2165427999999999,-0.4467364,156.33138739999998,57.8288062,160.52325739999998,132.52813919122593,0.5370541213022761,50.01399084232308,0.9999996517063394,118.8150584,100.1350072,303.00579500000003
4656.681,-31.3230386,-95.691825,28.8779344,0.4307314,0.2588842,0.1898408,37.537615800000005,-44.18214019999999,-143.4402616,40.19801139999999,2.8217271999999936,-16.4476784,-0.9111724,0.2596996,-0.4691536,157.6502808,57.9137756,161.1354646,104.74728260999622,0.5372058239634414,43.52434249538499,1.0572531036392752,120.11266500000002,102.0959158,304.5757262
4676.667,-21.7796972,-68.5483238,22.463393000000003,0.4817686,0.2374092,0.19631,37.5673322,-45.5487052,-144.1070646,38.01829039999999,-7.870494200000006,-14.026762200000002,-0.8885760000000001,0.2770836,-0.4588051999999999,158.744458,58.1674568,161.5340028,75.3513897083908,0.5718406493863478,41.28056615050615,1.0377113474911992,121.1771258,103.716162,305.6410674
4696.652,-13.2442188,-40.98356,14.328978799999998,0.5053502,0.2735018,0.210274,37.5807698,-46.3817436,-144.497351,36.861488,-24.22407620000001,-13.0318038,-0.89086,0.2256832,-0.4710536,159.59440320000002,58.7105414,161.67420980000003,45.39142160526284,0.6118800653063311,45.993511233643,1.0326935365514789,122.0136334,105.092285,306.17156080000007
4716.638,-11.174453,-14.050683600000005,5.7074476,0.5195886,0.2757197999999999,0.228462,37.4402342,-46.6805168,-144.6149048,31.162041999999985,-42.78827780000001,-16.243959,-0.9126258,0.2158492,-0.4522498,160.2332644,59.62404240000001,161.69796460000003,18.83786260655024,0.6310218750613958,55.36944809814721,1.0411563809372346,122.7930302,106.3045592,306.3128694
4736.624,-7.490430999999999,12.141362,-2.838512,0.542779,0.261167,0.223661,37.1969214,-46.4617698,-144.4791322,27.06998139999999,-60.71309040000001,-15.115757600000004,-0.9642482,0.2064092,-0.4473494,160.55264000000005,60.8739684,161.4466736,14.545665270277224,0.6425274217113228,68.17147032840701,1.082820776827006,123.3557186,107.3357382,305.92580580000003
4756.61,-0.8957402,37.8324852,-11.895729800000002,0.5597290000000001,0.2618268,0.2267636,36.9224814,-45.7233924,-144.11326,29.367628799999988,-68.64639660000002,-14.251825200000004,-0.9549498,0.1668552,-0.4303688,160.8089418,62.26873619999999,161.06753840000002,39.668724133613416,0.6582336643808187,76.01249837382296,1.0606540823004076,123.8864604,107.9921286,305.1807984
4776.595,5.217885600000001,62.2568734,-21.6691706,0.5617918,0.2721641999999999,0.2339318,36.6515884,-44.4752204,-143.5709688,36.11728379999998,-73.44634020000001,-13.1824342,-0.9046612,0.1424506,-0.4537094,161.1029084,63.7474106,160.5810698,66.12637575257108,0.6666389317765052,82.9011438359038,1.022035361361905,124.45132,108.222631,304.1520386
4796.581,11.1307536,85.2902344,-31.0377212,0.548931,0.2806019999999999,0.2519434,36.4058526,-42.7394272,-142.87838440000002,35.586655599999986,-72.74916,-13.9751346,-0.8687674,0.1418534,-0.457479,161.4485168,65.2182802,160.1616606,91.44210133740248,0.6659866379804927,82.18366458479889,0.9920515197485058,125.0426642,107.9577074,303.040045
4816.567,12.8590646,106.7525544,-38.9294846,0.5295102,0.3232996,0.29116,36.1226204,-40.548375,-142.04717399999998,26.614335799999985,-65.13979500000002,-16.7115642,-0.8744452,0.14494,-0.4319395999999999,161.81618039999998,66.5622896,159.97184120000003,114.35457220650852,0.6853304523105624,72.32421545186584,0.9860191831050752,125.69356,107.1106646,302.0190152
4836.552,11.0042848,126.7670166,-47.473178,0.5143288,0.3468766,0.2937541999999999,35.7630638,-37.9279984,-141.12469460000003,17.92012779999999,-57.4973292,-16.1643932,-0.916782,0.1368428,-0.4078798,162.08016659999998,67.7644136,159.8649778,135.81116821176332,0.6864029575654813,62.356727407920566,1.0127097899615072,126.3171028,105.69241200000002,300.9896724
4856.539,11.8810896,145.772998,-54.80439140000001,0.493247,0.3276392,0.2367488,35.411409000000006,-34.90853919999999,-140.1295682,11.117800799999989,-56.07389320000001,-14.015556800000002,-0.933876,0.133805,-0.3885798,162.0923858,68.92601340000002,159.64001739999998,156.18722275754706,0.637722543656001,58.858498329871736,1.020305063384986,126.68097679999998,103.8345526,299.7695856
4876.524,20.8254666,163.30180660000002,-60.384530600000005,0.4593891999999999,0.3000936,0.2616984,35.2435776,-31.5347572,-139.0559292,4.458442799999989,-53.329267400000006,-10.629581600000002,-0.9742142,0.130525,-0.3660814,161.7584502,70.0189302,159.1972714,175.3495698133128,0.6079314586367117,54.56075951279119,1.0488782934795629,126.5148726,101.5536874,298.2532006
4896.511,26.3277874,174.5721832,-62.7584708,0.373489,0.3541912,0.4674146,35.2193938,-27.9496688,-137.92283600000002,-2.126633600000011,-58.545849800000006,-7.542030400000002,-1.0353,0.1507528,-0.2938798,160.9227844,71.1940674,158.36999780000002,187.36922157533883,0.6952854432329214,59.06793818838892,1.0867096362671491,125.7033906,99.1437362,296.29283380000004
4916.507,20.4268524,183.5925628,-71.63444280000002,0.334783,0.427332,0.46326,35.162644799999995,-24.1238528,-136.86600620000002,-3.4842092000000107,-64.49331140000001,-1.8505464000000007,-1.0356318,0.1980528,-0.2605578,159.46894820000003,72.4396346,156.9279386,198.12869254529943,0.7136540638944053,64.61386423257233,1.0861162478758524,124.3063034,96.5634874,293.7939448000001
4936.481,20.6380494,193.248874,-77.9435814,0.3219526,0.3503658,0.3138878,35.175038,-20.067331,-135.8318082,-7.923801200000011,-68.83025060000001,4.745388999999999,-0.982487,0.2327652,-0.2160318,157.1186674,73.6905258,154.6578794,209.394981474636,0.5700308951673059,69.44716509604439,1.0325357534300108,121.9436294,93.7578568,290.4896876000001
4956.467,41.1480638,203.8264954,-79.414817,0.2653284,0.330594,0.3713856000000001,35.6548286,-15.8262058,-134.70724460000002,-17.44954340000001,-69.27319960000001,11.2220244,-0.9549098,0.2455404,-0.1714464,153.7102568,74.85355519999999,151.50375960000002,222.58732340517187,0.5635768062739276,72.31318399382039,1.000768046173118,118.0554282,90.679761,286.21100420000005
4976.453,49.93436440000001,204.8773742,-79.1265936,0.0523965999999999,0.5497508,0.8078758,36.3939818,-11.585933399999998,-133.54294099999998,-29.905241200000013,-69.841063,17.7084608,-0.9524676,0.2403595999999999,-0.1484886,149.1363616,75.89778140000001,147.41536860000002,225.23142991567224,0.978588092109157,78.01081409718324,0.9934868548158452,112.7423798,87.4837148,280.9583096
4996.438,20.564702000000004,201.8802458,-91.730046,0.003159,0.64473,0.6995978,36.646363,-7.249018199999997,-132.6000088,-37.61479680000001,-65.02538840000001,24.0973202,-0.9644458,0.2148896,-0.1514794,143.753134,76.71298379999999,142.6586944,222.69472816341957,0.9513799629726496,78.89141217963763,0.9996395600165892,107.106771,83.96200200000001,275.2587032
5016.424,15.122345200000009,199.9234404,-92.304225,-0.0371535999999999,0.4868564,0.5362478,36.8431518,-2.9388401999999987,-131.685165,-40.852496400000014,-58.599585000000005,26.5246962,-0.9841404,0.1553452,-0.1790302,138.0153366,77.3131212,137.6128996,220.7218550542083,0.7252387518733124,76.19972003089337,1.0122827028983752,101.1721848,80.2519614,269.2980646
5036.41,32.7250456,198.5825682,-86.0601912,-0.1688848,0.5291460000000001,0.6374498000000001,37.4678742,1.2684396000000018,-130.6565334,-39.44124760000001,-50.74256140000001,24.0193052,-0.9719902,0.0991608,-0.2299578,132.5973892,77.74117279999999,132.87137739999997,218.88883368461327,0.8454938275984516,68.61010546536147,1.003732236671474,95.129515,76.4727332,263.5279108
5056.396,28.3041794,192.2588562,-82.3713112,-0.3423828,0.7668944,1.0135634,38.1106652,5.318297000000002,-129.59359239999998,-36.490515600000016,-38.58370900000001,19.6958576,-0.9542726,0.0441041999999999,-0.2994126,128.1128602,77.988388,129.02708579999998,211.06782622571092,1.3163068670742244,56.64086100643249,1.001114019783541,90.002195,72.670091,258.6206782
5076.382,-3.3095365999999955,183.8990998,-86.9017816,-0.3396914,0.7481937999999999,0.8091412,38.17964020000001,9.2914456,-128.6790966,-33.30920880000001,-24.380581200000005,12.4027816,-0.9528364,0.003592,-0.35365,125.0240068,78.114302,126.546533,203.4250515177794,1.1532101678054352,43.101567511508094,1.0163554644556994,86.84436659999999,68.8228564,255.2256296
5096.368,0.3908296000000035,180.2582826,-78.81204319999999,-0.3913148,0.5924318,0.6642821999999999,38.3696098,13.1072156,-127.67216159999998,-31.10092480000001,-10.696619800000004,3.9120812,-0.9696798,-0.011262,-0.3708082,123.4043886,78.1898224,125.5251464,196.73469278964592,0.9723032199818736,33.12083298886671,1.038221781874798,85.0347788,65.0826068,253.197308
5116.355,13.643918800000003,176.470749,-68.8605892,-0.5180366,0.6867772000000001,0.7312678,38.9187638,16.735098400000002,-126.509152,-27.01119700000001,2.8193423999999943,-3.6196732,-0.9902172,0.0184546,-0.3617042,123.3656144,78.2138428,126.03364259999998,189.9206742769548,1.129060422075028,27.3980927988801,1.0543721372146744,84.44685059999999,61.4787444,252.5427946
5136.339,9.264383800000004,172.1392854,-65.51488900000001,-0.5722974000000001,0.7772376,0.8926994,39.4895812,20.2364484,-125.2795454,-20.67854560000001,15.048308199999994,-10.087397,-1.0079412,0.0381908,-0.352588,124.7710282,78.19193580000001,127.887729,184.417903322586,1.3147375478249947,27.49198803377224,1.0685140605560977,85.281447,57.9554874,253.1672744
5156.325,-5.077046999999995,163.7530182,-64.4023554,-0.608959,0.7171688,0.8182886,39.8558874,23.576106200000005,-124.0821226,-11.467190800000012,27.186777199999995,-16.089589,-1.0046792,0.0450648,-0.3489654,127.568982,78.099376,130.97756199999998,176.03548152834884,1.2468995084867105,33.607918613847026,1.0645130255233328,87.71309459999999,54.5232698,255.05968460000005
5176.31,-2.7638511999999955,160.7314208,-61.1955438,-0.6130646,0.5983988,0.5930641999999999,40.341438200000006,26.8205622,-122.8273894,-1.2652704000000117,37.61987379999999,-20.8743648,-1.0006588,0.0428146,-0.3549566,131.5048264,77.90492259999999,135.02462780000002,172.00907850116553,1.041947442501895,43.04178109368293,1.0626124937502666,91.1633882,51.0843604,257.85201720000003
5196.296,12.399173200000003,159.0153532,-53.2897744,-0.6736068000000001,0.6282738,0.610779,41.2704956,29.923584600000005,-121.3857252,7.898454199999989,45.98575519999999,-25.578455,-0.993433,0.0437624,-0.3541368,136.33787839999997,77.59336099999999,139.8059724,168.16486584589316,1.10522625539465,53.2102679964201,1.0555743205748234,95.0673828,47.6697764,261.1916976
5216.282,17.104968400000004,158.536212,-50.531638400000006,-0.7073652000000001,0.6684942,0.7109905999999999,42.4566574,32.9527522,-119.782817,11.449072799999987,52.3285934,-31.135094,-0.9805372,0.0134386,-0.3723945999999999,141.69312440000002,77.17454380000001,145.0586152,167.27150665508546,1.2053039678409097,61.957703585519205,1.048957355979241,99.236467,44.2217916,264.8414322
5236.267,10.841659800000002,155.35370160000002,-47.9455292,-0.7844823999999999,0.689476,0.7403816000000001,43.6817598,35.8587668,-118.03933860000002,11.796258199999988,59.61950519999999,-35.620576,-0.9620252,-0.0005461999999999,-0.3902839999999999,147.351831,76.59075619999999,150.62609260000002,162.9450458231512,1.2802166629537048,70.44474815332701,1.0381783972061256,103.67007119999998,40.7319894,268.66543120000006
5256.253,5.693013000000003,150.5782866,-47.0691772,-0.803899,0.6169684,0.5689306000000001,44.909794,38.6604638,-116.2307144,13.965817199999986,64.181237,-37.2332264,-0.9568290000000002,-0.0020853999999999,-0.3991304,152.8314604,75.8379288,155.97753,157.86620358612197,1.1621469943238334,75.50224090096691,1.0367406427541654,107.9216664,37.177465,272.2082444
5276.239,11.494769000000003,145.1981644,-39.7107842,-0.8559656,0.6170418,0.546788,46.4071152,41.2557664,-114.2547714,22.22186079999999,67.43697879999999,-35.6947524,-0.9667368,0.0046824,-0.3811058,157.9617552,74.91752460000001,160.810254,150.9688147972016,1.1884421770850275,79.47120582942938,1.0391552319733757,111.55464,33.6617582,275.0650254
5296.225,13.523257600000004,138.63403019999998,-36.4067258,-0.89313,0.6523481999999999,0.5696388000000001,48.0637116,43.673932,-112.1898454,33.75344039999999,68.729991,-33.1371584,-0.9835992,0.001083,-0.3810175999999999,162.6441406,73.86970960000001,164.9583282,143.97125584326494,1.244077060880346,83.43367227039167,1.0548189278920814,114.580429,30.195777600000003,277.1481736
5316.211,12.667054200000004,131.5595338,-35.3708812,-0.911483,0.6308344,0.5287018,49.824044,45.9362556,-110.0554672,47.030228999999984,69.5207412,-28.2087764,-0.987728,0.0208363999999999,-0.3675052,166.7483062,72.704988,168.2509094,136.81909381604453,1.228120064503304,88.5477891467371,1.0540876764178586,116.9242622,26.7687324,278.3063766
5336.196,14.426478000000005,125.366098,-33.570454,-0.91451,0.6059344,0.4743237999999999,51.7722006,48.035099,-107.8094986,55.39207999999999,69.5234208,-22.9688098,-0.9938742,0.0495527999999999,-0.3527702,170.1809692,71.44953000000001,170.6893584,130.58237697712585,1.195185384971637,91.811517741996,1.0557879613925891,118.4087686,23.414431,278.49885700000004
5356.182,16.391500000000004,124.1554108,-30.9567096,-0.9012764,0.6039288,0.4032023999999999,53.9841764,50.0139458,-105.333493,54.218184399999984,70.31222679999999,-20.4491756,-0.9981322,0.0739892,-0.3236253999999999,173.0137664,70.1287994,172.54191880000002,129.0021905721972,1.157411473950453,91.11305910749935,1.0518914820068843,119.02959,20.1148536,277.8754118
5376.168,19.8198016,124.9229324,-29.264112,-0.8834792,0.5913776,0.4110932,56.545653400000006,51.91978300000001,-102.568483,41.885955799999984,75.12360679999999,-21.4016342,-0.9610504,0.0641308,-0.3240908,175.332672,68.6903748,174.128253,129.82662217752906,1.1398511226035792,88.6341894437534,1.0162506961834958,118.7870186,16.770591799999995,276.696736
5396.154,21.6074198,126.2121552,-30.219097,-0.8751154,0.5898464,0.3758632,59.4342848,53.7778442,-99.51510299999998,21.455636199999987,84.805284,-21.58951,-0.916197,0.0681894,-0.3314238,176.9958068,67.039547,175.4707488,131.56588666572247,1.1202762534412485,90.10209465438362,0.9766823804532362,117.561522,13.261702799999998,274.9858518
5416.139,22.1426492,125.9037416,-31.173535800000003,-0.893008,0.5806642,0.3395267999999999,62.6035048,55.5497544,-96.1950774,-5.13912240000001,95.5282516,-22.93135,-0.915078,0.0590743999999999,-0.3448375999999999,178.0257446,65.1717666,176.72130120000003,131.58205955504613,1.1179949235769722,98.37633986694962,0.9796787744935174,115.4222398,9.6220122,272.91637860000003
5436.125,24.3785318,124.8223726,-32.454437199999994,-0.9086948,0.5386236,0.2450016,66.1014204,57.220678,-92.602246,-29.53162500000001,98.3746536,-24.4983162,-0.9504834,0.0530766,-0.3382662,178.5377594,63.248801400000005,105.951651,131.25634463973765,1.0843742001848624,105.59288253805651,1.0102771110965345,112.436339,6.028123400000001,198.553897
5456.111,32.9031906,124.4262268,-32.6622834,-0.948458,0.5257506,0.2081922,70.10209499999999,58.7618782,-88.6776688,-46.72248300000001,92.6701112,-22.5540376,-0.9547132,0.0496442,-0.3657166,178.5549988,61.4426598,35.0253326,132.7830208432045,1.104232884542568,106.20463520754576,1.0235675221319989,108.45290380000002,2.6807816000000018,123.70300140000002
5476.097,33.8611292,124.2275176,-34.947198199999995,-1.0013064,0.5387982,0.2034872,74.43617859999999,60.186258,-84.4389038,-57.95569240000001,76.78710199999999,-16.6764248,-0.9611102,0.0827552,-0.3731794,178.047635,59.947135200000005,-36.22672419999999,133.41798552589336,1.1551298834191936,97.6382325691728,1.0343326854815331,103.6114564,-0.2391227999999984,48.2121796
5496.083,28.456072,122.3614806,-36.2355042,-1.041977,0.5200396,0.1699842,78.932605,61.4737924,-79.9378328,-65.2897374,56.4351132,-6.244810600000001,-0.9714322,0.1264506,-0.3941574,177.010083,58.838459,-35.9175934,130.7481997310922,1.176882272084511,86.525542304499,1.0559499653922813,98.077478,-2.6353334000000004,44.0202394
5516.068,21.611970400000004,115.239047,-35.288510200000005,-1.0648186,0.4897771999999999,0.108087,83.3824678,62.57493899999999,-75.381589,-66.4708944,30.01708019999999,6.508541399999999,-0.9567302,0.1808518,-0.3831094,175.5012024,58.2257066,-36.1302338,122.44343253181933,1.1770315017512487,73.2240808561275,1.0463330547792324,92.1187346,-4.349232400000001,39.2513552
5536.054,15.253736600000002,101.662589,-32.8558872,-1.0814712,0.4801282,0.067066,87.4635348,63.4626296,-71.13229240000001,-63.518276,9.699408799999995,22.1327922,-0.9277064,0.2127422,-0.3825018,173.51408700000002,57.9769144,35.027206400000004,107.92343492561857,1.1851585941217655,67.95962336306812,1.025770946783462,86.0505522,-5.485715200000001,106.15949879999998
5556.04,5.867925600000003,83.80651220000001,-28.5006718,-1.0792266,0.478005,0.0198734,90.8677584,64.1317978,-67.4582064,-62.01853620000001,-4.892214200000006,34.833227,-0.9465672,0.233766,-0.3748862,171.1147584,57.9685838,105.6635894,88.7144426292991,1.1805142041500898,71.2992727550774,1.0445935428779367,80.247,-6.163214000000002,173.1217958
5576.025,0.3078424000000027,63.8353456,-22.7968344,-1.0653468,0.4798418,-0.0076574,93.4890596,64.5970626,-64.548089,-62.7532774,-13.813505600000008,44.3955418,-0.959768,0.2787434,-0.3499618,168.350473,58.0757028,175.8882384,67.78452458692692,1.168447941960719,78.10090199938878,1.0589267011114605,74.8614134,-6.521359800000001,240.4363274
5596.011,-1.9677295999999973,43.749564,-17.9487186,-1.0440434,0.4866134,0.006354,95.2699036,64.917201,-62.521061800000005,-59.8920638,-18.476728600000005,52.6246544,-0.9758494,0.2760574,-0.3448552,165.3602448,58.2016786,173.7836486,47.32919616210271,1.1518939167558444,81.84010665132816,1.071174518247218,70.0903412,-6.715522399999999,236.30471040000003
5615.997,-1.9407549999999976,24.590821,-13.937017,-1.0334446,0.4966138,0.0248539999999999,96.23665,65.150978,-61.3918724,-58.53531640000001,-18.38131880000001,56.89530179999999,-0.989977,0.269095,-0.345402,162.253711,58.256611,171.5132078,28.33223341500551,1.146843811918432,83.67395959190904,1.0824828502835506,66.01706099999998,-6.894367,232.9050802
5635.983,-1.0491945999999974,5.8526962,-9.6535524,-1.021794,0.5073040000000001,0.0320451999999999,96.403749,65.3194916,-61.1636932,-56.459638200000015,-17.925260400000006,57.0987166,-0.9976594,0.2661018,-0.3434372,159.1857514,58.2494706,169.2401396,11.337810020357075,1.1412480982218722,82.27556832650762,1.0881560350958126,62.78200239999999,-7.070021,230.4038328
5655.968,-1.815878599999997,-12.927072,-4.8312604,-1.0200612,0.5364713999999999,0.03982,95.7245422,65.4090744,-61.850354,-52.36179280000001,-14.742301400000006,54.5865912,-0.9743352,0.27751,-0.3204096,156.3228456,58.1467758,167.10971060000003,13.919327664644229,1.1532181264459036,77.06353699795055,1.0625456196470813,60.59830339999999,-7.262298599999999,228.9600646
5675.954,-7.800359799999998,-31.3841372,0.7489675999999996,-1.03399,0.5593448,0.057802,94.1086624,65.3927766,-63.435604,-49.02649480000001,-14.554795600000006,50.4912882,-0.967471,0.2733646,-0.3439062,153.63090540000002,58.03315200000001,165.10399160000003,32.34765267007375,1.1770059458605295,71.86660873749133,1.0625440295689397,59.52224299999999,-7.359624600000002,228.53959560000004
5695.94,-16.0470956,-51.56189020000001,8.4612774,-1.0589412,0.5723352,0.087362,91.4712998,65.202196,-65.9660948,-50.37368780000001,-17.821081400000004,44.589661,-0.9625336,0.2984394,-0.3456764,151.042798,57.9747886,163.2528564,54.66014099352605,1.20687868705205,69.59408906604222,1.065377482453182,59.57149819999999,-7.227407400000004,229.2189512
5715.926,-25.0188082,-73.1924676,17.4489226,-1.0898624,0.5923567999999999,0.1489792,87.7952088,64.7553262,-69.448133,-52.18618020000001,-16.950075600000005,41.0898342,-0.9244628,0.2925748,-0.3739928,148.5665406,57.8833946,161.57041020000003,79.29402863410478,1.2493524048372582,68.54981357593964,1.0392796046448327,60.7713318,-6.871931600000004,231.0185432
5735.911,-35.236667,-94.0134652,25.3628224,-1.1118534,0.6161237999999999,0.1968042,83.2532944,63.998929,-73.6817992,-55.43996220000001,-19.489538800000005,38.8542424,-0.8916717999999999,0.2987358,-0.3993976,146.070633,57.8030472,159.93534540000002,103.553981576154,1.2862963939759915,70.44915672917664,1.02168494165405,62.81733859999999,-6.195881800000004,233.6171446
5755.897,-43.1051704,-112.62450119999998,32.5806962,-1.1344668,0.6261532,0.2510492,78.1640762,62.8928346,-78.3845304,-60.97370320000001,-27.858855600000005,36.2961068,-0.8784364,0.3132566,-0.4256026,143.3958466,57.840290200000005,158.21362599999998,124.91531431589377,1.3198895601500604,76.23198597767441,1.025142809278434,65.2317704,-5.052544400000004,236.5981564
5775.883,-45.83403919999999,-130.2650742,39.1833732,-1.1521130000000002,0.6168062,0.3154082,72.8292298,61.4083574,-83.35054620000001,-66.65008780000001,-29.8987876,32.0985432,-0.855467,0.3061918,-0.4432568,140.6889862,57.918647,156.5776184,143.54471582419575,1.344357313274518,79.7902762199749,1.0109667636586674,67.85975640000001,-3.4897104000000025,239.9281646
5795.869,-45.8053778,-146.2006118,44.5399894,-1.1704926,0.6191154,0.3816262,67.5381402,59.5318612,-88.3375106,-66.77203620000002,-30.72847120000001,27.985698000000003,-0.8226276,0.2850308,-0.461725,138.07679760000002,58.0194124,155.0489654,159.55112717197312,1.3780404064098992,78.65076638616146,0.9854687721360836,70.5386574,-1.5124488000000014,243.386476
5815.855,-47.4474936,-159.3151274,47.9631462,-1.166967,0.6249692,0.4249306,62.485637,57.2870622,-93.1107864,-61.118136800000016,-34.2762954,22.196499,-0.8004073999999999,0.2742973999999999,-0.4735252,135.6310548,58.2244676,153.58807059999998,173.01166972433634,1.390310934594848,73.50493616151624,0.9695964029721644,73.14541779999999,0.9374053999999972,246.698857
5835.84,-48.41970739999999,-170.6828794,51.67728420000001,-1.163688,0.6242888000000001,0.4783096,57.8221094,54.677694,-97.5223832,-52.69891220000001,-34.17167440000001,17.535418,-0.7791482,0.2665574,-0.4824157999999999,133.4431458,58.4584068,152.2404266,184.79084145937568,1.4045235279629886,65.21019523661656,0.9543844975415516,75.62103640000001,3.7807127999999977,249.7628098
5855.826,-47.1079216,-181.7734922,55.1325318,-1.1458514000000002,0.598189,0.5250824,53.6164628,51.7295388,-101.5445726,-43.89039240000001,-22.484090000000005,12.0737662,-0.7290449999999999,0.249948,-0.5030614,131.80893859999998,58.59074940000001,151.34082940000002,195.7047643945676,1.395176346342182,50.770825071160125,0.9203539465330498,78.1924758,6.861210599999998,252.885402
5875.812,-42.1740022,-192.6566832,60.1092348,-1.1175039999999998,0.5903228,0.5798856,49.955674,48.432048,-105.1526032,-31.82126760000001,-16.124601200000008,12.9687366,-0.6871332000000001,0.2413072,-0.5241971999999999,130.51983339999998,58.613434,150.5708068,206.17556632984497,1.3905263418228364,37.95766015615335,0.8973092576151881,80.5641594,10.181385999999998,255.72341
5895.798,-38.252878,-202.647113,65.57098859999999,-1.0669993999999998,0.5897738,0.6214822,46.8181396,44.8075744,-108.3435304,-21.394472200000013,-8.103322400000007,9.820585,-0.649642,0.255414,-0.5312132,129.6894988,58.57210619999999,150.0984404,216.39937529599985,1.3684154996504678,24.89640866424594,0.8771878381591026,82.8713592,13.764531799999997,258.4419708
5915.788,-32.621466,-210.9967346,71.488022,-1.0010822,0.5897874,0.6674772,44.2143996,40.8869728,-111.1344392,-13.482352800000012,2.9358545999999945,5.402025399999999,-0.6457307999999999,0.2848104,-0.5352914,129.38305959999997,58.4534034,150.05532520000003,225.1539902940307,1.339977821038632,14.818061873209142,0.8857889776525557,85.16866,17.566430599999997,261.18976439999994
5935.769,-29.3088266,-217.7210754,77.60030379999999,-0.923019,0.6108610000000001,0.7186893999999999,42.0676588,36.7076714,-113.5489548,-7.007582200000011,16.524836799999996,-2.7217562,-0.6431176,0.302311,-0.5513248,129.7119262,58.2815178,150.6065094,232.9877274447168,1.31970818340812,18.154459407226355,0.8994171575224702,87.6442674,21.5738464,264.1554642
5955.755,-28.978695,-224.5504852,81.8516068,-0.8444904,0.6242106000000001,0.7731614,40.2443464,32.3054078,-115.6764114,0.9288907999999892,23.866441599999995,-9.7142422,-0.6714014,0.3215492,-0.55973,130.5133514,58.1129844,151.5304108,240.75375532522904,1.3040634414377543,25.78442115473597,0.9313814475512168,90.269005,25.8075766,267.20682220000003
5975.74,-30.909161399999995,-230.87090440000003,83.5141862,-0.748195,0.638449,0.7446846,38.6439168,27.7203938,-117.5940978,9.953942399999988,32.4528498,-20.4608726,-0.6910407999999999,0.3385572,-0.552535,131.92583919999998,57.9813078,152.9626098,247.44973237725168,1.2336806868485704,39.63477938625757,0.9473401137719653,93.2819224,30.260914000000003,270.55670760000004
5995.726,-28.7166882,-236.267938,85.09295060000001,-0.6560266,0.6410183999999999,0.7450846,37.3062514,22.9830366,-119.3379318,19.782135999999987,34.5744146,-28.770531000000005,-0.7268616,0.3436386,-0.5347462000000001,133.7756226,57.9238714,154.67682800000003,252.7607504138289,1.1817049336459926,49.1372211635655,0.9655924457963412,96.4693712,34.940834800000005,274.0147598
6015.712,-25.2793642,-241.6458464,86.34186120000001,-0.5522164,0.6268125999999999,0.7378544,36.22495120000001,18.11128,-120.9580932,31.843468599999987,27.676036599999996,-33.5337532,-0.7627592,0.3307038,-0.517734,135.83978580000002,58.0135542,156.35448,257.8501082648768,1.1145699186444429,53.893247239726,0.9793952701923162,99.6148346,39.9022742,277.3125732
6035.698,-21.462756199999998,-246.1995574,87.892142,-0.4382872,0.5933742000000001,0.7315138,35.3707672,13.1270856,-122.4798676,41.54601119999999,13.164475599999998,-35.2563106,-0.7946761999999999,0.3310398,-0.487807,137.83374940000002,58.3183364,157.7194426,262.29735147920326,1.0388941478802929,56.05695230368123,0.9894712129614888,102.46298219999998,45.1912508,280.1993102
6055.683,-16.0045072,-248.4433684,90.4540714,-0.3335572,0.6035908,0.7119598,34.7855058,8.0518772,-123.8870012,49.09054779999999,0.0342167999999951,-33.670977,-0.8210599999999999,0.3308888,-0.4446212,139.6678588,58.774253,158.7175598,264.88146516034163,0.9911957507639548,59.52829366131718,0.9906134125151344,104.882353,50.7223758,282.604561
6075.669,-12.460697199999997,-249.373465,92.5849962,-0.2484058,0.5836870000000001,0.7192689999999999,34.40998939999999,2.925637,-125.2084002,51.83691399999999,-8.208717800000006,-30.7205238,-0.8618492,0.3172773999999999,-0.411557,141.3339018,59.3015312,159.448227,266.2975319866302,0.9590327678466676,60.81282170323787,1.006393638861256,106.9239124,56.37589419999999,284.6566272
6095.655,-13.8517232,-249.848044,94.8367174,-0.1467286,0.5616009999999999,0.6958932,34.1235376,-2.2378570000000004,-126.4615938,54.49119559999999,-12.615685400000004,-27.50668940000001,-0.8900257999999999,0.3045236,-0.3654989999999999,142.90225500000005,59.849309600000005,159.9995362,267.6002957648642,0.9061966183258464,62.33028058477922,1.0091927797123796,108.7787174,62.0871666,286.46113
6115.641,-16.819583399999996,-249.1218842,96.77054,-0.0689684,0.5413186000000001,0.6757860000000001,33.887573399999994,-7.418900400000001,-127.65607,57.4429656,-11.102646000000004,-20.630817600000004,-0.9318286,0.305724,-0.3369252,144.37142319999998,60.2894036,160.3714874,267.78563999027165,0.8686018562612678,62.03703474513082,1.0369620505828552,110.4838498,67.70830400000001,288.0275574
6135.627,-20.8344706,-247.7842714,98.3418656,0.0114434,0.5049537999999999,0.6075518,33.6754122,-12.6079746,-128.8041366,57.44645379999999,0.9845305999999944,-14.367134600000004,-0.9290252,0.3084362,-0.3001232,145.90850519999998,60.4585082,160.8237428,267.3990329976898,0.7900813130439422,59.22397243779234,1.0238626113320672,112.233093,73.06648279999999,289.62787940000004
6155.612,-25.652964399999995,-245.9542634,98.5296112,0.1014955999999999,0.4471826,0.588946,33.45462740000001,-17.7696024,-129.9299148,60.3778382,10.178809199999996,-7.6841642,-0.9428322,0.2997582,-0.2709522,147.4985688,60.3939764,161.2678864,266.19477558804084,0.74641210164233,61.71011166646796,1.0257692871737387,114.0439414,78.16357880000001,291.1978012000001
6175.598,-35.6429216,-241.656598,96.5998582,0.1846184,0.4332244,0.5277794,33.1370812,-22.8438034,-131.05058580000002,63.88537759999999,16.005712799999994,-4.797165800000002,-0.9482916,0.2918894,-0.2471864,149.17791160000002,60.1804228,161.735315,262.6782477126293,0.7073319089637339,66.03436312287228,1.0225250592566817,116.0408304,83.0242262,292.78590080000004
6195.584,-42.772529,-234.6087006,90.4176514,0.2634826,0.3514912,0.4267478,32.791302599999995,-27.7468622,-132.21494439999998,64.69666299999999,24.2350502,-3.1775872000000023,-0.9225286,0.3103768,-0.2409085999999999,150.9550326,59.788558,162.29961559999998,255.0413364907112,0.612440061544834,69.15990834251944,1.0027111894010956,118.16373,87.5354202,294.51456
6215.57,-41.3212366,-224.4901032,85.1139466,0.3542708,0.2807506,0.387785,32.555687,-32.436732,-133.3763062,61.84207239999999,34.165685999999994,-2.265982400000002,-0.8581056,0.32692,-0.2813354,152.7843294,59.2001166,162.9906496,243.61370021968688,0.5955719145141081,70.68854712621095,0.9604017463772752,120.22864239999998,91.6368486,296.3669558
6235.555,-35.88867,-210.8071106,76.9449814,0.3904584,0.2824444,0.3804756,32.506490400000004,-36.8096106,-134.56133440000002,58.97612459999999,33.057725399999995,-2.508353600000002,-0.8645844,0.2830684,-0.3231902,154.5320772,58.6320358,163.650641,227.262325686718,0.6139986021297442,67.65565992021038,0.9654459120934532,122.0255868,95.4416464,298.21197540000003
6255.541,-32.9473934,-193.113672,67.79826440000001,0.4111284,0.2757044,0.2826626,32.5919312,-40.7943808,-135.7577668,52.11442099999999,29.707810199999997,-8.974323200000002,-0.9121912,0.2567436,-0.34337,156.2616274,58.17114879999999,164.45336,207.30418640449656,0.5700330015926096,60.65480475562115,1.007925105550209,123.6696962,98.9655296,300.2111268
6275.527,-24.8913234,-171.9893326,59.842461400000005,0.455877,0.2156105999999999,0.2457747999999999,32.857139600000004,-44.335884,-136.8994326,48.857156199999984,26.347068799999995,-11.459060400000002,-0.9345814,0.2722304,-0.3830327999999999,157.924054,57.77479939999999,165.2601806,183.79616071944292,0.5609964547805983,56.67891858137361,1.0460716561430965,125.0669144,102.1106834,302.1596132
6295.513,-15.798069599999996,-145.954187,52.576235200000006,0.4829306,0.2366544,0.235178,33.2485938,-47.3567878,-137.89835820000002,50.99429139999999,23.867288999999992,-8.258402200000003,-0.8953374000000001,0.2101726,-0.4562549999999999,159.47477120000002,57.3821846,165.8870726,155.93737272932083,0.586971857195658,56.905768130257215,1.0266305112622165,126.2261774,104.7389724,303.7854308
6315.498,-14.731510799999995,-116.7483514,44.49379,0.4627036,0.2779018,0.2020862,33.53274760000001,-49.7951552,-138.68847039999997,50.68907379999999,16.454835999999993,-12.091245000000004,-0.8764832,0.1351714,-0.480255,161.0238892,57.1479506,166.5208312,125.80497730071136,0.5763357217166397,54.64743393919577,1.0085330794204026,127.4911416,106.94310579999998,305.2093016
6335.484,-16.531936599999995,-87.097995,35.3118268,0.4785058,0.2567984,0.1747049999999999,33.636225,-51.63498059999999,-139.2612212,49.42386399999999,7.038744999999994,-17.016481400000004,-0.9116014,0.1728786,-0.4867059999999999,162.5852538,57.1109594,167.20499560000002,95.42688705349056,0.5704691542066057,52.74298913696555,1.047753240632507,128.9490288,108.74594,306.4662168
6355.47,-12.857847599999996,-56.644326600000014,26.264295600000004,0.5078735999999999,0.2371721999999999,0.1633435999999999,33.6119666,-52.86662739999999,-139.5616454,43.98772059999999,-10.746154200000008,-13.180559200000005,-0.9436218,0.1964141999999999,-0.4857348,163.7777342,57.3866688,167.5811402,63.747291740406304,0.5838384859623078,47.16064603563596,1.07932336921236,130.16576759999998,110.2532962,307.1427856
6375.456,-3.6324619999999967,-25.9118364,16.656529999999997,0.5129414,0.2596272,0.1590738,33.5541358,-53.479442600000006,-139.58039839999998,42.74000559999999,-32.955195,-11.158995800000003,-0.942712,0.173855,-0.4799756,164.70278,58.070509,167.6707124,31.01706042555788,0.5965061916361304,55.111488307252905,1.0720578587764562,131.14864419999998,111.5499516,307.25111080000005
6395.441,5.073768600000003,3.129238000000001,6.7566028000000005,0.5156292,0.2637618,0.1842952,33.4692284,-53.501838,-139.3451934,44.83390679999999,-57.1551874,-12.895895400000004,-0.9411262,0.1629496,-0.4637222,165.514038,59.236836,167.5809694,9.010379551603686,0.6077898319114264,73.7773594258289,1.061748263591441,132.0448096,112.73867400000002,306.92616280000004
6415.427,11.456117600000002,30.0272872,-5.480995999999999,0.538041,0.249004,0.2203,33.3849616,-52.9383774,-138.952591,42.115008799999984,-77.404447,-10.6143746,-0.963585,0.1822286,-0.429598,166.0250396,60.7742972,167.2084932,32.60248340553722,0.6324738727386294,88.75690018105077,1.0706342776536533,132.640078,113.7126746,306.1610842
6435.413,16.424752200000004,57.1958228,-18.1064896,0.55327,0.2614225999999999,0.2182599999999999,33.2929764,-51.78455660000001,-138.420984,42.10509739999999,-88.77089079999999,-5.338341800000002,-0.955978,0.1365498,-0.4364595999999999,166.2629212,62.5031242,166.5232728,62.20112214611013,0.6496821502017429,98.39516336519104,1.0597342906578988,132.9699448,114.2876808,304.94425680000006
6455.399,21.021813400000003,83.4323248,-30.7619218,0.5618171999999999,0.2526564,0.2169294,33.2217216,-50.0528084,-137.7871126,52.42090999999999,-86.87067880000001,-5.041158200000003,-0.8774900000000001,0.1012956,-0.4463073999999999,166.68757639999998,64.1979546,165.825653,91.37376698476665,0.6530943172782626,101.58680975598308,0.9896665064425088,133.46585480000002,114.250763,303.61276560000005
6475.384,26.9696456,107.7186868,-42.315701,0.5587428,0.2457078,0.2518056,33.223816,-47.787944800000005,-137.0717776,60.0173478,-75.4635178,-2.9477318000000023,-0.8200862000000001,0.083739,-0.4716827999999999,167.28425620000002,65.6673952,165.1571654,118.83305861934,0.6602816821054783,96.46509046521344,0.9497569475225124,134.06044020000002,113.45534,302.228943
6495.37,30.4736998,130.1053484,-53.3326744,0.5334812,0.278557,0.2763926,33.282584400000005,-45.02493059999999,-136.3027194,53.70055459999999,-64.473378,-3.399253200000002,-0.8424386,0.1095438,-0.4646015999999999,167.88707300000002,66.9245134,164.6385252,143.87641300936826,0.6622605698191611,83.97690728644497,0.9682754182622628,134.60448860000002,111.949444,300.9412446
6515.356,30.322642800000004,149.99145679999998,-63.424179800000005,0.5066022,0.3011245999999999,0.2908426,33.3519364,-41.8207246,-135.5039156,48.89645099999999,-54.3129448,-4.126128200000002,-0.9002768,0.0851157999999999,-0.4414992,168.5516146,68.0034136,164.29259,165.64880428987522,0.6571995372371773,73.19688399902063,1.0063123568895098,135.19967820000002,109.8241382,299.79650560000005
6535.342,31.328924200000007,166.73294700000002,-71.9869592,0.4836964,0.2892673999999999,0.3182292,33.4471588,-38.2491152,-134.67347120000002,48.379465,-51.935939600000005,-3.781904800000002,-0.9368106,0.0684425999999999,-0.395525,169.2093934,69.0560564,163.95789159999998,184.29188642394604,0.6472307624088646,71.07895089080407,1.0191852213371817,135.7622346,107.3051716,298.6313628
6555.327,35.682352800000004,182.340024,-79.40937199999999,0.4535866,0.3057847999999999,0.3044875999999999,33.651808200000005,-34.337107,-133.81072079999998,44.14603159999999,-57.31638240000001,0.8228595999999981,-0.9757662,0.0957068,-0.3604714,169.42581479999998,70.20150459999999,163.253955,202.0568311517792,0.6260653689227348,72.35134342479441,1.0446143301939907,135.7740066,104.5386116,297.0646758
6575.313,40.7824748,194.9414584,-85.0869384,0.398691,0.3159425999999999,0.366629,33.992887,-30.157302800000004,-132.91386100000005,32.87960179999999,-69.1097342,6.511199399999998,-1.0256072,0.1449058,-0.2840698,168.816165,71.55439,161.92723999999998,216.57601330760747,0.6270494905641499,76.80897924948471,1.0740407212194143,134.823278,101.7116928,294.84110100000004
