Timestamp (ms),Wrist Gyroscope X (deg/s),Wrist Gyroscope Y (deg/s),Wrist Gyroscope Z (deg/s),Wrist Accelerometer X (g),Wrist Accelerometer Y (g),Wrist Accelerometer Z (g),Wrist Roll (deg),Wrist Pitch (deg),Wrist Yaw (deg),Arm Gyroscope X (deg/s),Arm Gyroscope Y (deg/s),Arm Gyroscope Z (deg/s),Arm Accelerometer X (g),Arm Accelerometer Y (g),Arm Accelerometer Z (g),Arm Roll (deg),Arm Pitch (deg),Arm Yaw (deg),Wrist Gyroscope Magnitude (deg/s),Wrist Accelerometer Magnitude (g),Arm Gyroscope Magnitude (deg/s),Arm Accelerometer Magnitude (g),Difference Roll (deg),Difference Pitch (deg),Difference Yaw (deg)
0.0,-2.557548,-2.726595,-1.096634,-0.962956,0.06709,0.221418,12.214367,75.620956,-102.044502,4.551974,3.983701,-1.16675,-0.969172,-0.171625,0.111098,-58.512207,78.021576,-70.013,3.895892477505636,0.9903591554380664,6.160490769133332,0.9905010206016952,-70.726574,2.4006199999999893,32.03150199999999
19.985,-2.7226155,-1.752084,-0.9426435,-0.963519,0.057465,0.238842,12.141067,75.611553,-102.099079,3.760783,3.1774285,-1.136456,-0.981993,-0.1700055,0.1155105,-58.5853575,78.0261915,-70.119026,3.37209286230206,0.994342290436246,5.052828206622233,1.003272045703208,-70.72642450000001,2.4146384999999952,31.980052999999995
39.971,-3.0321106666666666,-2.2892506666666663,-1.336885,-0.964341,0.0506866666666666,0.2494999999999999,12.005837,75.58503966666667,-102.204221,2.516484333333333,2.5601866666666666,-1.1428703333333334,-0.974545,-0.1736786666666666,0.108873,-58.675696,78.02584833333333,-70.22145066666667,4.027607877260714,0.9973830520210264,3.767413139928157,0.9958692516636464,-70.681533,2.44080866666666,31.98277033333333
59.956,-3.63813375,-3.34798175,-1.81867675,-0.9681655,0.04841475,0.2489545,11.8195815,75.54352375,-102.34407225,0.5642965000000002,2.7840652500000003,-1.6374255,-0.96730575,-0.1689952499999999,0.10292475,-58.8595915,78.02483375,-70.38717650000001,5.268072142844352,1.0008330362643223,3.2788126088906124,0.98733647388729,-70.67917299999999,2.481309999999993,31.95689575
79.942,-4.817134,-4.1490822,-2.1911006,-0.9735072,0.0514772,0.252135,11.5985058,75.4912522,-102.4962616,-1.3483823999999998,2.967032,-1.9075188,-0.9731078,-0.1741046,0.106191,-59.0917748,78.0197022,-70.574443,6.724625262097004,1.0069449979004217,3.776247073220607,0.9942473186501436,-70.69028060000001,2.528449999999995,31.9218186
99.928,-6.751283599999999,-6.3529674,-2.8449344,-0.9814138,0.0473316,0.2767466,11.1412816,75.3639208,-102.81931,-3.873274,2.9841548,-2.4469298,-0.974038,-0.1808564,0.1016184,-59.541777,78.0083314,-70.95453339999999,9.697096306286488,1.0207849958735484,5.467622590812855,0.9958842111829668,-70.6830586,2.644410599999998,31.86477660000001
119.913,-8.8828748,-12.224919,-4.2669654,-0.9918288,0.0476158,0.2957142,10.4712854,75.1183138,-103.3128586,-7.7904796,4.7054402,-3.480287,-0.9577748,-0.1755774,0.0831515999999999,-60.2917526,78.0010836,-71.55964359999999,15.702264263278504,1.0360687819834744,9.743979550274169,0.9772789670756042,-70.763038,2.882769799999997,31.753215
139.899,-11.681433,-21.4846378,-6.3728398,-1.0095421999999998,0.0516134,0.3240948,9.5301954,74.68546620000001,-104.028218,-14.409899,8.5040638,-5.073605800000001,-0.9490202,-0.1641936,0.0692686,-61.571772,78.0070162,-72.5706146,25.271696133167275,1.061544552069031,17.48444354614882,0.9656070718646173,-71.10196739999999,3.32155,31.457603400000004
159.884,-14.9891266,-34.8083596,-9.566492,-1.02439,0.0518486,0.3453064,8.256856599999999,73.98882,-105.0219726,-23.1488402,14.303497399999998,-6.837274600000001,-0.9372352,-0.1708828,0.0515078,-63.6354972,78.02132739999999,-74.2019194,39.08725602366843,1.0822659836209023,28.057212342510937,0.9540774627438382,-71.8923538,4.0325074,30.8200532
179.87,-13.969046400000002,-50.8796596,-13.3240142,-1.0451854,0.0387354,0.3560262,6.735913600000001,72.9805938,-106.2925948,-31.4737924,23.187645,-8.0711434,-0.9212654,-0.1663724,0.0326336,-66.72192759999999,78.0657748,-76.70708920000001,54.418777758592,1.104838271727025,39.91753805619388,0.9367361766089106,-73.45784119999999,5.085181,29.5855056
199.855,-7.248130800000001,-67.5072926,-17.0513038,-1.0597886,0.03184,0.3536306,5.168199199999999,71.655368,-107.7518798,-38.548468,35.0808308,-6.937587000000001,-0.9267708,-0.1672692,0.0218617999999999,-71.0376908,78.1732576,-80.3232544,70.00369215659855,1.117685225609751,52.58116761871898,0.9419984285021498,-76.20589,6.517889599999998,27.4286254
219.84,3.852092,-81.23523420000001,-19.6918708,-1.0634296,0.0298814,0.3695236,3.7829836,70.05953219999999,-109.2571822,-40.565834,47.9781594,-2.6998386000000005,-0.9482412,-0.1948291999999999,0.0188957999999999,-76.614406,78.3465836,-85.1845778,83.67658970052022,1.1261985185477204,62.88703996844989,0.9682338776389308,-80.3973896,8.2870514,24.0726044
239.826,17.470561600000003,-91.6431978,-21.139987,-1.0430042,0.0232738,0.3843638,2.7386084000000004,68.255365,-110.698413,-35.6030426,61.52448879999999,2.8627792,-0.9535708,-0.22929,0.0136798,-83.45998080000001,78.5403824,-91.4398742,95.65874385538152,1.1118160647042836,71.1409507191652,0.980845712454655,-86.1985892,10.285017399999996,19.2585388
259.811,33.9053044,-97.6720446,-20.498855,-1.0173196,0.0252967999999999,0.4251378,2.213524,66.3177652,-111.954222,-24.3272388,74.6159158,9.7176164,-0.9564846,-0.239622,0.0090049999999999,-91.4119386,78.7075134,-99.052774,105.40209210026184,1.102869550592109,79.08085423667643,0.9860844704923406,-93.6254626,12.389748199999998,12.901447999999998
279.813,45.207627200000005,-100.6046038,-18.2603818,-0.9754898,0.0453702,0.4849802,2.1540658,64.2991312,-112.9802474,-12.2393794,85.35173119999999,16.43811,-0.9700912,-0.2424622,-0.001924,-100.2056748,78.77068779999999,-107.7705092,111.79649997334856,1.0903415058338923,87.77774141151215,0.9999342761013246,-102.35974059999998,14.471556599999996,5.209738199999998
299.783,48.6931336,-101.62027,-14.753072800000002,-0.9321106,0.0538106,0.5509098,2.3849096,62.2373726,-113.7827758,-2.001229200000001,92.2030046,21.0902288,-0.9820414,-0.2401708,-0.018705,-109.3711258,78.64561619999999,-117.0795638,113.64573767503316,1.0840790372665454,94.6054793678194,1.0111563684770026,-111.7560354,16.4082436,-3.2967880000000003
319.768,46.5142834,-102.399161,-9.639069,-0.8960498000000001,0.057816,0.6013615999999999,2.7911394,60.14555800000001,-114.3577392,4.622558199999999,95.16409,21.0642656,-0.982457,-0.2321922,-0.0398322,-118.2551346,78.2515946,-126.2458572,112.88081495500552,1.0806866834983209,97.5770226800748,1.0103076653904393,-121.046274,18.106036600000003,-11.888118
339.754,39.8149922,-102.780205,-2.6645486,-0.88116,0.0638058,0.6409926,3.3051167999999995,58.03961019999999,-114.669983,8.3379266,93.8330354,21.780654,-1.001506,-0.2254762,-0.0716704,-126.3999406,77.6397552,-134.7476166,110.25472308690384,1.0915061332710871,96.68793327521465,1.0290726072724896,-129.7050574,19.600145000000005,-20.0776336
359.739,30.9075628,-103.37083,4.8287748,-0.8708821999999999,0.0599784,0.6607544,3.8529564,55.9234526,-114.7379136,9.0255678,89.27670760000001,19.8733,-1.0276408,-0.2194856,-0.1119777999999999,-133.3507538,76.83545219999999,-142.0593324,108.00056943921156,1.0948194334513617,91.90614477225284,1.056767983109273,-137.20371020000002,20.91199960000001,-27.321418800000004
379.725,25.4732466,-105.0779512,11.2842614,-0.8674558000000001,0.0546344,0.6746884000000001,4.4440036,53.7797012,-114.62329100000002,9.4111948,82.4196184,18.1598472,-1.027191,-0.2056996,-0.1655656,-139.0252716,75.9161804,-148.0884218,108.70877000535664,1.100304012403645,84.919633390003,1.060587405084805,-143.4692752,22.136479200000007,-33.465130800000004
399.71,24.131771,-107.983693,16.2705652,-0.8647682,0.0626819999999999,0.6859488,5.1104216,51.58617019999999,-114.3892884,8.677155999999998,74.9416558,16.900021799999998,-1.0085528,-0.1737374,-0.219977,-143.6172822,74.95743239999999,-153.0055238,111.8371656357677,1.1055671979019095,77.31206598671702,1.0467823628030803,-148.72770380000003,23.371262200000007,-38.61623540000001
419.696,24.9317698,-111.968692,19.3963072,-0.8524537999999999,0.072673,0.7054554000000001,5.824116200000001,49.3172982,-114.1138536,5.458330599999999,66.8993494,17.9460764,-1.0001304000000002,-0.141296,-0.2690202,-147.49498899999998,74.05124500000001,-157.1319886,116.3391501883516,1.1088851011049792,69.47933492224011,1.0452737653974675,-153.31910520000002,24.733946800000005,-43.018135
439.681,27.7964762,-117.4118454,21.288732000000003,-0.8201784,0.088566,0.7365068000000001,6.578916,46.9339844,-113.853598,0.0509803999999988,57.522738,16.854492599999997,-0.9887926,-0.1120876,-0.2964494,-150.7146972,73.2329482,-160.47579660000002,122.52100081022228,1.1058837238285044,59.941153699451625,1.0383432393235292,-157.29361320000004,26.298963800000003,-46.6221986
459.667,29.6699266,-123.7268662,22.987162,-0.7849532,0.1101863999999999,0.7789116,7.340937599999999,44.413562,-113.6250534,-5.0293192000000015,47.1449372,16.14102,-0.9746074,-0.0990182,-0.3071522,-153.38961479999998,72.5549818,-163.155896,129.29443754831965,1.1113036711672286,50.084645170429546,1.0266482659756653,-160.7305524,28.1414198,-49.53084259999999
479.652,28.4283102,-130.6715318,25.5920182,-0.7452184,0.1236856,0.8268766,8.0573002,41.7401236,-113.4108292,-9.229431600000002,35.816512,14.7797144,-0.97497,-0.109271,-0.305945,-155.5236236,72.0432584,-165.1932434,136.1549464372667,1.119988170907836,39.83020081860986,1.0276716379106705,-163.5809238,30.3031348,-51.78241419999999
499.637,25.2804716,-137.7850878,28.7665208,-0.7018632,0.1333322,0.8626115999999999,8.7025758,38.9131148,-113.1939864,-10.644966200000002,22.0971216,13.3140476,-0.9845132,-0.1257566,-0.2993428,-157.0917448,71.7533124,-166.6164154,143.0082004058122,1.1200393740961252,27.908098321085845,1.0366711510067403,-165.7943206,32.8401976,-53.42242899999999
519.623,21.072471,-144.36541160000002,32.5530636,-0.6683826,0.1404892,0.8930795999999999,9.2664004,35.948676199999994,-112.9554456,-9.3444872,6.851618399999997,11.4744858,-0.9972352,-0.1329081999999999,-0.289031,-158.0859038,71.72497539999999,-167.4686798,149.48285202734428,1.124305869074586,16.307297142830997,1.0467480846446675,-167.3523042,35.776299200000004,-54.5132342
539.609,17.0443406,-149.803406,35.6233644,-0.637213,0.1442604,0.9167826,9.7429044,32.875643000000004,-112.707231,-6.561645800000001,-8.578459600000004,9.4133696,-1.0145478,-0.1227014,-0.2829164,-158.54279160000002,71.969403,-167.8145568,154.92125124354254,1.1257627663233138,14.32678233029643,1.06037944219782,-168.285696,39.09376,-55.10732579999999
559.594,14.0866184,-153.6884432,37.3611466,-0.6106096000000001,0.1529816,0.931816,10.144355399999998,29.7339652,-112.469583,-5.198377000000001,-24.523931600000004,9.3890698,-1.0390080000000002,-0.1151334,-0.2750182,-158.5949034,72.514499,-167.76402279999996,158.79050874171773,1.1245125661399789,26.76940373383165,1.0809386357193456,-168.73925880000002,42.7805338,-55.2944398
579.579,11.3490458,-156.5640962,37.8615272,-0.5877302,0.1567571999999999,0.9449436,10.4650992,26.5513374,-112.2619322,-5.411047400000002,-39.209498,8.8401988,-1.0504278,-0.0976568,-0.2748256,-158.26552420000002,73.32678680000001,-167.30835259999998,161.4763521429986,1.1237962515175248,40.55629768852887,1.0901672000268767,-168.7306234,46.7754494,-55.0464204
599.565,7.8697598,-158.75551460000003,38.1319708,-0.5560037999999999,0.1566494,0.9656652,10.6923728,23.3364704,-112.080377,-8.6838168,-51.809256600000005,7.016449999999999,-1.0520136,-0.094552,-0.2632796,-157.4775238,74.35409560000001,-166.310263,163.46037358428055,1.125250433737237,52.9984746409093,1.0885719282918884,-168.16989660000002,51.0176252,-54.229886
619.55,5.2998022,-160.6339874,37.5468588,-0.5172939999999999,0.1616974,0.9834772,10.8444284,20.0967534,-111.934889,-13.2320698,-61.9563744,5.0341082,-1.0572752,-0.0983116,-0.2489173999999999,-156.1673432,75.5424226,-164.68411559999998,165.0488788726831,1.1229276621949429,63.5533023953465,1.0906217911138398,-167.0117716,55.4456692,-52.7492266
639.536,2.6584306,-162.569992,36.086620800000006,-0.4751573999999999,0.1631534,0.9904578,10.9199908,16.834983200000003,-111.8371106,-18.0128388,-69.9296304,3.91875,-1.0533528,-0.0905294,-0.2352894,-154.30416580000002,76.850206,-162.3994568,166.54823251208066,1.1105855393832391,72.31854652216047,1.0831014704470492,-165.2241566,60.01522279999999,-50.5623462
659.522,1.0317124,-165.6406738,34.4055676,-0.4195149999999999,0.1597422,0.9975888,10.9417724,13.5232726,-111.7910306,-22.6056984,-76.1020578,1.4606002,-1.0336746,-0.0756988,-0.2144458,-151.5561342,78.2204528,-159.12764579999998,169.17931412933584,1.0939350161555663,79.40197827819243,1.058395241931973,-162.49790660000002,64.6971802,-47.3366152
679.507,-0.1817568,-169.15914,32.8909716,-0.3497298,0.1626329999999999,0.9977228,10.9298662,10.1470288,-111.788983,-27.0211758,-81.4038394,-1.1586668000000002,-1.0137094,-0.0747888,-0.1708796,-147.4409882,79.6146516,-154.3928588,172.32719951843342,1.0696780877146546,85.77920213798284,1.0307278738590318,-158.37085439999998,69.4676228,-42.6038758
699.492,-0.7701336,-172.8171478,31.3739276,-0.2781194,0.1657978,0.9910704,10.9012208,6.7018656000000005,-111.828839,-29.26077,-85.5959734,-3.260217,-1.0011678000000002,-0.083247,-0.1340074,-141.3395844,80.9593614,-147.6222136,175.6436250267539,1.0426216230720329,90.5179116980363,1.0135210950052298,-152.2408052,74.2574958,-35.79337460000001
719.478,-2.317043,-177.1169556,29.5999622,-0.207503,0.1674062,0.9832432,10.840403,3.1774548,-111.916806,-27.255899600000003,-88.429213,-5.0742154,-0.9766998,-0.0774578,-0.092257,-132.66243279999998,82.166066,-138.312599,179.58825800011996,1.018748998111743,92.67339120119782,0.9841003831672256,-143.5028358,78.98861120000001,-26.395793000000005
739.463,-3.4226216000000003,-181.672934,27.6023816,-0.1446704,0.1713778,0.9778192,10.7662226,-0.4275791999999999,-112.056392,-23.0170904,-90.0962952,-6.750047599999999,-0.9621204,-0.0856418,-0.0464375999999999,-121.044371,83.11778580000001,-126.145613,183.78971885493803,1.0032099794448022,93.23460731857878,0.9670401401685248,-131.8105936,83.545365,-14.089221
759.449,-7.287347800000001,-186.0961426,26.0932116,-0.0821038,0.1685212,0.9726952,10.6250286,-4.1131788,-112.23507080000002,-17.259475000000002,-90.382402,-7.167554,-0.9599862,-0.1082774,-0.0050631999999999,-107.0270996,83.701491,-111.6950806,188.0577980838872,0.9905939536091064,92.29432213797416,0.9660865052030486,-117.6521282,87.8146698,0.5399901999999998
779.434,-10.3671002,-190.0448456,24.2107596,-0.0197776,0.1604408,0.9599294,10.4368818,-7.868891400000001,-112.454483,-8.5051336,-89.51340160000001,-6.5375958,-0.9674859999999998,-0.1261943999999999,0.0281822,-91.823468,83.8622742,-96.2344728,191.8610981572181,0.9734458673962102,90.15390464312075,0.9760883275524812,-102.2603498,91.7311656,16.2200102
799.42,-13.0646986,-193.7411804,22.0644266,0.0382282,0.1601701999999999,0.9563152,10.2177508,-11.6868664,-112.7188462,0.9558850000000008,-87.1808288,-5.6632312,-0.9838218,-0.1195818,0.0683421999999999,-76.8791122,83.6006988,-81.22465760000001,195.4307300643401,0.9703889168752496,87.3698049328988,0.9934162256311904,-87.09686300000001,95.2875652,31.4941886
819.405,-17.128609599999997,-196.4402192,19.559861,0.1055628,0.1543628,0.925224,9.9474768,-15.5550216,-113.0313844,7.908209600000001,-83.9220902,-4.4239028,-0.9909856,-0.1245354,0.101453,-63.5031936,82.9760086,-67.9248606,198.15331727859763,0.9439336994427522,84.40988045601247,1.0039194372406186,-73.4506704,98.5310302,45.106523800000005
839.391,-21.3435586,-197.7332032,17.595226399999998,0.1819512,0.1414338,0.8937144,9.6209306,-19.454893,-113.3736938,13.9072026,-78.97257240000002,-3.7846246,-0.9920794,-0.143538,0.1299034,-52.7023718,82.08668660000001,-57.3246248,199.6586064599054,0.922949179387056,80.27702572338875,1.0107915644087655,-62.3233024,101.5415796,56.04906900000001
859.376,-24.1954702,-197.7906708,15.6635284,0.259937,0.1302536,0.8610308,9.2647364,-23.364312,-113.7387818,20.8084082,-74.38898940000001,-4.9744,-1.001577,-0.150831,0.1612606,-44.59724799999999,81.0204298,-49.564283,199.87975474182136,0.9087944117514148,77.40449761564984,1.0256273487979737,-53.8619844,104.3847418,64.17449880000001
879.362,-29.1842572,-196.301642,15.1926974,0.3294292,0.1270328,0.8196196,8.8254884,-27.2565156,-114.0899872,28.1221226,-69.55054960000001,-7.1338138,-0.9909042,-0.1684848,0.1856216,-38.7136112,79.8700758,-44.1795624,199.0398793571275,0.8924333133588414,75.3592995490574,1.0221221256754205,-47.5390996,107.1265914,69.91042480000002
899.365,-35.6627766,-193.8251436,15.5539114,0.3901306,0.1065062,0.7613006,8.2429604,-31.115664,-114.3896316,39.0813538,-64.4129358,-9.5832592,-0.9644202,-0.1926098,0.1984696,-34.4393962,78.6963316,-40.6324556,197.6915377203111,0.8620464368322394,75.94878122860221,1.0032921007105755,-42.682356600000006,109.8119956,73.757176
919.333,-37.7467412,-190.5299988,16.7509186,0.4453976,0.0901698,0.71325,7.587935,-34.9260164,-114.60874780000002,53.5602378,-59.65313200000001,-11.238138,-0.9621498,-0.20212,0.2122284,-31.110689200000003,77.540431,-38.3282418,194.95407199617964,0.8457157781535118,80.95363473191935,1.005796016002549,-38.6986242,112.46644740000002,76.28050599999999
939.318,-39.6469032,-186.1569092,18.2712188,0.4848724000000001,0.0899932,0.6717104,6.8609814,-38.65545519999999,-114.7376038,67.3923156,-54.75133680000001,-11.469554399999998,-0.9658108,-0.1923146,0.2209642,-28.2483502,76.451007,-36.773706,191.2069800312862,0.8333035952137493,87.5841524560899,1.0092574421085236,-35.109331600000004,115.1064622,77.9638978
959.304,-43.2355482,-180.7210206,19.0414028,0.5142132,0.0843358,0.6163524,6.0225144,-42.2835412,-114.7802536,77.590158,-47.5672456,-10.7850406,-0.9428642,-0.1681324,0.2149554,-25.7193938,75.4974852,-35.76577,186.79393709500317,0.8071047163792565,91.64710891882696,0.9815636645478276,-31.7419082,117.78102640000002,79.0144836
979.289,-45.546207200000005,-174.4683624,18.8370666,0.5434804,0.0715376,0.5854752,5.0836416,-45.78386859999999,-114.7392396,80.5561674,-38.9729546,-10.4413688,-0.9493726,-0.1360362,0.2110804,-23.5693362,74.7106094,-35.208252599999994,181.2967223833236,0.8020410109295908,90.09555748674904,0.982022971526308,-28.6529778,120.494478,79.53098700000001
999.275,-46.2775984,-167.57992860000002,18.3884094,0.565732,0.0683384,0.534042,4.0664118,-49.149409000000006,-114.6089372,75.08687419999998,-29.970632400000007,-10.2222828,-0.9576108,-0.109791,0.2098484,-21.870008,74.101648,-35.0048224,174.82214443117553,0.7809761139129416,81.49093538072641,0.9864628015998372,-25.9364198,123.251057,79.6041148
1019.26,-49.0099378,-159.01619580000002,18.3205616,0.5876688000000001,0.0665318,0.4897357999999999,2.8987612,-52.3448008,-114.3599,62.8002798,-18.5756818,-9.774843,-0.9425188,-0.0981556,0.201374,-20.7607676,73.713498,-35.158121400000006,167.4030092537264,0.7678686428721517,66.21539589074273,0.968776392177679,-23.6595288,126.05829880000002,79.20177860000001
1039.246,-51.0311438,-149.87625140000003,17.785745600000002,0.6208574,0.0448333999999999,0.4335358,1.5640466,-55.36640179999999,-113.9717514,47.6563238,-5.436346200000003,-10.434061599999998,-0.9080728,-0.0858194,0.1943112,-20.342375,73.5669692,-35.7158242,159.3216906695388,0.7585692023618941,49.08715412008824,0.9325867369642568,-21.9064216,128.933371,78.2559272
1059.231,-49.172277,-139.719333,18.583717,0.6553492000000001,0.0315851999999999,0.3990270000000001,0.0840177999999999,-58.1846346,-113.381871,30.645289800000008,8.507254999999997,-11.8711236,-0.9173322,-0.0867912,0.1940434,-20.7261806,73.668892,-36.7532914,149.28080712826318,0.7679210542293264,33.94747045197162,0.9416389534412009,-20.8101984,131.85352659999998,76.6285796
1079.217,-47.37674019999999,-129.0507554,19.4247776,0.6889894000000001,0.03031,0.3498964,-1.5444996,-60.7924798,-112.5897628,16.522831200000002,22.503235799999995,-12.0888818,-0.9111008,-0.0820844,0.1828991999999999,-21.8116942,74.0256256,-38.2248026,138.83794497938376,0.7733385934668722,30.422699346186658,0.9328958322581574,-20.2671946,134.81810539999998,74.3649602
1099.202,-46.4337012,-116.704979,18.7447642,0.7362255999999999,0.0288744,0.3069036,-3.3150452,-63.1407562,-111.63276820000002,5.338461199999999,35.90907779999999,-11.7723232,-0.9193544,-0.0715374,0.1585398,-23.567469,74.61898640000001,-40.1559076,126.99412157826411,0.7981551758672495,38.16475638538278,0.9356628562586848,-20.252423800000003,137.75974259999998,71.47686060000001
1119.188,-44.3850784,-103.3653916,16.5288496,0.7789258,0.0194336,0.275815,-5.130674600000001,-65.21800160000001,-110.5977264,-5.5695332,47.2926214,-12.327659,-0.9228974,-0.041244,0.139053,-26.0843548,75.39785599999999,-42.6444582,113.69978994833242,0.826545208043456,49.18925609693565,0.9342250345991376,-20.9536802,140.6158576,67.9532682
1139.173,-41.4337166,-89.6891732,14.263432,0.8153410000000001,0.0120837999999999,0.2517865999999999,-6.930762400000001,-67.0153428,-109.5280884,-16.896915200000002,56.4039702,-14.4273662,-0.9384858,-0.0340829999999999,0.1259756,-29.624749,76.28098759999999,-45.944259800000005,99.82157158153412,0.8534186876574711,60.622293696852,0.9475162792722877,-22.6939866,143.2963304,63.5838286
1159.159,-38.1329182,-75.13329100000001,11.5524768,0.8567286,0.0033487999999999,0.2117677999999999,-8.6528672,-68.51469879999999,-108.4853288,-25.894941,63.1485098,-16.3599268,-0.932213,-0.0397437999999999,0.1088918,-34.2801972,77.19085679999999,-50.189847,85.04463879136128,0.8825195236572616,70.1849660843085,0.9393923946438356,-25.627330000000008,145.70555559999997,58.29548179999999
1179.144,-34.0601988,-59.5142516,9.1350344,0.8993891999999999,-0.010354,0.1752696,-10.2428416,-69.6965316,-107.51102,-33.5914186,66.16312860000001,-18.9787174,-0.938594,-0.049191,0.1006133999999999,-40.0278326,78.0173386,-55.381022,69.17725160262445,0.9163665047767732,76.5906959352742,0.9452520867877308,-29.784991,147.7138702,52.129998
1199.13,-28.0511148,-45.21146,7.5605746,0.926445,-0.0380456,0.1591292,-11.6274938,-70.5930084,-106.634665,-38.9121748,65.3648078,-21.3647396,-0.941801,-0.0615502,0.098798,-46.5387514,78.6932084,-61.23115859999999,53.74107781889515,0.9407815410588156,79.01371744559614,0.9489671203603632,-34.911257600000006,149.2862168,45.403506400000005
1219.116,-20.3540926,-30.9764408,7.0352478000000005,0.957674,-0.0663243999999999,0.1469358,-12.7813348,-71.20327599999999,-105.8469818,-40.3425886,61.8144806,-22.81143,-0.9466978,-0.0968644,0.0920406,-53.455671800000005,79.18440100000001,-67.45630059999999,37.72696226590055,0.971148055464768,77.25875876197809,0.9560810156888168,-40.674337,150.387677,38.3906812
1239.101,-13.5163772,-16.002147400000002,6.8488422,0.978998,-0.0816675999999999,0.1335486,-13.6558626,-71.51463620000001,-105.2125916,-38.7599584,56.83259119999999,-22.908162,-0.958053,-0.1262947999999999,0.0752125999999999,-60.4107088,79.475885,-73.74380819999999,22.03787225447383,0.991434268852817,72.5055976038698,0.9692640829592314,-46.7548462,150.9905212,31.468783400000007
1259.087,-9.1676742,-1.0203021999999995,5.987169,0.9895258,-0.0930004,0.1289973999999999,-14.2096058,-71.5309936,-104.825032,-35.4695704,50.4687866,-22.8249678,-0.9686534,-0.1361148,0.0627804,-66.9547372,79.5586992,-79.67603919999999,10.996975013667688,1.002222885626027,65.773611732274,0.9801826496805378,-52.745131400000005,151.08969280000002,25.14899280000001
1279.072,-3.948292,13.3236108,4.072599800000001,0.9922514,-0.1176426,0.1220676,-14.361061799999998,-71.27239240000002,-104.7521224,-32.0001142,42.69233799999999,-21.7633302,-0.9753328,-0.145487,0.0632898,-72.6055726,79.480867,-84.77155780000001,14.480803969327832,1.0066295848555615,57.62191921581159,0.9881528913629104,-58.24451079999999,150.7532594,19.9805646
1299.057,4.0244386,28.920067,2.2919344,0.995156,-0.136088,0.129843,-14.0533972,-70.7149308,-104.996205,-28.7839494,32.86161599999999,-18.581562,-0.9753764,-0.1710534,0.064599,-77.010019,79.32798160000002,-88.666408,29.288553132982894,1.0127756971457205,47.47289748428107,0.9923665744721152,-62.95662179999999,150.04291240000003,16.329797000000003
1319.043,10.4145078,43.6441376,0.2940846,0.9785138,-0.1422798,0.136205,-13.3345564,-69.8686844,-105.540094,-24.0456922,21.676930799999997,-15.5196876,-0.9820344,-0.1942936,0.0638288,-80.035582,79.1346788,-91.25618,44.870471418472434,0.9981405714144076,35.90188498514699,1.003103026360583,-66.70102560000001,149.00336320000002,14.283914
1339.029,16.6730776,58.0887842,-1.9036706000000003,0.9592732,-0.1465248,0.147541,-12.2682582,-68.739563,-106.323436,-18.3793926,9.285343799999994,-12.671543,-0.9788928,-0.2034052,0.0603144,-81.55495,78.919536,-92.4294436,60.46422353957004,0.9815512905265216,24.178248154694376,1.0016199958698109,-69.2866918,147.65909900000003,13.893992399999998
1359.014,23.4829696,72.36608220000001,-4.236629000000001,0.9353752,-0.1563378,0.171199,-10.9191972,-67.3336312,-107.2710022,-13.1513094,-4.381183600000005,-10.8305484,-0.9745626,-0.2068158,0.0563363999999999,-81.527179,78.6800934,-92.1337482,76.19874499947701,0.9636790804437336,17.591261674939062,0.9978571172334042,-70.60798179999999,146.0137246,15.137254
1379.0,30.821088,86.16533380000001,-6.579606000000001,0.9083786,-0.1622415999999999,0.1978428,-9.354363199999998,-65.65456320000001,-108.3047624,-9.740922,-18.18165700000001,-9.3596386,-0.9736554,-0.2164166,0.0448045999999999,-80.1390396,78.4132982,-90.517943,91.7479995939116,0.9437244254655912,22.650850919962,0.9984229739373388,-70.7846764,144.0678614,17.7868194
1398.985,34.857477200000005,99.1862688,-9.7099604,0.8757078,-0.1455462,0.2234742,-7.6784240000000015,-63.7187462,-109.3888476,-7.045596000000001,-29.008155400000003,-9.292423199999998,-0.9736758,-0.2167758,0.0405878,-77.8101166,78.0926056,-87.9927324,105.58050466910991,0.9154171537506384,31.26439878893665,0.9983404632088796,-70.1316926,141.81135179999998,21.3961152
1418.971,35.1803204,112.243622,-13.9602358,0.8434744000000001,-0.1147064,0.2452131999999999,-5.9666106,-61.5250046,-110.525963,-5.1338808,-43.455464000000006,-10.7103334,-0.9843582,-0.2229788,0.0546621999999999,-74.4033646,77.6284516,-84.39783179999999,118.45325578774585,0.8858533372463865,45.04936542353356,1.0107762201721606,-68.436754,139.1534562,26.128131199999995
1438.956,31.08988680000001,124.7634722,-19.6120384,0.8112636,-0.103643,0.2755872,-4.31147,-59.0793816,-111.7200944,-2.9744208,-57.71527780000001,-6.914988199999999,-0.9763834,-0.2226146,0.071564,-69.910012,77.0772888,-79.72464440000002,130.06589524867795,0.863040442237674,58.204102367726506,1.0039936304701935,-65.59854200000001,136.1566704,31.995449999999995
1458.941,26.5591608,136.6735262,-24.2971392,0.7640058,-0.0847666,0.3186094,-2.7796254,-56.3849756,-112.9074372,-0.0028254000000004,-66.5700684,-0.0881679999999995,-0.9818064,-0.2379779999999999,0.0930633999999999,-64.74759739999999,76.50106360000001,-74.41600100000001,141.3343297279416,0.8321070776514041,66.57012684650516,1.0145137416440055,-61.967972,132.88603919999997,38.4914362
1478.927,18.342718,147.4529282,-27.5236406,0.7218064,-0.0485439999999999,0.3522572,-1.486575,-53.4775696,-114.0377486,7.5291478,-70.89498440000001,7.0388660000000005,-0.987018,-0.2646014,0.1103556,-59.2013908,75.9192046,-68.85697400000001,151.11708086864255,0.804640375552209,71.64029951247025,1.0278116518396354,-57.7148158,129.3967742,45.1807746
1498.912,8.1935912,158.1110596,-31.162256000000003,0.6771496,-0.0257885999999999,0.4023324,-0.4560234,-50.3434708,-115.1329756,20.0984386,-66.25863260000001,14.265577400000002,-0.9583566,-0.2555138,0.117527,-53.673406,75.43868560000001,-63.566650200000005,161.360863605761,0.7880786716818824,70.69413219451205,0.9987728823326152,-53.21738259999999,125.7821564,51.5663254
1518.901,2.3578036,166.1449614,-32.4785688,0.6090542,-0.0418695999999999,0.4688632,0.344383,-47.0321968,-116.12816,30.9752488,-51.46609120000001,18.9270716,-0.9489424,-0.2301696,0.1458434,-48.9243254,75.1319838,-59.2993078,169.30612767327708,0.7697615099860735,62.9798270955085,0.9872892284459908,-49.2687084,122.16418059999998,56.82885220000001
1538.884,2.681596,172.3687896,-30.9934292,0.5436683999999999,-0.0154767999999999,0.5434188,1.0010062,-43.5789046,-116.9633926,36.6491382,-30.492695200000004,16.3435296,-0.9236138,-0.2344275999999999,0.1737766,-45.5823386,74.98952919999999,-56.5993148,175.1535989891492,0.7688425408952343,50.39915427017479,0.968616052881512,-46.5833448,118.5684338,60.3640778
1558.869,3.5835660000000003,175.75164479999998,-29.9521024,0.4825605999999999,0.0071494,0.6014276000000001,1.5606638,-40.04888820000001,-117.6768296,40.3097178,-13.993300600000008,11.6171318,-0.9013724,-0.2230894,0.1779263999999999,-43.4204596,74.97385999999999,-55.193183,178.321650489675,0.7711232097625386,44.22265892114776,0.9454622613785704,-44.9811234,115.0227482,62.48364660000001
1578.854,8.611203,177.2896912,-30.780076399999995,0.418546,0.013101,0.7033822,2.1474132,-36.464898600000005,-118.3277468,37.002887,2.797028399999994,3.256950400000001,-0.893122,-0.1371678,0.1941976,-42.677883,75.06709579999999,-55.1884992,180.1477186258222,0.8185956936081693,37.25110387778107,0.924226498260356,-44.8252962,111.5319944,63.1392476
1598.84,14.0276504,176.7797486,-30.6161786,0.364569,0.0377734,0.782357,2.7604906,-32.8794128,-118.896451,17.744992200000002,12.888623799999994,-6.622159599999998,-0.930276,-0.113907,0.207695,-43.3367592,75.16407919999999,-56.238237600000005,179.95889775971324,0.8639559369305589,22.90970033422217,0.959961173095037,-46.0972498,108.043492,62.6582134
1618.825,17.016842200000003,176.4676028,-31.4890618,0.3362246,0.0817926,0.834852,3.3882258,-29.2847812,-119.4221558,-5.5707954,20.248444799999994,-14.036947199999997,-0.940142,-0.1217341999999999,0.18389,-45.289137200000006,75.2582412,-58.1407974,180.0609584820721,0.9037227854624004,25.260030975889475,0.9656612903671972,-48.677363,104.5430224,61.2813584
1638.811,21.5516246,174.6523928,-32.614287000000004,0.3071378,0.0856574,0.8776882,4.0625166,-25.7190128,-119.912526,-21.5825988,24.580246799999998,-16.3056342,-0.9895544,-0.1221563999999999,0.1699396,-47.96746520000001,75.3641922,-60.4623648,178.97380408926662,0.9338133618570896,36.54956648682554,1.0114442961767494,-52.02998180000001,101.083205,59.4501612
1658.797,26.8500224,171.84714079999998,-33.2256208,0.288306,0.099522,0.9388919999999998,4.8048432000000005,-22.2022436,-120.36099099999998,-33.100001400000004,30.926801799999996,-17.9001396,-1.012758,-0.1381606,0.1760308,-51.3580116,75.488565,-63.28226540000001,177.07711704667238,0.9871895288058924,48.70823503224042,1.037185595978367,-56.162854800000005,97.6908086,57.0787256
1678.782,25.3275116,169.34516319999997,-31.883047600000005,0.2478999999999999,0.1518653999999999,0.9446616,5.4656408,-18.739282,-120.729213,-38.093189,34.78714119999999,-16.731663599999997,-1.0142104,-0.2089178,0.1583134,-55.09821000000001,75.6268844,-66.35711219999999,174.17174244792588,0.9883840590740628,54.23269132066029,1.0475364028254863,-60.5638508,94.3661664,54.3721008
1698.768,23.7103652,166.18574840000002,-29.647251600000004,0.1935374,0.1514024,0.9466904,6.0413404,-15.3366072,-121.0083894,-29.3816168,38.7955792,-13.5011336,-0.9871533999999998,-0.2441384,0.1521722,-58.8615568,75.80112139999999,-69.63285379999999,170.46654779345766,0.9780603894324112,50.50402934153436,1.0282177648431092,-64.9028972,91.1377286,51.3755356
1718.753,25.228291,161.9280244,-26.007594,0.1490555999999999,0.1341258,0.9743818,6.5892334,-12.0282004,-121.1778932,-16.1270492,41.4188004,-9.339909399999998,-0.981272,-0.258395,0.1505717999999999,-62.4205932,76.0178222,-72.9700286,165.93235579155896,0.9948000775473632,45.41841752058815,1.0258336029611428,-69.0098266,88.0460226,48.2078646
1738.739,23.7189974,158.3014162,-22.2440824,0.0784386,0.1755472,1.0007916,7.0825174,-8.8048058,-121.2460496,-5.9265394,41.34320139999999,-8.890861999999998,-0.9779142,-0.2572654,0.1293524,-65.84765780000001,76.19868,-76.3785996,161.6067090513411,1.0190943332333666,42.701658028275176,1.019428129877021,-72.9301752,85.00348579999999,44.86745
1758.724,15.0126668,155.6122408,-19.1893182,0.004738,0.2048816,0.9746738,7.383586199999999,-5.647133,-121.2349748,-0.2291227999999999,39.46555779999999,-7.052988799999999,-0.9691286,-0.2354902,0.1049686,-69.041198,76.3673934,-79.661902,157.50803022140127,0.9959859110795696,40.09148788378333,1.0028381148619951,-76.42478419999999,82.0145264,41.5730728
1778.71,10.305634199999998,152.1153932,-16.3677038,-0.0377436,0.1610356,1.0023514,7.577121,-2.5598816,-121.163019,-0.3461300000000005,36.48799919999999,-5.418988399999998,-0.9702336,-0.2157569999999999,0.1065475999999999,-71.9557282,76.5163666,-82.6567048,153.34014696855925,1.015906183114504,36.88982687510792,0.9996282872566784,-79.53284920000002,79.0762482,38.506314200000006
1798.695,8.252027,148.988254,-12.4532068,-0.0805688,0.1696003999999999,1.0171776,7.735698000000001,0.4540721999999998,-121.0115938,-4.120655400000001,32.213435,-6.353267399999998,-0.9825516,-0.2291498,0.0918504,-74.67786860000001,76.5839752,-85.37400819999999,149.73536035012177,1.034362555951906,33.09152764803518,1.0130911970216503,-82.4135666,76.129903,35.6375856
1818.68,2.3689078,147.1647248,-9.4685946,-0.1381658,0.2101042,1.0116356,7.801627600000001,3.4204722,-120.799158,-4.8110944,28.473353999999997,-6.548979199999998,-0.984641,-0.2352728,0.060865,-77.1927732,76.5994232,-87.86112840000001,147.4880409840872,1.0424203328478585,29.61026250976272,1.0141872300151682,-84.9944008,73.17895100000001,32.9380296
1838.666,-5.2996942,145.87065420000002,-8.5381562,-0.1502308,0.1814964,0.994419,7.723277,6.3509456,-120.5713854,-4.194031600000001,23.792637399999997,-3.3174441999999984,-1.0030494,-0.2060392,0.0660244,-79.2577558,76.6416184,-89.8992494,146.2163965724949,1.021948816743089,24.38616270612887,1.026118644296243,-86.98103280000001,70.2906728,30.672136
1858.651,-5.4792498,144.30084200000002,-5.8511294000000005,-0.1890687999999999,0.1598702,1.0322804,7.659929,9.2441726,-120.2958666,-5.7869048,15.532031799999997,-1.5664083999999987,-1.0234527999999998,-0.2125168,0.073801,-80.6305938,76.6729278,-91.1946762,144.52332301582092,1.0615593795005722,16.648901293360613,1.0478862589570872,-88.29052279999999,67.4287552,29.1011904
1878.637,-7.2336596,143.15681139999998,-3.1133942,-0.2480868,0.170703,0.9948928,7.589892600000001,12.1105654,-119.9691484,-3.7750182,9.731846799999994,-0.7121543999999985,-0.9956588,-0.2536011999999999,0.0549378,-81.51161959999999,76.685614,-92.0236648,143.37326007616772,1.0394701814073743,10.462636782304962,1.0289160201531125,-89.1015122,64.5750486,27.9454836
1898.622,-10.484011999999998,142.6027128,-0.9183370000000004,-0.3036767999999999,0.1637668,0.9678858,7.48257,14.9674566,-119.5993164,1.9727058,6.348648599999994,1.4113942000000017,-0.9931852,-0.2492859999999999,0.0433434,-81.9819292,76.7300812,-92.547795,142.99052957584638,1.027541768242109,6.796244610623515,1.02490926506623,-89.4644992,61.7626246,27.0515214
1918.608,-11.6421656,141.88072499999998,-0.0145800000000003,-0.352188,0.1404964,0.9556256,7.369688399999999,17.81318,-119.2135482,4.685668,0.5193565999999942,3.850292800000001,-1.003881,-0.2111978,0.055066,-81.84227480000001,76.8239442,-92.5030806,142.35757921150474,1.0281030654230734,6.086868696622213,1.0273333622743106,-89.2119632,59.0107642,26.710467600000005
1938.593,-12.8034988,139.92161259999995,2.1453516,-0.4241769999999999,0.133937,0.9566138,7.2576132,20.625362000000003,-118.7890624,3.6093382000000007,-4.711039400000006,4.415008200000001,-0.9804628,-0.2256903999999999,0.0508996,-81.2637072,76.91252139999999,-91.9858396,140.52255971050946,1.0549764024130777,7.396858243632827,1.0073898094164742,-88.52132040000001,56.28715939999999,26.803222800000004
1958.579,-15.330891599999998,137.51145939999998,2.8112924,-0.4652228,0.1085574,0.8941424,7.1063946,23.3975486,-118.3608198,4.0748956,-6.1212840000000055,3.0849702000000017,-0.9449691999999998,-0.2435642,0.0450766,-80.5940142,76.9525758,-91.3835692,138.39198339689727,1.013759140137518,7.974455034323253,0.9768941643483392,-87.7004088,53.5550272,26.9772506
1978.564,-13.2205914,136.1473938,3.9728946,-0.5102452,0.101025,0.8766171999999999,7.027794399999999,26.145775200000003,-117.9074812,5.4344606,-6.225524000000005,2.695304800000001,-0.9624608,-0.2242263999999999,0.0446641999999999,-79.9056674,76.9806626,-90.78965300000002,136.84546308519236,1.0193203275143097,8.692248216222975,0.9892437317240074,-86.9334618,50.8348874,27.1178282
1998.55,-13.605978,135.6087342,2.8935698000000003,-0.539835,0.0941724,0.8809486,6.949212,28.872611,-117.4741484,4.557489800000001,-7.730286000000005,3.4740536000000013,-0.9755748,-0.2057876,0.0590308,-79.0623538,77.02682200000001,-90.0203096,136.32029993676736,1.0374780498828493,9.62273782946273,0.9987889477048894,-86.0115658,48.154211,27.4538388
2018.536,-14.7065132,135.0809998,2.9267372000000003,-0.574204,0.076759,0.8674631999999999,6.861185000000001,31.582913,-117.0394882,4.221391,-8.088397800000006,3.076664200000001,-0.9772858,-0.2287612,0.0708029999999999,-78.18193240000001,77.04760900000001,-89.2066134,135.91072006323577,1.0431177215689704,9.62850889522815,1.0061969421122687,-85.0431174,45.464696,27.832874799999995
2038.521,-14.4603702,134.860138,3.5862046,-0.6158772,0.0696307999999999,0.811971,6.8097374,34.2906148,-116.5807892,6.3534508,-8.482683000000005,0.8931568000000014,-0.9647384,-0.2563706,0.0668674,-77.2964176,77.0031832,-88.4296818,135.68058074438343,1.0214940423857009,10.635787559738864,1.0004585519458964,-84.10615499999999,42.7125684,28.151107399999997
2058.506,-14.24758,135.247516,3.3367894,-0.6666012,0.0730596,0.791364,6.7856436,37.0038698,-116.114766,9.7804678,-5.813281600000006,-1.4279119999999983,-0.9591516,-0.23503,0.0507824,-76.663225,76.9388582,-87.97989679999999,136.0368269386147,1.0372809867579758,11.466940569632314,0.9888325160674682,-83.4488686,39.9349884,28.1348692
2078.492,-14.1047202,135.88393560000003,1.1387320000000003,-0.6980698,0.0641094,0.7859428,6.7511968,39.723237000000005,-115.6925568,11.168051,-4.190801000000006,-1.3498163999999988,-0.9822793999999998,-0.2057496,0.0622225999999999,-76.1022844,76.90174719999999,-87.63482839999999,136.6187534587879,1.0531464977448484,12.004589975251593,1.0055234306147618,-82.85348119999999,37.17851019999999,28.0577284
2098.478,-11.9118548,136.859375,0.3302260000000002,-0.7247256,0.0602453999999999,0.7708174,6.7727834,42.4530298,-115.273935,11.951054199999998,-5.721589000000006,-0.4884897999999985,-1.002731,-0.2137384,0.0794974,-75.3547562,76.8688324,-87.11546639999999,137.3771809995313,1.0597245716030557,13.259068574412106,1.028335255936662,-82.1275396,34.41580259999999,28.1584686
2118.463,-13.9059214,138.3665954,0.2008014000000001,-0.7467002,0.0552077999999999,0.7339662,6.7863152,45.2076418,-114.8262634,15.141010599999998,-7.879022800000007,-1.4319637999999988,-0.9767016,-0.24799,0.0881776,-74.403012,76.7976226,-86.4511094,139.06376125278837,1.0484824617528516,17.128330992736643,1.011543545619426,-81.18932720000001,31.5899808,28.375154
2138.449,-14.9330194,139.1927062,-0.3487375999999998,-0.785317,0.0467051999999999,0.700736,6.808777600000001,47.9777758,-114.3575852,21.733536800000003,-6.524997400000006,-3.2351205999999992,-0.957981,-0.2539514,0.0833444,-73.5062422,76.699861,-85.9774734,139.9918788558606,1.0535345784035948,22.92134852497788,0.9945678453148984,-80.3150198,28.7220852,28.3801118
2158.434,-12.142911,138.8906676,-1.1096653999999997,-0.8255776000000001,0.0375862,0.6702312,6.8989606,50.7472612,-113.8820496,27.946379200000003,-5.521109400000006,-3.012697399999999,-0.9634372,-0.2406342,0.0880294,-72.5574416,76.6206024,-85.5791168,139.4248872734978,1.0640493209929889,28.645402860161138,0.9969278970005,-79.45640219999999,25.8733412,28.3029328
2178.42,-9.0789972,136.7455246,-1.2314757999999997,-0.8654148000000002,0.0414088,0.6407594,7.0813816,53.4707452,-113.3794128,31.57706,-4.731195200000007,-3.286689199999999,-0.9545614,-0.2380971999999999,0.0838527999999999,-71.61935860000001,76.54242860000001,-85.2658736,137.05211862985848,1.077603857391407,32.09824375509507,0.9873748199572644,-78.7007402,23.0716834,28.1135392
2198.405,-8.4482112,132.4184616,-1.2325138,-0.9057062,0.0399644,0.6031696,7.310854600000001,56.1095062,-112.8395706,32.7732238,-1.994847400000006,-6.664025999999998,-0.9262374,-0.2536636,0.076543,-70.99470040000001,76.405159,-85.297586,132.69340727880066,1.0889051567285188,33.50332605761477,0.9633897310915868,-78.305555,20.2956528,27.541984600000006
2218.391,-5.0163828,125.7498184,-1.8803296,-0.947296,0.044256,0.5592744,7.635112599999999,58.623326,-112.29290620000002,31.6396112,3.882313199999994,-9.7954344,-0.9149362,-0.2334293999999999,0.0596216,-70.96832260000001,76.23863979999999,-85.91958299999999,125.8638810915735,1.1009614705553326,33.34798176434015,0.946124870216062,-78.6034352,17.615313800000003,26.373323200000005
2238.376,1.0592540000000004,117.5006636,-3.215148,-0.9794404,0.0529448,0.5462090000000001,8.077753,60.9725432,-111.7679306,24.9289484,9.429614999999991,-11.433417,-0.9290652,-0.1980896,0.0448386,-71.5325316,76.08652040000001,-87.011824,117.54941574562925,1.122698054100122,29.001605674065296,0.9510058546240184,-79.6102846,15.113977200000004,24.756106600000003
2258.362,4.2962958,106.634172,-4.3283288,-1.0007402,0.0686799999999999,0.5454148,8.5578392,63.0903998,-111.2951416,13.042879600000004,14.556072399999994,-12.8414064,-0.9440116,-0.2015238,0.0326814,-72.7426268,75.93162980000001,-88.5247528,106.80842301020829,1.1417859669636337,23.385843373804136,0.9658352948649992,-81.300466,12.841230000000005,22.7703888
2278.347,4.3765776,93.3075102,-5.3877696,-1.0222124,0.0767016,0.5461758,8.972061199999999,64.9398146,-110.9086396,-0.998096799999999,20.05533339999999,-15.6340454,-0.9458472,-0.2214378,0.0201185999999999,-74.7006392,75.7338072,-90.5190552,93.5653458951262,1.1615116575661049,25.44869290507052,0.9716307853720156,-83.67270040000001,10.793992600000005,20.3895844
2298.332,4.3268202,78.23143,-6.663123000000001,-1.037758,0.0800816,0.5539038,9.2786578,66.50209720000001,-110.658838,-14.7547576,25.569408999999997,-16.9074872,-0.9590746,-0.2146351999999999,0.002187,-77.33587639999999,75.53061360000001,-92.9290696,78.6338045690348,1.1790522248301811,34.020003995622965,0.9828006615856544,-86.61453420000001,9.028516400000004,17.7297684
2318.318,5.9681756,62.39631419999999,-8.039148399999998,-1.0546202,0.0904498,0.5871982000000001,9.483378,67.7511398,-110.5680146,-27.398337400000003,29.66334179999999,-16.6244866,-0.9912222,-0.2100562,-0.0027162,-80.442758,75.3365752,-95.5681152,63.19451758447705,1.2104572105825633,43.668710694746245,1.013238587240794,-89.926136,7.585435400000003,14.9998994
2338.304,4.111341,46.2418988,-9.0977974,-1.0468342,0.0972792,0.6198498,9.490642,68.68062139999999,-110.65314480000002,-36.2366844,31.392768799999992,-14.152320199999997,-1.01832,-0.2377162,0.0098003999999999,-83.7326414,75.160951,-98.2175704,47.30735933212896,1.220466656489361,49.98891273351306,1.0457440709765464,-93.2232834,6.480329600000002,12.435574400000004
2358.289,2.1014034,30.6561962,-9.170451,-1.03294,0.0955438,0.6421064000000001,9.3223504,69.3070664,-110.87814620000002,-37.4057586,31.749465999999995,-10.9691074,-1.0287094,-0.2733742,0.016457,-86.9595732,74.9986938,-100.7813736,32.06735775279633,1.2199976599319362,50.27465250878781,1.0645408943403727,-96.2819236,5.691627400000004,10.096772600000005
2378.274,2.5750202000000004,15.7603962,-8.754404599999999,-1.018396,0.0870152,0.6383476,9.0506956,69.64597940000002,-111.22123860000002,-31.8252266,30.770595999999998,-7.006644599999999,-1.0295186,-0.2907084,0.0149448,-89.9030898,74.86866599999999,-103.1711014,18.211546263617585,1.2050683450629678,44.8192781611582,1.069880025340954,-98.9537854,5.222686600000003,8.050137200000005
2398.26,7.5907476,0.5879722000000001,-8.0008298,-1.0241206,0.0878132,0.6314408,8.789559400000002,69.6819276,-111.653955,-21.8941084,30.729075799999997,-2.7943069999999985,-1.0195666,-0.300384,0.0012777999999999,-92.603688,74.7863386,-105.5166488,11.04438490471274,1.2063381140224494,37.83432613068912,1.0628961530010352,-101.3932474,5.104411000000002,6.137306200000007
2418.246,11.4024,-15.150303,-6.9147902000000006,-1.0238734,0.0880052,0.6342505999999999,8.5375734,69.4025818,-112.1489776,-11.5652624,31.5459848,1.8949138000000008,-1.0104114000000002,-0.312401,-0.014429,-95.1571564,74.76001720000001,-107.9243698,20.183179389328757,1.2076156168479106,33.65256527654489,1.0577021216259144,-103.6947298,5.357435400000003,4.224607800000004
2438.231,15.798313000000002,-30.8129956,-5.3844858,-1.0225180000000005,0.082649,0.6267402,8.343084000000001,68.7942046,-112.6734848,-2.3234607999999994,32.67286459999999,6.517477000000001,-1.0046482,-0.3089014,-0.0323648,-97.66185,74.7950132,-110.4721572,35.0431174244243,1.202155229502846,33.397485799152584,1.0515633889425022,-106.004934,6.000808600000002,2.201327600000005
2458.217,21.105253,-45.7429806,-3.9092842,-1.023758,0.0871482,0.6233913999999999,8.2455546,67.86932820000001,-113.19814920000002,4.095546000000001,32.915827599999986,11.626943,-1.0095610000000002,-0.2888645999999999,-0.050405,-100.157611,74.9105068,-113.1413238,50.52855115004144,1.2017870397542152,35.14841400627183,1.0512834222411958,-108.4031656,7.0411786,0.0568254000000024
2478.202,24.6948246,-60.1957096,-2.2188832,-1.0176409999999998,0.0913402,0.625375,8.227668,66.637738,-113.7076676,6.921061,32.00432659999999,16.0368068,-1.0069074,-0.2741333999999999,-0.0685838,-102.6523436,75.0931408,-115.8649428,65.10208336856462,1.1979274300399168,36.46035077760106,1.0458084771088634,-110.8800116,8.4554028,-2.157275199999998
2498.188,27.4530986,-74.32956,-0.2477872000000001,-1.0022778,0.0946849999999999,0.6323761999999999,8.290043,65.10531080000001,-114.198082,6.357817800000001,30.222019199999988,19.594280200000004,-0.995835,-0.2574548,-0.0871468,-105.1664228,75.32962319999999,-118.5933792,79.2377278260262,1.188875811817315,36.57496559477912,1.0322620239155755,-113.4564658,10.2243124,-4.395297199999999
2518.173,29.6692588,-87.7504408,2.0934406,-0.9804156,0.1077605999999999,0.6377798,8.444932,63.2871926,-114.64953,2.655155400000001,26.843151799999987,21.556189,-0.9918854,-0.2342841999999999,-0.1024389999999999,-107.6329908,75.6024458,-121.1922364,92.65412711736812,1.174559563804135,34.52931990294209,1.024314151920103,-116.07792279999998,12.315253199999995,-6.5427064
2538.159,29.0916648,-100.13518059999998,5.0801362,-0.9554432,0.1205126,0.6601212000000001,8.653910200000002,61.2160172,-115.0430466,-2.3103702,21.22882559999999,21.128375,-0.9896924,-0.222672,-0.1100004,-109.8457778,75.880873,-123.423984,104.39917211568644,1.1675422878313404,30.040124449756995,1.020379318783912,-118.499688,14.664855799999998,-8.380937399999999
2558.144,26.4687822,-111.470198,9.0571014,-0.929165,0.1317164,0.676062,8.906133800000001,58.9168396,-115.3515946,-6.4414356,14.17030579999999,18.8307818,-0.9814318,-0.222906,-0.1122902,-111.6063508,76.1426192,-125.10303059999998,114.92707496095132,1.1566142983285137,24.431291456934325,1.0126719863328302,-120.5124846,17.2257796,-9.751435999999998
2578.13,23.6892072,-122.2512924,13.0155722,-0.915078,0.151266,0.6984574,9.19514,56.403192,-115.5756912,-9.1200438,6.881329599999989,16.455923600000002,-0.975606,-0.2051876,-0.1171724,-112.86588299999998,76.407376,-126.2087604,125.20368265721358,1.161073593039976,20.033105538253213,1.003811929472608,-122.061023,20.004184,-10.633069199999998
2598.115,19.884216,-132.3220566,16.408117,-0.898025,0.1688021999999999,0.7290570000000001,9.4722794,53.6893134,-115.7345168,-12.951296199999998,-0.5305474000000089,14.157848200000004,-0.9813906,-0.1768734,-0.1120916,-113.607132,76.6938428,-126.7013202,134.80999596570703,1.1689598763853446,19.195369740070767,1.0034820557371615,-123.0794114,23.0045294,-10.966803399999998
2618.1,15.008973799999998,-141.821138,19.3505464,-0.8777904,0.1697362,0.7618614,9.6835704,50.7885734,-115.8596954,-17.8182436,-8.391552400000009,12.453971000000005,-0.9870947999999998,-0.1681346,-0.1013987999999999,-113.7719376,77.0126126,-126.5024554,143.91993650680465,1.1746314982719304,23.30256102534071,1.0064328614197966,-123.455508,26.2240392,-10.642759999999996
2638.086,10.7859196,-150.67127380000002,21.6535038,-0.859896,0.1689089999999999,0.7917258,9.8264284,47.7194268,-115.968347,-22.4876764,-15.564570400000008,11.4417908,-0.987375,-0.1736464,-0.0922222,-113.3773056,77.3638226,-125.6358462,152.60092737905904,1.1810085196486264,29.645674529661797,1.0067608440095392,-123.20373399999998,29.644395799999995,-9.667499199999998
2658.071,6.4359536,-159.1538208,21.9397316,-0.8372496,0.1645135999999999,0.828417,9.8584532,44.4936364,-116.1141142,-24.9581084,-21.264445200000008,12.1589128,-0.9949548,-0.1546342,-0.0818792,-112.5326446,77.77859779999999,-124.2592104,160.78778559536138,1.1892545325430213,34.97031548396379,1.0102232393116484,-122.39109779999998,33.2849614,-8.145096199999998
2678.057,0.2719978000000001,-166.8856232,20.647186,-0.7999746,0.1402325999999999,0.8630172,9.7208168,41.1290078,-116.3271284,-26.7140404,-27.37551160000001,12.771108200000002,-1.0093356,-0.1473144,-0.062041,-111.07266239999998,78.24654059999999,-122.2220124,168.15823352834727,1.1850836385014183,40.32567165603909,1.021914366057998,-120.7934792,37.1175328,-5.894883999999999
2698.042,-5.8965934,-172.9127808,19.4412916,-0.7554450000000001,0.114307,0.8840676000000001,9.4344996,37.6609666,-116.5800094,-26.7567392,-33.96255140000001,12.6713756,-1.0210244,-0.1849695999999999,-0.042709,-108.7711336,78.7200256,-119.3317902,174.10216367635988,1.1684771113050354,45.05487487287846,1.0385223334144145,-118.2056332,41.059059,-2.751780799999997
2718.028,-10.9590012,-177.2013672,18.012778,-0.7136556,0.0994862,0.9038586,9.0372528,34.1254234,-116.8556044,-22.7484258,-39.25230780000001,11.5597476,-1.0243124,-0.2126929999999999,-0.0294428,-105.6083102,79.156134,-115.6510408,178.45135027824284,1.1559248194392922,46.817329148294576,1.0465758852154965,-114.645563,45.0307106,1.204563600000003
2738.014,-16.446102200000002,-180.4541198,16.5057994,-0.6646174,0.0906474,0.913999,8.5308038,30.542409400000004,-117.1404006,-15.6278462,-44.150685800000005,9.962482800000002,-1.021976,-0.2143754,-0.0112926,-101.5191088,79.53055420000001,-111.1775986,181.95220538426744,1.1337228107039743,47.88281212503577,1.0442793110638169,-110.0499126,48.9881448,5.962802000000002
2757.999,-21.3974068,-183.1080444,16.3102912,-0.6116826,0.0855803999999999,0.9284918,7.952799799999999,26.916474,-117.3908248,-8.9806288,-48.86620700000001,6.567210600000001,-1.00059,-0.2380052,0.0091504,-96.4989534,79.770288,-105.8974868,185.0741217479793,1.1151576707686497,50.116725105247966,1.0285477884606042,-104.45175319999998,52.853814,11.493338000000003
2777.985,-24.2851714,-185.2635528,16.9386842,-0.5609522,0.1006345999999999,0.9348096,7.3707166,23.2558886,-117.5759064,-0.2741610000000001,-51.83521340000001,3.4797710000000017,-0.9866056,-0.2439365999999999,0.0256372,-90.7759172,79.8598206,-100.0827134,187.61469177128183,1.0948350020227524,51.95260646675874,1.0166380579118413,-98.1466338,56.60393200000001,17.493193
2797.97,-25.844390800000003,-188.1272308,16.3218026,-0.5187468,0.120508,0.9364058,6.791925399999999,19.5330296,-117.728485,8.7508158,-54.5886824,2.2357950000000018,-0.9703412,-0.20398,0.0372072,-84.5049394,79.8280486,-93.894008,190.59430407127323,1.077254028930911,55.33082145256498,0.992247076362173,-91.2968648,60.295019,23.834477
2817.955,-25.398627,-191.8126344,14.3764744,-0.4654092,0.1306868,0.9414248,6.242433999999999,15.739785,-117.8831862,13.572326,-57.7887496,3.507987800000001,-0.9577778,-0.145703,0.0634728,-77.771653,79.7070556,-87.33256379999999,194.0202566360715,1.0582841854596148,59.46472560927802,0.970874077685505,-84.01408699999999,63.967270600000006,30.5506224
2837.941,-24.2231208,-195.3864412,13.3258342,-0.3998312,0.1300964,0.9551872,5.73174,11.8783672,-118.0266646,13.7776756,-61.6191536,5.588173800000002,-0.9590512,-0.1444751999999999,0.0942525999999999,-70.80616,79.45458520000001,-80.5350038,197.3327110319481,1.0436343463254936,63.38747606379541,0.9744412964582524,-76.53790000000001,67.57621800000001,37.4916608
2857.927,-22.0032612,-197.978528,12.4670306,-0.3276706,0.1345308,0.958265,5.2791246,7.967365600000001,-118.158171,15.854362599999998,-65.4044312,9.387113200000002,-0.9771614,-0.1533216,0.1229786,-63.71685180000001,79.087941,-73.645814,199.587243842044,1.0216351445002272,67.95011646993275,0.9967324870467902,-68.99597639999999,71.12057539999999,44.51235700000001
2877.912,-21.0954668,-199.3882386,11.8006724,-0.256116,0.1260376,0.9526082,4.850364399999999,4.0295962,-118.2759078,18.4010344,-68.9071916,13.8743964,-0.9790114,-0.1532157999999999,0.1510598,-56.55633379999999,78.610878,-66.7271166,200.84806267577625,0.9944562658945842,72.65877783622174,1.002375910462557,-61.4066982,74.58128179999999,51.5487912
2897.898,-20.0863818,-199.6983612,12.0187316,-0.1754042,0.103414,0.948026,4.4479334,0.0996664,-118.3602448,21.5892246,-70.44245320000002,16.4087968,-0.976765,-0.160446,0.1846536,-49.6596458,77.9982742,-60.1315896,201.06553187718143,0.969646526033915,75.48166958995493,1.0069308497280038,-54.1075792,77.89860780000001,58.228655200000006
2917.883,-19.727482,-199.2421478,14.4393646,-0.0951704,0.0762672,0.9342924,4.048956800000001,-3.8220858,-118.365851,27.7910912,-70.0693856,17.443811399999998,-0.9716316,-0.2035597999999999,0.2173746,-43.2726638,77.2460098,-54.1676988,200.7363999280377,0.942218859676328,77.3715070591686,1.0162461685141844,-47.3216206,81.06809559999999,64.19815220000001
2937.869,-17.1336696,-198.4694122,16.554378200000002,-0.0258982,0.0603772,0.9131376,3.6874835999999993,-7.7333602,-118.299251,38.5746962,-67.430159,17.659518600000002,-0.959288,-0.2043295999999999,0.2385364,-37.5236262,76.4135406,-49.0608384,199.89426617730712,0.9154978970903428,79.66612910686273,1.009397675103881,-41.2111098,84.1469008,69.2384126
2957.854,-14.160995,-197.7845276,17.9215382,0.0365498,0.0380586,0.8830546,3.3626244,-11.6325312,-118.17765060000002,48.65811,-63.66010280000002,17.3115504,-0.9454734,-0.1695184,0.2593332,-32.362767000000005,75.54262680000001,-44.752005,199.09905742820396,0.8846297369493974,81.97505800260474,0.9949422830839788,-35.7253914,87.175158,73.42564560000001
2977.84,-7.840353200000001,-197.9770234,18.6102174,0.0959793999999999,0.0254344,0.8634976,3.1484676,-15.5365036,-118.0210466,55.925161200000005,-59.847892000000016,16.8514032,-0.9279214,-0.1400978,0.274108,-27.7644336,74.6468152,-41.1594238,199.00430428586253,0.8691875856991286,83.62633330416097,0.977650609270408,-30.9129012,90.1833188,76.86162279999999
2997.825,-0.5707299999999996,-198.5812104,18.749439,0.1497986,0.0241721999999999,0.8409998,3.0756794,-19.4534472,-117.8512634,60.9536912,-55.57447040000001,16.9319786,-0.9209234,-0.109736,0.2856608,-23.6324272,73.7669676,-38.1418908,199.4651957597532,0.8545785975642264,84.2054994074395,0.9704349494016588,-26.7081066,93.2204148,79.70937260000001
3017.811,6.837090000000001,-199.4267518,17.8034584,0.2002522,0.0272438,0.8250173999999999,3.1538654,-23.3902562,-117.6999404,62.015243600000005,-52.03300320000001,17.119167800000003,-0.9240384,-0.0774598,0.2903004,-19.906789,72.9139846,-35.557815600000005,200.33656247467016,0.849409723599889,82.74291369623812,0.971659049013984,-23.0606544,96.3042408,82.1421248
3037.81,13.238628200000004,-200.292273,17.052354,0.2518052,0.0300074,0.8019382,3.3583082,-27.3426716,-117.5710006,58.33286819999999,-46.415633000000014,16.976120200000004,-0.9239192,-0.0636676,0.3029448,-16.653973,72.13599380000001,-33.3806942,201.4523235831885,0.8410773920520276,76.45471310700282,0.9744002274555564,-20.0122812,99.4786654,84.19030640000001
3057.782,18.4374438,-200.9869782,17.495493599999996,0.3091306,0.0384886,0.7755976,3.659201,-31.3135032,-117.4477798,53.905175,-39.950489800000014,14.476714,-0.913355,-0.0667304,0.3081044,-13.974073,71.44588619999999,-31.702301800000004,202.5877514465104,0.8358197995453804,68.63952779032157,0.9662290740857056,-17.633274,102.7593894,85.74547799999999
3077.767,19.629977200000003,-200.8720704,18.594556,0.3710976,0.0571035999999999,0.7484328,3.984345,-35.290195,-117.3265686,50.1687866,-33.41861480000001,9.4398376,-0.9281208,-0.0613229999999999,0.3116624,-11.9120258,70.8472214,-30.590452200000005,202.68369984903129,0.8373326137053065,61.01492848460524,0.9809700205895184,-15.8963708,106.1374164,86.7361164
3097.753,16.151783599999998,-199.8998964,18.5812686,0.4384994000000001,0.0672159999999999,0.6973628,4.2636574000000005,-39.2661902,-117.237227,45.0665436,-27.96551760000001,1.6918218000000018,-0.9404468,-0.0520901999999999,0.3168722,-10.5439626,70.3192688,-30.1026434,201.4103081696101,0.8265074647456004,53.065297395657424,0.9937613212935588,-14.80762,109.585459,87.1345836
3117.738,13.3916614,-197.472937,17.7305694,0.5068159999999999,0.0684218,0.6377722,4.5213222,-43.2066016,-117.1933336,39.5268136,-21.891681600000013,-5.538302199999999,-0.9510868,-0.033351,0.3072918,-9.7826756,69.8913588,-30.141675,198.71907440833763,0.8174945747000893,45.52238469042949,1.0000533189197864,-14.3039978,113.0979604,87.0516586
3137.724,13.704591400000002,-194.1499634,15.912457600000002,0.5712336,0.0628131999999999,0.5708282,4.8336576,-47.1010458,-117.2187776,33.5901238,-16.630201600000014,-11.2078874,-0.964808,-0.0047397999999999,0.3081846,-9.4729974,69.5541472,-30.5393812,195.28243756296695,0.8099988628253992,39.1213082875183,1.0128448500363714,-14.306655,116.655193,86.6793964
3157.709,12.4782676,-190.5128508,13.6117518,0.6344348,0.0560935999999999,0.5053636,5.185026,-50.9445106,-117.3346222,25.9421884,-10.26043140000001,-13.365849199999996,-0.968233,0.0016118,0.303686,-9.484633,69.34170980000002,-31.1176158,191.40567721283784,0.8130475850877118,30.93411573541971,1.0147427884859492,-14.669659,120.2862204,86.2170064
3177.695,10.716201000000002,-185.3485838,12.3639372,0.6853566000000001,0.0350321999999999,0.4363124,5.5252168,-54.7049492,-117.4953368,17.912221,-2.905841600000012,-11.479318199999998,-0.9629926,-0.0343961999999999,0.3110815999999999,-9.677916,69.2743576,-31.7112318,186.0693457386884,0.8132093424169204,21.472454980602077,1.012575729556935,-15.2031328,123.9793068,85.784105
3197.68,8.264090200000002,-178.3532346,13.4087164,0.726043,0.0208381999999999,0.3853658,5.781485999999999,-58.3370636,-117.6198164,12.2937386,4.866593599999989,-7.569880399999998,-0.9533342,-0.0769504,0.3016381999999999,-9.915615,69.37260899999998,-32.2232532,179.04738242881967,0.8222405172684449,15.235577813230286,1.0028724069636374,-15.697100999999998,127.7096726,85.3965632
3217.666,4.1148482,-169.8109708,14.8901072,0.7624372,0.0102415999999999,0.3230548,5.901168200000001,-61.8029374,-117.679698,9.9281814,13.382599199999987,-2.4721423999999983,-0.9417406,-0.1030365999999999,0.305959,-10.0491318,69.64811259999999,-32.5684578,170.512207985748,0.8281182150619802,16.845599879642876,0.995541464886782,-15.9503,131.45104999999998,85.1112402
3237.651,-3.729390199999999,-159.9965054,16.9968348,0.7912321999999999,0.0064097999999999,0.2725338,5.7421914,-65.071698,-117.602098,10.3622934,20.453893999999988,2.2376562000000013,-0.9402634,-0.1324386,0.2946075999999999,-10.0276826,70.07655659999999,-32.7528198,160.93999653502723,0.8368776206801803,23.03792546086382,0.9941976071824352,-15.769874000000002,135.1482546,84.84927820000001
3257.637,-12.963120399999998,-147.575601,19.338412400000003,0.8098494,0.0037343999999999,0.2294944,5.164327800000001,-68.0858168,-117.27388,11.1255396,26.700851599999982,6.719977200000001,-0.9528214,-0.141488,0.281656,-9.817918,70.64525160000001,-32.7514412,149.40071852293272,0.8417468004424371,29.69631628880777,1.0036023001059533,-14.9822458,138.7310684,84.5224388
3277.622,-22.9565114,-133.64389020000002,20.9602138,0.8303962,0.0045339999999999,0.1834896,4.082738999999999,-70.8171736,-116.628206,10.6412984,32.577758999999986,7.021192000000001,-0.9519884,-0.1239079999999999,0.2677786,-9.6329208,71.3342728,-32.768502999999995,137.21159340955742,0.8504392038462245,34.9834925386358,0.9966646802292736,-13.7156598,142.1514464,83.859703
3297.608,-29.710252,-118.3808532,22.1850874,0.8570314,0.0004529999999999,0.1347333999999999,2.4440786,-73.2322936,-115.5511172,7.056627799999999,38.35394079999999,6.120555800000001,-0.9405836,-0.1013628,0.2528686,-9.6172012,72.1340622,-32.890177400000006,124.0520196579205,0.8675575570937758,39.47508041915241,0.9792417753950045,-12.0612798,145.3663558,82.6609398
3317.593,-35.300062600000004,-101.862117,24.4472586,0.8799585999999999,0.0065647999999999,0.0947174,0.1019708000000001,-75.2987624,-113.8715532,0.0265184000000004,42.84863679999999,1.786164200000001,-0.9397976,-0.0905648,0.2324845999999999,-10.0961686,73.00944360000001,-33.3816058,110.54254272605132,0.8850658846525268,42.885857358728565,0.9723531257737388,-10.1981394,148.308206,80.4899474
3337.579,-41.7351138,-83.48971259999999,26.3802928,0.9060144,0.0109907999999999,0.0651466,-3.0258062,-76.978743,-111.5281082,-8.7450604,48.07947239999999,-5.001285199999999,-0.9165354,-0.0613201999999999,0.2060752,-11.343097,73.9617552,-34.489043,96.99624571159072,0.9084200406109278,49.1235646234447,0.9414161112049444,-8.3172908,150.9404982,77.0390652
3357.565,-44.7589896,-64.85446060000001,26.7527454,0.9327648,-0.0020764,0.0294984,-6.70578,-78.2532364,-108.691655,-18.3794966,52.13543239999999,-15.1234086,-0.9077438,-0.0320641999999999,0.1903678,-13.7032706,74.9331984,-36.54947539999999,83.21765195057526,0.933233432297922,57.31166281383689,0.9280446210376524,-6.997490600000001,153.18643479999997,72.1421796
3377.55,-40.693457,-46.3620676,26.1857074,0.956329,-0.0168286,-0.0059452,-10.5548874,-79.1201692,-105.6073058,-27.854545,53.77240979999999,-22.6923424,-0.9156528,-0.0160891999999999,0.1739493999999999,-17.0819906,75.870436,-39.461503,67.01559539984879,0.95649553235862,64.6706280814946,0.9321680676062872,-6.527103199999999,154.9906052,66.1458028
3397.535,-35.2584434,-28.6630886,24.2975688,0.9700372,-0.0168834,-0.0275206,-14.1609054,-79.606299,-102.6627974,-33.5110088,51.95175639999999,-28.047844399999995,-0.9314588,-0.0070199999999999,0.1757956,-21.201998600000003,76.6958358,-43.0146936,51.52768507000084,0.9705743670650694,67.88707004522458,0.9479287259476844,-7.041093200000001,156.3021348,59.6481038
3417.521,-33.3902038,-12.639706,20.9821968,0.8726266,-0.0180032,-0.0337,-17.2278372,-79.76651460000001,-100.2288452,-34.9723034,47.79767499999999,-30.9120812,-0.9313214,-0.0045681999999999,0.1767122,-25.725914,77.366214,-46.947249,41.41159813537629,0.8734626427259498,66.80745845055527,0.947949165397618,-8.498076800000002,157.1327286,53.28159619999999
3437.507,-32.1363944,7.1158444,19.7268368,0.9408394,-0.0568532,-0.0503632,-19.5502342,-79.517221,-98.5231446,-34.2039756,41.91640639999999,-30.6650262,-0.935363,-0.0113095999999999,0.1782822,-30.306015,77.863968,-50.9464594,38.37357393690608,0.9439001614878768,62.18714420346091,0.9522690752397664,-10.755780800000002,157.381189,47.5766852
3457.492,-22.6183018,18.2920228,16.1632854,1.0280838,-0.101255,-0.0502125999999999,-20.9284538,-79.0633286,-97.5811584,-33.3846572,35.02350519999999,-28.254807399999997,-0.934162,-0.0328205999999999,0.1847888,-34.6735374,78.18267519999999,-54.737835,33.27818308371802,1.0342776126583229,56.031378655776734,0.9528288065721986,-13.7450836,157.2460038,42.8433234
3477.477,-17.261318799999998,32.0206008,8.1326084,0.9561518,-0.1089556,-0.0343192,-21.0077486,-78.40037079999999,-97.8530624,-32.8082778,29.491386799999987,-28.13809,-0.9423906,-0.0786197999999999,0.186881,-38.9720862,78.3223464,-58.4638634,37.27480813761413,0.9629513979964098,52.32472738999493,0.9639531233838086,-17.9643376,156.7227172,39.389199000000005
3497.463,-16.174356600000003,45.269455,6.7614448,0.9518108,-0.1269726,-0.0183942,-20.5426664,-77.4946258,-98.657057,-32.300654599999994,24.46532799999999,-29.4858844,-0.9450004,-0.1275806,0.1870856,-43.1221574,78.28742500000001,-62.0449432,48.54534481497104,0.960418755929433,50.11289195991634,0.9717528426631332,-22.579491,155.7820508,36.6121138
3517.449,-9.783556999999998,58.56946860000001,6.4096098,1.0635524,-0.1744126,-0.0023663999999999,-19.6148622,-76.33820039999999,-99.8051252,-33.2526932,19.12441119999999,-31.9010402,-0.9513768,-0.1467546,0.1898408,-47.0163042,78.08808719999999,-65.3462736,59.72590507850753,1.077761134219211,49.89149300874877,0.9811698413343328,-27.401442,154.4262876,34.4588516
3537.434,2.1563000000000017,65.7234092,1.5500646,0.9940846,-0.1694576,0.0312834,-18.1077566,-75.08055279999999,-101.3106566,-34.845939,11.835599799999988,-34.4857912,-0.969389,-0.1739831999999999,0.1974812,-50.4882744,77.7087812,-68.1851598,65.7770389028331,1.0089096695296758,50.43402306090085,1.0044819617876073,-32.38051779999999,152.789334,33.12549679999999
3557.42,4.436396800000002,79.6809562,-0.446274,0.8940968,-0.140176,0.06353,-16.3343214,-73.5686692,-103.052954,-34.7445704,1.560894399999988,-36.9383584,-0.984989,-0.2166271999999999,0.1959542,-53.296862,77.1247434,-70.3468764,79.80561106837317,0.9072455343765764,50.73523317079914,1.027389275006548,-36.9625406,150.6934126,32.7060776
3577.405,6.365347000000002,90.7260574,3.0914208,0.9625764,-0.1538926,0.1014074,-14.932701400000004,-71.81590120000001,-104.3888564,-32.65828760000001,-10.69086400000001,-37.5316156,-0.9727892,-0.2277135999999999,0.1880132,-55.1113044,76.365039,-71.5344298,91.00160447124642,0.980061079191741,50.88693831993603,1.016622483833522,-40.178603,148.18094019999998,32.8544266
3597.39,12.701041,101.038823,-0.0131391999999992,0.9585308,-0.1675925999999999,0.1578462,-13.375325999999998,-69.8768876,-105.7747848,-30.215613,-21.47823300000001,-35.0453392,-0.9806864,-0.2147343999999999,0.176955,-55.93096920000001,75.52915499999999,-71.7513288,101.83398434878008,0.985791051378455,51.01444463493761,1.019396757751034,-42.5556432,145.4060426,34.023456
3617.376,15.010546200000002,110.0476426,-4.5320902,0.9354846,-0.1343034,0.2119734,-11.7173782,-67.7807786,-107.238034,-27.700721800000004,-32.56845140000001,-31.279939199999998,-0.9766768,-0.2258727999999999,0.1548149999999999,-55.8696654,74.6343034,-71.10657799999998,111.15907511589238,0.9685564322207972,52.976113590852,1.014339084164206,-44.1522872,142.41508199999998,36.131456
3637.361,11.2433398,118.1672852,-7.779576999999999,0.9143264,-0.1076346,0.2632682,-10.181953000000002,-65.5281068,-108.6729078,-24.9026558,-41.58837620000001,-27.1330628,-0.9753154,-0.2322317999999999,0.135977,-55.1430854,73.71226200000001,-69.8238648,118.95562954183936,0.9575427499518546,55.55122318864586,1.0117615741553936,-44.96113240000001,139.2403688,38.84904300000001
3657.347,8.3376432,126.642897,-11.3823938,0.8891076,-0.0902523999999999,0.3216392,-8.743845199999999,-63.1019502,-110.090248,-20.3234378,-45.23014920000001,-18.9686956,-0.9706756,-0.2200857999999999,0.1245822,-53.905321400000005,72.8913316,-68.09785,127.4264436579056,0.9497945014897484,53.090676520743166,1.0030800587958273,-45.1614762,135.9932818,41.992398
3677.354,5.068629000000001,133.46517020000002,-15.7800614,0.8497218,-0.071085,0.3754282,-7.3924142,-60.5346734,-111.511534,-15.075188399999998,-43.68166260000001,-7.8388301999999985,-0.9694724,-0.2133305999999999,0.1126996,-52.3266478,72.272046,-66.117762,134.4903453569898,0.9316794233938408,46.86999265735132,0.99904348208588,-44.934233600000006,132.80671940000002,45.393772
3697.318,2.2569778000000014,139.746881,-18.576484,0.8122738,-0.0480756,0.4137856,-6.168275199999999,-57.83534920000001,-112.8784134,-10.1132436,-38.41752600000001,1.545043000000002,-0.9739872,-0.2320062,0.115801,-50.6548438,71.851793,-64.1372918,140.99422135612548,0.9128628112970536,39.75639769830092,1.0079126024627731,-44.486568600000005,129.68714219999998,48.7411216
3717.304,3.385015000000001,146.9181762,-18.2705006,0.7464785999999999,-0.0402502,0.4265666,-5.0906762,-54.97962640000001,-114.0774444,-2.9503276,-27.99198240000001,11.331561000000002,-0.9741834,-0.2423803999999999,0.1208914,-49.029159400000005,71.69996040000001,-62.3510932,148.08855464437173,0.8607028773587084,30.34237608240253,1.0111361361031856,-43.9384832,126.6795868,51.7263512
3737.289,6.427275200000001,154.4940428,-18.9590588,0.7041778,-0.0298386,0.4678986,-4.0879308000000005,-51.9511488,-115.1489854,2.9966956,-15.840943200000009,19.5949168,-0.9621077999999998,-0.2447718,0.1364018,-47.544519,71.81277180000001,-60.8382018,155.78563809853148,0.8459821605357645,25.374720301583785,1.0020828827693444,-43.456588200000006,123.76392059999998,54.3107836
3757.275,8.343120200000001,160.6448028,-19.6771636,0.6655426,-0.0233074,0.5038616,-3.179533,-48.7858152,-116.0977646,7.220833399999999,-4.599343400000011,23.011962000000004,-0.9662268,-0.2367588,0.1619546,-46.3073066,72.11011060000001,-59.6789016,162.06033163196878,0.8350848455480916,24.55289778806411,1.007907858326762,-43.1277736,120.8959258,56.418863
3777.26,13.6712514,167.0050964,-19.081462,0.606441,-0.0194073999999999,0.4999458,-2.309112,-45.47954,-116.9022446,12.580747,5.6471265999999884,24.2162492,-0.947858,-0.2368897999999999,0.1710334,-45.3403274,72.5494386,-58.9182274,168.6466943953327,0.7861889954669933,27.867399577838928,0.99186893762412,-43.0312154,118.0289786,57.9840172
3797.246,18.4542668,173.5522796,-18.6188326,0.5466852,-0.0051642,0.5123044,-1.4559738,-42.0326774,-117.586209,18.1318268,14.82714059999999,23.4901324,-0.9156504,-0.2229287999999999,0.1783228,-44.672061,73.09694219999999,-58.5897102,175.52098064011886,0.7492310558966706,33.17218053801854,0.9591203917597833,-43.2160872,115.1296196,58.996498800000005
3817.231,18.246739,178.8446776,-20.385279,0.5099334,0.0157378,0.6078430000000001,-0.6577179999999998,-38.464017,-118.225476,21.8833852,19.59807679999999,18.5070196,-0.9172364,-0.2098166,0.2144788,-44.324211,73.629866,-58.6790162,180.92518285161384,0.7935696966451026,34.719978924893674,0.965063093673134,-43.666493,112.093883,59.5464598
3837.217,15.829009000000005,183.5689942,-20.6941204,0.4436242,0.0099193999999999,0.6251466000000001,0.001723,-34.793639,-118.778227,26.50478,23.830334999999987,13.702353,-0.9096178,-0.2008266,0.2117157999999999,-44.316931,74.1530348,-59.219757,185.40868312096768,0.7666218734249369,38.185634822498805,0.9552797733198584,-44.318654,108.9466738,59.55847
3857.202,17.389992200000002,189.002115,-18.9837114,0.3666467999999999,0.0113964,0.6271378000000001,0.5996840000000001,-31.0034288,-119.215196,28.612319,28.92969899999999,8.1598058,-0.8954262,-0.208926,0.1918544,-44.8741888,74.6646972,-60.3858886,190.74745765463763,0.726540827532796,41.499092923605865,0.9392796516063786,-45.4738728,105.668126,58.82930739999999
3877.188,17.144008200000002,193.9710266,-18.2733038,0.3128773999999999,0.016302,0.7026358,1.1345466,-27.1067636,-119.576135,26.913619,32.31582979999999,0.4308554000000015,-0.9160264,-0.194683,0.206338,-46.0468054,75.10466140000001,-62.1561508,195.5826930205908,0.7693211878509522,42.05759598117132,0.9589479684685503,-47.181352,102.211425,57.4199842
3897.173,12.9851014,198.1458618,-16.8869146,0.2422682,0.0291412,0.7824932,1.5291456,-23.116368200000004,-119.8544646,22.6168976,34.27264499999999,-5.694556199999998,-0.9484156,-0.2020358,0.1979082,-47.8328986,75.46854540000001,-64.4680572,199.2876395854511,0.8196576714183306,41.45559338207413,0.9896859453545048,-49.3620442,98.5849136,55.3864074
3917.159,7.892379600000001,201.6043732,-15.722580999999996,0.1730882,0.008959,0.7742708,1.7762154,-19.0593122,-120.0708388,17.6973716,38.19773359999999,-9.6967532,-0.9402788,-0.2132871999999999,0.1686604,-50.2691108,75.79850300000001,-67.34479739999999,202.3704832786069,0.7934324548396543,43.20058837963628,0.9788064067738012,-52.0453262,94.8578152,52.7260414
3937.144,11.1154906,204.1897002,-12.886165799999995,0.1000324,0.0162186,0.821871,2.0490718,-14.952856000000002,-120.2025162,15.0051526,43.24024279999999,-13.3042998,-0.9564738,-0.2142883999999999,0.1655738,-53.352577200000006,76.0999236,-70.831099,204.89763558438068,0.8280950819058884,47.66421713529466,0.9940705868837686,-55.401649,91.0527796,49.3714172
3957.129,10.5845298,205.3932616,-11.030972,0.0236653999999999,0.0309036,0.8733865999999999,2.2862708,-10.8304922,-120.2714676,11.3645996,46.25836939999999,-17.286651799999998,-0.9516456,-0.2048625999999999,0.1615392,-56.976976,76.318881,-74.7980072,205.96141999179827,0.8742535311393829,50.673653845658485,0.9867588084302872,-59.263246800000005,87.1493732,45.47346039999999
3977.115,4.329582400000001,206.32088320000005,-11.0901326,-0.0466708,0.0550158,0.9149476,2.3844044,-6.688857199999999,-120.3260666,8.6893086,48.68374859999999,-18.6527856,-0.9669602000000002,-0.2030707999999999,0.1366146,-61.007284600000006,76.48518659999999,-79.12343279999999,206.6640829202598,0.9177875639645808,52.8539295827056,0.9974534210327016,-63.391689,83.17404379999999,41.2026338
3997.101,1.2678430000000005,206.3935394,-13.1737408,-0.0992944,0.0372268,0.9177876,2.4067206,-2.534496,-120.4181456,6.9110878,49.73021399999999,-17.3695016,-0.9838618,-0.1638223999999999,0.1339436,-65.178788,76.6276382,-83.55683739999999,206.81742668014607,0.9238935497249452,53.12774138712756,1.006361122173328,-67.5855086,79.1621342,36.8613082
4017.086,7.113153800000001,206.1774232,-14.5514322,-0.1678018,0.04636,0.9299314,2.5328254,1.6188616,-120.5326156,2.331361599999999,47.87915419999999,-15.675413799999998,-1.0048958,-0.1592633999999999,0.127846,-69.269677,76.7331466,-87.813269,206.81264703456972,0.9460862024092728,50.43379077184821,1.0254389299969064,-71.80250240000001,75.114285,32.7193466
4037.071,7.1039986,206.4967898,-15.018842799999998,-0.241143,0.0593348,0.961807,2.661684,5.787593599999999,-120.6450698,-5.5505732000000005,42.04813599999999,-16.210159599999997,-0.997574,-0.1840295999999999,0.1193473999999999,-73.07192979999999,76.7166184,-91.6106918,207.1640814254858,0.9933495206567726,45.40510850312468,1.021403241153522,-75.73361379999999,70.9290248,29.034378
4057.057,1.2946442000000011,206.338788,-17.4859384,-0.2937724,0.0563606,0.9637858,2.6659212,9.9589574,-120.8040772,-9.2636446,35.24238819999999,-14.7591686,-1.004185,-0.1940465999999999,0.111514,-76.30790859999999,76.6317902,-94.7506272,207.08242218653456,1.0091391422969185,39.31506193658906,1.0288230991733032,-78.9738298,66.6728328,26.05345
4077.043,1.7417902000000005,205.4736298,-17.417149799999997,-0.3637196,0.0370516,0.9544642,2.663973,14.120775,-120.966498,-10.2475442,27.03513699999999,-14.653248599999998,-0.9986944,-0.2081585999999999,0.1105784,-78.8335784,76.46433859999999,-97.1417726,206.21785442449908,1.022089368679843,32.41339984131754,1.026132588846042,-81.49755139999999,62.3435636,23.8247254
4097.028,4.385939400000001,203.3117738,-14.702668999999997,-0.442725,0.0516298,0.9438634,2.7273408,18.234419600000003,-121.0721912,-10.1830574,17.288753599999986,-15.9291618,-0.9736694,-0.2535132,0.1035954,-80.5475876,76.203964,-98.7014742,203.8898778896255,1.043814724811161,25.619013538850137,1.0114509627123602,-83.2749284,57.9695444,22.370717
4117.014,-0.2710425999999989,200.2380798,-12.3506506,-0.5071361999999999,0.065299,0.9489112,2.709234,22.2957646,-121.128783,-7.897909199999999,9.525164399999989,-18.5972804,-0.9367606,-0.2597968,0.0896714,-81.6091354,75.8484526,-99.6371828,200.61879432477272,1.0779070230019283,22.33751474212599,0.9762457472278996,-84.31836940000001,53.552688,21.4916002
4136.999,-7.949460599999999,195.77984,-11.650059799999998,-0.5661064,0.051688,0.915449,2.5361112,26.2706466,-121.1830066,-5.6188356,5.634021599999988,-19.914579,-0.928035,-0.2395797999999999,0.0742583999999999,-82.296219,75.4639586,-100.2350724,196.2871966471581,1.0775875728060156,21.44537175327895,0.9613333198030743,-84.8323302,49.193312000000006,20.9479342
4156.985,-7.086008999999999,191.6699278,-10.1714224,-0.6308292,0.0418102,0.9067806,2.3759074,30.1707092,-121.2272432,-2.8345644,3.405144199999989,-19.9964122,-0.955988,-0.2468839999999999,0.0658048,-82.7300232,75.0731002,-100.6300552,192.0703792364781,1.1054160433669489,20.481363803049096,0.9895428425808758,-85.10593060000001,44.902391,20.597188
4176.97,-5.276652199999999,187.460144,-8.227847199999998,-0.691659,0.0633542,0.8814328,2.2766192,33.9786724,-121.2340088,-0.8296785999999994,1.1922399999999889,-18.7042336,-0.9678914,-0.2600155999999999,0.0613228,-82.93706979999999,74.7004258,-100.8322982,187.7147999399276,1.1221986044611176,18.760547896057485,1.004082845305685,-85.213689,40.7217534,20.4017106
4196.956,-10.6860762,184.4332488,-8.163191999999999,-0.7393648,0.0564447999999999,0.8794272,2.058669,37.713414,-121.2554398,0.4852504000000004,-0.4467670000000112,-18.4907928,-0.9762134,-0.265714,0.0560141999999999,-83.0174912,74.3305758,-100.9291228,184.92283036743672,1.1503210521527978,18.502553528513868,1.0132788968182451,-85.0761602,36.617161800000005,20.326317
4216.941,-14.630569400000002,181.5647888,-7.057524999999998,-0.7893702,0.0344308,0.8447986000000001,1.7524996000000002,41.3841194,-121.2804184,3.8678974,-0.9188288000000112,-18.1249874,-0.9930082,-0.2849448,0.0556612,-83.004921,73.96287720000001,-100.9987304,182.28997435976132,1.1567088947521067,18.555862817740245,1.0345805882094057,-84.7574206,32.578757800000005,20.281688000000003
4236.927,-13.192132,178.65870059999995,-5.593462399999998,-0.8501958000000001,0.0345704,0.8039002,1.4934898,44.9946412,-121.2861862,9.6930086,-2.8158886000000107,-16.4285976,-1.0041102,-0.3120406,0.0447063999999999,-82.760942,73.61501799999999,-100.9464996,179.23239235251555,1.1705911081388924,19.28166132442974,1.0524282835392442,-84.25443179999999,28.620376800000003,20.3396866
4256.912,-13.6005432,174.3123536,-3.1963535999999992,-0.9047272,0.0401294,0.7816810000000001,1.2652271999999998,48.506850400000005,-121.241414,13.3584492,-4.097737200000011,-15.112854199999996,-0.9846124,-0.3096027999999999,0.0405675999999999,-82.351355,73.2930972,-100.7981384,174.87134719342313,1.196313863885728,20.582467715502485,1.0329381405347369,-83.6165822,24.7862468,20.4432756
4276.898,-16.8847378,168.942743,-1.2389433999999984,-0.9395618,0.021147,0.759,0.9955474,51.8959754,-121.162375,14.779802,-3.81941840000001,-15.457752799999998,-0.974925,-0.3138088,0.0436251999999999,-81.93705600000001,72.9649156,-100.6749924,169.78892709386912,1.2080167927757628,21.724930971107145,1.0251135920752783,-82.93260339999999,21.0689402,20.487382600000004
4296.883,-17.094540000000002,162.7788392,1.7053124000000015,-0.9822342,0.0238324,0.7077994000000001,0.7956628,55.1595824,-120.9977066,17.449454,-1.9400308000000115,-14.9867484,-0.9717802,-0.3195388,0.0393854,-81.6113464,72.65079659999999,-100.6986436,163.68286984132655,1.2109219618042113,23.083539416821832,1.023725066387768,-82.4070092,17.491214199999995,20.299063
4316.869,-16.070392599999998,157.2215912,3.918307000000001,-1.0075324,0.027888,0.6631986,0.6866904,58.30590199999999,-120.7564682,20.291741,-1.3777914000000115,-12.677209,-0.978712,-0.3185295999999999,0.0411152,-81.2531142,72.38844300000001,-100.7473892,158.08933989211388,1.206537053154904,23.96590682579476,1.0300624955269462,-81.9398046,14.082540999999996,20.009079
4336.854,-12.369790599999998,151.79605700000002,5.3746116000000015,-1.0131296,0.0248814,0.6448202000000001,0.7217421999999999,61.3218542,-120.4337692,23.9228628,-0.6707902000000115,-9.7621018,-0.9881466,-0.31238,0.0601976,-80.8107634,72.19162279999999,-100.7870606,152.3940323309478,1.2011843159108264,25.84670105823184,1.0380937908191723,-81.53250560000001,10.869768599999995,19.6467086
4356.84,-10.8469992,145.81507860000002,7.179167200000002,-1.0161276,0.0199038,0.6115619999999999,0.8992348,64.2049688,-119.988359,27.430272,-1.5959928000000114,-7.131004399999999,-0.9834116,-0.3211826,0.0688816,-80.2084792,72.03909759999999,-100.7333588,146.39410842125628,1.1861363920646733,28.38693781943476,1.036822700550041,-81.107714,7.834128799999997,19.2550002
4376.825,-8.715583800000001,137.49670840000002,7.846004000000002,-1.0380652,0.0190084,0.5392006,1.2073646,66.9289374,-119.444252,28.663226,-1.5466882000000113,-6.079209599999999,-0.9475792,-0.3186739999999999,0.0456746,-79.6288192,71.907393,-100.7244964,137.99589124527395,1.1699051097255535,29.34160115732997,1.0007725154268576,-80.8361838,4.978455599999995,18.7197556
4396.811,-4.080940799999999,125.956915,7.976394400000002,-1.0621372,0.0239658,0.4978673999999999,1.712218,69.4174148,-118.7950302,24.830746,1.3604497999999885,-6.495545599999998,-0.9313202,-0.3048718,0.0194762,-79.32740020000001,71.78472,-100.9259062,126.27518117886302,1.1732782019522223,25.702312798978134,0.9801446075603948,-81.0396182,2.3673051999999983,17.869124
4416.796,-1.5110517999999986,111.8346266,7.089651600000002,-1.0769902000000002,0.0318686,0.4935678,2.312488,71.60455019999999,-118.0989624,15.6466148,4.822544599999988,-5.356734799999998,-0.9436675999999998,-0.282257,0.0173638,-79.4029344,71.7114198,-101.3310302,112.06930955490488,1.185129812197314,17.22695849057805,0.9851289534315796,-81.7154224,0.1068695999999959,16.767932199999997
4436.782,-3.808079199999999,96.234999,6.300828400000002,-1.0782038,0.0363278,0.4677431999999999,2.915906,73.48059860000001,-117.367154,2.844923000000001,7.165336399999989,-4.794610799999999,-0.9536106,-0.2839299999999999,0.0144964,-79.8712496,71.65821100000001,-101.8797224,96.51620039273054,1.1758515401756806,9.078762323388052,0.9950877182164996,-82.7871556,-1.8223876000000048,15.4874316
4456.767,-3.845891799999999,80.7645194,5.114265000000001,-1.0826078,0.0414378,0.4377272,3.5331948000000004,75.04077319999999,-116.6366836,-8.99193,9.631281599999989,-4.807784399999999,-0.961948,-0.296793,0.0096814,-80.7286744,71.6077318,-102.5882536,81.01761650493371,1.1684869881644038,14.02608930601405,1.0067391762810067,-84.2618692,-3.433041400000005,14.04843
4476.753,-3.0575025999999985,65.7151008,4.739125800000002,-1.0722324,0.0479048,0.443543,4.203048600000001,76.2908982,-115.8904282,-16.614029,12.16343639999999,-3.413355399999999,-0.9843618,-0.3020869999999999,0.0184406,-81.84280240000001,71.5896882,-103.4095076,65.9566684168583,1.1613387026711028,20.871658768684267,1.02983725150948,-86.045851,-4.701210000000003,12.4809206
4496.739,-2.066987199999999,51.36359699999999,3.9441654000000015,-1.0521098,0.0354784,0.4434882,4.830523,77.26156,-115.2226518,-20.746815,12.67996399999999,-1.4176415999999985,-0.9858114,-0.3093651999999999,0.034791,-83.03595279999999,71.6032424,-104.228038,51.55626027521711,1.14231148626889,24.35613941887284,1.0337994762148026,-87.8664758,-5.658317600000006,10.994613800000002
4516.724,0.9955736000000012,36.56923,4.060265800000002,-1.0439424000000002,0.0427294,0.4351618,5.4876504,77.95280740000001,-114.6040224,-20.8996086,13.821632799999986,-1.1471979999999984,-0.9703616,-0.3229325999999999,0.0154804,-84.326117,71.608998,-105.1426254,36.80741104658906,1.1318159427757502,25.08280758093945,1.0228033739099027,-89.8137674,-6.343809400000003,9.461397000000002
4536.709,3.863309000000001,20.6215062,3.157880000000002,-1.040639,0.0449462,0.4342756,6.0229248,78.3341992,-114.1747744,-21.0947094,15.347203799999988,-0.4933295999999984,-0.955352,-0.3121815999999999,-0.0121491999999999,-85.7461762,71.62845899999999,-106.186345,21.216594460009823,1.1285145041029825,26.091508259267396,1.0051379996513912,-91.769101,-6.705740200000003,7.988429400000001
4556.695,6.565685000000002,2.9058996000000006,1.9792656000000013,-1.0383776,0.0389462,0.442385,6.3548832,78.38033879999999,-114.0090228,-23.7915462,16.40089479999999,-0.1916481999999985,-0.9526552,-0.2960281999999999,-0.023001,-87.28819899999999,71.65722020000001,-107.3013688,7.447816077203341,1.129357930375131,28.897469609984267,0.9978545341297396,-93.6430822,-6.723118600000001,6.707654
4576.68,9.081065,-15.439961399999998,0.3338284000000014,-1.0436104,0.0262928,0.4451915999999999,6.4002962,78.0584302,-114.1821322,-28.500987599999995,15.373841199999989,0.2743462000000015,-0.9484646,-0.3035468,-0.031594,-88.861928,71.68222639999999,-108.3504578,17.915624213751567,1.1349050793042386,32.384202217371744,0.9963553272198628,-95.2622242,-6.376203800000002,5.831674399999997
4596.666,11.730597800000002,-33.8603448,-1.6305309999999984,-1.0495248,0.017324,0.4565276,6.1814036,77.3722822,-114.6672106,-31.7294822,14.36952179999999,1.5850306000000016,-0.9545798,-0.3061205999999999,-0.0429234,-90.4472734,71.72466879999999,-109.3430344,35.871834439601955,1.1446483636264897,34.86768589172112,1.0033816993447509,-96.628677,-5.6476134,5.324176199999997
4616.651,14.187797200000002,-51.475908200000006,-3.924378799999999,-1.057298,-0.0028453999999999,0.4696508,5.7134198000000005,76.33400400000001,-115.4448548,-34.3415062,11.59761519999999,3.070670400000002,-0.9699862,-0.3128622,-0.037741,-91.8993532,71.78875880000001,-110.1426056,53.53936368102487,1.1569179016014055,36.3768160112639,1.019892331307712,-97.612773,-4.545245199999999,5.302249199999997
4636.637,17.3263308,-67.68860459999999,-5.620395999999998,-1.0670905999999998,-0.0036927999999999,0.4915256,5.1474578,74.9740888,-116.3731322,-33.7903896,8.262046399999988,4.457211600000002,-0.985625,-0.3293333999999999,-0.0270632,-93.1173006,71.8709412,-110.7106154,70.09663175134013,1.1748588854988329,35.0701949706972,1.0395429504233098,-98.2647584,-3.1031476,5.662516799999997
4656.622,21.2435474,-82.1455268,-7.503481599999998,-1.0774806,-0.0027217999999999,0.5061410000000001,4.5587574,73.31441620000001,-117.4005584,-29.3343576,5.079586399999989,6.812285400000002,-1.0018056,-0.3346281999999999,-0.0313538,-94.065497,71.998752,-111.0887756,85.17909435716668,1.1904413313778213,30.54036617610856,1.0566804404364831,-98.6242544,-1.3156642000000034,6.311782799999998
4676.608,28.404567199999995,-95.0255218,-9.4674732,-1.0845004,0.0095594,0.5205008,4.0918666,71.4058256,-118.44933919999998,-24.1389036,2.2373201999999885,11.514464,-1.0214182,-0.3120978,-0.0417509999999999,-94.7766298,72.23575000000001,-111.325682,99.63082996730635,1.2029769667492225,26.837942355827447,1.068851403169346,-98.8684964,0.8299243999999988,7.123657199999997
4696.593,37.5489998,-107.0799636,-12.1351168,-1.0892734000000002,0.0360552,0.5355869999999999,3.7859254,69.2513166,-119.5417738,-23.3139402,-1.0884330000000113,17.5955732,-1.0200458,-0.2744816,-0.0553414,-95.309398,72.6028308,-111.3923124,114.1197049168432,1.2143598939209086,29.228901626322248,1.0577789246294145,-99.0953234,3.3515142,8.149461399999998
4716.579,45.2792732,-119.4110596,-14.0119946,-1.0809732,0.0617866,0.5542047999999999,3.656578,66.8496878,-120.637303,-29.6543652,-3.810106200000011,24.3623398,-1.006822,-0.2405543999999999,-0.0539078,-95.8419602,73.11712059999999,-111.32643720000002,128.4739262612668,1.21633202843666,38.5671088519857,1.0365630757190802,-99.4985382,6.267432799999999,9.310865799999998
4736.564,51.3682778,-130.7479844,-13.993669399999998,-1.0544384,0.0633696,0.571607,3.7163784,64.212979,-121.6879454,-40.86243459999999,-6.608232400000011,30.1545242,-0.9931068,-0.2353551999999999,-0.0509642,-96.4479432,73.7486956,-111.1049208,141.17208708550396,1.2010789349779305,51.21232885370545,1.021885774465483,-100.1643216,9.5357166,10.583024599999998
4756.55,57.6797548,-140.8771256,-11.9996038,-1.0284954,0.0914394,0.6015754,4.042016800000001,61.3808006,-122.6118682,-51.4909718,-8.636521200000011,35.5538124,-0.9843518,-0.2375386,-0.0533156,-97.183049,74.48405020000001,-110.79730519999998,152.7000626144707,1.1950133528871885,63.16631421510074,1.0140096675360448,-101.2250658,13.103249600000003,11.814563
4776.536,58.1490204,-150.10498660000002,-8.934140199999998,-0.9977192,0.1122844,0.6397948,4.5157584,58.3676468,-123.410353,-59.088864,-9.61766820000001,38.9132704,-0.9751256,-0.2276913999999999,-0.0446011999999999,-98.0383742,75.2865602,-110.458905,161.22231370619596,1.1905413788016943,71.40193277243483,1.0023485304277948,-102.5541326,16.9189134,12.951448000000005
4796.521,52.5878852,-157.0775086,-2.9024059999999983,-0.952387,0.1109374,0.6788396000000001,5.075362,55.21168300000001,-123.998056,-62.9310928,-10.931635800000011,38.9656852,-0.985762,-0.2581634,-0.0199936,-98.8519882,76.08616040000001,-110.0018464,165.67212601515163,1.17480692329247,74.82077068148625,1.0192030248113082,-103.9273502,20.8744774,13.9962096
4816.507,44.3418686,-161.53908080000002,5.102159600000002,-0.8988436,0.1026328,0.7183284000000001,5.6764796,51.9554804,-124.346344,-57.8624122,-13.394274000000014,35.8652004,-0.9927932,-0.3159523999999999,-0.013011,-99.3141632,76.8242556,-109.2899674,167.59208802694857,1.1551835348304442,69.38139463373409,1.0419373988647305,-104.9906428,24.8687752,15.056376600000002
4836.492,37.068509000000006,-165.3477906,12.2574534,-0.8659817999999999,0.1188893999999999,0.7411352000000001,6.292496000000001,48.6242098,-124.5057938,-43.9496982,-14.282300800000012,32.011282,-0.9816014,-0.3041679999999999,-0.0204558,-99.3557998,77.49265299999999,-108.4335924,169.89470674402338,1.1460107120104244,56.2163878535102,1.0278511178471326,-105.6482958,28.8684432,16.072201400000004
4856.478,28.099885200000006,-169.1896424,16.59421,-0.8277198,0.1110203999999999,0.7625292,6.7904348,45.222458,-124.590422,-31.015411800000003,-15.368848800000013,28.2761596,-0.9776746,-0.2388883999999999,-0.0126742,-98.9489914,78.100708,-107.3847184,172.30817290313644,1.1308830078221357,44.69562041504194,1.006516729361892,-105.73942619999998,32.87825,17.205703600000003
4876.463,19.5419274,-172.29329239999998,20.480816200000003,-0.7767864,0.0943768,0.795999,7.1633358000000005,41.7566796,-124.611183,-24.3343522,-19.101960400000014,23.8613942,-0.9790146,-0.2302977999999999,0.0060453999999999,-97.8597626,78.62463840000001,-105.7794678,174.6033486642136,1.1162071938507652,39.069319437182514,1.0057550450080577,-105.0230984,36.8679588,18.8317152
4896.449,12.327055000000003,-174.63122579999998,23.8834944,-0.7292972000000001,0.0892936,0.826023,7.427308399999999,38.2435582,-124.5756484,-17.613483,-22.95609060000001,18.961192,-0.9700778,-0.2587137999999999,0.015089,-96.0884308,79.05134419999999,-103.617517,176.68741498516084,1.1055142466100565,34.59398330761524,1.004097329089307,-103.51573919999998,40.807786,20.958131400000006
4916.434,7.389618000000003,-177.1466524,24.9648232,-0.697667,0.0998594,0.8538808,7.590947600000002,34.6911648,-124.53876799999998,-7.7254603999999985,-24.18730880000001,16.0024258,-0.9651554,-0.2234159999999999,0.0157842,-93.8166382,79.4017226,-101.1502792,179.04967273949316,1.1071691665079912,30.01310175345147,0.9908020973811068,-101.4075858,44.7105578,23.3884888
4936.419,1.810632600000003,-180.0370514,25.0060624,-0.6561412000000001,0.0972676,0.8858362,7.6203378,31.08990260000001,-124.5260926,-1.8581785999999996,-25.98980440000001,13.597771600000002,-0.9864572,-0.1839211999999999,0.0353987999999999,-91.0580764,79.7017302,-98.3107284,181.7743695463448,1.1066562400211006,29.390851517870736,1.004080619413959,-98.6784142,48.611827600000005,26.2153642
4956.405,-4.190780999999997,-182.564679,26.625072800000005,-0.6014924,0.0944306,0.9220276,7.5407162,27.436873400000003,-124.48405,0.6882618000000008,-30.19323120000001,10.4063978,-0.9905522,-0.2226467999999999,0.0512097999999999,-87.62083579999998,79.9016464,-94.8362,184.54354273549723,1.1049186126751056,31.943669635372803,1.016556787440387,-95.161552,52.464773,29.64785
4976.39,-9.240178999999998,-184.9797362,27.9054076,-0.5501992,0.1055696,0.9423318,7.379779600000001,23.7402726,-124.407924,8.003748,-32.61623660000001,7.749061000000002,-0.9916912,-0.2377589999999999,0.0595331999999999,-83.6849076,79.9917236,-91.0048326,187.3008154971456,1.0962907102662325,34.4663142557542,1.0215307044532145,-91.0646872,56.25145100000001,33.4030914
4996.376,-13.9710856,-187.747009,27.849573400000004,-0.5040568,0.1125944,0.9485124,7.126234200000001,20.0026536,-124.3249894,17.4800258,-35.94676800000001,6.933767200000001,-1.0004382,-0.1921541999999999,0.0710944,-79.1450454,79.9953538,-86.7539554,190.314816448564,1.080012282102088,40.56844289836975,1.021202351303717,-86.27127959999999,59.9927002,37.571034
5016.362,-18.289949799999995,-190.25063140000003,28.014475200000003,-0.4435378,0.1082162,0.948184,6.784241199999999,16.2236576,-124.226233,21.9684386,-41.346120000000006,5.629560800000002,-0.9936452,-0.1788417999999999,0.0908246,-74.01694619999999,79.8788942,-81.996094,193.1699661762061,1.052373234089161,47.1572464036787,1.0136884535573245,-80.80118739999999,63.6552366,42.230139
5036.347,-21.3459762,-191.9493986,27.515599400000003,-0.3746121999999999,0.1059274,0.9526362,6.3807936,12.4145674,-124.1166536,25.986584400000005,-47.59374860000001,5.390087200000002,-0.987558,-0.1912785999999999,0.1079796,-68.32843539999999,79.63009199999999,-76.7475694,195.082881189442,1.029111579961104,54.49330706244512,1.0116906148611442,-74.70922900000001,67.21552460000001,47.3690842
5056.332,-23.5231328,-192.5648282,25.8836808,-0.3087012,0.1020122,0.9427534,5.9301064000000006,8.6022562,-124.0127444,31.994846800000005,-52.432264800000006,6.417971600000001,-0.985173,-0.1800859999999999,0.1242084,-62.2914542,79.2661728,-71.2616814,195.71539481649936,0.9972396367181962,61.7576146986847,1.0091702205057185,-68.2215606,70.6639166,52.751063
5076.318,-25.640568599999995,-192.6161314,24.537811,-0.2393046,0.084625,0.9369114,5.425451000000001,4.7929928,-123.9046558,37.2754448,-56.57686320000001,7.4654652000000015,-0.9783806,-0.1812779999999999,0.1452572,-56.1348402,78.7768462,-65.75354000000002,195.8584105988433,0.9706858676503536,68.16255134046682,1.005579417993527,-61.56029120000001,73.98385340000002,58.1511158
5096.304,-25.7624554,-192.3321928,24.063691400000003,-0.161679,0.0718623999999999,0.9345688,4.9073244,0.9853858,-123.77104060000002,42.888631200000006,-59.32737060000001,8.156396800000001,-0.9678082,-0.1913633999999999,0.1657464,-50.1378012,78.1559156,-60.511476,195.53628241144352,0.9511693569013878,73.65934019035474,1.0003721967146828,-55.045125600000006,77.17052980000001,63.2595646
5116.289,-24.539713599999995,-191.8628418,23.1707306,-0.0925404,0.0670232,0.9266922,4.4029024,-2.812414,-123.6197358,49.7213244,-61.047908800000016,8.878270600000002,-0.971053,-0.1744113999999999,0.189162,-44.4024878,77.430473,-55.6660438,194.8087019711379,0.933709948812392,79.23307994638337,1.004562356204412,-48.8053902,80.24288700000001,67.953692
5136.275,-23.5626486,-191.5233002,22.757068200000003,-0.0322018,0.0541961999999999,0.9167278,3.902524800000001,-6.599577999999999,-123.440915,54.2508546,-62.39142080000001,8.578567000000003,-0.9607911999999998,-0.1619787999999999,0.2109848,-39.1010554,76.5913404,-51.3460014,194.304547248915,0.9188928355964692,83.12301983233348,0.9969310144026616,-43.0035802,83.1909184,72.0949136
5156.26,-20.539203,-191.7921876,22.341418,0.0282926,0.0425906,0.9061448,3.4495683999999995,-10.3909338,-123.2362488,57.719819,-62.66971060000001,8.0032004,-0.954347,-0.1522415999999999,0.2298366,-34.3250838,75.65941000000001,-47.622895,194.1783742915764,0.9075862653159534,85.57523794137575,0.9933682921651568,-37.774652200000006,86.05034380000001,75.6133538
5176.246,-14.416790599999995,-192.22959,21.121463,0.0842088,0.0433418,0.8874739999999999,3.1157036,-14.1871882,-123.0284714,60.9778916,-62.11184380000001,8.339126800000003,-0.9489592,-0.1129931999999999,0.243512,-29.9467716,74.6853394,-44.365313,193.92311703877056,0.8925131563739997,87.43983897516868,0.9861993310963458,-33.0624752,88.8725276,78.6631584
5196.231,-8.569822799999997,-192.8702762,18.7039132,0.137772,0.0408337999999999,0.8705014,2.8979036,-17.9897772,-122.849936,60.725312800000005,-60.387909600000015,8.8275362,-0.9479263999999998,-0.0787975999999999,0.2656182,-26.0023812,73.69784239999998,-41.540857,193.9644855979589,0.8822818204000352,86.09406852901034,0.987586223959184,-28.9002848,91.6876196,81.309079
5216.217,-2.9373401999999977,-193.622867,16.3169136,0.190466,0.0365576,0.8505889999999999,2.7934968,-21.8026272,-122.7079958,58.405416,-56.863256000000014,9.1062632,-0.9440572,-0.0764565999999999,0.2796124,-22.566374,72.73751519999999,-39.1837852,194.3313774514556,0.872419281191538,82.02162233534685,0.9875589616773066,-25.3598708,94.5401424,83.52421059999999
5236.202,2.3084086000000026,-194.2197328,14.0609802,0.2489493999999999,0.0367332,0.8191331999999999,2.802829,-25.629917,-122.6092256,58.1916542,-50.63275220000001,10.238985200000002,-0.9367858,-0.0858299999999999,0.2934816,-19.5354064,71.86819599999998,-37.2324448,194.74173801050648,0.8569155915752962,77.81247349753639,0.9854267469072472,-22.3382354,97.498113,85.3767808
5256.188,6.159239200000003,-194.1042604,12.8871314,0.3088746,0.040792,0.7787522,2.8974846,-29.4641402,-122.5390886,58.3892738,-43.45272400000001,9.217733000000004,-0.9289362,-0.0848733999999999,0.3064547999999999,-16.929228000000002,71.1051328,-35.722932400000005,194.62907873356104,0.8387624781748406,73.36493112905397,0.9818556422107276,-19.8267126,100.569273,86.8161562
5276.173,7.8455594000000035,-193.3802858,12.1569976,0.3753434,0.0382527999999999,0.7445362,3.0303466,-33.295488,-122.4899766,57.7605828,-36.16885380000001,7.064242800000001,-0.924796,-0.0783355999999999,0.3179634,-14.7385538,70.4515806,-34.6327826,193.92080942754703,0.8346736474466172,68.51550508416896,0.9810631129458084,-17.7689004,103.7470686,87.857194
5296.159,8.664714400000003,-192.2892732,11.2698034,0.4384574,0.0408358,0.6866116000000001,3.2007728,-37.123705,-122.4754074,57.5463676,-30.04818580000001,3.088985000000002,-0.9249264,-0.0684863999999999,0.3233844,-12.9665482,69.8900572,-33.978425400000006,192.81403043371208,0.8156886314219172,64.99245896375884,0.9822202922793236,-16.167321,107.0137622,88.496982
5316.144,8.237346200000001,-189.3378114,10.5562284,0.490274,0.0404261999999999,0.6317652,3.3792054,-40.9050072,-122.4895828,57.9702874,-24.109996000000013,0.4757798000000015,-0.9230518,-0.0549311999999999,0.331509,-11.4558102,69.4287352,-33.610290400000004,189.81068109090592,0.8007060263626595,62.78592592911809,0.9823137377119796,-14.8350156,110.3337424,88.87929240000001
5336.13,6.601867800000003,-186.5711672,8.9469064,0.5900074,0.0385251999999999,0.5838699999999999,3.5720218000000004,-44.6487832,-122.5667098,55.821663,-20.25854740000001,-4.239356599999999,-0.9339784,-0.0425053999999999,0.3406802,-10.3030714,69.0247924,-33.5789564,186.9021996204148,0.8309615514509681,59.53519083051284,0.9950805793340356,-13.8750932,113.6735756,88.9877534
5356.115,4.689606600000003,-182.6331148,8.224431000000001,0.6242576,0.0392116,0.5383116,3.7371932,-48.320585,-122.6661026,52.66479119999999,-16.074362400000012,-6.040303999999998,-0.9375504,-0.0380161999999999,0.3515118,-9.3662222,68.69485159999999,-33.7107108,182.87834288642955,0.8252360143782383,55.39359738380011,1.0020012622456322,-13.1034154,117.0154366,88.9553918
5376.101,1.904465000000003,-178.40709840000002,10.363335200000002,0.6794361999999999,0.0202296,0.4712160000000001,3.7832722,-51.91245740000001,-122.6894486,48.7983598,-12.293531600000012,-7.302805199999999,-0.9447856,-0.0576571999999999,0.3567762,-8.651361000000001,68.435153,-33.9922348,178.7179858405725,0.8270957050079513,50.850189794725466,1.0115500183212098,-12.4346332,120.3476104,88.6972138
5396.086,-2.895732999999997,-172.5520538,9.5135434,0.7222936000000001,0.0266536,0.4339068,3.7744026,-55.3882874,-122.7545458,44.821692,-6.34207160000001,-4.955769799999999,-0.9408414,-0.0744389999999999,0.3578018,-7.981304800000001,68.2999372,-34.2319016,172.83837550795562,0.8430264349830082,45.53861658233573,1.0093293975497792,-11.7557074,123.6882246,88.52264419999999
5416.072,-6.933387999999996,-167.76488640000002,11.9127124,0.7768212,0.0072921999999999,0.3879176,3.5614538,-58.7753,-122.6816638,39.8845032,-0.7417590000000114,-2.266763199999999,-0.9433636,-0.0877875999999999,0.3532316,-7.3429916,68.28583660000001,-34.395459,168.33015681893892,0.8683227610399487,39.95575074166127,1.0111449489352553,-10.9044454,127.0611366,88.2862048
5436.057,-7.744204199999997,-160.5138976,16.040993800000003,0.7750568,0.0016095999999999,0.3466578,3.1172902,-62.0150292,-122.3670108,35.721401199999995,6.039071599999988,3.673759800000002,-0.9510386,-0.0907537999999999,0.3573988,-6.538458799999999,68.42021460000001,-34.289537,161.49921827527905,0.8490508019778558,36.4140824482697,1.0200218493472777,-9.655749,130.43524380000002,88.07747379999999
5456.043,-11.471088799999997,-152.351657,19.793167800000003,0.8192320000000001,0.0030649999999999,0.2884408,2.3245096,-65.0961946,-121.75435360000002,32.2553986,12.855212399999989,7.8551198000000015,-0.945274,-0.0943133999999999,0.3318704,-5.6243208000000005,68.70524420000001,-33.990818000000004,154.05967272606446,0.8685324168697678,35.60014229980475,1.0062683115808229,-7.9488304,133.8014388,87.7635356
5476.029,-16.981991799999996,-141.9796768,21.5687476,0.8318814,0.0191468,0.252872,1.0764042,-67.97080839999998,-120.790146,26.995284400000003,20.463648199999987,11.1764892,-0.930302,-0.0763953999999999,0.3091176,-4.6466832,69.15494980000001,-33.5141036,144.60922357429428,0.8696766709531767,35.67099926169665,0.9832862039990796,-5.723087400000001,137.1257582,87.27604240000001
5496.014,-20.8853984,-131.37172379999998,26.664478000000003,0.8442183999999999,0.001794,0.2052862,-0.8372440000000001,-70.61580819999999,-119.2144592,19.958465,25.546367199999985,9.7435314,-0.9416322,-0.0550731999999999,0.2941202,-3.8711782,69.707579,-33.1059118,135.66769721463797,0.8688212412487393,33.85105030004602,0.9880338807364452,-3.0339342,140.3233872,86.1085474
5515.999,-24.4591536,-118.6230788,28.2616128,0.849403,0.012498,0.1637392,-3.3814852,-72.9938554,-117.0719466,12.260454,29.483104999999988,7.314592800000002,-0.9351794,-0.0291397999999999,0.2694874,-3.3517774000000005,70.3404708,-32.810841999999994,124.37203776121274,0.8651313091257535,32.75783082801656,0.9736699116677888,0.0297077999999999,143.33432620000002,84.2611046
5535.985,-30.0737842,-105.1637312,28.5967946,0.8543009999999999,0.0083184,0.1231968,-6.645163200000001,-75.08157659999999,-114.3217208,2.3130988,33.565454399999986,2.9387866000000016,-0.915194,-0.0051293999999999,0.2361624,-3.2441311999999995,71.056189,-32.7464332,113.05582478319556,0.8631783395740418,33.77316422571891,0.94518730818506,3.401032,146.13776560000002,81.5752876
5555.97,-31.620593199999995,-91.6843702,27.537172400000003,0.8690806,-0.0128504,0.1022988,-10.5303478,-76.8629776,-110.981352,-9.989039,37.63148259999999,-2.6596449999999985,-0.9108196,0.0123394,0.2290782,-3.7254414,71.8429108,-33.0457382,100.81756551850404,0.8751749919632987,39.02541600474809,0.9392664298545752,6.804906399999998,148.7058884,77.93561380000001
5575.956,-30.9280262,-79.3725096,25.8438146,0.8767590000000001,-0.0263947999999999,0.067259,-14.965608800000002,-78.34873819999999,-107.0785764,-21.0481746,41.03494259999999,-8.3279708,-0.9187012,0.015396,0.22396,-4.8424092000000005,72.6821228,-33.7797294,89.01932845123666,0.879731096772781,46.86413624321942,0.945730941281631,10.123199599999998,151.03086100000002,73.29884700000001
5595.941,-28.883383,-66.0096374,24.0505986,0.892825,-0.0345054,0.0385548,-19.751566200000003,-79.53099060000001,-102.7893888,-30.4531618,45.49822159999999,-11.745764,-0.9096342,0.0108402,0.208881,-6.529651799999999,73.5960648,-34.9077286,75.96020890059802,0.8943229706639543,55.99505517742956,0.9333719301043288,13.221914399999998,153.12705540000002,67.8816602
5615.927,-28.4696826,-55.2744934,21.7176754,0.9333822000000002,-0.053483,0.0523905999999999,-24.7940426,-80.4426162,-98.2457884,-40.2885524,50.51025019999999,-16.636045,-0.906331,0.0029172,0.21463,-8.999171800000001,74.5737154,-36.6373512,65.8593187996289,0.9363800176927104,66.71739520541978,0.9314023988141968,15.794870799999998,155.0163316,61.6084372
5635.912,-33.2503154,-51.8133102,18.6540624,0.9682068,-0.052219,0.0195652,-30.5015474,-81.22643439999999,-93.138429,-50.2351242,45.12214859999999,-21.100044,-0.9082536,-0.0035925999999999,0.2010793999999999,-12.084477199999998,75.40265059999999,-38.792107400000006,64.32866104703248,0.9698113365898958,70.74452526147759,0.9302528870108816,18.4170702,156.62908499999998,54.3463216
5655.898,-37.011715,-44.865368200000006,13.682200400000005,0.9880808,-0.0608038,-0.002936,-36.086744,-81.8781648,-88.236682,-55.2170708,42.29528859999999,-24.8390832,-0.9143978,-0.0177287999999999,0.200712,-15.7671372,76.1176318,-41.4530608,59.74923362478013,0.9899542360731024,73.85659347482813,0.9363348513957388,20.319606799999995,157.9957966,46.7836212
5675.884,-35.844291,-34.395792,8.440178600000001,1.0023548,-0.0847229999999999,-0.0194384,-40.6969976,-82.372986,-84.29584659999999,-56.1007004,41.22756999999999,-29.7106824,-0.9248184,-0.0392653999999999,0.1971544,-20.194994200000004,76.718497,-44.8535134,50.38968465271283,1.0061167840795622,75.69495202554215,0.9464146565090168,20.5020034,159.091483,39.4423332
5695.869,-31.107982,-23.5903106,5.384813200000002,1.0110958,-0.0977418,-0.0298066,-44.0887148,-82.7026506,-81.48393560000001,-53.6517342,40.05211819999999,-33.435513,-0.9369556,-0.0525037999999999,0.2005912,-25.206957,77.18815939999999,-48.8972764,39.410728380933165,1.0162463331537488,74.83725198420495,0.9596245489269436,18.881757799999995,159.89081,32.5866592
5715.855,-23.9646346,-12.6230652,4.9215338000000015,0.998581,-0.0938112,-0.07067,-46.4322984,-82.8610184,-79.5778672,-48.1892432,34.75492499999999,-33.0772678,-0.957937,-0.0603965999999999,0.1932035999999999,-30.1768656,77.4906434,-53.005407000000005,27.52938396512916,1.005464471628133,68.0015706955162,0.9790907395709144,16.2554328,160.35166180000002,26.5724602
5735.84,-12.8431282,3.3814307999999995,5.751457800000002,0.990489,-0.1107502,-0.0648608,-47.1733178,-82.76436,-79.0554644,-38.9538024,36.27873559999999,-30.9281506,-0.9754156,-0.0805895999999999,0.1969746,-34.9477372,77.79327859999998,-57.0961518,14.47270821380728,0.9987697378763936,61.56375457758593,0.998363295297198,12.225580599999995,160.55763860000002,21.9593126
5755.826,-4.436142399999997,15.133106799999998,8.344168200000002,0.9914598,-0.1282616,-0.051778,-46.817302,-82.46077720000001,-79.4684496,-31.3151912,33.61191159999999,-27.149069,-0.9892004,-0.0972031999999999,0.1874922,-39.303224,78.0383042,-60.9146082,17.841396351271815,1.0010617035600753,53.36172550494907,1.0114935583142584,7.514078,160.49908140000002,18.5538414
5775.811,-0.0381541999999972,23.4207054,10.809633600000002,0.9950012,-0.1244618,-0.0384726,-45.884674,-82.0072508,-80.3786728,-26.0184882,29.870673599999986,-21.1199846,-0.988613,-0.1063497999999999,0.181117,-43.0605514,78.23323819999999,-64.22688539999999,25.794942832710756,1.0034930336636323,44.8917878796948,1.0106776496084398,2.8241225999999977,160.24048899999997,16.1517874
5795.797,1.5473772000000028,30.5991946,13.5609416,0.998666,-0.1477124,-0.0305426,-44.655818,-81.4032042,-81.55675360000001,-23.762008599999994,27.33452559999999,-16.516303399999998,-0.9810516,-0.1209006,0.1668946,-46.4549882,78.390361,-67.2107408,33.50528649998921,1.0099928628879118,39.80700466606825,1.00246346788902,-1.7991702000000012,159.79356520000002,14.346012800000002
5815.782,4.162225000000003,38.4222316,14.620178200000002,1.0123776,-0.177808,-0.0203592,-42.9840316,-80.65690000000001,-83.1244796,-23.186732799999994,27.648130399999992,-15.7949728,-0.9675568,-0.1477597999999999,0.1539638,-49.9219408,78.5064606,-70.27654279999999,41.319990424423125,1.0280751854170975,39.38940032936195,0.9908097554186271,-6.937909200000002,159.16336059999998,12.847936800000005
5835.787,7.797679200000002,46.8742678,12.2798546,1.0318202,-0.1930869999999999,-0.0050726,-40.6677366,-79.8009552,-85.2704864,-23.2719782,28.585228399999988,-17.3222448,-0.9620712,-0.1683435999999999,0.1422008,-53.5914058,78.56646719999999,-73.54521960000001,49.079482593945215,1.0497434191114512,40.727882549091206,0.9869861341736468,-12.9236692,158.36742239999998,11.725266800000004
5855.753,10.765537200000002,54.93297640000001,10.352708000000002,1.0306582,-0.2012406,0.0012201999999999,-37.9145598,-78.8217362,-87.7999404,-22.8061888,27.81070719999999,-19.0355008,-0.9595906,-0.1864413999999999,0.1315966,-57.2867892,78.5519408,-76.8491044,56.927210104666166,1.0501217039960844,40.69284916606574,0.9863529694657384,-19.3722294,157.373677,10.950836000000004
5875.739,13.5020328,63.4904944,8.384993,1.0169362,-0.209081,0.0169661999999999,-34.921952,-77.6942292,-90.5229096,-20.739730599999994,22.653638599999987,-20.9541146,-0.9711462,-0.2101479999999999,0.122695,-60.610216,78.4164794,-79.8152084,65.44964382255075,1.0383457764029669,37.18062245108221,1.0011699090081765,-25.688264000000004,156.1107086,10.707701200000006
5895.724,16.406396200000003,71.7693808,4.563778200000001,0.9980358,-0.2000262,0.0364805999999999,-31.7692012,-76.4442598,-93.368509,-15.539666799999996,12.578229799999988,-21.246647399999997,-0.9827958,-0.2337437999999999,0.1085642,-63.000600600000006,78.1486938,-81.93417960000001,73.76206293309303,1.0185365839990432,29.173843334339004,1.016026542004548,-31.231399400000004,154.59295360000002,11.434329400000005
5915.71,17.9439056,81.6650618,-0.0641985999999985,0.9660734,-0.1894716,0.0594217999999999,-28.4241538,-75.0449616,-96.4103394,-9.775813799999998,1.0365351999999888,-19.167693,-0.9974155999999998,-0.2389576,0.1036222,-64.177807,77.7977858,-82.9322052,83.61321778546603,0.9862698675866356,21.541620078707133,1.0308618598308696,-35.753653199999995,152.8427474,13.478134200000005
5935.696,20.0399972,92.4794006,-2.0740831999999982,0.923404,-0.1823292,0.0822806,-25.1352088,-73.4312058,-99.3848038,-4.889437999999997,-13.950683000000009,-16.909526399999997,-1.0098436,-0.2534686,0.1033482,-63.96179440000001,77.3390502,-82.60341179999999,94.64852267326631,0.9448221957199142,22.46019241223525,1.0462845110629135,-38.8265856,150.770256,16.781392000000004
5955.681,23.384446000000004,103.6098344,-4.500958799999999,0.8951562,-0.1649748,0.1148353999999999,-21.9562542,-71.59761660000001,-102.2150972,-0.721805199999997,-31.342754600000013,-14.170723399999996,-1.0091684,-0.249783,0.1044478,-62.308133,76.7587142,-80.8826934,106.31128222931768,0.9174467156879684,34.40492218188957,1.0448548940271083,-40.3518788,148.3563308,21.3324038
5975.666,27.716650000000005,114.449881,-6.700586599999999,0.8788856,-0.1557794,0.1464946,-18.9364628,-69.53595120000001,-104.829416,1.852735600000003,-47.39249860000001,-10.227037799999998,-0.991066,-0.2310435999999999,0.103593,-59.4764908,76.0753218,-77.9979096,117.94865751215976,0.9045262777724482,48.51879898469396,1.02290002986898,-40.54002799999999,145.61127299999998,26.8315064
5995.652,30.319396200000007,125.412024,-10.297684199999996,0.8629184000000001,-0.1401118,0.1952098,-16.0575696,-67.2480316,-107.280217,1.473452000000003,-58.953817000000015,-5.597324599999998,-0.963945,-0.2035516,0.1084862,-55.9223046,75.3251418,-74.3530504,129.4352496408613,0.8957490427423521,59.237265655527686,0.9911571381360272,-39.864735,142.5731734,32.92716660000001
6015.637,29.9233602,134.50719759999998,-15.187573199999996,0.8342084,-0.1120302,0.2411164,-13.3332304,-64.7626382,-109.6093218,-0.4875487999999972,-69.01499100000001,-1.231560199999997,-0.9674864,-0.1937289999999999,0.1357402,-51.8932046,74.4811248,-70.166845,138.6299248776026,0.8755521336228699,69.02770043314993,0.9959850709332948,-38.5599742,139.243763,39.4424768
6035.623,27.247535000000006,142.1736938,-19.7626744,0.7979428000000001,-0.095757,0.2802648,-10.857007,-62.103174,-111.7685548,-2.410786799999997,-76.56867980000001,8.323613200000002,-0.9449208,-0.192515,0.1362074,-47.5082246,73.6110396,-65.5502938,146.10390368416853,0.8511348149616957,77.05749253650289,0.9739044097407096,-36.6512176,135.7142136,46.218261
6055.608,25.249906200000005,150.289398,-22.3602402,0.7639326000000001,-0.0979554,0.3286584,-8.6752014,-59.2487512,-113.6906708,-0.3206757999999972,-70.99964380000002,17.6148394,-0.9418402,-0.1915594,0.139913,-43.2991892,72.8822218,-61.141540600000006,154.02740423740477,0.8373796161971464,73.15281826275307,0.971253629920321,-34.623987799999995,132.13097299999998,52.5491302
6075.594,22.9185228,156.9013426,-25.572934,0.7267886000000001,-0.0842812,0.383087,-6.747540000000001,-56.2408998,-115.4253036,3.369109400000003,-58.55849700000001,21.2807428,-0.9482992,-0.1927107999999999,0.1692238,-39.6530992,72.32393640000001,-57.3878028,160.61526997886924,0.8258817344707413,62.39646210457713,0.9823673038348334,-32.9055592,128.5648362,58.0375008
6095.579,20.2020686,161.7339872,-27.629998,0.6654272000000001,-0.0548029999999999,0.4420296,-5.0789302,-53.10560300000001,-116.9647156,5.238257400000003,-45.486321200000006,21.574624000000004,-0.946379,-0.2226989999999999,0.2080518,-36.687948,71.907289,-54.3779776,165.3161304313916,0.8007414655086872,50.61530556698835,0.9942402163085337,-31.6090178,125.012892,62.58673799999999
6115.565,15.578055600000004,167.1909116,-26.6739318,0.6122976,-0.0495102,0.4682521999999999,-3.7609678,-49.8331122,-118.2401122,8.334887800000004,-27.71541780000001,20.976351,-0.9054838,-0.2409801999999999,0.2034307999999999,-34.5168312,71.7287384,-52.259429,170.02051457276195,0.7724116348648821,35.7438391858282,0.958830777167233,-30.7558634,121.5618506,65.9806832
6135.55,15.254656600000004,172.8822904,-25.3117736,0.5816950000000001,-0.067359,0.518365,-2.6720614,-46.419148,-119.2888258,13.3750702,-5.861501600000011,10.7898418,-0.8969074000000001,-0.2097263999999999,0.2369472,-33.5458388,71.7577042,-51.513498600000005,175.39007031389065,0.7820540781371835,18.1568276395068,0.9510899130048432,-30.8737774,118.1768522,67.77532719999999
6155.536,23.1234524,176.5594236,-24.8647342,0.5407862,-0.0278251999999999,0.5944152,-1.5709830000000002,-42.914951,-120.1837386,11.424652400000005,7.127652599999989,-1.4380457999999976,-0.9030368,-0.1824101999999999,0.2701186,-33.6134466,71.8468996,-51.8267364,179.79482506372634,0.8040854344262928,13.542307401990625,0.960058853031542,-32.0424636,114.7618506,68.35700219999998
6175.521,23.1725032,179.93946820000002,-23.7296332,0.4905666,0.035844,0.6374024,-0.6097760000000001,-39.3262552,-120.919252,3.403775000000002,14.478518999999988,-7.589232399999997,-0.8979258,-0.1837345999999999,0.2637243999999999,-34.417014200000004,71.9854066,-52.7446052,182.97068785042967,0.8051224757124348,16.697593991506544,0.9537188813786588,-33.8072382,111.3116618,68.1746468
6195.507,18.0201796,183.9094726,-22.687389,0.4755564,0.0228456,0.6723846,0.1169505999999999,-35.6502498,-121.514743,-3.5240651999999977,19.63655299999999,-16.344267799999997,-0.9128224,-0.1629393999999999,0.2585334,-35.9499464,72.1077028,-54.2861618,186.17770705555412,0.8238791545715185,25.79046992929319,0.9626180451922144,-36.066897,107.7579526,67.22858120000001
6215.492,24.0365734,185.7852142,-22.8366704,0.4622554,0.007039,0.7450682000000001,0.8770118,-31.9289906,-122.0242446,-8.283793799999998,21.07549979999999,-23.0651674,-0.9592216,-0.135238,0.2646963999999999,-37.938072,72.1724138,-56.2099214,188.7204710441125,0.8768444702462348,32.32336428546293,1.0042208814416875,-38.8150838,104.1014044,65.8143232
6235.478,31.622448,186.3020752,-22.3827534,0.4059412,0.0700692,0.8125820000000001,1.7243718,-28.1848152,-122.4463714,-10.806497999999998,22.33311779999999,-21.216887,-1.0025554,-0.1813055999999999,0.2641795999999999,-40.0132154,72.25532860000001,-58.167003,190.2877560199404,0.9110364742259666,32.64513506884983,1.052511240660488,-41.7375872,100.44014380000002,64.2793684
6255.463,22.562346800000004,187.1622986,-22.3890488,0.3336278,0.0933297999999999,0.8143952000000001,2.335241,-24.4224252,-122.798686,-5.861011399999997,25.985990199999986,-18.6440486,-0.9865698,-0.241084,0.2450835999999999,-42.1075972,72.39486400000001,-60.242003,189.8421845020959,0.8850183626817695,32.51497638788297,1.0447523325252737,-44.4428382,96.8172892,62.556683
6275.449,17.017903800000006,187.5864624,-22.5851808,0.2610848,0.0528012,0.8409364,2.7934946,-20.6452738,-123.1059064,4.991008400000004,31.840873399999985,-18.4968546,-0.9785952,-0.2321475999999999,0.2319492,-44.2792396,72.6048646,-62.62469660000001,189.706036586244,0.8821152239687512,37.16026121836657,1.0321538184928831,-47.0727342,93.2501384,60.4812098
6295.434,23.895658800000007,186.3447754,-23.3431702,0.1664212,0.0639584,0.8845230000000001,3.3636178,-16.891019800000002,-123.3885022,13.389244000000003,36.63175899999999,-12.236722799999995,-0.9882878,-0.2031578,0.2266144,-46.2785904,72.9464538,-64.9983424,189.3152963269176,0.9023123795388158,40.876582626360246,1.0340889486001867,-49.6422082,89.8374736,58.390159800000006
6315.42,23.6203114,185.1890962,-23.4216942,0.0555704,0.117788,0.9201146,3.9037356,-13.1563518,-123.63123,14.331507600000004,39.55641799999999,-8.557375999999998,-0.964957,-0.2257115999999999,0.2085023999999999,-48.334549,73.34929939999999,-67.4427828,188.1528533432436,0.9292862634480938,42.93403078077991,1.0126998514018457,-52.23828460000001,86.5056512,56.1884472
6335.406,13.251893200000003,183.7487214,-23.922262,-0.032412,0.0965176,0.9086454,4.2141192,-9.4540386,-123.8537718,10.127101600000003,42.30208679999999,-11.678799799999997,-0.9115914,-0.2165476,0.1848447999999999,-50.835389000000006,73.7078412,-70.2590134,185.7726565152032,0.9143318039939986,45.037973968862495,0.9550179808290312,-55.049508200000005,83.16187980000001,53.5947584
6355.391,12.771269600000004,181.520514,-23.455757,-0.0966254,0.0712834,0.9520096,4.4994518,-5.7918846,-124.0498778,-0.1068419999999967,42.09952559999999,-13.620186399999998,-0.9262393999999998,-0.1762253999999999,0.1753768,-53.6831116,74.00579359999999,-73.22082359999999,183.4747254159633,0.9595520150220518,44.24806152283695,0.9590265062529606,-58.18256340000001,79.79767820000001,50.8290542
6375.377,17.032089600000003,179.0345856,-22.703147,-0.1375798,0.0870764,0.9914349999999998,4.8590116000000005,-2.1721586000000004,-124.2123382,-13.021918799999998,37.90034539999999,-13.723511799999995,-0.95941,-0.1984659999999999,0.1704646,-56.6583136,74.206549,-76.0417418,181.27026176626367,1.0047158105802851,42.35966627344735,0.9944417937260884,-61.5173252,76.37870760000001,48.17059640000001
6395.362,13.842667200000005,177.1149658,-19.8793112,-0.1751536,0.1239682,0.9944984,5.1577906,1.4156916,-124.2974502,-21.125593,33.86196539999999,-15.853050799999997,-0.9557924,-0.2489229999999999,0.1529164,-59.69048680000001,74.2872864,-78.7519774,178.76385976849895,1.0173858490301309,42.94464576661247,0.9994424431730524,-64.8482774,72.8715948,45.545472800000006
6415.348,6.974335800000004,175.7511444,-18.342095800000003,-0.1971876,0.1274706,0.9736096,5.328152600000001,4.981499599999999,-124.3378066,-21.8494506,31.45812399999999,-17.755791999999996,-0.962495,-0.2464079999999999,0.1493749999999999,-62.6513504,74.2814118,-81.374864,176.8432599679648,1.0015225193026265,42.217060611422006,1.0047021539312035,-67.979503,69.2999122,42.9629426
6435.333,7.922279600000005,174.72550660000002,-16.0702844,-0.2234232,0.1308016,1.0082976,5.517239600000001,8.5272702,-124.3241042,-21.0717124,24.54467019999999,-15.920395599999996,-1.004637,-0.2309159999999999,0.1511758,-65.0451868,74.2293046,-83.42863919999999,175.6417353916321,1.0410048198863249,36.05436027383624,1.0418597906295453,-70.5624264,65.7020344,40.895465
6455.319,9.642681800000004,174.0017456,-14.6030548,-0.2429542,0.144686,0.9941256,5.7506652,12.0524964,-124.26837,-16.739638399999997,15.734298199999987,-12.676989599999995,-1.0179982,-0.2606271999999999,0.1532946,-66.691981,74.1307052,-84.7961442,174.87949563523728,1.0335601049135943,26.239087235035168,1.0619539100037438,-72.4426462,62.07820879999999,39.4722258
6475.304,9.950609400000005,174.13367,-11.852463599999998,-0.3023604,0.1750265999999999,0.9874368,6.0218222,15.5675132,-124.1338348,-8.872801599999999,7.932614999999989,-10.839341399999997,-1.0010028,-0.2724787999999999,0.1562397999999999,-67.6121876,73.98603799999998,-85.573137,174.81999470452342,1.047419474799834,16.09795983834415,1.0491244812515437,-73.6340098,58.4185248,38.56069779999999
6495.29,5.580396600000006,173.5867278,-10.799702399999996,-0.368863,0.1730026,0.9625916,6.219053000000001,19.066652,-123.9599044,-1.5093697999999978,1.787004399999989,-7.863036399999996,-0.9816883999999998,-0.257156,0.147044,-67.8974964,73.85128599999999,-85.8437866,174.01185725821432,1.0452618814279606,8.203592100201975,1.0254088262573908,-74.1165494,54.784634,38.1161178
6515.275,5.078764400000005,172.37809439999998,-8.365908399999999,-0.4414311999999999,0.144834,0.9560342,6.42036,22.5409322,-123.7257354,2.9720162000000023,-4.065876800000011,-4.851890999999997,-0.9735216,-0.2619509999999999,0.1446284,-67.6401142,73.7234312,-85.6429458,172.6556969814874,1.0629392190803195,6.993216764960296,1.018469442916242,-74.0604742,51.18249899999999,38.0827896
