Timestamp (ms),Wrist Gyroscope X (deg/s),Wrist Gyroscope Y (deg/s),Wrist Gyroscope Z (deg/s),Wrist Accelerometer X (g),Wrist Accelerometer Y (g),Wrist Accelerometer Z (g),Wrist Roll (deg),Wrist Pitch (deg),Wrist Yaw (deg),Arm Gyroscope X (deg/s),Arm Gyroscope Y (deg/s),Arm Gyroscope Z (deg/s),Arm Accelerometer X (g),Arm Accelerometer Y (g),Arm Accelerometer Z (g),Arm Roll (deg),Arm Pitch (deg),Arm Yaw (deg),Wrist Gyroscope Magnitude (deg/s),Wrist Accelerometer Magnitude (g),Arm Gyroscope Magnitude (deg/s),Arm Accelerometer Magnitude (g),Difference Roll (deg),Difference Pitch (deg),Difference Yaw (deg)
0.0,3.5468649864196777,-0.029428131878376007,1.6953685283660889,-0.9875695109367371,-0.1449134349822998,0.14119496941566467,-44.46250534057617,78.26527404785156,161.87168884277344,5.451202392578125,-1.1330039501190186,2.8152647018432617,-0.9928101301193237,0.13426485657691956,0.0958709865808487,54.78694152832031,79.29247283935547,-97.58478546142578,3.931334594486955,1.0080820710430702,6.238991971246589,1.006424489093521,99.24944686889648,1.0271987915039062,-259.4564743041992
22.639,2.580728769302368,-0.31433266401290894,1.8845738172531128,-0.9869444370269775,-0.141700878739357,0.1437087059020996,-44.2634391784668,78.28968811035156,162.0445098876953,7.50554895401001,-1.5972553491592407,3.2794833183288574,-0.9880595803260803,0.13936935365200043,0.09893391281366348,54.9969367980957,79.22997283935547,-97.51811981201172,3.211009884295957,1.0073681814342061,8.345028495257269,1.0027330004124466,99.2603759765625,0.9402847290039062,-259.56262969970703
32.541000000000004,0.8715375661849976,-0.6102096438407898,1.298627495765686,-0.9820989370346069,-0.14545463025569916,0.14820417761802673,-44.119136810302734,78.29753112792969,162.20590209960938,8.324284553527832,-2.00593900680542,3.7704389095306396,-0.9883003830909729,0.14222636818885803,0.10524381697177887,55.203311920166016,79.15192413330078,-97.48258209228516,1.6787992469222248,1.003812656749636,9.35594539304437,1.0040130716463536,99.32244873046875,0.8543930053710938,-259.68848419189453
55.919000000000004,-0.6922910213470459,-0.7454532384872437,0.893092930316925,-0.9784524440765381,-0.14760108292102814,0.14563652873039246,-44.03537368774414,78.29742431640625,162.3382568359375,8.563372611999512,-2.5549440383911133,4.164884567260742,-0.9857505559921265,0.15136860311031342,0.1049124151468277,55.40358352661133,79.05750274658203,-97.45574951171875,1.353729061219758,1.000182615075592,9.859277508512493,1.0028076722374506,99.43895721435547,0.7600784301757812,-259.79400634765625
78.21799999999999,1.1151483058929443,-1.1199491024017334,1.0482274293899536,-0.975851833820343,-0.15695971250534058,0.14507988095283508,-43.90093231201172,78.29029083251953,162.47836303710938,8.052119255065918,-2.8097550868988037,3.9166011810302734,-0.9783952832221985,0.1548565924167633,0.1100514680147171,55.547611236572266,78.9611587524414,-97.47652435302734,1.8964763325261462,0.9989851474259136,9.384621087577525,0.9966690624568276,99.44854354858398,0.670867919921875,-259.9548873901367
92.42999999999999,3.9282524585723877,-1.780592918395996,1.0607759952545166,-0.9745237231254578,-0.1539817452430725,0.14997762441635132,-43.651832580566406,78.27276611328125,162.67364501953125,7.403204441070557,-2.7746124267578125,3.759385108947754,-0.9769562482833862,0.1583758294582367,0.11400657147169113,55.66657638549805,78.86577606201172,-97.5074462890625,4.441500223058667,0.9979479709022803,8.754363855380001,0.9962549436541149,99.31840896606445,0.5930099487304688,-260.18109130859375
115.018,4.116230010986328,-1.7499934434890747,0.5821256041526794,-0.9782459139823914,-0.14950251579284668,0.16172261536121368,-43.406192779541016,78.24658966064453,162.86024475097656,6.807376861572266,-2.6781089305877686,3.556394338607788,-0.9842183589935303,0.16722461581230164,0.11698988825082779,55.775726318359375,78.77157592773438,-97.54414367675781,4.510509591455203,1.0027314070930988,8.133915900182702,1.0051549553508805,99.18191909790039,0.5249862670898438,-260.4043884277344
138.38,2.3538098335266113,-1.8936337232589722,0.07949736714363098,-0.9819701910018921,-0.14747129380702972,0.16283150017261505,-43.21796417236328,78.2123031616211,163.0086669921875,5.541045188903809,-2.9593024253845215,3.2878713607788086,-0.984031081199646,0.16445250809192657,0.11477401852607727,55.82080841064453,78.68155670166016,-97.63502502441406,3.022017412533055,1.0062441731318876,7.090186930920105,1.0042583689037865,99.03877258300781,0.4692535400390625,-260.64369201660156
159.73999999999998,2.213899612426758,-1.871822714805603,-0.449898362159729,-0.9800205826759338,-0.15395332872867584,0.15538188815116882,-43.10029602050781,78.17164611816406,163.09011840820312,4.097733020782471,-2.7903783321380615,2.87516450881958,-0.9808676838874817,0.16087943315505981,0.11471420526504517,55.82215118408203,78.60248565673828,-97.73876190185547,2.933850764070929,1.004134204705994,5.730985787702877,1.0005713138985532,98.92244720458984,0.43083953857421875,-260.8288803100586
185.54999999999998,1.9486831426620483,-2.421046733856201,-0.38607877492904663,-0.9808283448219299,-0.15314488112926483,0.15472111105918884,-42.94961166381836,78.12495422363281,163.21780395507812,4.182047367095947,-3.141758918762207,2.7540175914764404,-0.9831351637840271,0.15922090411186218,0.1125287190079689,55.7933464050293,78.52397918701172,-97.84019470214844,3.131755114701935,1.0046970781432647,5.911411183331583,1.0022817763365843,98.74295806884766,0.39902496337890625,-261.05799865722656
195.83100000000002,3.0142576694488525,-2.615769863128662,-0.6959761381149292,-0.9801004528999329,-0.15214674174785614,0.1549888551235199,-42.78666687011719,78.07173156738281,163.34085083007812,4.767910480499268,-3.0629544258117676,2.395458221435547,-0.9823220372200012,0.1579369157552719,0.11229457706212997,55.7626838684082,78.45368194580078,-97.95405578613281,4.051220070486019,1.0038760252200676,6.1524694436703875,1.0012545761213298,98.54935073852539,0.38195037841796875,-261.29490661621094
214.841,3.6776273250579834,-2.5676932334899902,-0.5870389938354492,-0.9769214391708374,-0.14685513079166412,0.14728640019893646,-42.612648010253906,78.02595520019531,163.46348571777344,4.5174336433410645,-3.6604363918304443,2.3364450931549072,-0.9797688722610474,0.16375839710235596,0.10948269069194794,55.6932258605957,78.37612915039062,-98.11888885498047,4.523561214751798,0.998816905861639,6.266177221716128,0.9993749622811081,98.30587387084961,0.3501739501953125,-261.5823745727539
239.16899999999998,3.1977596282958984,-3.011242151260376,-0.7341263294219971,-0.9762742519378662,-0.13436958193778992,0.15139421820640564,-42.40045166015625,77.97501373291016,163.6374969482422,4.792269229888916,-3.5214343070983887,2.5098133087158203,-0.9744442701339722,0.16807888448238373,0.11002162098884583,55.65754318237305,78.2952880859375,-98.27085876464844,4.453334413833859,0.9970390207275267,6.454882399823925,0.9949356281140933,98.0579948425293,0.32027435302734375,-261.9083557128906
262.776,2.56823468208313,-2.6409966945648193,-1.5034455060958862,-0.9797067642211914,-0.13356301188468933,0.14987972378730774,-42.28129196166992,77.9208755493164,163.73057556152344,5.139815330505371,-2.595107316970825,2.188760995864868,-0.9780181646347046,0.1687806248664856,0.1115909069776535,55.6830940246582,78.23065185546875,-98.36563110351562,3.9788241118145513,1.0000641747443144,6.159785573809605,0.9987286719654407,97.96438598632812,0.30977630615234375,-262.09620666503906
283.551,2.988297462463379,-2.486964702606201,-1.249155044555664,-0.9697909355163574,-0.1400558203458786,0.1546621024608612,-42.15217971801758,77.86734771728516,163.821044921875,5.545218467712402,-3.2661116123199463,2.0670132637023926,-0.9763090014457703,0.16627678275108337,0.1186785027384758,55.637657165527344,78.15975952148438,-98.52517700195312,4.08354055710398,0.9919830932833799,6.759399141278128,0.997452666445047,97.78983688354492,0.29241180419921875,-262.3462219238281
292.49399999999997,3.515848159790039,-2.2409603595733643,-0.7988672852516174,-0.9738340973854065,-0.1394888460636139,0.1601676195859909,-41.988059997558594,77.82241821289062,163.9340057373047,5.359425067901611,-2.3497214317321777,1.8994383811950684,-0.9764163494110107,0.17343465983867645,0.1178009882569313,55.665557861328125,78.09968566894531,-98.60491180419922,4.245147883799041,0.9967264688822358,6.152438055693909,0.9986718887927065,97.65361785888672,0.2772674560546875,-262.5389175415039
314.778,3.6550745964050293,-2.3619728088378906,-0.4434607923030853,-0.9764931201934814,-0.13009858131408691,0.15725667774677277,-41.778724670410156,77.78594970703125,164.09422302246094,4.985688209533691,-2.3743722438812256,1.8779442310333252,-0.9738094210624695,0.18156537413597107,0.11248438060283661,55.70755386352539,78.03790283203125,-98.66815185546875,4.374373478486379,0.9975941646486769,5.832787070523677,0.9969571252138986,97.48627853393555,0.251953125,-262.7623748779297
339.019,3.2163045406341553,-1.9910218715667725,-1.1610677242279053,-0.973089873790741,-0.12992356717586517,0.1525530070066452,-41.660423278808594,77.74726867675781,164.1912841796875,4.784627914428711,-1.6492869853973389,1.5741506814956665,-0.967072069644928,0.18521054089069366,0.11615412682294846,55.78269577026367,77.98625183105469,-98.69538879394531,3.956875187746627,0.9935071493092293,5.300071905907008,0.9914752208312365,97.44311904907227,0.238983154296875,-262.8866729736328
363.445,1.730991244316101,-2.1788556575775146,-1.1351908445358276,-0.9696158170700073,-0.1292552500963211,0.1502145528793335,-41.56303024291992,77.70738220214844,164.29808044433594,3.6630256175994873,0.5925074219703674,0.770576536655426,-0.9672043919563293,0.17505407333374023,0.11244694888591766,55.95790100097656,77.97965240478516,-98.59622192382812,3.0053953014494637,0.9896596204183227,3.7898034143110837,0.9893293590731549,97.52093124389648,0.27227020263671875,-262.89430236816406
380.908,0.9299945831298828,-2.257979393005371,-1.349161148071289,-0.9688048958778381,-0.13592781126499176,0.15780510008335114,-41.492767333984375,77.65805053710938,164.3689727783203,2.894073247909546,1.8189975023269653,-0.20718200504779816,-0.9664814472198486,0.16677002608776093,0.10743982344865799,56.1587028503418,78.00843048095703,-98.4553451538086,2.7899097955584278,0.9909398295378365,3.424519858455061,0.9866316156925868,97.65147018432617,0.35037994384765625,-262.8243179321289
402.51,2.836031198501587,-2.3045830726623535,-1.1500778198242188,-0.9655870795249939,-0.13647538423538208,0.15320119261741638,-41.37876892089844,77.61247253417969,164.4382781982422,3.066862106323242,2.5764102935791016,-0.45156463980674744,-0.9672391414642334,0.17271463572978973,0.11349605023860931,56.40317916870117,78.04463195800781,-98.2728500366211,3.8310383826487344,0.9871446419178908,4.030811804585471,0.9890719162909773,97.78194808959961,0.432159423828125,-262.7111282348633
412.208,2.615053415298462,-2.168182611465454,-1.0958651304244995,-0.9724059700965881,-0.13745534420013428,0.17347316443920135,-41.241943359375,77.56195068359375,164.5372314453125,3.1339969635009766,3.3642187118530273,-0.3467063009738922,-0.9743998050689697,0.17197994887828827,0.1230509877204895,56.69184112548828,78.08554077148438,-98.0472640991211,3.569375377514336,0.9972764316423076,4.610868656506102,0.9970825585244247,97.93378448486328,0.523590087890625,-262.5844955444336
439.525,1.4668186902999878,-1.5620336532592773,-0.3924907445907593,-0.9669883251190186,-0.13073331117630005,0.1599390059709549,-41.12830352783203,77.53791046142578,164.64454650878906,2.086982011795044,4.032071590423584,-0.503513753414154,-0.9716585874557495,0.17972493171691895,0.12111269682645798,57.01939392089844,78.13229370117188,-97.76176452636719,2.1784295234680657,0.9888064043070216,4.567999707501553,0.9955349049579985,98.14769744873047,0.5943832397460938,-262.40631103515625
464.796,1.6046868562698364,-2.033841609954834,-0.445285439491272,-0.977005660533905,-0.13356222212314606,0.17189770936965942,-40.9747428894043,77.50135040283203,164.7900390625,1.1815063953399658,5.671192646026611,-0.9731755256652832,-0.968756377696991,0.18625333905220032,0.11310257762670517,57.463539123535156,78.20294189453125,-97.34174346923828,2.628651883321901,1.0009634111096672,5.874134318717053,0.9929609351341541,98.43828201293945,0.7015914916992188,-262.1317825317383
475.63100000000003,0.5182563066482544,-1.7870147228240967,-1.2111399173736572,-0.9776822924613953,-0.13623599708080292,0.1849740743637085,-40.89414978027344,77.4524154663086,164.88031005859375,0.5552281141281128,7.8615875244140625,-1.937601089477539,-0.9746648669242859,0.17729882895946503,0.11219505965709686,58.013240814208984,78.31717681884766,-96.80571746826172,2.220106105218091,1.0043098725392878,8.115856987693022,0.9969925822083097,98.90739059448242,0.8647613525390625,-261.68602752685547
502.26000000000005,0.01798795908689499,-1.849134922027588,-0.7226787209510803,-0.97207111120224,-0.14224427938461304,0.17446152865886688,-40.81769943237305,77.41079711914062,164.9770965576172,-0.6515864729881287,8.528804779052734,-1.9876844882965088,-0.9781332015991211,0.18855640292167664,0.1059923842549324,58.62771224975586,78.4338150024414,-96.181640625,1.9854188626709415,0.9977938189994936,8.78156964989679,1.001764674298986,99.4454116821289,1.0230178833007812,-261.1587371826172
512.1139999999999,1.629483938217163,-3.161083221435547,-0.5259530544281006,-0.9826120138168335,-0.14364886283874512,0.18475033342838287,-40.60747528076172,77.34882354736328,165.17071533203125,0.7098953723907471,7.686883926391602,-1.4372118711471558,-0.9789881110191345,0.18843324482440948,0.10843975841999054,59.22665023803711,78.52935028076172,-95.60838317871094,3.5950370864862156,1.010096060379376,7.85224260323926,1.0028379682072548,99.83412551879883,1.1805267333984375,-260.7790985107422
535.902,2.375735282897949,-3.7225000858306885,-0.8478748798370361,-0.9843935370445251,-0.14254428446292877,0.20113128423690796,-40.34718322753906,77.2684097290039,165.37997436523438,-1.087090015411377,8.809659004211426,-2.016995429992676,-0.9873195886611938,0.1770019382238388,0.10963990539312363,59.84040451049805,78.65020751953125,-94.98585510253906,4.496667303156233,1.014792245884283,9.10275381610982,1.0090344717321196,100.18758773803711,1.3817977905273438,-260.36582946777344
552.08,1.2944161891937256,-4.617563724517822,-1.080583930015564,-0.9898830056190491,-0.14656133949756622,0.21380291879177094,-40.06656265258789,77.16584777832031,165.63291931152344,-3.935216188430786,10.088634490966797,-2.0853140354156494,-0.9743196368217468,0.17182984948158264,0.08937214314937592,60.556541442871094,78.78907775878906,-94.19644165039062,4.915797966824673,1.023259634273044,11.027919430623081,0.9933839297272915,100.62310409545898,1.62322998046875,-259.82936096191406
574.769,4.123894691467285,-7.944839000701904,-1.9326541423797607,-1.0006563663482666,-0.14683784544467926,0.21047991514205933,-39.61650085449219,77.00479125976562,166.0169219970703,-5.449497222900391,15.532780647277832,-1.754310131072998,-0.9560436606407166,0.15870334208011627,0.051324374973773956,61.838623046875,78.9859848022461,-92.79271697998047,9.157626668927039,1.0330422600486198,16.55421090402177,0.9704846332143279,101.45512390136719,1.9811935424804688,-258.8096389770508
597.401,3.9301066398620605,-12.478376388549805,-2.935063123703003,-0.9894852638244629,-0.14653648436069489,0.21006745100021362,-39.00811767578125,76.76042938232422,166.57493591308594,-2.6497809886932373,17.66261863708496,-2.3278658390045166,-0.984228789806366,0.13294769823551178,0.05351632088422775,63.337440490722656,79.21945190429688,-91.22822570800781,13.407841401028218,1.0220970416473605,18.011340754412075,0.9946081629218654,102.3455581665039,2.4590225219726562,-257.80316162109375
619.521,1.9000321626663208,-16.675275802612305,-3.789280414581299,-0.9874894022941589,-0.16220073401927948,0.23285941779613495,-38.30211639404297,76.42575073242188,167.2767791748047,2.165391445159912,16.27001953125,-2.546513557434082,-0.9913197159767151,0.14628499746322632,0.06724296510219574,64.81886291503906,79.42469024658203,-89.77532958984375,17.20562673582928,1.0274570094247366,16.609852105188168,1.0043085661900462,103.12097930908203,2.9989395141601562,-257.05210876464844
632.107,3.828153371810913,-19.236492156982422,-4.76584529876709,-0.9803634881973267,-0.18602606654167175,0.25693270564079285,-37.54450607299805,76.02115631103516,167.99159240722656,4.581905364990234,12.926441192626953,-0.7670854926109314,-0.9915807843208313,0.16348905861377716,0.07780852168798447,66.12857818603516,79.5496826171875,-88.5460433959961,20.18441651758935,1.030404135109761,13.735907645042731,1.0079758380874035,103.6730842590332,3.5285263061523438,-256.53763580322266
655.212,4.553833961486816,-20.795696258544922,-5.047234535217285,-0.9865200519561768,-0.1840178668498993,0.2560047209262848,-36.76311111450195,75.59236145019531,168.7220001220703,5.344291687011719,7.472015857696533,-0.17774870991706848,-1.0049182176589966,0.19015933573246002,0.09662647545337677,66.92997741699219,79.59840393066406,-87.83474731445312,21.878596003398847,1.035675048153691,9.188257137096686,1.0273061242432495,103.69308853149414,4.00604248046875,-256.55674743652344
676.978,3.418015956878662,-22.430307388305664,-5.80801248550415,-0.9877800345420837,-0.1750192791223526,0.278294175863266,-35.9847526550293,75.1238784790039,169.48233032226562,3.3626255989074707,4.489659309387207,0.3791603744029999,-1.004172682762146,0.19132524728775024,0.09624973684549332,67.41832733154297,79.61101531982422,-87.37932586669922,23.420814068839043,1.0410517724992752,5.622104074304607,1.0267580722342877,103.40307998657227,4.4871368408203125,-256.86165618896484
699.502,-1.4019516706466675,-23.834447860717773,-7.225762844085693,-0.9936908483505249,-0.18914005160331726,0.2830849289894104,-35.396820068359375,74.61345672607422,170.1549530029297,-1.725492238998413,4.925260066986084,0.4104245603084564,-0.9867196083068848,0.1796940565109253,0.07308834046125412,67.8995361328125,79.63459777832031,-86.82990264892578,24.945100159972746,1.050396371964903,5.234879035278266,1.005607997618368,103.29635620117188,5.021141052246094,-256.98485565185547
724.441,-0.4906769394874573,-30.482471466064453,-9.048665046691895,-1.0251662731170654,-0.2120605707168579,0.2802087962627411,-34.71436309814453,73.97688293457031,170.90623474121094,-4.746010780334473,8.640545845031738,-1.5420163869857788,-0.9750224351882935,0.1560802310705185,0.007936111651360989,68.78347778320312,79.74584197998047,-85.83734893798828,31.80094604985207,1.0837216167874975,9.978049176310916,0.9874678574615374,103.49784088134766,5.768959045410156,-256.7435836791992
732.163,7.656044006347656,-39.049522399902344,-12.287900924682617,-1.017277717590332,-0.21569831669330597,0.31885725259780884,-33.760379791259766,73.14802551269531,171.75100708007812,1.153869390487671,9.919111251831055,-3.876816749572754,-0.990510106086731,0.11248572170734406,0.03172007203102112,69.71674346923828,79.9258041381836,-84.91441345214844,41.64700131609025,1.0876808659089043,10.712137541418784,0.9973813066313315,103.47712326049805,6.777778625488281,-256.66542053222656
755.789,8.10857105255127,-45.387020111083984,-14.290237426757812,-0.9964794516563416,-0.21276801824569702,0.35829782485961914,-32.73932647705078,72.17668914794922,172.6664581298828,8.572954177856445,7.393616199493408,-1.7432881593704224,-0.9949925541877747,0.11731631308794022,0.0701507180929184,70.51939392089844,80.03397369384766,-84.27494812011719,48.26946658904907,1.0801013186088881,11.454263723506577,1.004337803457886,103.25872039794922,7.8572845458984375,-256.94140625
778.103,0.7076246738433838,-50.479888916015625,-16.802106857299805,-0.9925562143325806,-0.2385394275188446,0.38427603244781494,-31.949520111083984,71.0806655883789,173.49742126464844,9.813796043395996,2.4629030227661133,0.8387438058853149,-1.0140966176986694,0.1562422811985016,0.06404782831668854,70.98002624511719,80.0404281616211,-84.01007843017578,53.20743098944386,1.0907506434584744,10.152830898465528,1.0280592029518907,102.92954635620117,8.959762573242188,-257.5074996948242
799.491,-0.9028855562210083,-56.51319885253906,-19.79854965209961,-1.003929615020752,-0.2576269209384918,0.3886171579360962,-31.273412704467773,69.85484313964844,174.25149536132812,12.517918586730957,1.646322250366211,-2.961773633956909,-0.9932873845100403,0.1729363203048706,0.06830190122127533,71.27154541015625,80.10184478759766,-83.97122955322266,59.88772340973489,1.1069189662076857,12.968452712443282,1.0105404241384044,102.54495811462402,10.247001647949219,-258.2227249145508
821.863,5.019460201263428,-63.15229797363281,-22.14091682434082,-1.0129634141921997,-0.25833237171173096,0.40311044454574585,-30.490129470825195,68.4969482421875,175.0060272216797,13.148848533630371,0.8626807332038879,-1.893164038658142,-0.9917886853218079,0.1595076620578766,0.056403011083602905,71.5522232055664,80.1463851928711,-83.94935607910156,67.10907478042706,1.1204144426362928,13.312419234874747,1.0061156942652405,102.0423526763916,11.649436950683594,-258.95538330078125
832.233,2.950021982192993,-69.58377075195312,-25.640771865844727,-1.0170735120773315,-0.252645879983902,0.4376377463340759,-29.806537628173828,66.99230194091797,175.71067810058594,15.653338432312012,-2.6439058780670166,-3.489381790161133,-1.021177887916565,0.1286858320236206,0.06341477483510971,71.38963317871094,80.21607971191406,-84.42487335205078,74.21625808158267,1.1356915367557017,16.254015739074504,1.0312059715695674,101.19617080688477,13.223777770996094,-260.1355514526367
858.2180000000001,0.5305072069168091,-75.56678009033203,-28.874183654785156,-0.9956578016281128,-0.2830298840999603,0.47448521852493286,-29.263444900512695,65.33903503417969,176.33786010742188,16.07575798034668,-10.005635261535645,-5.498075485229492,-1.031390905380249,0.10435822606086731,0.09462054073810577,70.23363494873047,80.28112030029297,-85.90676879882812,80.89708383401378,1.138673173406319,19.717291032767328,1.040966323075455,99.49707984924316,14.942085266113281,-262.24462890625
877.4060000000001,-0.10406032204627991,-82.1436767578125,-30.482046127319336,-0.9825952053070068,-0.29270505905151367,0.5007916688919067,-28.730913162231445,63.554988861083984,176.95408630371094,14.654759407043457,-15.080384254455566,-5.251044750213623,-1.0169941186904907,0.14112427830696106,0.10036510229110718,68.53267669677734,80.27715301513672,-87.90674591064453,87.61706224218337,1.1410354441112731,21.67379601060013,1.0316328092575444,97.26358985900879,16.722164154052734,-264.86083221435547
899.409,1.7935962677001953,-87.15094757080078,-32.45225143432617,-0.9709904789924622,-0.2848939895629883,0.515596866607666,-28.19898796081543,61.67320251464844,177.5420684814453,12.814874649047852,-18.124067306518555,-5.650298118591309,-1.0124781131744385,0.16399531066417694,0.11926247179508209,66.44981384277344,80.23003387451172,-90.25386810302734,93.01426381591536,1.1357056064133744,22.904774542242944,1.0325841025097102,94.64880180358887,18.55683135986328,-267.79593658447266
922.243,-7.2241106033325195,-92.72808074951172,-33.94416046142578,-0.9740362167358398,-0.29265347123146057,0.5274430513381958,-27.871118545532227,59.691200256347656,178.13670349121094,8.015113830566406,-20.36477279663086,-7.899442195892334,-1.0113980770111084,0.13606379926204681,0.108566515147686,63.963871002197266,80.20567321777344,-92.92249298095703,99.00954884721052,1.1456826690414053,23.267299108009453,1.0262680526366896,91.83498954772949,20.51447296142578,-271.05919647216797
931.769,-12.610902786254883,-99.44418334960938,-36.61736297607422,-0.9785151481628418,-0.3084143400192261,0.5533484220504761,-27.6802921295166,57.57354736328125,178.7342987060547,5.300595283508301,-21.38854217529297,-10.635055541992188,-1.0141576528549194,0.12616640329360962,0.08979278057813644,61.2513427734375,80.20992279052734,-95.76599884033203,106.71931288420419,1.165678247416239,24.467743114662113,1.025912496077613,88.9316349029541,22.636375427246094,-274.5002975463867
962.507,-4.032638072967529,-105.89966583251953,-39.53913116455078,-0.9714177846908569,-0.30139845609664917,0.5839818120002747,-27.340667724609375,55.32335662841797,179.26007080078125,3.8097033500671387,-22.87828826904297,-10.4990873336792,-1.005943775177002,0.1632309854030609,0.09397965669631958,58.454803466796875,80.15343475341797,-98.67266082763672,113.1120872697273,1.1728291855586899,25.459001327176306,1.0234253315634565,85.79547119140625,24.830078125,-277.93273162841797
971.7320000000001,-0.2371591329574585,-110.46918487548828,-44.20537567138672,-0.9523829817771912,-0.2865659296512604,0.6033352613449097,-27.019763946533203,52.96139144897461,179.64149475097656,2.1625447273254395,-23.04445457458496,-8.30879020690918,-0.9941798448562622,0.20672321319580078,0.10318653285503387,55.86895751953125,80.01122283935547,-101.33487701416016,118.98576507195129,1.1632569851919374,24.59185802334225,1.0206740475563494,82.88872146606445,27.04983139038086,-280.9763717651367
994.6030000000001,0.16116200387477875,-115.15354919433594,-45.703922271728516,-0.9212979078292847,-0.29254087805747986,0.5966976881027222,-26.72396469116211,50.517581939697266,-179.9794158935547,-1.9668980836868286,-22.52092933654785,-8.895232200622559,-0.9833481907844543,0.16009992361068726,0.11542046070098877,53.191917419433594,79.88107299804688,-104.00279998779297,123.89194637370115,1.135965726284201,24.293746153205458,1.0029593873171714,79.9158821105957,29.36349105834961,75.97661590576172
1017.358,-5.768512725830078,-121.06261444091797,-46.92842483520508,-0.9158816337585449,-0.3070855140686035,0.6329250335693359,-26.54728126525879,47.96403884887695,-179.56126403808594,-6.628461837768555,-21.085250854492188,-12.788542747497559,-0.9802967309951782,0.11554945260286331,0.11010437458753586,50.29174041748047,79.8301010131836,-106.80274963378906,129.96810921088263,1.154874355991051,25.535683572917918,0.993205079578214,76.83902168273926,31.86606216430664,72.75851440429688
1032.309,-5.29622220993042,-127.07908630371094,-47.91654968261719,-0.8925938606262207,-0.3103569447994232,0.6655570864677429,-26.349773406982422,45.30021667480469,-179.13198852539062,-10.411212921142578,-20.34124183654785,-16.660995483398438,-0.9886833429336548,0.1161666288971901,0.10978078097105026,47.15365982055664,79.8223648071289,-109.77118682861328,135.91592945262042,1.1558596232070242,28.27982044568377,1.0015194746655793,73.50343322753906,34.52214813232422,69.36080169677734
1055.31,-4.919740676879883,-130.74383544921875,-50.288726806640625,-0.8638776540756226,-0.29992297291755676,0.7060783505439758,-26.172849655151367,42.55473327636719,-178.75839233398438,-11.252355575561523,-19.848398208618164,-16.954771041870117,-1.002511978149414,0.15545056760311127,0.11904549598693848,44.12494659423828,79.77943420410156,-112.60599517822266,140.16815044842772,1.1553289696020819,28.42602115191264,1.0214533642883346,70.29779624938965,37.224700927734375,66.15239715576172
1076.47,-2.3831663131713867,-133.19810485839844,-52.92886734008789,-0.8181112408638,-0.2998182773590088,0.7145840525627136,-25.997127532958984,39.75053405761719,-178.4459686279297,-12.115875244140625,-20.246721267700195,-13.26477336883545,-0.9895585179328918,0.1688341498374939,0.1353549063205719,41.41118240356445,79.64232635498047,-115.1032943725586,143.34880403215703,1.1268661721975601,27.068032206831905,1.0129422398290742,67.40830993652344,39.89179229736328,63.342674255371094
1091.578,-2.1471469402313232,-135.64329528808594,-53.962223052978516,-0.7715625166893005,-0.30175310373306274,0.7259580492973328,-25.840288162231445,36.9001579284668,-178.1542205810547,-8.091046333312988,-21.556171417236328,-10.363264083862305,-0.9788845777511597,0.10518767684698105,0.14120075106620789,38.86439514160156,79.44776916503906,-117.509765625,145.99875106799107,1.1015347212467033,25.24937225772087,0.9945939452968695,64.70468330383301,42.547611236572266,60.64445495605469
1117.6680000000001,-10.227460861206055,-139.34878540039062,-53.16984176635742,-0.7407850027084351,-0.2987675070762634,0.7661608457565308,-25.82122230529785,33.994239807128906,-177.8161163330078,2.6477270126342773,-21.69094467163086,-10.459029197692871,-0.9739127159118652,0.07192908227443695,0.12939989566802979,36.56983184814453,79.25225830078125,-119.87748718261719,149.49821745322285,1.1068093264391405,24.22599494013355,0.9851010628816544,62.39105415344238,45.258018493652344,57.938629150390625
1136.56,-9.210827827453613,-140.9082794189453,-54.665367126464844,-0.6900959610939026,-0.31893372535705566,0.7833338379859924,-25.816274642944336,31.048234939575195,-177.5098876953125,15.360817909240723,-21.01959228515625,-8.08193588256836,-0.9775590896606445,0.12350721657276154,0.13610954582691193,34.988521575927734,79.00700378417969,-121.78255462646484,151.4208866740178,1.0915874030154946,27.259781258935234,0.9946866917722923,60.80479621887207,47.95876884460449,55.727333068847656
1159.2910000000002,-3.714810371398926,-142.41616821289062,-57.820743560791016,-0.6498724818229675,-0.308915913105011,0.7868778705596924,-25.738815307617188,28.060678482055664,-177.2637176513672,20.8937931060791,-22.624868392944336,-1.5135343074798584,-0.9589048624038696,0.2028077095746994,0.14523020386695862,34.23957443237305,78.6237564086914,-122.94320678710938,153.75110786742502,1.0662739175168836,30.833845790909844,0.9908185072554702,59.978389739990234,50.56307792663574,54.32051086425781
1173.275,-2.709449052810669,-143.86216735839844,-59.98314666748047,-0.5976323485374451,-0.31943845748901367,0.8171523213386536,-25.669479370117188,25.025577545166016,-177.05982971191406,22.413185119628906,-22.0706787109375,3.7981879711151123,-0.9394600987434387,0.18303221464157104,0.17288309335708618,33.95344543457031,78.18264770507812,-123.6517562866211,155.8898399362771,1.0615758420435597,31.684254099348905,0.9726122725404738,59.6229248046875,53.15707015991211,53.40807342529297
1197.074,-3.0359151363372803,-146.76617431640625,-60.93571472167969,-0.546043872833252,-0.3491184413433075,0.8507168292999268,-25.6245059967041,21.924213409423828,-176.86026000976562,23.78590965270996,-23.89265251159668,2.499131917953491,-0.9498205780982971,0.11372024565935135,0.1850772351026535,33.36540222167969,77.74662780761719,-124.69454956054688,158.94240476609986,1.0694702991662919,33.80641954407656,0.9743433726387476,58.98990821838379,55.82241439819336,52.16571044921875
1217.5439999999999,-2.484607219696045,-149.5814971923828,-60.06879425048828,-0.49082696437835693,-0.35173892974853516,0.8668615818023682,-25.56391716003418,18.780494689941406,-176.6268768310547,27.336517333984375,-24.443445205688477,1.0773323774337769,-0.9791069030761719,0.13866542279720306,0.20104578137397766,32.80958938598633,77.30783081054688,-125.79248809814453,161.211220509177,1.0564470576732283,36.68688919118368,1.0091074439023886,58.37350654602051,58.52733612060547,50.834388732910156
1239.663,-1.6359519958496094,-150.0580291748047,-59.70223617553711,-0.418594092130661,-0.34900960326194763,0.8614276051521301,-25.496620178222656,15.628390312194824,-176.3912353515625,22.076581954956055,-24.327112197875977,4.1666083335876465,-0.9815648794174194,0.21104252338409424,0.22154644131660461,32.56034851074219,76.81034088134766,-126.46763610839844,161.50679695640946,1.0193557946339877,33.114113059350686,1.0281494953760912,58.056968688964844,61.18195056915283,49.92359924316406
1261.74,0.3839361071586609,-150.65296936035156,-59.81316375732422,-0.366452693939209,-0.3569183945655823,0.864295244216919,-25.406553268432617,12.467191696166992,-176.1632080078125,10.807804107666016,-25.262792587280273,6.882663726806641,-0.9761185646057129,0.2170751988887787,0.2347058653831482,32.26933670043945,76.26384735107422,-126.97992706298828,162.09281027450257,1.0043329061872661,28.326460755165396,1.0271396873774143,57.67588996887207,63.79665565490723,49.18328094482422
1271.7849999999999,0.14253874123096466,-153.21038818359375,-57.403533935546875,-0.3164873719215393,-0.35956668853759766,0.8985278010368347,-25.316926956176758,9.278800964355469,-175.87725830078125,1.7677198648452759,-26.805561065673828,2.9700405597686768,-0.9716707468032837,0.14808595180511475,0.23847241699695587,31.37456512451172,75.75376892089844,-127.91593933105469,163.61115204334243,1.0182360577625338,27.027468962017295,1.0114062403325619,56.69149208068848,66.47496795654297,47.96131896972656
1294.6009999999999,-2.802747964859009,-154.53634643554688,-55.766212463378906,-0.2581448256969452,-0.3805525600910187,0.9123421907424927,-25.30512237548828,6.07741641998291,-175.5587921142578,1.924856424331665,-29.51920509338379,2.434803009033203,-0.9821712374687195,0.13649800419807434,0.2310851514339447,30.403949737548828,75.21237182617188,-128.9370574951172,164.3143579189372,1.0216786554659667,29.681927283994607,1.0181809230554963,55.70907211303711,69.13495540618896,46.621734619140625
1322.3229999999999,-2.387254476547241,-156.40855407714844,-55.741641998291016,-0.20527052879333496,-0.3790298104286194,0.8891703486442566,-25.3054256439209,2.847820997238159,-175.2272491455078,1.7991217374801636,-25.873872756958008,1.6487202644348145,-0.9733741283416748,0.183262899518013,0.23908653855323792,29.66671371459961,74.72612762451172,-129.72409057617188,166.06163140564922,0.988141435267644,25.988697716120473,1.018923381310898,54.97213935852051,71.87830662727356,45.50315856933594
1342.44,-0.7842698097229004,-158.4598388671875,-56.0202751159668,-0.1384984254837036,-0.3638288676738739,0.8905960321426392,-25.28363037109375,-0.42679277062416077,-174.88592529296875,1.499529242515564,-25.749595642089844,5.563693046569824,-0.9640135169029236,0.1978161484003067,0.2311922311782837,29.2586612701416,74.20486450195312,-130.1649627685547,168.07262369885845,0.9719642746945646,26.38645379729419,1.010892248014925,54.54229164123535,74.63165727257729,44.72096252441406
1361.281,-0.5505544543266296,-157.16421508789062,-55.97969436645508,-0.060969289392232895,-0.3735743463039398,0.8568633794784546,-25.289491653442383,-3.689159631729126,-174.5567626953125,-4.8872880935668945,-22.549400329589844,0.20952436327934265,-0.9618687629699707,0.1865856796503067,0.28216353058815,28.470067977905273,73.7734375,-130.8585968017578,166.83710557235656,0.9367443074588966,23.073901720178036,1.0196185517250647,53.759559631347656,77.46259713172913,43.69816589355469
1372.35,-3.1347851753234863,-157.5374298095703,-54.869998931884766,-0.0021763406693935394,-0.40195268392562866,0.8678753972053528,-25.380844116210938,-6.952136993408203,-174.20050048828125,-10.229968070983887,-22.238056182861328,-0.6836410760879517,-0.9879283905029297,0.15830445289611816,0.3082004487514496,27.50712776184082,73.35699462890625,-131.61778259277344,166.84898996363674,0.9564404851573748,24.487767449205357,1.0469242194060864,52.88797187805176,80.30913162231445,42.58271789550781
1398.966,-4.029737949371338,-157.96475219726562,-52.74151611328125,0.05724626034498215,-0.4015660583972931,0.8331260681152344,-25.526042938232422,-10.208355903625488,-173.79049682617188,-8.908227920532227,-17.701128005981445,-3.5617828369140625,-0.9627009630203247,0.1236409842967987,0.26833656430244446,26.560443878173828,73.07068634033203,-132.39776611328125,166.58562136814703,0.9266236986789048,20.13387082370467,1.007017750061925,52.08648681640625,83.27904224395752,41.392730712890625
1421.4,-5.155697822570801,-157.2259521484375,-49.1219482421875,0.1253678798675537,-0.4042055904865265,0.7988044023513794,-25.74134063720703,-13.430535316467285,-173.30450439453125,-12.96530532836914,-13.818228721618652,-9.6452054977417,-1.004090428352356,0.11169876158237457,0.2913432717323303,25.28957176208496,72.9045639038086,-133.4375457763672,164.80153836699634,0.9039843681718127,21.261998409238736,1.0514538048015007,51.03091239929199,86.33509922027588,39.86695861816406
1431.295,-10.26317024230957,-153.1672821044922,-47.91508483886719,0.19054995477199554,-0.3737948536872864,0.7138688564300537,-26.092140197753906,-16.588115692138672,-172.80731201171875,-13.253941535949707,-0.6222377419471741,-6.848752498626709,-0.9709128737449646,0.14637739956378937,0.23524200916290283,24.667741775512695,72.964599609375,-133.8089599609375,160.814813763582,0.8280341913758525,14.931830324287843,1.0096717062400837,50.7598819732666,89.55271530151367,38.99835205078125
1461.9370000000001,-10.484261512756348,-150.54525756835938,-45.38226318359375,0.23847953975200653,-0.3946668803691864,0.7738007307052612,-26.480741500854492,-19.663036346435547,-172.25889587402344,-11.929941177368164,5.0568976402282715,-6.0495123863220215,-0.9812119007110596,0.11348914355039597,0.2740878760814667,24.187007904052734,73.10956573486328,-134.0615234375,157.5859896293338,0.900778556683423,14.300080781291912,1.0250759696801315,50.66774940490723,92.77260208129883,38.19737243652344
1472.5049999999999,-11.979266166687012,-146.99224853515625,-44.2369384765625,0.28260117769241333,-0.3740590810775757,0.7139267325401306,-26.936420440673828,-22.668855667114258,-171.68751525878906,-12.874800682067871,12.568296432495117,-5.048198699951172,-0.8999191522598267,0.09159981459379196,0.24064791202545166,23.932600021362305,73.38951873779297,-134.06190490722656,153.971200791228,0.8540930869672032,18.68707783288317,0.9360322773280159,50.86902046203613,96.05837440490723,37.6256103515625
1501.916,-16.50403594970703,-143.2645263671875,-40.97264099121094,0.3100023865699768,-0.3920634984970093,0.7077889442443848,-27.545257568359375,-25.560546875,-171.04298400878906,-10.572955131530762,19.17594337463379,-5.3685712814331055,-1.0344690084457397,0.09757881611585617,0.25338804721832275,23.89408302307129,73.8037109375,-133.87904357910156,149.91952850659064,0.8664758831770083,22.546080415991433,1.069510756029316,51.439340591430664,99.3642578125,37.1639404296875
1511.196,-16.24217414855957,-139.2017059326172,-38.77254104614258,0.34608978033065796,-0.35604017972946167,0.6300686001777649,-28.200593948364258,-28.370573043823242,-170.34539794921875,-11.209168434143066,24.7237606048584,-4.684076309204102,-1.000628113746643,0.08061612397432327,0.24342428147792816,24.02220344543457,74.31288146972656,-133.50979614257812,145.41056734225947,0.8022027091459356,27.54723881447621,1.0329622269366163,52.22279739379883,102.6834545135498,36.835601806640625
1534.845,-22.042205810546875,-134.03875732421875,-35.465179443359375,0.39453503489494324,-0.35107535123825073,0.6160942316055298,-29.029600143432617,-31.058059692382812,-169.58047485351562,-7.264451503753662,31.360692977905273,-6.314608573913574,-0.9286337494850159,0.08876962959766388,0.2224223017692566,24.372650146484375,74.95001220703125,-132.9987335205078,140.3924009872507,0.8114702078475977,32.80456677273103,0.9590163544725605,53.40225028991699,106.00807189941406,36.58174133300781
1551.184,-25.862638473510742,-129.0462188720703,-34.01197052001953,0.43968677520751953,-0.3634393513202667,0.6267865896224976,-29.98324203491211,-33.62889862060547,-168.77452087402344,-7.713156700134277,36.03277587890625,-11.614516258239746,-0.9376429319381714,0.10313525795936584,0.17501340806484222,24.6076602935791,75.73226928710938,-132.59689331054688,135.93607619997155,0.8475105021833566,38.636132204624595,0.9593960820487158,54.59090232849121,109.36116790771484,36.17762756347656
1574.9759999999999,-22.128284454345703,-123.3581771850586,-33.04447937011719,0.4802403151988983,-0.355610728263855,0.5448022484779358,-30.926719665527344,-36.1071662902832,-167.930908203125,-3.8659613132476807,48.04325485229492,-4.597204208374023,-0.9072360396385193,0.09774419665336609,0.1564740687608719,25.91961097717285,76.66941833496094,-131.17559814453125,129.610333184337,0.8086403652708051,48.41729319377095,0.9258052137425987,56.846330642700195,112.77658462524414,36.75531005859375
1596.3590000000002,-22.049701690673828,-118.48233032226562,-32.08001708984375,0.5195943713188171,-0.34675589203834534,0.543700635433197,-31.902650833129883,-38.480438232421875,-167.0611114501953,-0.17826664447784424,46.21371078491211,-9.188413619995117,-0.9339381456375122,0.10097713768482208,0.15572421252727509,27.070125579833984,77.59976196289062,-129.97816467285156,124.71318871605695,0.8281475353703395,47.118635255704795,0.9522010673062147,58.97277641296387,116.0802001953125,37.08294677734375
1618.671,-20.09770393371582,-110.477783203125,-31.530302047729492,0.5664759874343872,-0.36652839183807373,0.48209628462791443,-32.88959503173828,-40.72053146362305,-166.18775939941406,1.442478895187378,59.70782470703125,-7.642693519592285,-0.9936152100563049,0.1211862713098526,0.1615828573703766,29.227561950683594,78.73745727539062,-127.79075622558594,116.63369252538067,0.8292496210521941,60.21225656660818,1.0139360521281386,62.117156982421875,119.45798873901367,38.397003173828125
1631.206,-14.118839263916016,-103.64740753173828,-30.740276336669922,0.5981138944625854,-0.3473035395145416,0.47563421726226807,-33.7569694519043,-42.82810592651367,-165.33311462402344,1.0464365482330322,70.23347473144531,2.0304512977600098,-0.9720685482025146,0.10134055465459824,0.133919820189476,33.34174346923828,79.93629455566406,-123.6148910522461,109.02793816020444,0.8393973361520871,70.2706107471297,0.9864693044701531,67.09871292114258,122.76440048217773,41.718223571777344
1655.791,-16.749895095825195,-97.00635528564453,-29.966096878051758,0.6270961165428162,-0.32305005192756653,0.44443368911743164,-34.679771423339844,-44.81998825073242,-164.49815368652344,-3.367114543914795,68.33238983154297,-7.472269058227539,-0.9198652505874634,0.13035988807678223,0.0983462929725647,37.4585075378418,81.15015411376953,-119.36051177978516,102.9016953875427,0.833745872227272,68.82214589302156,0.9342471691148834,72.13827896118164,125.97014236450195,45.13764190673828
1678.3539999999998,-19.025684356689453,-90.03546905517578,-28.127012252807617,0.6702080368995667,-0.3213612139225006,0.40699824690818787,-35.68020248413086,-46.682254791259766,-163.652587890625,-6.528811454772949,68.44316864013672,-4.147137641906738,-0.9698777794837952,0.08798284083604813,0.09053178131580353,42.94477462768555,82.27477264404297,-113.68297576904297,96.22624990872025,0.8474074672345366,68.87881723095344,0.9780592471042902,78.6249771118164,128.95702743530273,49.96961212158203
1698.793,-24.548261642456055,-82.80308532714844,-27.826793670654297,0.6892173886299133,-0.3381406366825104,0.39590251445770264,-36.788936614990234,-48.402774810791016,-162.8402557373047,-8.300688743591309,64.28085327148438,1.1745100021362305,-0.9523746371269226,0.09911131858825684,0.07882758229970932,50.18883514404297,83.15735626220703,-106.20587158203125,90.73752550819682,0.8637699346005404,64.8252188941403,0.9607571444679232,86.9777717590332,131.56013107299805,56.63438415527344
1721.202,-18.302167892456055,-76.38919830322266,-25.613309860229492,0.7237614393234253,-0.3498888313770294,0.37598541378974915,-37.8057861328125,-49.984832763671875,-162.01034545898438,-8.134405136108398,65.96794891357422,-2.5529587268829346,-0.9600579738616943,0.07746576517820358,0.05184516683220863,59.20291519165039,83.99220275878906,-96.97770690917969,82.62155051176934,0.8874783641061614,66.51658762326471,0.964572537072213,97.00870132446289,133.97703552246094,65.03263854980469
1731.02,-10.028654098510742,-69.8905029296875,-21.76250648498535,0.7401788830757141,-0.36921101808547974,0.3691829442977905,-38.70724105834961,-51.395668029785156,-161.13768005371094,-10.056965827941895,57.16230010986328,0.09806835651397705,-0.9661216139793396,0.09390507638454437,0.03147631883621216,69.09440612792969,84.50669860839844,-86.8233871459961,73.88411866768976,0.905802186565761,58.040337119257124,0.9711847893250337,107.8016471862793,135.9023666381836,74.31429290771484
1753.885,-12.729830741882324,-61.49746322631836,-20.57558822631836,0.7563313841819763,-0.3423604667186737,0.33249250054359436,-39.60595703125,-52.66877365112305,-160.34988403320312,-9.302574157714844,54.39453887939453,4.666049957275391,-0.9534503221511841,0.06651835888624191,0.03487559035420418,79.94306182861328,84.72734069824219,-75.69225311279297,66.08586388062399,0.8943148857020018,55.38118604784062,0.9564039500554511,119.54901885986328,137.39611434936523,84.65763092041016
1776.6889999999999,-11.298431396484375,-54.269256591796875,-17.846065521240234,0.7790615558624268,-0.34136292338371277,0.3389641344547272,-40.4455451965332,-53.78196716308594,-159.605224609375,-5.910118579864502,50.605987548828125,-0.6344524025917053,-0.9541541337966919,0.088672935962677,-0.01420497801154852,90.7140121459961,84.83042907714844,-64.70307159423828,58.23477326851846,0.9156212304935387,50.95388117966443,0.9583709000245495,131.1595573425293,138.61239624023438,94.90215301513672
1799.389,-9.393058776855469,-44.77919006347656,-16.867948532104492,0.8056246042251587,-0.3547302484512329,0.3175122141838074,-41.15571212768555,-54.734745025634766,-158.98980712890625,-7.277842044830322,49.371315002441406,11.144632339477539,-0.987274706363678,0.08194687962532043,0.0012652147561311722,100.56056213378906,84.51087188720703,-54.58578872680664,48.764055446692964,0.9357769810457623,51.13410368708856,0.9906705999847742,141.7162742614746,139.2456169128418,104.40401840209961
1821.179,-10.976127624511719,-36.51228713989258,-16.120248794555664,0.8043581247329712,-0.3676716089248657,0.29187530279159546,-41.81121063232422,-55.545780181884766,-158.49452209472656,-7.878669738769531,51.227787017822266,12.926583290100098,-0.9766026735305786,0.13395185768604279,-0.05289888009428978,109.41934204101562,83.95907592773438,-45.43809127807617,41.3942618126463,0.931324646518617,53.41775131126223,0.9871647145435486,151.23055267333984,139.50485610961914,113.05643081665039
1831.15,-8.272719383239746,-28.1933650970459,-16.01590919494629,0.8354870676994324,-0.35889312624931335,0.25746777653694153,-42.284873962402344,-56.24702453613281,-158.16163635253906,-2.168792486190796,36.333152770996094,-2.629056453704834,-0.9451464414596558,0.1081087738275528,-0.054158855229616165,115.69805908203125,83.71405792236328,-38.99879455566406,33.46360812629029,0.9450569148558609,36.49265116383661,0.9528496651529715,157.9829330444336,139.9610824584961,119.162841796875
1855.87,-2.840693950653076,-20.786968231201172,-16.132654190063477,0.8467845320701599,-0.37105584144592285,0.29683420062065125,-42.484619140625,-56.81675338745117,-158.01974487304688,-0.5334594249725342,24.34332847595215,3.3600552082061768,-0.9731351137161255,0.0913660004734993,-0.03321430832147598,119.11947631835938,83.43399810791016,-35.457183837890625,26.465640396227265,0.970997952563507,24.579914386514613,0.9779789802787655,161.60409545898438,140.25075149536133,122.56256103515625
1878.162,5.176170349121094,-15.151256561279297,-13.649127960205078,0.8714675903320312,-0.36268776655197144,0.2525004744529724,-42.46142578125,-57.27006530761719,-157.95098876953125,-2.2321860790252686,23.33209228515625,9.951364517211914,-0.9705312848091125,0.08071421086788177,-0.05088871717453003,121.59236145019531,83.03215026855469,-32.8392333984375,21.03929677871581,0.9771154827370973,25.463676891777947,0.9752104491672149,164.0537872314453,140.30221557617188,125.11175537109375
1899.75,1.4887374639511108,-3.8667562007904053,-11.932373046875,0.8298871517181396,-0.352119505405426,0.22792287170886993,-42.32305145263672,-57.53268051147461,-158.10940551757812,3.105370283126831,16.16758155822754,6.833921432495117,-0.9631402492523193,0.08496299386024475,-0.06169603019952774,123.26082611083984,82.74903869628906,-31.117069244384766,12.63129721298298,0.9298654021533581,17.825164800999246,0.9688468662270094,165.58387756347656,140.28171920776367,126.99233627319336
1921.386,2.5469589233398438,6.732624053955078,-10.769379615783691,0.8808348178863525,-0.35922494530677795,0.20321467518806458,-41.879215240478516,-57.577091217041016,-158.57472229003906,5.995125770568848,7.773843765258789,9.680953025817871,-0.9659181833267212,0.09485479444265366,-0.05893845856189728,123.5442123413086,82.50699615478516,-30.854270935058594,12.953561815884164,0.9727326158525436,13.787495471610638,0.9723523593880995,165.4234275817871,140.08408737182617,127.72045135498047
1930.931,3.290247678756714,15.992481231689453,-7.669009208679199,0.8736128211021423,-0.3288205564022064,0.25110602378845215,-41.371986389160156,-57.50440979003906,-159.1221466064453,10.109451293945312,0.22625699639320374,12.128311157226562,-1.0010653734207153,0.09249502420425415,-0.05287504941225052,122.76667022705078,82.31463623046875,-31.806123733520508,18.038816146751696,0.9666315506383738,15.790760881590721,1.0067189191700183,164.13865661621094,139.8190460205078,127.3160228729248
1960.815,4.675520420074463,25.689254760742188,-4.013560771942139,0.856195867061615,-0.3177105784416199,0.25446179509162903,-40.73867416381836,-57.24467468261719,-159.7904815673828,13.032170295715332,-4.324801445007324,11.670042991638184,-1.015911340713501,0.09925979375839233,-0.05752119421958923,121.5806655883789,82.17508697509766,-33.267173767089844,26.417928976945205,0.9480306849402891,18.020301706185332,1.0223683517361584,162.31933975219727,139.41976165771484,126.52330780029297
1970.998,2.919055938720703,37.621063232421875,-1.4102407693862915,0.8463603258132935,-0.32984110713005066,0.25260573625564575,-39.966426849365234,-56.74245834350586,-160.6649932861328,14.448348045349121,-8.638928413391113,10.19991683959961,-0.9909753799438477,0.1041470617055893,-0.055782414972782135,120.04085540771484,82.09859466552734,-35.10418701171875,37.760482853624964,0.94283116996248,19.68309297102434,0.997993232410399,160.00728225708008,138.8410530090332,125.56080627441406
1998.2150000000001,6.3144965171813965,49.70177459716797,2.937458038330078,0.8346689343452454,-0.34252721071243286,0.25483983755111694,-39.04034423828125,-55.98896026611328,-161.654541015625,15.315168380737305,-11.196269989013672,9.882108688354492,-0.9754316806793213,0.110175721347332,-0.047019604593515396,118.2264404296875,82.04438018798828,-37.18723678588867,50.18732832199914,0.9375182466717896,21.390813830372963,0.9827596331063974,157.26678466796875,138.03334045410156,124.46730422973633
2020.702,8.731023788452148,59.37055587768555,5.601003646850586,0.8098183870315552,-0.3130098581314087,0.3041665256023407,-37.978553771972656,-55.0528450012207,-162.753173828125,17.527889251708984,-14.78691577911377,9.887528419494629,-0.99077308177948,0.11466453969478607,-0.04334220290184021,116.02959442138672,82.01280975341797,-39.76375961303711,60.26993382667624,0.9199447084248236,24.972845214854736,0.998327502773819,154.00814819335938,137.06565475463867,122.98941421508789
2030.735,6.949782848358154,67.3106918334961,7.691810607910156,0.7864562273025513,-0.2937941551208496,0.3451830744743347,-36.890201568603516,-53.94536590576172,-163.928466796875,20.00010871887207,-18.69949722290039,7.495506286621094,-0.9783616065979004,0.11950881034135818,-0.05381159111857414,113.58858489990234,82.03768920898438,-42.60089111328125,68.10427789185617,0.9077333077229733,28.387640966602675,0.9871015532115954,150.47878646850586,135.9830551147461,121.32757568359375
2054.462,7.312029838562012,74.32298278808594,11.35350227355957,0.7778564095497131,-0.2956516146659851,0.36134102940559387,-35.83243179321289,-52.670509338378906,-165.07489013671875,18.21933937072754,-20.498441696166992,5.175134658813477,-0.9609830975532532,0.12466470897197723,-0.060114506632089615,111.02275848388672,82.0962142944336,-45.50049591064453,75.53988062443482,0.9072143135246872,27.90900316768323,0.9708983249309542,146.8551902770996,134.7667236328125,119.57439422607422
2070.982,8.255718231201172,81.8238296508789,14.184186935424805,0.7629162073135376,-0.2857111394405365,0.37122198939323425,-34.774681091308594,-51.23543930053711,-166.2162628173828,19.322744369506836,-26.03024673461914,2.8430087566375732,-0.9776790738105774,0.1290743499994278,-0.03005596064031124,107.69281005859375,82.2186508178711,-49.19011306762695,83.45350286997014,0.895252902810794,32.54266267263293,0.9866204538549235,142.46749114990234,133.4540901184082,117.02614974975586
2094.022,8.107359886169434,88.33145141601562,17.623397827148438,0.7507173418998718,-0.27415958046913147,0.37007513642311096,-33.779666900634766,-49.656700134277344,-167.30470275878906,19.551321029663086,-30.578699111938477,1.8550084829330444,-0.9818328022956848,0.12460597604513168,-0.00198867148719728,103.58245849609375,82.35704040527344,-53.673240661621094,90.43649011631167,0.880735834169817,36.34215252093864,0.9897101877540926,137.36212539672852,132.01374053955078,113.63146209716797
2116.605,6.906838417053223,90.42823028564453,23.60371971130371,0.7306835055351257,-0.2657480835914612,0.4587306082248688,-32.92710876464844,-47.93875503540039,-168.23580932617188,18.732044219970703,-40.22330093383789,0.930790364742279,-0.9965251684188843,0.132583349943161,0.017011791467666626,97.8872299194336,82.49349975585938,-59.729270935058594,93.71288509976965,0.9027481376973272,44.38096201499151,1.0054502260298,130.81433868408203,130.43225479125977,108.50653839111328
2130.656,13.169145584106445,95.21489715576172,28.321205139160156,0.6989242434501648,-0.29205217957496643,0.47524070739746094,-32.07059097290039,-46.07179641723633,-169.04019165039062,13.809792518615723,-43.503089904785156,0.05651797354221344,-0.9851767420768738,0.14236024022102356,0.007425774820148945,91.55490112304688,82.5577621459961,-66.33531951904297,100.2067547440394,0.8942277694438441,45.64244072080686,0.9954369860803195,123.62549209594727,128.62955856323242,102.70487213134766
2153.163,14.837864875793457,99.70259857177734,31.639320373535156,0.6776915788650513,-0.28960728645324707,0.48497337102890015,-31.257108688354492,-44.09299087524414,-169.7636260986328,10.967013359069824,-47.950199127197266,-0.1857360303401947,-0.9726123809814453,0.16595640778541565,0.025521444156765938,84.46875762939453,82.50377655029297,-73.63587951660156,105.6495006601379,0.8822343379389369,49.18873322447786,0.9869993500683181,115.72586631774902,126.59676742553711,96.12774658203125
2177.575,15.388025283813477,105.64822387695312,34.362998962402344,0.6557409167289734,-0.284511923789978,0.4851701855659485,-30.484283447265625,-41.9899787902832,-170.44097900390625,8.091628074645996,-52.9257698059082,-1.4056735038757324,-0.9992910027503967,0.16896188259124756,0.07102271169424057,76.66854095458984,82.3290023803711,-81.59484100341797,112.15682871845189,0.8639058360801399,53.55919596526708,1.0159600639410367,107.15282440185547,124.3189811706543,88.84613800048828
2198.3,12.697134971618652,109.07691192626953,37.02447509765625,0.6023620963096619,-0.28054261207580566,0.5749359130859375,-29.797128677368164,-39.755821228027344,-171.0673828125,1.606065273284912,-54.14918518066406,-3.021121025085449,-0.9914169311523438,0.17122411727905273,0.10505326837301254,68.91712188720703,82.02793884277344,-89.38046264648438,115.88702131004847,0.878689681524056,54.25717347632581,1.011563848162524,98.7142505645752,121.78376007080078,81.68692016601562
2219.7369999999996,12.792790412902832,111.03034973144531,40.13256072998047,0.5585604906082153,-0.3137511610984802,0.6242390871047974,-29.198062896728516,-37.42840576171875,-171.58900451660156,-6.905152320861816,-50.27509307861328,-4.652329444885254,-1.0044217109680176,0.16791419684886932,0.044292088598012924,62.29568099975586,81.67672729492188,-95.85567474365234,118.75191147422044,0.8944853551783648,50.9598889510297,1.0193232755508406,91.49374389648438,119.10513305664062,75.73332977294922
2230.6059999999998,14.879898071289062,114.39924621582031,42.85968780517578,0.5112563967704773,-0.34613582491874695,0.630612313747406,-28.638229370117188,-35.00276565551758,-172.03045654296875,-9.902313232421875,-46.775665283203125,-8.842289924621582,-1.0009673833847046,0.1577664613723755,0.086703822016716,56.18902587890625,81.32840728759766,-101.77873992919922,123.06726510375114,0.8825332870667089,48.623088766041136,1.0170267998859666,84.82725524902344,116.33117294311523,70.25171661376953
2254.384,10.496304512023926,117.85081481933594,43.820655822753906,0.46431878209114075,-0.31101664900779724,0.6461010575294495,-28.167890548706055,-32.504249572753906,-172.46495056152344,-11.046205520629883,-41.71311950683594,-9.748412132263184,-0.9678844809532166,0.15865202248096466,0.11832784116268158,50.95448303222656,80.9582290649414,-106.80303192138672,126.1714580986001,0.8542656869518479,44.23838304567683,0.9879131088823545,79.12237358093262,113.46247863769531,65.66191864013672
2276.399,-3.6129512786865234,120.11799621582031,43.72294616699219,0.4215940833091736,-0.3271726369857788,0.7334742546081543,-27.981504440307617,-29.938268661499023,-172.9046173095703,-16.442264556884766,-34.93260955810547,-8.390088081359863,-0.992499053478241,0.15049244463443756,0.09017010033130646,46.83670425415039,80.61505889892578,-110.59832000732422,127.87917130388233,0.9070655917002465,39.50985765996389,1.007885407197173,74.81820869445801,110.5533275604248,62.306297302246094
2298.225,3.1839613914489746,121.84201049804688,45.944435119628906,0.36059463024139404,-0.4367050528526306,0.724872350692749,-27.772064208984375,-27.299964904785156,-173.26158142089844,-17.334245681762695,-28.365741729736328,-12.644420623779297,-0.9838831424713135,0.12112919241189957,0.0883588045835495,43.12678909301758,80.40006256103516,-113.97276306152344,130.25553443447305,0.9198802722880725,35.566455405970224,0.9952414770501778,70.89885330200195,107.70002746582031,59.288818359375
2320.4449999999997,14.243391990661621,122.017578125,46.655540466308594,0.3371323347091675,-0.37177857756614685,0.6984267830848694,-27.344449996948242,-24.675806045532227,-173.594970703125,-14.181264877319336,-21.78559112548828,-13.885406494140625,-0.9859818816184998,0.09608146548271179,0.10595767199993134,39.95097732543945,80.2713394165039,-116.87376403808594,131.4073934110767,0.8600450529907376,29.470744268090133,0.9963026383307975,67.2954273223877,104.94714546203613,56.72120666503906
2330.541,3.822258472442627,125.6994400024414,47.17274856567383,0.32147112488746643,-0.37334245443344116,0.7615623474121094,-27.123571395874023,-21.98273468017578,-173.93618774414062,-9.58461856842041,-18.009492874145508,-11.979129791259766,-1.021426796913147,0.09412437677383423,0.16225984692573547,37.30017852783203,80.13368225097656,-119.32962799072266,134.31391247371886,0.9070311358573317,23.65811271513124,1.0385087181529469,64.42374992370605,102.11641693115234,54.60655975341797
2353.913,-7.375885009765625,128.40492248535156,48.819007873535156,0.26486173272132874,-0.3981366753578186,0.7957102060317993,-27.151607513427734,-19.211671829223633,-174.26084899902344,-8.042839050292969,-13.028271675109863,-5.975896835327148,-1.0385704040527344,0.11877979338169098,0.14328113198280334,35.74898147583008,79.9927749633789,-120.70883178710938,137.57006697644192,0.9283422223018245,16.4357678803231,1.0551144991290426,62.90058898925781,99.20444679260254,53.55201721191406
2375.445,3.8879454135894775,129.1844482421875,51.00445556640625,0.21119324862957,-0.44013798236846924,0.7891951203346252,-27.008575439453125,-16.400413513183594,-174.53598022460938,-8.628731727600098,-1.678956389427185,-6.627289295196533,-0.9979828000068665,0.10847526788711548,0.12454429268836975,34.910099029541016,80.04969024658203,-121.36380767822266,138.94312604372692,0.9279832809647391,11.008854126870675,1.0115571331832784,61.91867446899414,96.45010375976562,53.17217254638672
2396.49,5.6907830238342285,130.35580444335938,50.89058303833008,0.1651424765586853,-0.39996975660324097,0.7503425478935242,-26.833820343017578,-13.574951171875,-174.81390380859375,-8.075979232788086,1.596457839012146,-5.533848285675049,-0.979253888130188,0.08557578176259995,0.17655706405639648,34.23561477661133,80.12734985351562,-121.86647033691406,140.0531049476622,0.8661765310492644,9.919354568168055,0.9987160701173209,61.069435119628906,93.70230102539062,52.94743347167969
2417.986,-7.531432628631592,134.48590087890625,52.16843032836914,0.11643298715353012,-0.4298284649848938,0.7821108102798462,-26.94302749633789,-10.657111167907715,-175.1008758544922,-6.971764087677002,0.34081408381462097,-4.670933246612549,-0.9681680798530579,0.11357224732637405,0.17833498120307922,33.66191101074219,80.1618423461914,-122.2945327758789,144.44627075690295,0.9000035940846912,8.398765750290908,0.9909850915779826,60.60493850708008,90.81895351409912,52.80634307861328
2440.4590000000003,-1.2227880954742432,136.1836700439453,52.77213668823242,0.039325371384620667,-0.44611990451812744,0.8571071624755859,-26.925764083862305,-7.682684421539307,-175.39736938476562,-6.863991737365723,7.017492771148682,-1.9878891706466675,-1.0194823741912842,0.12942081689834595,0.1218705102801323,33.91606903076172,80.30437469482422,-121.87601470947266,146.0561043161363,0.9670584997862084,10.015552442003546,1.0348654407261229,60.84183311462402,87.98705911636353,53.52135467529297
2450.604,10.023938179016113,135.94618225097656,51.202667236328125,-0.02029803954064846,-0.40701451897621155,0.8423658609390259,-26.68134117126465,-4.719613552093506,-175.7110595703125,-8.021458625793457,10.596423149108887,-3.4304354190826416,-0.9895980358123779,0.11285728961229324,0.15589895844459534,34.14025115966797,80.50711059570312,-121.46588897705078,145.61441184630942,0.9357633636460538,13.725737473986003,1.008139635936639,60.82159233093262,85.22672414779663,54.24517059326172
2480.414,-4.618735313415527,137.54705810546875,49.33757400512695,-0.07955455780029297,-0.4296268820762634,0.8496289849281311,-26.755172729492188,-1.7392678260803223,-176.06483459472656,-7.850070476531982,11.40126895904541,-1.8239963054656982,-0.9568541049957275,0.09814081341028214,0.17509442567825317,34.51512908935547,80.69451141357422,-120.89939880371094,146.20096483291746,0.9553939488500951,13.962073731554492,0.9776806510346842,61.270301818847656,82.43377923965454,55.165435791015625
2490.418,-5.073304176330566,136.1439971923828,49.276058197021484,-0.15264248847961426,-0.4553986191749573,0.8590474724769592,-26.85681915283203,1.190311312675476,-176.4138641357422,-13.28728199005127,13.751906394958496,-4.4113359451293945,-0.9983030557632446,0.09363238513469696,0.11810873448848724,34.8006706237793,80.98113250732422,-120.31616973876953,144.87600318279547,0.9842002802299739,19.62464463371584,1.0096166043873862,61.65748977661133,79.79082119464874,56.097694396972656
2513.886,8.159076690673828,134.89315795898438,48.1802864074707,-0.21090666949748993,-0.4474266469478607,0.8899455070495605,-26.707307815551758,4.099982261657715,-176.76898193359375,-15.995519638061523,16.368898391723633,-5.020591735839844,-0.9777634739875793,0.08785121887922287,0.10698186606168747,35.19382858276367,81.31938171386719,-119.57717895507812,143.47151144006853,1.0181724967583972,23.43083063888619,0.9875142365499677,61.90113639831543,77.21939945220947,57.191802978515625
2530.448,4.728672027587891,134.16329956054688,46.0921516418457,-0.25483769178390503,-0.4133825898170471,0.8646208643913269,-26.634349822998047,6.9658355712890625,-177.14830017089844,-13.444002151489258,13.949039459228516,-5.495841026306152,-1.0064635276794434,0.06260181963443756,0.10706165432929993,35.35606384277344,81.6307373046875,-119.1241226196289,141.93885208459463,0.9916635789714185,20.137556064994378,1.0140759430132533,61.990413665771484,74.66490173339844,58.02417755126953
2553.165,-0.09671780467033386,131.6959686279297,47.64683151245117,-0.28899577260017395,-0.432256281375885,0.859096348285675,-26.68575096130371,9.830483436584473,-177.48191833496094,-9.078310012817383,11.998014450073242,-3.7247936725616455,-0.9880849123001099,0.03988363966345787,0.12365248799324036,35.560916900634766,81.88433074951172,-118.71906280517578,140.05019835886804,1.0041964872511064,15.499746815227079,0.9965904055402294,62.24666786193848,72.05384731292725,58.762855529785156
2571.231,10.27074909210205,129.575927734375,47.701820373535156,-0.33796337246894836,-0.4832763373851776,0.9096062183380127,-26.555391311645508,12.64454460144043,-177.79931640625,-5.542051315307617,17.02569007873535,-7.7032318115234375,-0.9940880537033081,0.06137288361787796,0.08834164589643478,35.97046661376953,82.27452087402344,-118.17371368408203,138.45892171357502,1.0840473845022631,19.491747889317594,0.999890961934798,62.52585792541504,69.62997627258301,59.62560272216797
2594.217,22.824350357055664,128.2753448486328,44.9744873046875,-0.373352974653244,-0.4213394820690155,0.82686448097229,-26.183549880981445,15.409942626953125,-178.14247131347656,-1.0940916538238525,10.362589836120605,-0.7599709630012512,-0.9751211404800415,0.05036196485161781,0.09596074372529984,36.69336700439453,82.46765899658203,-117.39305114746094,137.83402908417352,1.0003120876637384,10.447863921550764,0.9811248801509036,62.87691688537598,67.0577163696289,60.749420166015625
2615.132,12.834559440612793,127.58429718017578,43.128501892089844,-0.4054141044616699,-0.3983391523361206,0.8481941819190979,-26.023508071899414,18.147554397583008,-178.50209045410156,7.371816635131836,15.638935089111328,0.6535735726356506,-1.0064198970794678,0.06305611878633499,0.12471385300159454,38.261844635009766,82.70974731445312,-115.93000030517578,135.28690431246488,1.021013245076539,17.301651066828615,1.0160760938455082,64.28535270690918,64.56219291687012,62.57209014892578
2631.405,12.485836029052734,124.90290069580078,43.87250900268555,-0.45240703225135803,-0.4243416488170624,0.8727195262908936,-25.8823184967041,20.833316802978516,-178.82595825195312,4.148475170135498,11.37774658203125,-3.6839139461517334,-1.0172165632247925,0.07381043583154678,0.09956463426351547,38.98965835571289,82.94074249267578,-115.23703002929688,132.9715298466562,1.0706901182511521,12.658364249965546,1.0247393001795766,64.87197685241699,62.107425689697266,63.58892822265625
2654.0499999999997,29.196107864379883,123.55636596679688,41.896907806396484,-0.5036448240280151,-0.4387963116168976,0.7921140193939209,-25.45833396911621,23.493572235107422,-179.17779541015625,3.359271764755249,10.696256637573242,-0.7599009275436401,-0.9709763526916504,0.0755254253745079,0.08931517601013184,40.070045471191406,83.12076568603516,-114.17564392089844,133.69345222967067,1.036168389586942,11.237084242186368,0.9779960981671151,65.52837944030762,59.627193450927734,65.00215148925781
2675.2889999999998,29.581016540527344,124.47575378417969,38.573734283447266,-0.5397021174430847,-0.38984695076942444,0.7660250663757324,-25.05173683166504,26.147968292236328,-179.58447265625,1.0144692659378052,11.191519737243652,0.8400712013244629,-0.9819115400314331,0.0910753458738327,0.09847640991210938,41.423728942871094,83.27368927001953,-112.80913543701172,133.63077039469866,1.0149154757479621,11.268761313646737,0.9910310763957489,66.47546577453613,57.1257209777832,66.77533721923828
2698.271,18.673057556152344,125.92640686035156,33.88018798828125,-0.5631406307220459,-0.3634852170944214,0.8379484415054321,-24.897733688354492,28.759855270385742,179.91758728027344,2.3029227256774902,10.577658653259277,0.2677921652793884,-1.0477498769760132,0.1144673153758049,0.12374744564294815,42.71588134765625,83.40589141845703,-111.53736877441406,131.73462020811178,1.073036096148487,10.828759315318525,1.0612238224313235,67.61361503601074,54.64603614807129,-291.4549560546875
2720.18,16.81822967529297,124.68657684326172,34.22944641113281,-0.5891985893249512,-0.37020009756088257,0.8354437351226807,-24.801551818847656,31.33948516845703,179.42855834960938,-2.130467653274536,6.938865661621094,-2.868082046508789,-1.023305892944336,0.10185422003269196,0.09579773247241974,43.17134475708008,83.53791809082031,-111.01190185546875,130.38884268185728,1.0872761031367955,7.804655259342304,1.0328148131295998,67.97289657592773,52.19843292236328,-290.4404602050781
2730.712,25.126022338867188,126.78929901123047,29.591022491455078,-0.6200013160705566,-0.39255526661872864,0.7014827132225037,-24.676963806152344,33.9417839050293,178.7845458984375,-6.385724067687988,7.762985706329346,0.10310400277376175,-0.9710022807121277,0.09541861712932587,0.11148147284984589,43.95509719848633,83.6306381225586,-110.0606460571289,132.59891385083915,1.0151745003837167,10.052464841058203,0.9820276271224743,68.63206100463867,49.6888542175293,-288.8451919555664
2752.768,24.17506217956543,128.6043243408203,27.646038055419922,-0.6584418416023254,-0.35092052817344666,0.6551315784454346,-24.62909698486328,36.57434844970703,178.06982421875,-8.329591751098633,9.978453636169434,-0.2956957519054413,-1.0055034160614014,0.09494633972644806,0.138909250497818,44.84669876098633,83.7508773803711,-108.96480560302734,133.74531502339246,0.9929190606200483,13.00150267033962,1.019484039606537,69.47579574584961,47.17652893066406,-287.03462982177734
2775.186,10.247361183166504,130.20132446289062,27.018451690673828,-0.7088775634765625,-0.32598379254341125,0.7791916728019714,-24.87114906311035,39.188941955566406,177.32322692871094,-12.960312843322754,2.242767572402954,-1.5287024974822998,-1.0795460939407349,0.07352840155363083,0.10589602589607239,44.56967544555664,83.80175018310547,-108.9424057006836,133.36937442632947,1.1026842231415974,13.24147449140116,1.087216704745798,69.44082450866699,44.61280822753906,-286.26563262939453
2798.133,19.757518768310547,129.49481201171875,26.886404037475586,-0.7810755372047424,-0.3372923731803894,0.7281979322433472,-24.991317749023438,41.80265426635742,176.5305938720703,-13.860931396484375,0.24394190311431885,-0.8705432415008545,-0.983048677444458,0.03213128447532654,0.0759139135479927,44.05440902709961,83.83686828613281,-109.14242553710938,133.724136220418,1.1198738180477399,13.890384169110087,0.9864988818734183,69.04572677612305,42.03421401977539,-285.6730194091797
2820.052,20.018085479736328,128.22035217285156,23.683246612548828,-0.8370167016983032,-0.29971304535865784,0.6093510389328003,-25.21746826171875,44.407615661621094,175.62301635742188,-10.39013671875,0.0781552791595459,1.3939697742462158,-0.960108757019043,0.057337332516908646,0.04907312989234924,44.07820129394531,83.83708953857422,-108.882568359375,131.91693836545372,1.0778374446680494,10.483520449423922,0.9630703853209471,69.29566955566406,39.429473876953125,-284.5055847167969
2830.626,12.264992713928223,127.71147918701172,21.230449676513672,-0.8460659384727478,-0.2886314392089844,0.5816139578819275,-25.71246337890625,46.963619232177734,174.59645080566406,-2.1732234954833984,-2.186274290084839,0.6040542721748352,-1.0148485898971558,0.07100982218980789,0.07052735984325409,43.85078811645508,83.80323791503906,-109.05093383789062,130.0437770747767,1.0664944800357392,3.1412699973959124,1.019771623330505,69.56325149536133,36.83961868286133,-283.6473846435547
2855.069,9.661725997924805,123.74244689941406,21.62204933166504,-0.891570508480072,-0.2725191116333008,0.6203940510749817,-26.2769718170166,49.42512130737305,173.5692138671875,0.4709693193435669,-2.9914257526397705,1.5826404094696045,-0.9879497289657593,0.01813656836748123,0.06447461992502213,43.53777313232422,83.76648712158203,-109.35633087158203,125.98831347079079,1.1198452644923962,3.4168978326847115,0.9902174401060312,69.81474494934082,34.341365814208984,-282.92554473876953
2877.6079999999997,8.70186710357666,119.71913146972656,23.002445220947266,-0.9208806753158569,-0.26510727405548096,0.6320493221282959,-26.8701229095459,51.80160903930664,172.5594940185547,1.8476706743240356,-0.6969922780990601,-4.614984512329102,-0.9967827796936035,-0.022015085443854332,0.029207708314061165,42.6910400390625,83.88121032714844,-110.21562957763672,122.21908777722349,1.147950099320591,5.019737762625079,0.9974535899508139,69.5611629486084,32.0796012878418,-282.7751235961914
2900.154,10.753674507141113,117.2257080078125,20.911211013793945,-0.94209885597229,-0.29505929350852966,0.5283337831497192,-27.60211181640625,54.122745513916016,171.383544921875,5.939650535583496,0.8180580139160156,-6.875912189483643,-0.9766303896903992,0.028057705610990524,0.009003248065710068,42.052391052246094,84.03594970703125,-110.95468139648438,119.5608082918557,1.1197083671775185,9.122874318792256,0.9770748238424254,69.65450286865234,29.913204193115234,-282.3382263183594
2910.024,8.590409278869629,113.60064697265625,21.064058303833008,-0.9303163290023804,-0.24722471833229065,0.48242494463920593,-28.42394256591797,56.37337875366211,170.17315673828125,16.591564178466797,1.605743646621704,-0.517363965511322,-0.9936639666557312,0.06793544441461563,0.0676388293504715,42.544349670410156,84.0731430053711,-110.76565551757812,115.8559306915785,1.076727616704005,16.677112460484825,0.9982776740334903,70.96829223632812,27.699764251708984,-280.9388122558594
2937.532,4.985849380493164,111.92556762695312,18.805261611938477,-0.9406660199165344,-0.2500953674316406,0.481244295835495,-29.492626190185547,58.54206848144531,168.78546142578125,22.5170841217041,1.2883003950119019,-0.9232405424118042,-1.0196638107299805,0.06201913207769394,0.09039349108934402,42.95027542114258,84.10520935058594,-110.77528381347656,113.60382584646553,1.0858159724882401,22.57279708744221,1.025539683721393,72.44290161132812,25.563140869140625,-279.5607452392578
2959.9139999999998,-4.194337368011475,111.44499206542969,18.907716751098633,-0.9512437582015991,-0.24056445062160492,0.5002167224884033,-30.883798599243164,60.66334533691406,167.25917053222656,26.836891174316406,-3.607941150665283,-1.226309895515442,-1.0817675590515137,0.08981884270906448,0.1329277753829956,42.73307800292969,84.04473876953125,-111.48851013183594,113.11534146684153,1.101341323967015,27.106084247057982,1.0935987700204028,73.61687660217285,23.381393432617188,-278.7476806640625
2970.173,-6.491771697998047,113.49684143066406,21.956310272216797,-0.9396829009056091,-0.2411222606897354,0.4867774248123169,-32.48014831542969,62.81184387207031,165.5833282470703,22.05411148071289,-12.334824562072754,1.4491709470748901,-1.0481525659561157,0.1213165670633316,0.1518210917711258,41.78367614746094,83.79409790039062,-112.8555679321289,115.78322708961814,1.085401382052474,25.310705770773588,1.0660164890239727,74.26382446289062,20.982254028320312,-278.4388961791992
2995.023,1.4423201084136963,117.07356262207031,22.31678581237793,-0.9558427333831787,-0.24117688834667206,0.3888787031173706,-34.30667495727539,65.02064514160156,163.5187530517578,11.998221397399902,-15.083584785461426,5.195459842681885,-0.9565354585647583,0.1303349733352661,0.12445704638957977,41.03865432739258,83.45113372802734,-113.8094253540039,119.1903447487023,1.0597302808603035,19.961579337771557,0.9733636756947606,75.34532928466797,18.43048858642578,-277.3281784057617
3009.948,2.8186161518096924,112.70706939697266,22.954648971557617,-1.009493112564087,-0.19543570280075073,0.33981314301490784,-36.29328536987305,67.1570816040039,161.28045654296875,-3.1657285690307617,-7.677551746368408,3.1942179203033447,-0.9173330664634705,0.10127653926610947,0.03243778645992279,40.82464599609375,83.30162048339844,-113.93508911132812,115.05539534707916,1.0829332529797124,8.897733774019606,0.9234766386993302,77.1179313659668,16.14453887939453,-275.2155456542969
3032.346,-5.005034923553467,104.84761810302734,20.096595764160156,-1.0663714408874512,-0.20491522550582886,0.331218421459198,-38.72272491455078,69.08859252929688,158.76864624023438,-7.366268157958984,2.5176987648010254,-4.778928756713867,-0.938228189945221,0.02823038585484028,-0.04439462348818779,40.60471725463867,83.48187255859375,-113.99500274658203,106.87350727739928,1.1352726290624673,9.13448814696192,0.9397020664487531,79.32744216918945,14.393280029296875,-272.7636489868164
3055.279,-11.998537063598633,94.67001342773438,19.193204879760742,-1.0678108930587769,-0.2094845324754715,0.3180420696735382,-41.42783737182617,70.79448699951172,156.1425323486328,2.189086675643921,10.873795509338379,-10.496209144592285,-0.9589147567749023,-0.03339304402470589,-0.0604654923081398,40.50542449951172,83.802001953125,-114.13153839111328,97.3383554804088,1.133690712127288,15.270950712362737,0.9613993352972384,81.93326187133789,13.007514953613281,-270.2740707397461
3070.038,-9.843422889709473,82.70512390136719,20.026634216308594,-1.0359429121017456,-0.20161072909832,0.3210580050945282,-43.98477554321289,72.2726821899414,153.6487274169922,17.094654083251953,15.028852462768555,-13.585308074951172,-0.9507893323898315,-0.031241891905665398,-0.03170884773135185,40.73725891113281,84.29194641113281,-114.24862670898438,85.66269066378885,1.1031331949754206,26.507625319236737,0.9518307945326191,84.7220344543457,12.019264221191406,-267.89735412597656
3092.877,-5.759890556335449,72.13821411132812,18.578065872192383,-1.0139673948287964,-0.20045168697834015,0.3208586871623993,-46.416446685791016,73.52873992919922,151.21807861328125,28.911529541015625,20.437734603881836,-9.057694435119629,-0.9748761653900146,0.029114285483956337,0.008189086802303791,42.81675720214844,84.77167510986328,-112.75582122802734,74.71440828879194,1.0822481479383261,36.546126533734395,0.9753451904876735,89.23320388793945,11.242935180664062,-263.9738998413086
3114.232,-10.47729778289795,63.7493782043457,16.487791061401367,-1.0167547464370728,-0.1997990608215332,0.34763312339782715,-48.90838623046875,74.5894775390625,148.83309936523438,31.734094619750977,18.458026885986328,-5.802347183227539,-0.99894779920578,0.053868792951107025,0.04372325912117958,45.423160552978516,85.14202880859375,-110.77175903320312,66.67536459860307,1.0929586760673122,37.16744207897297,1.0013542209329616,94.33154678344727,10.55255126953125,-259.6048583984375
3130.9680000000003,-11.894883155822754,58.36491394042969,14.230812072753906,-1.0129542350769043,-0.21437790989875793,0.32308751344680786,-51.59090042114258,75.5074462890625,146.29441833496094,36.22045135498047,18.580171585083008,-2.995415687561035,-1.0172688961029053,0.07087163627147675,0.06712472438812256,48.869937896728516,85.44352722167969,-108.0224838256836,61.241060056260274,1.0846288360347227,40.81808897573378,1.0219415464841428,100.4608383178711,9.936080932617188,-254.31690216064453
3152.379,-9.077597618103027,51.48898696899414,14.016550064086914,-1.0068527460098267,-0.22135517001152039,0.2984563708305359,-54.131439208984375,76.30305480957031,143.85557556152344,38.63239669799805,16.629499435424805,0.6405178308486938,-0.9993515610694885,0.07710116356611252,0.06909218430519104,52.90672302246094,85.63892364501953,-104.72116088867188,54.12931029773512,1.0732319268115778,42.064386233438846,1.0046998865170307,107.03816223144531,9.335868835449219,-248.5767364501953
3174.9320000000002,-3.5259649753570557,42.24636459350586,14.107555389404297,-1.027225136756897,-0.21287687122821808,0.3061021864414215,-56.14015197753906,76.96752166748047,141.85389709472656,38.06427764892578,17.773387908935547,0.34492042660713196,-0.9966480135917664,0.08650045096874237,0.05045969411730766,57.54784393310547,85.83251190185547,-100.79676055908203,44.678975698195906,1.0927975990243388,42.01073101954663,1.0016664972657425,113.68799591064453,8.864990234375,-242.6506576538086
3197.397,-6.79136323928833,34.006568908691406,11.423543930053711,-1.0395309925079346,-0.21658611297607422,0.3295394480228424,-58.15430450439453,77.51618194580078,139.89285278320312,36.93548583984375,17.980546951293945,-1.7377041578292847,-1.0318787097930908,0.12315410375595093,0.054534025490283966,62.351898193359375,86.02088165283203,-96.68217468261719,36.51118595049195,1.1118140476364813,41.116296022783004,1.040631810455725,120.5062026977539,8.50469970703125,-236.5750274658203
3218.312,-3.233037233352661,26.834823608398438,9.977630615234375,-1.023032784461975,-0.2135809063911438,0.31382763385772705,-59.854469299316406,77.96593475341797,138.2246856689453,30.02086067199707,15.305109024047852,-0.47474005818367004,-1.0165083408355713,0.14026185870170593,0.06315679103136063,66.76620483398438,86.12161254882812,-92.81917572021484,28.81168860966266,1.0911923136787687,33.70050171508275,1.028081405457818,126.62067413330078,8.155677795410156,-231.04386138916016
3230.2599999999998,1.9361519813537598,17.931907653808594,8.43404769897461,-1.019507646560669,-0.20471176505088806,0.31930285692214966,-60.89586639404297,78.29173278808594,137.07640075683594,16.905685424804688,16.521835327148438,-0.9188700914382935,-0.9970898628234863,0.14857101440429688,0.05654707923531532,71.40399932861328,86.2120361328125,-88.46864318847656,19.91067947580389,1.0877762005966902,23.656237327707117,1.0096826793782914,132.29986572265625,7.9203033447265625,-225.5450439453125
3252.301,-2.82913875579834,9.374832153320312,5.8520989418029785,-1.0185658931732178,-0.19975683093070984,0.31778058409690857,-61.47368621826172,78.4858169555664,136.46600341796875,5.339221477508545,17.827960968017578,-3.4011521339416504,-1.0084946155548096,0.11760970205068588,0.05619093403220177,76.0620346069336,86.35255432128906,-83.87602233886719,11.407829154889201,1.0855246518933632,18.91854418556731,1.016882910018113,137.5357208251953,7.866737365722656,-220.34202575683594
3274.778,-3.8449628353118896,0.6341357231140137,4.797771453857422,-1.015616536140442,-0.21520905196666718,0.316133975982666,-61.38016128540039,78.57662200927734,136.57644653320312,-1.3635551929473877,17.566455841064453,-5.419289588928223,-1.0130822658538818,0.08822164684534073,0.03833718225359917,80.76127624511719,86.5253677368164,-79.13352966308594,6.180977126936172,1.0852338804612165,18.433891429346843,1.0176386764971568,142.14143753051758,7.9487457275390625,-215.70997619628906
3297.31,0.32443249225616455,-7.3444929122924805,1.8269342184066772,-1.0214420557022095,-0.22822405397891998,0.3220038414001465,-60.655818939208984,78.53711700439453,137.246337890625,-1.070709466934204,17.019678115844727,-2.688661813735962,-1.0071996450424194,0.0808645486831665,0.02337627299129963,85.82548522949219,86.61469268798828,-74.02408599853516,7.575257171814779,1.095041810091368,17.263973015450077,1.010710962810967,146.48130416870117,8.07757568359375,-211.27042388916016
3319.596,2.0991342067718506,-16.380102157592773,0.988937497138977,-1.0159658193588257,-0.2308761030435562,0.3274940550327301,-59.185123443603516,78.38894653320312,138.662353515625,-0.3026929795742035,14.999319076538086,-0.30643755197525024,-1.0056724548339844,0.07269211858510971,0.01974472403526306,90.42549133300781,86.62692260742188,-69.36636352539062,16.543642539793424,1.0921275919707412,15.005502316581856,1.0084895064617343,149.61061477661133,8.23797607421875,-208.02871704101562
3329.65,1.0305601358413696,-24.855745315551758,-1.330852746963501,-1.0167502164840698,-0.21376529335975647,0.3313320577144623,-57.21294403076172,78.10256958007812,140.61569213867188,-0.6739419102668762,13.975131034851074,1.9339865446090698,-1.0204594135284424,0.08355964720249176,0.020294955000281334,94.58061218261719,86.56269836425781,-65.1348648071289,24.912673449857984,1.0905308504736972,14.124404026166937,1.0240759319981507,151.7935562133789,8.460128784179688,-205.75055694580078
3353.157,1.9439549446105957,-32.92060089111328,-3.3168702125549316,-1.0309631824493408,-0.22264139354228973,0.3330213129520416,-54.81296920776367,77.6766128540039,142.9739990234375,-3.384230613708496,11.671133041381836,4.001857757568359,-1.0248304605484009,0.09135086834430695,0.0041359663009643555,97.83336639404297,86.43793487548828,-61.744293212890625,33.14432910567928,1.1060549120928975,12.793874660485253,1.0289021140187968,152.64633560180664,8.761322021484375,-204.71829223632812
3374.772,6.698696613311768,-41.170249938964844,-5.177422046661377,-1.0270066261291504,-0.22379140555858612,0.3464062511920929,-52.015663146972656,77.10021209716797,145.63052368164062,-3.913229465484619,7.594759464263916,4.836216449737549,-1.0246636867523193,0.10860695689916611,0.030638258904218674,99.38990783691406,86.29280853271484,-60.0358772277832,42.03174651859335,1.1067169891982447,9.81747043378667,1.0308587900117234,151.40557098388672,9.192596435546875,-205.66640090942383
3397.198,1.269819736480713,-47.565704345703125,-7.010227680206299,-1.0244382619857788,-0.22278515994548798,0.36357277631759644,-49.259090423583984,76.38491821289062,148.3658905029297,-7.697206497192383,5.269118309020996,5.162959098815918,-1.0340839624404907,0.11729305237531662,0.03796148672699928,100.0263900756836,86.14521789550781,-59.176658630371094,48.09627807007864,1.1096360411376627,10.661460606827143,1.0414069214224904,149.28548049926758,9.760299682617188,-207.54254913330078
3419.57,-2.5786311626434326,-55.08285140991211,-8.684450149536133,-1.037773847579956,-0.23590119183063507,0.3667050302028656,-46.39073944091797,75.46378326416016,151.30201721191406,-14.141706466674805,4.092504501342773,4.434824466705322,-1.0259877443313599,0.11231335252523422,0.015975814312696457,100.37251281738281,86.01841735839844,-58.48381423950195,55.822840598801406,1.1256538145469523,15.375438950924003,1.0322404600269082,146.76325225830078,10.554634094238281,-209.78583145141602
3429.554,-1.840599536895752,-63.416595458984375,-12.289803504943848,-1.040563941001892,-0.24188196659088135,0.3713211417198181,-43.58198928833008,74.31415557861328,154.17025756835938,-21.993297576904297,5.8440093994140625,2.41759991645813,-1.0146907567977905,0.1042134016752243,-0.0017087343148887157,101.23269653320312,85.92950439453125,-57.124244689941406,64.62268685573069,1.1309993772603815,22.884544424627784,1.020029747013563,144.8146858215332,11.615348815917969,-211.29450225830078
3452.792,-2.207737445831299,-71.60782623291016,-14.410604476928711,-1.0272868871688843,-0.2432955950498581,0.38783666491508484,-40.93175506591797,72.98322296142578,156.89776611328125,-23.143436431884766,2.8176910877227783,0.7720189094543457,-1.0235155820846558,0.0863698348402977,0.018642477691173553,101.20809936523438,85.89954376220703,-56.62273025512695,73.07681166979619,1.1246903457273278,23.327109682493425,1.0273224601433075,142.13985443115234,12.91632080078125,-213.5204963684082
3479.6040000000003,-3.5282928943634033,-78.21759033203125,-16.074256896972656,-1.0111736059188843,-0.2576676905155182,0.41598498821258545,-38.544769287109375,71.49272918701172,159.39613342285156,-22.114137649536133,-2.7120208740234375,1.2999012470245361,-1.0268925428390503,0.08857223391532898,0.027011513710021973,99.6794662475586,85.87976837158203,-57.64161682128906,79.93010711169951,1.1233468789562844,22.317703386679067,1.0310591433240428,138.22423553466797,14.387039184570312,-217.03775024414062
3500.495,-6.8847198486328125,-84.59838104248047,-17.921403884887695,-1.0209941864013672,-0.26146677136421204,0.44547516107559204,-36.464027404785156,69.85563659667969,161.6674041748047,-24.952667236328125,-6.553757190704346,2.718017816543579,-1.0264827013015747,0.09656163305044174,0.03586561605334282,97.0013427734375,85.83551788330078,-59.7598762512207,86.74942166728344,1.1442211850548563,25.94176085721014,1.0316381281552325,133.46537017822266,15.979881286621094,-221.4272804260254
3510.296,-9.092097282409668,-91.28193664550781,-21.677248001098633,-1.0278985500335693,-0.27586573362350464,0.4496191740036011,-34.75100326538086,68.05529022216797,163.6852569580078,-28.51532745361328,-9.37556266784668,2.74131441116333,-1.0076913833618164,0.09513670206069946,0.014972301200032234,93.74513244628906,85.78633880615234,-62.40586471557617,94.2600725209165,1.155350480927943,30.141995286084885,1.01228310564973,128.49613571166992,17.731048583984375,-226.09112167358398
3531.957,-7.7813005447387695,-98.79814910888672,-24.69770050048828,-1.0272390842437744,-0.28552985191345215,0.46245238184928894,-33.237850189208984,66.08867645263672,165.48809814453125,-28.498720169067383,-11.815277099609375,1.4475903511047363,-1.0039103031158447,0.06677737832069397,0.006784604862332344,90.03277587890625,85.76995849609375,-65.51731872558594,102.13520115768698,1.162157320679858,30.884840003470526,1.0061516515022326,123.27062606811523,19.68128204345703,-231.0054168701172
3554.578,-7.672463417053223,-106.6685562133789,-27.481689453125,-1.0267122983932495,-0.28618019819259644,0.49348393082618713,-31.894269943237305,63.95185089111328,167.13021850585938,-26.153032302856445,-14.13849925994873,-1.1586709022521973,-1.0315046310424805,0.022695692256093025,0.027843676507472992,85.6213150024414,85.81389617919922,-69.39703369140625,110.41870690571773,1.1745482703972485,29.75266001919071,1.0321299184843544,117.51558494567871,21.862045288085938,-236.52725219726562
3570.346,-8.104835510253906,-113.5868148803711,-28.430994033813477,-1.0213351249694824,-0.29240575432777405,0.5179094076156616,-30.686452865600586,61.68281936645508,168.66213989257812,-19.647451400756836,-18.367752075195312,-1.9250024557113647,-1.0478107929229736,0.015078890137374401,0.03421380743384361,80.14791870117188,85.83932495117188,-74.48076629638672,117.37109650619568,1.1818869307836635,26.964834457037526,1.0484776656241972,110.83437156677246,24.156505584716797,-243.14290618896484
3591.946,-8.928775787353516,-119.71456146240234,-29.637163162231445,-1.0109548568725586,-0.30581074953079224,0.5479785203933716,-29.636028289794922,59.28974914550781,170.06846618652344,-13.288434028625488,-22.619136810302734,-0.9613065123558044,-1.0423436164855957,0.04160413146018982,0.04576760157942772,73.81183624267578,85.76708984375,-80.54264831542969,123.65136757634696,1.1898867156058635,26.25132261786102,1.044177088398879,103.4478645324707,26.477340698242188,-250.61111450195312
3614.405,-7.099663734436035,-125.4383316040039,-31.892972946166992,-0.98728346824646,-0.30627742409706116,0.5698091387748718,-28.702041625976562,56.774009704589844,171.3309783935547,-9.639139175415039,-24.290260314941406,1.1606330871582031,-1.0292503833770752,0.08455309271812439,0.06447378545999527,67.66502380371094,85.56398010253906,-86.4384536743164,129.623848053061,1.1803461194987048,26.158685352548677,1.0347281991816002,96.3670654296875,28.78997039794922,-257.7694320678711
3630.8669999999997,-4.687187671661377,-129.92636108398438,-34.299861907958984,-0.9627541303634644,-0.3106875419616699,0.6051191687583923,-27.873882293701172,54.15228271484375,172.44349670410156,-9.786099433898926,-25.71996307373047,1.8003370761871338,-1.0235425233840942,0.08153688907623291,0.07937140017747879,61.79000473022461,85.28739166259766,-92.0518569946289,134.45932306723964,1.17880934534001,27.577626007909195,1.029848231838965,89.66388702392578,31.135108947753906,-264.49535369873047
3652.038,-7.041777610778809,-134.7409210205078,-34.794219970703125,-0.9460445642471313,-0.3268933594226837,0.6269170045852661,-27.1878604888916,51.44398498535156,173.47999572753906,-11.710525512695312,-25.60116195678711,-1.0532790422439575,-1.0261186361312866,0.04445108026266098,0.07672811299562454,56.130210876464844,85.03839874267578,-97.4198226928711,139.33893990103437,1.1810522920744682,28.172065917535434,1.0299429873912043,83.31807136535645,33.59441375732422,-270.89981842041016
3674.433,-7.6992363929748535,-140.60769653320312,-34.6309700012207,-0.9361188411712646,-0.3105890452861786,0.6502395868301392,-26.549930572509766,48.64505386352539,174.50433349609375,-10.590356826782227,-26.904348373413086,-2.246044397354126,-1.0197510719299316,0.06020046025514603,0.068216972053051,50.805389404296875,84.7467041015625,-102.47935485839844,145.01416016594277,1.1813532749049462,29.000764378744126,1.0238016894854505,77.35531997680664,36.10165023803711,-276.9836883544922
3696.9280000000003,-7.874721050262451,-144.40457153320312,-37.71113204956055,-0.91158127784729,-0.3143613338470459,0.6751410365104675,-26.043840408325195,45.75635528564453,175.3993377685547,-8.776942253112793,-28.24859046936035,-1.4763603210449219,-1.0134999752044678,0.07825277745723724,0.07003460079431534,46.08925247192383,84.37976837158203,-106.97479248046875,149.45508018052385,1.1771231428870221,29.617515402505813,1.0189261711368727,72.13309288024902,38.6234130859375,-282.37413024902344
3720.344,-6.148473739624023,-149.11444091796875,-38.809688568115234,-0.8876818418502808,-0.3213355541229248,0.7087485194206238,-25.569583892822266,42.777870178222656,176.24404907226562,-7.350232124328613,-32.61549377441406,-2.1347877979278564,-1.0026538372039795,0.061382077634334564,0.08047188073396683,41.274940490722656,83.9281997680664,-111.62643432617188,154.20477342274245,1.1804914461677054,33.50154720863704,1.0077490760618109,66.84452438354492,41.15032958984375,-287.8704833984375
3730.338,-4.946328639984131,-153.42193603515625,-39.420780181884766,-0.8482158780097961,-0.32997599244117737,0.7076376676559448,-25.13825225830078,39.72779846191406,177.04434204101562,-3.816358804702759,-33.95460510253906,-4.5339531898498535,-1.0016053915023804,0.02141905017197132,0.09851762652397156,36.54827880859375,83.45883178710938,-116.2623519897461,158.48266319676353,1.1528683359260998,34.46790585056414,1.0066667068761253,61.68653106689453,43.73103332519531,-293.3066940307617
3751.882,-10.35153865814209,-156.82862854003906,-38.39004135131836,-0.8006435036659241,-0.3216713070869446,0.7403074502944946,-24.837919235229492,36.625709533691406,177.85079956054688,4.4847025871276855,-34.90290832519531,-4.339888572692871,-1.0163222551345825,0.021923843771219254,0.10747579485177994,32.57815933227539,82.93541717529297,-120.30801391601562,161.79050762420056,1.1369070193850532,35.45645497896495,1.0222243529121042,57.41607856750488,46.30970764160156,-298.1588134765625
3774.391,-9.520552635192871,-159.58404541015625,-39.42672348022461,-0.7552171349525452,-0.329790860414505,0.7819546461105347,-24.578020095825195,33.46242141723633,178.61387634277344,13.23162841796875,-36.611358642578125,-1.4229806661605835,-1.0240639448165894,0.07204914093017578,0.1123318076133728,29.7811222076416,82.3139419555664,-123.35308837890625,164.65775109704487,1.13603169018858,38.9550054065321,1.0327228460646054,54.3591423034668,48.85152053833008,-301.9669647216797
3796.709,-6.930426597595215,-160.2931671142578,-41.31404495239258,-0.7021276950836182,-0.3293776512145996,0.7840704321861267,-24.34383201599121,30.278400421142578,179.298095703125,14.179242134094238,-39.11177444458008,1.8468501567840576,-1.0095747709274292,0.11108584702014923,0.14015261828899384,27.7753849029541,81.58302307128906,-125.62091064453125,165.67673507970983,1.1028324351195065,41.64363892844373,1.0252921729510158,52.11921691894531,51.304622650146484,-304.91900634765625
3820.217,-4.972231864929199,-161.10943603515625,-41.658843994140625,-0.645815908908844,-0.3319363296031952,0.8094412088394165,-24.117645263671875,27.075448989868164,179.94712829589844,9.983304023742676,-39.72398376464844,5.555684566497803,-0.9824647307395935,0.11662261188030243,0.14355002343654633,26.434043884277344,80.80097198486328,-127.13467407226562,166.48252987089325,1.0874074607421145,41.334330481658355,0.9997221563902836,50.55168914794922,53.72552299499512,-307.08180236816406
3830.2529999999997,-2.2975471019744873,-162.58009338378906,-43.71149444580078,-0.6061520576477051,-0.338234007358551,0.8075678944587708,-23.902389526367188,23.84145164489746,-179.4679718017578,7.072551727294922,-39.46880340576172,6.5358381271362305,-0.9737429022789001,0.10753621906042099,0.14733067154884338,25.353307723999023,80.01848602294922,-128.32229614257812,168.36941596992202,1.0648889448599528,40.62664901566529,0.9906793653485368,49.25569725036621,56.17703437805176,51.14567565917969
3852.045,0.3711144030094147,-164.72702026367188,-44.23966598510742,-0.5680801272392273,-0.33681830763816833,0.8534497618675232,-23.665725708007812,20.539981842041016,-178.90135192871094,5.962809085845947,-37.70780944824219,6.635593891143799,-0.9804761409759521,0.12819749116897583,0.15963730216026306,24.55162811279297,79.26206970214844,-129.2289581298828,170.56458300984457,1.0791376646916317,38.74874310048488,1.0016247441063555,48.21735382080078,58.72208786010742,49.672393798828125
3876.2439999999997,6.056108474731445,-165.31259155273438,-47.315330505371094,-0.5174890160560608,-0.34092065691947937,0.8293305039405823,-23.390233993530273,17.132728576660156,-178.42433166503906,2.777524948120117,-39.5096435546875,8.431229591369629,-0.9737421274185181,0.15517675876617432,0.15854725241661072,23.969541549682617,78.45779418945312,-129.849853515625,172.05717037244162,1.0352829858639712,40.49459483780861,0.9986945420996218,47.35977554321289,61.32506561279297,48.57447814941406
3896.7529999999997,4.619641304016113,-166.13363647460938,-48.4245719909668,-0.45934849977493286,-0.3271666169166565,0.8603171110153198,-23.18101692199707,13.699705123901367,-177.9855194091797,-1.4929969310760498,-37.065834045410156,10.292668342590332,-0.9623430967330933,0.15339595079421997,0.17869582772254944,23.608251571655273,77.67959594726562,-130.16749572753906,173.10882538612455,1.028680986008742,38.49732607504903,0.9907405070932295,46.789268493652344,63.97989082336426,47.818023681640625
3924.4880000000003,8.765995025634766,-166.49417114257812,-49.81593322753906,-0.3824780583381653,-0.316895067691803,0.8572906255722046,-22.923473358154297,10.247668266296387,-177.5902557373047,-5.936262130737305,-35.45781326293945,10.130507469177246,-0.9578807950019836,0.13345874845981598,0.2004777193069458,23.179567337036133,76.93254852294922,-130.48020935058594,174.00798515175728,0.9907871445126382,37.351344166674465,0.9876933587468366,46.10304069519043,66.68488025665283,47.11004638671875
3930.4320000000002,11.487939834594727,-168.62411499023438,-48.85965347290039,-0.32166266441345215,-0.33336755633354187,0.8707032203674316,-22.632766723632812,6.774284362792969,-177.18125915527344,-9.65469741821289,-37.35745620727539,7.619419097900391,-0.974984884262085,0.08343175798654556,0.21107828617095947,22.354421615600586,76.18457794189453,-131.11404418945312,175.93558666561736,0.986268165993192,39.329991913362946,1.0010546566862102,44.9871883392334,69.41029357910156,46.06721496582031
3952.938,9.194499969482422,-168.6973419189453,-45.89664840698242,-0.2461126148700714,-0.3288140892982483,0.8509613871574402,-22.401456832885742,3.368648052215576,-176.73573303222656,-7.9521355628967285,-37.58065414428711,5.748088836669922,-0.9640848636627197,0.0742516741156578,0.21571362018585205,21.482051849365234,75.45018768310547,-131.859130859375,175.070940864555,0.944894389311385,38.84047568191538,0.9907094939417047,43.88350868225098,72.08153963088989,44.87660217285156
3978.961,9.404616355895996,-168.70936584472656,-43.55714416503906,-0.17658136785030365,-0.32614004611968994,0.8627354502677917,-22.183950424194336,0.007206382695585489,-176.261962890625,-4.504059314727783,-35.08833312988281,5.444969654083252,-0.9780763387680054,0.09037298709154129,0.24238601326942444,20.81685447692871,74.75469207763672,-132.46607971191406,174.49504789633824,0.9390744200028063,35.79281166209363,1.0117072603684918,43.00080490112305,74.74748569494113,43.79588317871094
3989.036,8.444143295288086,-168.2920684814453,-41.97579574584961,-0.10706713050603867,-0.3290681540966034,0.8543422818183899,-22.019344329833984,-3.3442039489746094,-175.77468872070312,-7.868416786193848,-33.22211456298828,6.485008239746094,-0.9817442893981934,0.10618361085653305,0.2542935311794281,20.28069305419922,74.08386993408203,-132.87100219726562,173.65336535250944,0.9217645876133429,34.75163608561689,1.019687211344831,42.3000373840332,77.42807388305664,42.9036865234375
4008.964,4.1113457679748535,-168.3046875,-39.94584655761719,-0.051134079694747925,-0.3194090723991394,0.8572667241096497,-21.967321395874023,-6.6829376220703125,-175.25521850585938,-6.696133613586426,-27.505218505859375,7.550189018249512,-0.9477375149726868,0.1152852401137352,0.2355106621980667,20.039283752441406,73.52191925048828,-132.99623107910156,173.02901969236606,0.9162658380092524,29.29813312546324,0.9833424408026215,42.00660514831543,80.2048568725586,42.25898742675781
4032.3460000000005,3.4047513008117676,-167.20338439941406,-40.58768081665039,-0.004270870238542557,-0.34581947326660156,0.8633567690849304,-21.970800399780273,-10.002251625061035,-174.7532196044922,-10.170682907104492,-29.90675926208496,6.8671393394470215,-0.9964568614959717,0.13436172902584076,0.28835323452949524,19.64735984802246,72.9023208618164,-133.2038116455078,172.09277707130212,0.9300506755805051,32.3266862369862,1.046005228912761,41.618160247802734,82.90457248687744,41.549407958984375
4054.5030000000006,3.3976340293884277,-167.2947540283203,-40.52679443359375,0.04457863047719002,-0.31332725286483765,0.837206244468689,-21.991554260253906,-13.320828437805176,-174.24537658691406,-10.577028274536133,-21.24815559387207,5.55903434753418,-0.9279253482818604,0.11932060867547989,0.2376435101032257,19.3823299407959,72.47828674316406,-133.2998504638672,172.16706917833218,0.895028221599975,24.37745897625096,0.9652757624289966,41.373884201049805,85.79911518096924,40.945526123046875
4069.213,0.9804921746253967,-167.263671875,-39.35866928100586,0.1079782247543335,-0.32626011967658997,0.7986016869544983,-22.11469078063965,-16.639366149902344,-173.70172119140625,-10.875521659851074,-9.211588859558105,2.4479904174804688,-0.9448517560958862,0.06718146800994873,0.24719791114330292,19.084671020507812,72.31290435791016,-133.41526794433594,171.8348106222478,0.8694076242586389,14.46108563613054,0.9789611830481657,41.19936180114746,88.9522705078125,40.28645324707031
4091.585,-1.9672603607177734,-165.68544006347656,-35.53166198730469,0.18874675035476685,-0.3084813058376312,0.77982097864151,-22.34456443786621,-19.920001983642578,-173.0775146484375,-7.5752339363098145,0.9937024116516113,2.1874961853027344,-0.9333949089050293,0.08411355316638947,0.24110746383666992,19.08514404296875,72.34204864501953,-133.2976837158203,169.46396126001187,0.8595968884018702,7.947122324052659,0.967695176651126,41.42970848083496,92.26205062866211,39.77983093261719
4114.088,-1.567813754081726,-163.6793975830078,-34.08491134643555,0.2572883069515228,-0.32166653871536255,0.754420280456543,-22.628633499145508,-23.165616989135742,-172.40692138671875,-2.9080708026885986,12.238268852233887,3.1271448135375977,-0.9494735598564148,0.08742325752973557,0.2445247322320938,19.47337532043457,72.57646179199219,-132.87705993652344,167.1980395058453,0.8595444110615994,12.961910930794238,0.9843450672892614,42.10200881958008,95.74207878112793,39.52986145019531
4129.681,0.7862083911895752,-160.55943298339844,-29.927167892456055,0.3284286856651306,-0.3131314218044281,0.7224313020706177,-22.939023971557617,-26.337547302246094,-171.64402770996094,-0.640984058380127,20.011178970336914,6.8255934715271,-0.9782094359397888,0.07866346836090088,0.2514558434486389,20.292253494262695,72.93000793457031,-132.05172729492188,163.3266206766308,0.8531258260657896,21.152939998603152,1.0130704235247778,43.23127746582031,99.2675552368164,39.59230041503906
4151.455999999999,-3.890272855758667,-156.61874389648438,-26.44266700744629,0.37895432114601135,-0.3014824688434601,0.7023618817329407,-23.412317276000977,-29.411026000976562,-170.80130004882812,-5.203986644744873,28.193836212158203,7.428215980529785,-1.0758997201919556,0.08847642689943314,0.29517993330955505,21.27055549621582,73.41585540771484,-130.9541473388672,158.88291223750747,0.8531179692437731,29.61675657478523,1.119160166845949,44.6828727722168,102.8268814086914,39.84715270996094
4175.083,-10.030513763427734,-150.19468688964844,-25.075532913208008,0.4182015061378479,-0.29796499013900757,0.6223416924476624,-24.08047866821289,-32.36687088012695,-169.9188232421875,-10.690788269042969,36.479148864746094,7.828915119171143,-0.9370669722557068,0.12420923262834549,0.22829875349998474,22.548236846923828,74.04615783691406,-129.44703674316406,152.6035305198383,0.8068363013915053,38.81125052936326,0.9724416511093336,46.62871551513672,106.41302871704102,40.47178649902344
4196.631,-12.916189193725586,-145.84555053710938,-22.877155303955078,0.4690922796726227,-0.2959873080253601,0.5881004929542542,-24.891462326049805,-35.22859191894531,-168.95457458496094,-10.277423858642578,40.59869384765625,4.438529968261719,-0.9073668122291565,0.06155087798833847,0.22467562556266785,23.70498275756836,74.77503204345703,-128.06610107421875,148.19283649880623,0.80840475207262,42.11389238226591,0.9367935627650378,48.596445083618164,110.00362396240234,40.88847351074219
4218.028,-16.390867233276367,-140.8207550048828,-20.85065460205078,0.5048425793647766,-0.3099815249443054,0.5644009113311768,-25.869401931762695,-37.968505859375,-167.90243530273438,-9.034078598022461,46.199886322021484,3.9030818939208984,-0.9402208924293518,0.06059008836746216,0.18950629234313965,25.181957244873047,75.61672973632812,-126.38895416259766,143.2965294978847,0.8182316080780189,47.236406727794275,0.9610406444093128,51.05135917663574,113.58523559570312,41.51348114013672
4229.515,-20.218708038330078,-135.3176727294922,-19.148677825927734,0.5363390445709229,-0.301226943731308,0.5393028259277344,-27.005701065063477,-40.580562591552734,-166.77381896972656,-8.546490669250488,50.57933807373047,0.09487569332122803,-0.9676452279090881,0.07582994550466537,0.18931713700294495,26.76959228515625,76.55146789550781,-124.62004852294922,138.15332268949004,0.8180738233280632,51.29640283814733,0.9889026474296969,53.77529335021973,117.13203048706055,42.153770446777344
4251.356000000001,-21.384456634521484,-128.64828491210938,-17.90740966796875,0.5659029483795166,-0.3171752095222473,0.5161938667297363,-28.25577163696289,-43.040260314941406,-165.57469177246094,-2.2760555744171143,60.7109260559082,5.187744140625,-0.9776706099510193,0.09808733314275742,0.1894325613975525,29.605289459228516,77.58721923828125,-121.70494842529297,131.63719655704256,0.8290370127862254,60.974664089377136,1.0006725947095252,57.861061096191406,120.62747955322266,43.86974334716797
4273.919,-17.10391616821289,-120.36210632324219,-17.84417724609375,0.6006805300712585,-0.3285723328590393,0.43205463886260986,-29.503116607666016,-45.361358642578125,-164.3358612060547,-3.6501879692077637,71.42498016357422,-1.1341785192489624,-0.9856285452842712,0.11507951468229294,0.13333727419376373,33.07170486450195,78.84736633300781,-118.14620208740234,122.87389978529501,0.8095974852294315,71.52718381490386,1.0012421049217435,62.57482147216797,124.20872497558594,46.189659118652344
4296.652,-19.0312442779541,-113.90098571777344,-16.612279891967773,0.6375274658203125,-0.30567917227745056,0.4136524498462677,-30.843698501586914,-47.54707336425781,-163.05130004882812,-8.905410766601562,67.29336547851562,-4.06184196472168,-0.9308425188064575,0.11363392323255539,0.12346629053354263,36.72072219848633,80.01300048828125,-114.28910064697266,116.6687218129035,0.8191394113966902,68.00148482565183,0.9458458585971001,67.56442070007324,127.56007385253906,48.76219940185547
4319.545,-22.937744140625,-106.3689193725586,-19.028533935546875,0.6777153015136719,-0.28734853863716125,0.40502992272377014,-32.22952651977539,-49.61296081542969,-161.8363800048828,-14.7019624710083,68.6783447265625,-7.572071075439453,-0.9275809526443481,0.11596047878265381,0.09242527931928635,41.018699645996094,81.19622802734375,-109.6776351928711,110.46525344416183,0.8401883424948852,70.64134055389236,0.9393591904087312,73.24822616577148,130.80918884277344,52.15874481201172
4329.3910000000005,-27.509807586669922,-95.94258117675781,-19.295948028564453,0.7018423080444336,-0.3084025979042053,0.37864598631858826,-33.7105712890625,-51.48163986206055,-160.66195678710938,-15.967455863952637,68.44702911376953,-3.1072585582733154,-0.9729883074760437,0.07892441004514694,0.050615113228559494,46.96852493286133,82.27063751220703,-103.39593505859375,101.65678534478367,0.8550248947898401,70.35346826572555,0.9774953701543606,80.67909622192383,133.75227737426758,57.266021728515625
4351.824,-27.51185417175293,-88.45435333251953,-18.132957458496094,0.7192913293838501,-0.3128506541252136,0.3355092406272888,-35.24553298950195,-53.20040512084961,-159.455078125,-10.780011177062988,68.74050903320312,-0.35597261786460876,-0.9292058348655701,0.08524000644683838,0.07737557590007782,54.947540283203125,83.16289520263672,-95.1832046508789,94.39215480978086,0.8531248436539991,69.58155603050389,0.9363099497458878,90.19307327270508,136.36330032348633,64.2718734741211
4373.982,-26.770416259765625,-79.61554718017578,-17.05425453186035,0.7527542114257812,-0.31683287024497986,0.3082554340362549,-36.77260971069336,-54.74937438964844,-158.26673889160156,-8.793766975402832,67.07513427734375,-0.5649409890174866,-0.9652270078659058,0.05488837510347366,0.020459841936826706,64.86241149902344,83.89625549316406,-85.08882141113281,85.70961519664756,0.8729509625974428,67.65148286817113,0.9670028518920453,101.6350212097168,138.6456298828125,73.17791748046875
4393.807,-25.121017456054688,-71.59632873535156,-16.070667266845703,0.7788884043693542,-0.31665217876434326,0.2997303903102875,-38.24816131591797,-56.138282775878906,-157.1171875,-7.606698989868164,62.00261688232422,-2.647670030593872,-0.9473134279251099,0.09192962944507599,-0.011709097772836685,75.94103240966797,84.38758087158203,-73.81484985351562,77.5587915894104,0.8926220116335927,62.52356776743984,0.9518355375104384,114.18919372558594,140.52586364746094,83.30233764648438
4416.192,-25.47873878479004,-62.5727653503418,-16.780309677124023,0.8027488589286804,-0.3001070022583008,0.2986847460269928,-39.611671447753906,-57.379432678222656,-156.11672973632812,-5.59724235534668,60.501853942871094,1.8081903457641602,-0.9557591676712036,0.08485282957553864,-0.019613001495599747,88.15966796875,84.53416442871094,-61.420562744140625,69.61390584152481,0.9075695680359558,60.787112160683435,0.9597188437777981,127.7713394165039,141.9135971069336,94.6961669921875
4439.572,-26.74502182006836,-52.33351135253906,-17.350378036499023,0.8206498622894287,-0.32557061314582825,0.25650814175605774,-40.89955520629883,-58.46080017089844,-155.26171875,-6.008910179138184,53.08588790893555,3.4130544662475586,-0.9588074684143066,0.10362329334020615,-0.01804402470588684,98.74365997314453,84.39373016357422,-50.63214111328125,61.27910101047253,0.9193795991901031,53.53379715105769,0.96455955504951,139.64321517944336,142.85453033447266,104.62957763671875
4449.545999999999,-25.161428451538086,-44.63397216796875,-15.956437110900879,0.8332922458648682,-0.34684816002845764,0.2350013554096222,-42.11186981201172,-59.3924446105957,-154.47373962402344,-5.1080474853515625,48.04356384277344,2.408376693725586,-0.9715632796287537,0.10445952415466309,-0.005330120678991079,107.5319595336914,84.1197280883789,-41.64107131958008,53.66467030073896,0.9326871126899964,48.3743367306068,0.9771772657486721,149.64382934570312,143.5121726989746,112.83266830444336
4478.76,-14.795792579650879,-35.7104606628418,-16.22469139099121,0.8532154560089111,-0.33787795901298523,0.22453349828720093,-42.94333267211914,-60.19301986694336,-153.88954162597656,-7.326326847076416,40.292598724365234,6.295328140258789,-0.9734078645706177,0.07731682807207108,-0.04958835989236832,114.00543212890625,83.71704864501953,-34.938026428222656,41.92127251820163,0.9447504545711334,41.434282103427904,0.9777319510724148,156.9487648010254,143.9100685119629,118.9515151977539
4488.923,-12.29106616973877,-28.899471282958984,-15.357603073120117,0.8681281805038452,-0.3277965188026428,0.24582259356975555,-43.5794792175293,-60.87043762207031,-153.4658660888672,-6.065731525421143,40.9681282043457,11.842881202697754,-0.9712132215499878,0.11948587000370026,-0.05606825277209282,119.20195770263672,83.11729431152344,-29.505281448364258,34.95862869414326,0.9599613758029067,43.07475435434781,0.9801406245090355,162.78143692016602,143.98773193359375,123.96058464050293
4508.851,-15.438952445983887,-19.253263473510742,-16.079856872558594,0.8809233903884888,-0.3278080224990845,0.21697410941123962,-44.05704879760742,-61.424652099609375,-153.30201721191406,-3.5866944789886475,31.20366859436035,5.165706157684326,-0.991663932800293,0.09008967131376266,-0.06833919137716293,122.9932861328125,82.70735931396484,-25.54534339904785,29.455240689081876,0.9646563551353977,31.831082783025398,0.9980900508333154,167.05033493041992,144.13201141357422,127.75667381286621
4532.036,-14.540264129638672,-9.849055290222168,-13.82183837890625,0.9102907776832581,-0.3535621762275696,0.171660915017128,-44.294795989990234,-61.78032684326172,-153.3778839111328,-1.4266483783721924,23.652517318725586,4.865917682647705,-0.9813063740730286,0.07098349183797836,-0.0432065948843956,125.48036193847656,82.38356018066406,-22.941619873046875,22.34874464577633,0.9915154976794278,24.189957751150153,0.9848185953521447,169.7751579284668,144.16388702392578,130.43626403808594
4553.759999999999,-12.21060562133789,-3.3342201709747314,-11.55127239227295,0.9015631675720215,-0.3505878448486328,0.1840958446264267,-44.46786880493164,-62.04372024536133,-153.49655151367188,2.277726173400879,16.185791015625,5.698775768280029,-1.0090885162353516,0.08307277411222458,-0.05981374904513359,126.93001556396484,82.1174545288086,-21.456249237060547,17.136154984968783,0.9846924708185919,17.310225665184667,1.0142674223160273,171.39788436889648,144.16117477416992,132.04030227661133
4568.714,-7.643914699554443,3.9800519943237305,-9.570887565612793,0.9212132096290588,-0.31587719917297363,0.19458341598510742,-44.3679313659668,-62.18617248535156,-153.8098602294922,6.211336135864258,11.816286087036133,6.571993350982666,-0.9806479811668396,0.08937130868434906,-0.08053603023290634,127.85343170166016,81.8775634765625,-20.585500717163086,12.879135631135592,0.9931137338335766,14.879395488014195,0.9879998714312805,172.22136306762695,144.06373596191406,133.2243595123291
4592.139,-6.817431926727295,12.851455688476562,-6.750419616699219,0.9198428988456726,-0.3068278729915619,0.209208145737648,-44.07353973388672,-62.15835189819336,-154.31898498535156,7.679744720458984,6.25905704498291,8.357680320739746,-1.0071213245391846,0.0950675904750824,-0.07623517513275146,127.98735809326172,81.68038177490234,-20.553951263427734,16.037626270429016,0.991979007058275,12.96167791635976,1.0144668604877247,172.06089782714844,143.8387336730957,133.76503372192383
4613.485,-6.995406150817871,23.23447036743164,-4.540462970733643,0.9058756828308105,-0.3137598931789398,0.16562557220458984,-43.52836608886719,-61.91025161743164,-155.10450744628906,10.175089836120605,2.5321145057678223,8.392707824707031,-0.9775885343551636,0.10123918205499649,-0.07618193328380585,127.7610855102539,81.52584838867188,-20.93655776977539,24.68586892249416,0.9728760730329145,13.430621790309758,0.9857648814218833,171.2894515991211,143.43610000610352,134.16794967651367
4629.095,-5.277669906616211,31.683731079101562,-0.4523479640483856,0.9044033885002136,-0.3235286772251129,0.1929379254579544,-42.92574691772461,-61.50912094116211,-155.93560791015625,13.577128410339355,-2.481774091720581,9.49615478515625,-0.9779055118560791,0.10112615674734116,-0.07299823313951492,126.99979400634766,81.41706848144531,-21.915613174438477,32.123468576986006,0.9797149264953141,16.753345164976025,0.9858267757260799,169.92554092407227,142.92618942260742,134.01999473571777
4651.967,1.2769371271133423,38.745540618896484,1.2649478912353516,0.8804307579994202,-0.29193711280822754,0.23658867180347443,-42.050071716308594,-60.97880554199219,-156.92227172851562,15.114278793334961,-6.105286598205566,10.421696662902832,-0.9719071388244629,0.09239988774061203,-0.08383253961801529,125.90316772460938,81.33507537841797,-23.256013870239258,38.787208966935204,0.9572668369331351,19.347550470859183,0.9798821972315026,167.95323944091797,142.31388092041016,133.66625785827637
4673.596,3.342833995819092,45.88490676879883,4.3615264892578125,0.8618296980857849,-0.27617064118385315,0.2521745562553406,-41.067283630371094,-60.293766021728516,-157.9852752685547,16.354490280151367,-9.127617835998535,9.686115264892578,-0.9494872689247131,0.09392208606004715,-0.1010894700884819,124.65225982666016,81.2881851196289,-24.778879165649414,46.212791753165725,0.9394746714931242,21.08562516522546,0.9594615745629167,165.71954345703125,141.58195114135742,133.20639610290527
4696.002,6.702727794647217,53.30429458618164,8.796960830688477,0.8540917634963989,-0.29408252239227295,0.24678270518779755,-40.04683303833008,-59.43083190917969,-159.03102111816406,16.862564086914062,-11.151206970214844,9.65697956085205,-0.9563312530517578,0.10678709298372269,-0.09253832697868347,123.16936492919922,81.25635528564453,-26.569015502929688,54.43951598862941,0.9364074828987633,22.404301790427798,0.9667141722099005,163.2161979675293,140.68718719482422,132.46200561523438
4717.387000000001,12.018606185913086,60.16603088378906,12.561203002929688,0.8264188766479492,-0.2798635959625244,0.28061407804489136,-38.90517807006836,-58.39704132080078,-160.09591674804688,18.17278289794922,-14.868968963623047,8.838715553283691,-0.9652830958366394,0.11812042444944382,-0.08435212075710297,121.33887481689453,81.26805114746094,-28.73125457763672,62.62732620703152,0.9165348072070791,25.08902487003112,0.9761348114150546,160.2440528869629,139.66509246826172,131.36466217041016
4728.401,13.792354583740234,66.23104095458984,16.20038414001465,0.8160640001296997,-0.24092891812324524,0.31757405400276184,-37.72058868408203,-57.21778106689453,-161.1650390625,17.295595169067383,-17.672618865966797,6.873326778411865,-0.9827268123626709,0.12517255544662476,-0.0718383640050888,119.25995635986328,81.33228302001953,-31.141801834106445,69.56459068503325,0.908218297366593,25.665184410730934,0.9932677921469427,156.9805450439453,138.55006408691406,130.02323722839355
4752.198,12.84317684173584,72.5849609375,20.91824722290039,0.8005833029747009,-0.25330275297164917,0.33699697256088257,-36.63966751098633,-55.864402770996094,-162.15057373046875,15.668110847473145,-19.57777214050293,4.696728229522705,-0.9730812311172485,0.14412586390972137,-0.07763416320085526,117.03427124023438,81.42610931396484,-33.67385482788086,76.62308276599735,0.9047999056034977,25.511529071699208,0.9867554967145005,153.6739387512207,137.29051208496094,128.4767189025879
4773.372,14.656410217285156,81.58244323730469,24.534624099731445,0.7892466187477112,-0.2653992772102356,0.32079994678497314,-35.566001892089844,-54.32729721069336,-163.112060546875,13.824085235595703,-19.73295783996582,2.8597068786621094,-0.9585830569267273,0.1399155706167221,-0.07259085029363632,114.81793212890625,81.54083251953125,-36.160240173339844,86.44335246125353,0.8923337981975422,24.26258191427184,0.9714562653430906,150.3839340209961,135.8681297302246,126.95182037353516
4795.756,16.741024017333984,88.43304443359375,28.192407608032227,0.7689751982688904,-0.2607397437095642,0.36490166187286377,-34.48903274536133,-52.617088317871094,-164.0360870361328,15.004717826843262,-26.92218017578125,1.8875027894973755,-0.9801398515701294,0.13626450300216675,-0.03925452008843422,111.62310028076172,81.72281646728516,-39.67545700073242,94.31583684451066,0.8902029500849715,30.878925001702655,0.9903449200968903,146.11213302612305,134.33990478515625,124.36063003540039
4818.566,16.960559844970703,94.50041198730469,31.87261390686035,0.7494837045669556,-0.24262699484825134,0.37962019443511963,-33.47079849243164,-50.765750885009766,-164.8943634033203,14.328252792358398,-33.6312141418457,0.1545718014240265,-1.0017945766448975,0.14609944820404053,-0.01703096181154251,107.4057388305664,81.94782257080078,-44.20201110839844,101.16250280257474,0.8744742272151073,36.55654914209223,1.0125351728314826,140.87653732299805,132.71357345581055,120.69235229492188
4828.3240000000005,15.67203426361084,102.8699951171875,35.12561798095703,0.7223638296127319,-0.2837788164615631,0.3985093832015991,-32.55143737792969,-48.71900177001953,-165.69891357421875,10.214115142822266,-39.498634338378906,-0.3849119544029236,-0.972768247127533,0.157869353890419,-0.023200325667858124,102.147216796875,82.14618682861328,-49.69967269897461,109.82557804042783,0.8724389076060378,40.79973553787376,0.9857682540173659,134.6986541748047,130.8651885986328,115.99924087524414
4851.486000000001,19.03609848022461,110.42425537109375,37.45460891723633,0.699259877204895,-0.27213892340660095,0.38883283734321594,-31.605701446533203,-46.53125,-166.4772491455078,9.551186561584473,-47.53711700439453,-1.3119258880615234,-0.9746476411819458,0.16144318878650665,0.0039167688228189945,95.4465103149414,82.3043212890625,-56.63124465942383,118.14709877416566,0.8451123859569711,48.504884366004354,0.9879358626677635,127.05221176147461,128.8355712890625,109.84600448608398
4874.787,11.35869312286377,116.29643249511719,40.47768783569336,0.6658515334129333,-0.2603059411048889,0.4723440110683441,-30.839067459106445,-44.17819595336914,-167.21978759765625,6.831137180328369,-55.769893646240234,-3.9690072536468506,-0.9860305786132812,0.1506274938583374,0.029181789606809616,87.25025939941406,82.40060424804688,-65.00848388671875,123.66213378829664,0.8568700673468461,56.326712056260774,0.9978960470465558,118.08932685852051,126.57880020141602,102.2113037109375
