Timestamp (ms),Wrist Gyroscope X (deg/s),Wrist Gyroscope Y (deg/s),Wrist Gyroscope Z (deg/s),Wrist Accelerometer X (g),Wrist Accelerometer Y (g),Wrist Accelerometer Z (g),Wrist Roll (deg),Wrist Pitch (deg),Wrist Yaw (deg),Arm Gyroscope X (deg/s),Arm Gyroscope Y (deg/s),Arm Gyroscope Z (deg/s),Arm Accelerometer X (g),Arm Accelerometer Y (g),Arm Accelerometer Z (g),Arm Roll (deg),Arm Pitch (deg),Arm Yaw (deg),Wrist Gyroscope Magnitude (deg/s),Wrist Accelerometer Magnitude (g),Arm Gyroscope Magnitude (deg/s),Arm Accelerometer Magnitude (g),Difference Roll (deg),Difference Pitch (deg),Difference Yaw (deg)
0.0,16.609127044677734,-217.09005737304688,12.281620025634766,-0.4065885543823242,0.1226790249347686,1.0326429605484009,6.295928478240967,8.502604484558105,-97.0655746459961,32.58147048950195,-5.079278945922852,42.27622985839844,-0.9882930517196656,0.2532987296581268,0.0345862247049808,104.38226318359376,77.54424285888672,1.0100363492965698,218.0706176949868,1.1165643195462678,53.61558453387337,1.0208230059433092,98.08633470535278,69.04163837432861,98.07561099529266
22.759,10.15956699848175,-217.654541015625,10.660881996154783,-0.3841486871242523,0.1041973046958446,1.0130864679813385,6.316680669784546,6.324805021286011,-97.21745681762695,30.78154182434082,-6.134458541870117,42.67050743103027,-1.011554479598999,0.2504291459918022,0.0455765444785356,103.78265762329102,77.14311981201172,0.1051639318466186,218.25416147525823,1.0886787670007982,53.00989382994464,1.043170714389041,97.46597695350648,70.81831479072571,97.32262074947356
44.972,3.9420112768809,-217.19499715169272,9.131924788157145,-0.3418050607045491,0.0881982557475566,0.9464580416679382,6.262823422749837,4.161868130167325,-97.38489786783856,29.953941345214844,-10.525149663289389,44.0651003519694,-1.0291606585184734,0.2600433180729548,0.0376430141429106,102.92766825358072,76.7282485961914,-1.0616790453592937,217.6787131742511,1.0106960056969077,54.68729486454416,1.0623193234265755,96.66484483083087,72.56638046602409,96.32321882247923
67.482,2.3597419261932373,-215.2561378479004,8.07798433303833,-0.2976460307836532,0.0664837763470131,0.8610706031322479,6.227450489997864,2.0368834994733334,-97.55534172058104,29.06865406036377,-15.389041423797607,44.43396949768066,-1.0297122597694397,0.2514868006110191,0.0236094021238386,101.89933776855467,76.32700538635254,-2.401671528816223,215.63674722657703,0.9147854829397823,56.16147539422299,1.0607297128484976,95.67188727855682,74.2901218868792,95.15367019176485
80.07499999999999,6.628217124938965,-213.49835205078125,8.259628105163575,-0.2586336597800254,0.05548590591643,0.8706623673439026,6.307083797454834,-0.0624542981386184,-97.71359558105468,28.674989318847658,-20.00330924987793,43.54671859741211,-1.0215604066848756,0.2464361429214477,0.0266244184225797,100.72651519775393,75.95223693847656,-3.89236364364624,214.1128834896098,0.9148027155840104,57.279801324108405,1.0516311653692625,94.41943140029908,76.01469123661518,93.82123193740844
102.348,7.341274833679199,-210.75745544433596,7.859925651550293,-0.1798943143337964,0.0500833289930596,0.8590645551681518,6.464270877838135,-4.267173078656197,-98.02724761962892,27.5246826171875,-28.44617614746094,42.55816116333008,-1.022328519821167,0.2554906725883484,0.0231668706983327,98.44598999023438,75.19774017333984,-6.811423945426941,211.42720541311772,0.8873743516998351,59.748071505857546,1.0547126227828951,91.98171911239623,79.46491325199604,91.21582367420196
126.739,6.495162439346314,-206.4675323486328,6.5670802116394045,-0.1029111817479133,0.0527844222495332,0.8151584506034851,6.63389253616333,-8.382653978466987,-98.37080993652344,27.695902633666996,-35.75080909729004,42.51336135864258,-1.019812273979187,0.2636939197778701,0.0054665233939886,95.93196716308594,74.4387420654297,-9.987928247451782,207.0970558983637,0.8313513584325307,62.88549980313415,1.0541421887788016,89.29807462692261,82.82139604389667,88.38288168907165
147.286,6.72399001121521,-201.1881378173828,5.49008343219757,-0.0324261993169784,0.0510928774485364,0.7828771114349365,6.837518310546875,-12.38270959854126,-98.74028625488282,28.03816337585449,-42.28738327026368,42.16651840209961,-1.0016518831253052,0.2631212145090102,-0.0016894694417714,93.28638153076172,73.66803741455078,-13.321974754333496,201.79596212762053,0.792495964815537,66.29616373247175,1.0364479478416144,86.44886322021485,86.05074701309204,85.41831150054932
169.80100000000002,7.418239307403565,-195.71348266601564,4.613929378986359,0.0391348749399185,0.0559400081634521,0.7940234065055847,7.077955913543701,-16.259563827514647,-99.13300170898438,27.504995346069336,-46.87272186279297,41.43139724731445,-0.9869410872459412,0.271218317747116,0.0065809324383735,90.60819854736329,72.8779067993164,-16.691498947143554,196.30785213298583,0.8048106801620483,68.48430708869986,1.024137210910436,83.53024263381958,89.13747062683106,82.44150276184082
179.845,5.53344850540161,-189.3861328125,3.086759865283966,0.1029007628560065,0.0608377717435359,0.7921365261077881,7.313028144836426,-20.002476692199707,-99.56420288085936,27.3655689239502,-48.397264099121095,41.978667449951175,-0.9838432192802428,0.2947858572006225,0.0048681192100048,88.11641845703124,72.03284301757813,-19.87759075164795,189.78791187093265,0.8070203687935884,69.767439222896,1.02767381552719,80.80339031219482,92.03531970977784,79.68661212921143
204.797,2.963586521148682,-182.01559448242188,0.6328992009162903,0.1471064668148755,0.0658569701015948,0.7674173951148987,7.541810131072998,-23.59136848449707,-100.05325927734376,28.158724975585937,-48.12139053344727,45.71840057373047,-0.9942122101783752,0.3033041775226593,0.0106690466403961,85.94290161132812,71.08228302001953,-22.761015701293942,182.20061405696416,0.7880205217213824,72.319103059935,1.0402847483026596,78.40109148025513,94.6736515045166,77.2922435760498
224.925,0.4190116882324222,-174.90564575195313,-0.5598655581474304,0.1841762378811836,0.0714149601757525,0.7488588929176331,7.764744853973388,-27.032154846191407,-100.57802886962892,29.43354606628418,-49.96036224365234,48.33537292480469,-0.9769307255744936,0.2922694742679596,0.0146031055599451,83.95054321289062,70.05168304443359,-25.495713424682616,175.20285594457482,0.7766149893540136,75.71635002935486,1.020665955132189,76.18579835891724,97.083837890625,75.08231544494629
247.994,-3.4207600593566894,-168.0844299316406,-1.2459903836250306,0.2273126274347305,0.0733024969696998,0.691242653131485,7.956843280792237,-30.344362640380854,-101.13037414550782,29.152536392211918,-47.04118881225586,46.693660736083984,-0.9431363224983216,0.2781053245067596,0.0196564052253961,82.3118667602539,69.04143524169922,-27.864083099365235,168.80692090999193,0.7409133141104798,72.6621852525376,0.9843419922442412,74.35502347946166,99.38579788208008,73.26629104614258
267.95000000000005,-5.244789695739746,-161.9439910888672,-1.1018855094909668,0.2702594071626663,0.0658696047961711,0.671620911359787,8.130907535552979,-33.54215660095215,-101.68096313476562,28.783845520019533,-43.41845016479492,42.20663986206055,-0.9062474250793456,0.2834699094295502,0.0191655796021222,81.00177307128907,68.10860443115234,-29.890256118774413,162.70935280238547,0.7421160079620007,67.45204061488779,0.9509220988822186,72.87086553573609,101.65076103210448,71.79070701599122
289.972,-7.254391384124756,-156.15215454101562,-0.1389501571655273,0.3367564409971236,0.0781908877193927,0.646632295846939,8.276461029052735,-36.61851081848145,-102.2156509399414,27.774504089355467,-42.90653533935547,36.4623836517334,-0.9038604378700256,0.2980414688587188,0.0292434599250554,79.78666687011719,67.2735824584961,-31.80654640197754,156.83836030927029,0.7477947119182881,63.91136319531698,0.9545617043139436,71.51020584106445,103.89209327697752,70.40910453796387
300.028,-10.627355480194092,-150.2548065185547,1.2740424156188963,0.4057014167308807,0.0885054700076579,0.6152459442615509,8.370604324340821,-39.569783782958986,-102.7296615600586,26.973876190185543,-44.61662292480469,29.103352355957032,-0.9009937405586242,0.3061376571655273,0.037350183352828,78.54129180908203,66.561865234375,-33.751610565185544,150.9915358795694,0.7517046234761738,60.9029960743797,0.9550101103983074,70.17068748474121,106.13164901733398,68.97805099487304
322.408,-13.680780696868895,-144.02913513183594,2.427940511703491,0.4665554821491241,0.088232984393835,0.580524343252182,8.418976783752441,-42.39995498657227,-103.22496032714844,25.07238426208496,-43.23359985351563,20.458541107177737,-0.8867364525794983,0.3303200840950012,0.0520550362765788,77.3467300415039,66.00344390869141,-35.611310195922854,145.27192668459426,0.7534579218978121,54.82323349718136,0.9493625509351152,68.92775325775146,108.40339889526368,67.61365013122558
339.842,-14.5668288230896,-137.81917572021484,3.3441889762878416,0.5280761957168579,0.0947373569011688,0.5786582708358765,8.453728866577148,-45.10895462036133,-103.69790496826172,23.01551208496094,-43.29620895385742,13.547326040267944,-0.8841874361038208,0.3666038632392883,0.0589566960930823,76.11176147460938,65.5532958984375,-37.47902374267578,139.36854064430833,0.8007756145531235,51.25588602367464,0.9597682425796132,67.65803260803223,110.66225051879884,66.21888122558593
362.308,-15.464198207855224,-131.23328704833983,3.988355445861816,0.5882293581962585,0.1108964696526527,0.5600277781486511,8.490419960021972,-47.70177688598633,-104.16195068359374,20.663728713989254,-43.886965942382815,9.239688158035278,-0.8977499008178711,0.394721508026123,0.0668170802295207,74.81192016601562,65.16026763916015,-39.37330322265625,132.88784354209068,0.8323247144996568,49.98982941366853,0.9839651463636054,66.32150020599366,112.86204452514647,64.7886474609375
379.822,-15.87833490371704,-123.88836669921876,3.48181357383728,0.6240323424339295,0.1190432086586952,0.5186275243759155,8.54855556488037,-50.15513381958008,-104.64188079833984,17.919425582885744,-42.88666915893555,6.334413063526154,-0.900097608566284,0.4025874853134155,0.0701874457299709,73.52274017333984,64.81206817626953,-41.203146362304686,125.5209801201461,0.8281139618487046,47.75169787803706,0.989602665250712,64.97418460845947,114.9672019958496,63.43873443603516
402.282,-14.885840892791748,-116.76019592285157,3.787325525283813,0.649148964881897,0.1157614216208457,0.4949808359146118,8.624139404296875,-52.46665649414062,-105.10552978515624,14.5733247756958,-39.08505477905273,3.3543119549751284,-0.8861290693283081,0.4113980054855347,0.075718880444765,72.34143371582032,64.5209945678711,-42.84654083251953,118.37131448244472,0.8280128325899223,42.439200819098666,0.9805361857350868,63.71729431152344,116.98765106201172,62.25898895263672
424.902,-14.381960582733154,-109.94109649658203,4.375777816772461,0.6878780722618103,0.1259679719805717,0.481572777032852,8.715678405761718,-54.646532440185545,-105.55797576904295,13.511834526062012,-36.22934226989746,1.375418245792389,-0.8839164495468139,0.4105072021484375,0.0775737307965755,71.26840057373047,64.27397842407227,-44.35165557861328,111.65020509788611,0.8517540069309264,39.17543383028472,0.9782883731393024,62.55272216796875,118.9205108642578,61.206320190429686
439.883,-15.41204252243042,-103.23408966064451,4.746311140060425,0.7141710877418518,0.1310088217258453,0.479544562101364,8.795795822143555,-56.6998046875,-106.00467224121094,11.811978530883788,-32.436231994628905,-0.6193987727165222,-0.8867496490478516,0.4116974055767059,0.0855532251298427,70.29340362548828,64.07886047363282,-45.71115570068359,105.57580370640136,0.8746957125209764,35.27554676544177,0.981935581998462,61.49760780334473,120.7786651611328,60.29351654052734
462.162,-17.277284336090087,-96.83047637939453,4.687006425857544,0.7328058123588562,0.124474162608385,0.4525454401969909,8.835260391235352,-58.62842712402344,-106.43975982666016,10.429217052459716,-27.650002098083498,-1.5364803194999694,-0.8838566064834594,0.4087970972061157,0.0898086741566657,69.47834625244141,63.92678680419922,-46.86464614868164,99.58677844879514,0.8780279754152893,30.584542503204386,0.9783692109040792,60.64308586120605,122.55521392822266,59.575113677978514
484.769,-17.18759207725525,-91.05600128173828,5.508221435546875,0.7553577780723572,0.1014971841126679,0.4150417387485504,8.821991539001464,-60.45534820556641,-106.81114196777344,7.404072093963623,-22.13639316558838,-3.1501095294952397,-0.8569889426231384,0.4038728892803192,0.0975874751806258,68.79855194091797,63.835095977783205,-47.80127639770508,93.87880536135972,0.8759293903000532,25.89027801498859,0.953157356686615,59.9765604019165,124.2904441833496,59.00986557006836
508.242,-13.906408643722534,-85.7551773071289,6.208598518371582,0.7844805121421814,0.0866806749254464,0.3890824615955352,8.8223482131958,-62.18659362792969,-107.12289276123047,3.3528325080871584,-17.921964645385742,-5.963114500045776,-0.8503034353256224,0.4015059292316437,0.1038929596543311,68.16073455810547,63.81977920532226,-48.60123672485352,88.83418508920927,0.8833606762575352,22.495389911987303,0.94693298681209,59.33838634490967,126.00637283325196,58.52165603637695
529.837,-9.95364260673523,-80.55242614746093,7.0742851257324215,0.797064745426178,0.0820399347692727,0.3810081005096435,8.855586051940918,-63.81059799194336,-107.38021392822266,-2.9795742988586427,-12.154940605163574,-8.352108478546143,-0.8615658760070799,0.4052158713340759,0.1077765181660651,67.58070831298828,63.88817596435547,-49.19604721069336,83.09897095072799,0.8892803517153102,17.63168361063339,0.9590468537442184,58.72512226104736,127.69877395629882,58.184166717529294
539.594,-7.723172330856324,-75.33000946044922,7.601808166503906,0.8095500707626343,0.0752441588789224,0.3709215521812438,8.897549247741699,-65.32990188598633,-107.5948699951172,-10.572295665740969,-3.737877082824707,-10.787758827209473,-0.8690523505210874,0.4020233452320098,0.1072175592184066,67.12479400634766,64.06593246459961,-49.48372344970703,77.466442182632,0.896183509883634,21.4499107183083,0.9644048677146648,58.22724475860596,129.39583435058594,58.11114654541016
562.0450000000001,-7.374593305587768,-69.92043762207031,8.2388201713562,0.8210238099098206,0.0656831476837396,0.3610463857650756,8.884143829345703,-66.73892288208008,-107.74048156738282,-16.928295707702638,3.447815704345704,-13.29399185180664,-0.8792054057121275,0.3929555535316467,0.1138577610254287,66.76472473144531,64.34890365600586,-49.5219841003418,72.24211132979015,0.9033363614025534,26.4941018970898,0.9704369978938766,57.88058090209961,131.08782653808595,58.21849746704102
584.572,-8.075166010856629,-64.76603851318359,8.638260078430175,0.8291791915893555,0.0575422912836074,0.3474048912525176,8.790840339660644,-68.04394226074218,-107.81526794433594,-21.74629001617432,10.784029006958008,-16.022438621520998,-0.8954971909523008,0.3783490717411041,0.1089563533663749,66.54782104492188,64.74559631347657,-49.295606231689455,67.17884098625518,0.905785998581582,32.61378708148443,0.9786041698382456,57.75698070526123,132.78953857421874,58.51966171264648
608.873,-10.37050930261612,-59.52033309936523,8.336352157592774,0.842625892162323,0.0540714979171752,0.3231775701045989,8.623101615905762,-69.24884948730468,-107.8591323852539,-26.28980846405029,21.150224113464358,-18.90932140350342,-0.8875798821449278,0.3628456354141235,0.0989102795720099,66.61246948242187,65.28011474609374,-48.66074676513672,61.76432258806047,0.9078358411708524,39.66669084662084,0.9642408282559024,57.98936786651611,134.52896423339843,59.19838562011719
629.9540000000001,-11.231358110904694,-54.53785018920898,8.019144248962402,0.871936845779419,0.0352602608501911,0.2947812259197234,8.384175682067871,-70.36751098632813,-107.84876251220705,-30.05661277770996,30.599407577514647,-20.119519233703613,-0.8871719360351561,0.3580738246440887,0.0993608608841895,66.98091888427734,65.90621490478516,-47.61149444580078,56.97689916115356,0.922391403304213,47.89633929414093,0.962169664358966,58.596743202209474,136.2737258911133,60.23726806640625
639.5659999999999,-9.036320650577546,-49.79294967651367,7.979928016662598,0.9015475630760192,0.023682577908039,0.2802549809217453,8.130062866210938,-71.39649353027343,-107.77703247070312,-30.595639419555663,34.58098106384277,-20.64681224822998,-0.8941202998161314,0.3574594080448149,0.0998676523566245,67.5392059326172,66.56827545166016,-46.34829711914063,51.795918061866686,0.9460284120464336,51.112902695233785,0.9683135002689772,59.40914306640625,137.9647689819336,61.4287353515625
665.0740000000001,-5.847121489048004,-45.52154006958008,7.856253051757813,0.9288808703422546,0.0268256624229251,0.2650776922702789,7.908629417419434,-72.3432861328125,-107.67107696533203,-30.57524261474609,36.84274063110352,-20.25260791778565,-0.9114762187004088,0.3586256146430968,0.1018165290355681,68.2358383178711,67.23223571777343,-44.93805847167969,46.939340164732506,0.9684831023912988,52.36261699842807,0.9849315078755152,60.32720890045166,139.57552185058594,62.733018493652345
688.379,-4.303417766094207,-41.24227066040039,7.507551193237305,0.9542347550392152,0.0372337509877979,0.2373969107866287,7.7107391357421875,-73.21349182128907,-107.55547485351562,-28.70059471130371,38.364653778076175,-18.772634315490723,-0.9174551248550412,0.3610643446445464,0.1028396800160407,69.10623016357422,67.86716766357422,-43.38380279541016,42.81166086607049,0.986173666246024,51.62451884545948,0.9914621750916884,61.39549102783203,141.08065948486328,64.17167205810547
707.4169999999999,-1.877105236053466,-37.3738224029541,7.635612678527832,0.976633632183075,0.0300224346108734,0.2153626263141631,7.490725135803222,-74.01514434814453,-107.36780242919922,-26.587788772583007,36.37205009460449,-16.103579711914062,-0.9320611238479612,0.3684375405311584,0.1066691920161246,70.01959228515625,68.42309112548828,-41.83204193115235,39.563820420098295,1.001281919698551,47.95183768396269,1.008054606175777,62.52886714935303,142.4382354736328,65.53576049804687
730.783,1.866594600677491,-33.520545196533206,7.895528984069824,0.9956896543502808,0.0255259779281913,0.200598245859146,7.266434860229492,-74.7442855834961,-107.0822006225586,-24.835495376586916,31.21009826660156,-14.8883056640625,-0.9422699332237242,0.3713982701301574,0.1090549811720847,70.7856460571289,68.90770568847657,-40.47985763549805,35.89660032336381,1.0162947990612268,42.71401778678039,1.0188341153452474,63.51921119689941,143.65199127197266,66.60234298706055
749.5540000000001,6.415650272369385,-29.69910659790039,8.580272102355957,1.003866696357727,0.0277578328736125,0.1871295094490051,7.036597728729248,-75.400341796875,-106.68933715820312,-22.013642883300783,26.132229614257813,-12.203542709350586,-0.953435695171356,0.3677438616752624,0.1117263182997703,71.44582977294922,69.30042572021485,-39.30464553833008,32.22763309807673,1.0218555832245884,36.39722030226469,1.0280364574094802,64.40923204421998,144.70076751708984,67.38469161987305
759.5600000000001,10.272978591918946,-25.928765869140623,9.271433639526368,1.0026196002960206,0.0264340207912027,0.176150819659233,6.770572566986084,-75.98251190185547,-106.17514190673828,-19.006421089172363,21.60692253112793,-9.794772052764891,-0.9438832998275756,0.3656251966953278,0.108475562930107,72.00630645751953,69.61035919189453,-38.30224685668945,29.75331723672413,1.0186512144377748,30.562913389189777,1.0180712106414285,65.23573389053345,145.59287109375,67.87289505004883
779.6999999999999,12.99634838104248,-22.606111145019533,9.453363990783693,0.9964404582977296,0.0190420310944318,0.1736123859882354,6.47186164855957,-76.4942642211914,-105.55932922363282,-17.466162109375,15.981214904785157,-8.010740947723388,-0.9364303708076476,0.362561285495758,0.1059949591755866,72.357958984375,69.84598388671876,-37.55666961669922,28.35294046878296,1.0120186388663834,25.32161859795472,1.009790515576259,65.88609733581544,146.34024810791016,68.00265960693359
802.226,14.107371711730956,-19.44319839477539,9.268035316467286,0.9923181533813475,0.0178721420466899,0.1633982479572295,6.155477142333984,-76.94239959716796,-104.88994598388672,-15.338359832763672,10.856221294403076,-6.693588924407959,-0.9293948292732236,0.3553290843963622,0.1046681001782416,72.5164566040039,70.0239242553711,-37.06277923583984,26.52011433904784,1.0060308976000487,20.431688707239392,1.000566312733772,66.36097946166993,146.96632385253906,67.82716674804688
822.293,15.7537504196167,-15.80930118560791,9.065704727172852,0.9879729270935058,0.0119459777139127,0.1516838163137435,5.81954870223999,-77.31922149658203,-104.17232360839844,-13.816768836975095,7.231410545110703,-5.412988233566283,-0.9222439050674438,0.3478021919727325,0.1040773719549178,72.53876190185547,70.1557403564453,-36.74623107910156,24.779261539577817,0.9998170633009966,17.235997950408997,0.9912695064785212,66.71921319961548,147.47496185302734,67.42609252929688
839.703,17.829421615600587,-12.0030357837677,9.141796875,0.9832648515701294,0.0021662070415914,0.1519909888505935,5.434855175018311,-77.61567687988281,-103.3593002319336,-12.813942909240724,2.8947333753108984,-4.217664813995361,-0.9232202529907226,0.3421018898487091,0.1064375847578048,72.36713409423828,70.23984985351562,-36.65648727416992,23.98881142443627,0.9951192579807854,14.558139768640183,0.9904866126119198,66.93227891921997,147.85552673339845,66.70281295776367
861.942,18.8251594543457,-8.26314127445221,8.998236274719238,0.9813275933265686,0.0001819072291255,0.1583821207284927,5.02440357208252,-77.82947692871093,-102.4960159301758,-12.035219383239744,0.1186941564083099,-4.131319427490235,-0.9274271965026856,0.3316063463687896,0.1055697619915008,72.06373443603516,70.31095275878906,-36.72329864501953,23.14426410983055,0.9943136766978812,13.178343627982816,0.9906975021331752,67.03933086395264,148.1404296875,65.77271728515625
884.5110000000001,18.071002578735357,-4.232132935523987,8.891779708862305,0.980547058582306,0.0012390983756631,0.1627351075410842,4.567351341247559,-77.95678253173828,-101.60752716064454,-10.550483226776125,-1.3270359575748445,-4.087110996246338,-0.9308113098144531,0.3253634929656982,0.1060652598738669,71.71162567138671,70.37537231445313,-36.87337951660156,21.39965266980426,0.9943003055698464,11.73790813931193,0.9917592441018546,67.14427433013915,148.3321548461914,64.73414764404296
906.276,17.524668502807618,0.0325522184371948,8.6939058303833,0.9785600066184996,-0.0054544836748391,0.1587606996297836,4.065539121627808,-77.9985565185547,-100.69266357421876,-9.548470973968506,-2.0197615683078767,-4.171342182159424,-0.929042625427246,0.321307760477066,0.1048651278018951,71.34300842285157,70.43818511962891,-37.06267929077149,20.3305062863999,0.9916808168258038,10.88283637322872,0.9886238012364345,67.27746930122376,148.4367416381836,63.629984283447264
919.54,18.54667282104492,3.9795525312423705,8.407217597961425,0.9746667981147766,-0.0123231175821274,0.1683935791254043,3.5688018798828125,-77.95376129150391,-99.76172790527345,-8.323423671722413,-2.440985536575317,-4.417506265640259,-0.9288002848625184,0.322549968957901,0.1053166240453719,70.97447662353515,70.5013916015625,-37.27833938598633,21.471931584577327,0.989358726080279,9.852504083541994,0.9888537928718882,67.40567474365234,148.4551528930664,62.48338851928711
942.06,19.209793090820312,7.545390439033508,7.5194167137146,0.9716509819030762,-0.0147506810259073,0.1793024867773055,3.150419807434082,-77.8292221069336,-98.89708404541014,-7.010669708251953,-2.1766242027282714,-4.413090944290161,-0.9269670128822328,0.3217912018299103,0.1028296321630477,70.65226898193359,70.56559600830079,-37.47347869873047,22.581659445327283,0.9884644861793748,8.60826793130783,0.9866230691246624,67.50184917449951,148.3948181152344,61.423605346679686
964.338,19.026508712768557,10.861015033721923,6.110811519622803,0.9695375084877014,-0.0154838874470442,0.1856543689966201,2.851630926132202,-77.63337860107421,-98.15555572509764,-5.853102445602417,-2.218461608886719,-4.057276439666748,-0.9257171511650084,0.3220787525177002,0.102369512617588,70.3601058959961,70.62144317626954,-37.66167678833008,23.170334005595198,0.9876956021289331,7.552841651265024,0.9854904852234758,67.5084749698639,148.25482177734375,60.49387893676758
986.886,18.82517642974853,13.852025127410888,4.616783702373505,0.967895770072937,-0.0197253772988914,0.1905323535203933,2.67171049118042,-77.37484130859374,-97.53486785888671,-5.018588590621948,-2.494223976135254,-3.7668216705322255,-0.9274171590805054,0.3170831561088562,0.1033385455608367,70.07205963134766,70.67172546386719,-37.862939453125,24.23783045154744,0.9870795504369726,6.923915492402716,0.9856283216873508,67.40034914016724,148.04656677246095,59.67192840576172
1009.232,18.35703296661377,16.560483360290526,3.281370460987091,0.9669586062431336,-0.0241337075829505,0.1996360570192336,2.590343618392944,-77.05804595947265,-97.02035369873047,-4.251190996170044,-2.622273111343384,-3.819225215911865,-0.9302506566047668,0.3123958766460418,0.1046479567885398,69.78769378662109,70.72401885986328,-38.07626419067383,25.499556438829988,0.9877940188559629,6.484327623726793,0.986981720055478,67.19735016822816,147.78206481933594,58.94408950805664
1019.201,16.19870777130127,19.151898002624517,1.87155419588089,0.9681985974311832,-0.0249589063227176,0.2026194930076598,2.5882150650024416,-76.68975219726562,-96.6353317260742,-3.8066244602203367,-2.811695337295532,-4.198178768157959,-0.928848111629486,0.3079873144626617,0.1046693533658981,69.49311981201171,70.78323364257812,-38.30980606079102,25.82235033435804,0.9895832601697376,6.460868771319241,0.9842356917362116,66.90490474700928,147.47298583984374,58.3255256652832
1044.421,13.14920778274536,22.03262367248535,0.3459481358528138,0.9699209570884706,-0.0233134035021066,0.1996789306402206,2.654103469848633,-76.26814727783203,-96.38645935058594,-3.591877794265747,-3.305324745178223,-5.082662534713745,-0.9307459831237792,0.3056781828403473,0.1072186052799224,69.15383453369141,70.85543823242188,-38.5949104309082,26.349449528709904,0.9906280483374728,7.132397939014121,0.985552114750796,66.49973106384277,147.12358551025392,57.79154891967774
1065.074,10.589182662963868,25.797450637817384,-0.7625317454338073,0.9681986451148988,-0.025188074633479,0.1966388314962386,2.741341400146484,-75.77628173828126,-96.21563262939452,-3.2651790142059327,-4.160873222351074,-6.042855739593506,-0.93795086145401,0.3023935317993164,0.1128927052021026,68.74474029541015,70.9396759033203,-38.95981903076172,28.44498965484602,0.9883369444578344,8.184628964677648,0.9919930397532462,66.00339889526367,146.71595764160156,57.25581359863281
1086.724,8.965360927581788,30.21599082946777,-1.803361201286316,0.9666597127914428,-0.0259374540299176,0.1958463877439498,2.855757474899292,-75.20057830810546,-96.09919891357424,-2.384851884841919,-5.524144077301026,-6.4898429870605465,-0.9417126178741456,0.3003345251083374,0.114388571679592,68.26762542724609,71.02151641845703,-39.41516418457032,31.900988796500325,0.9866821502804056,9.389323152684767,0.9951283731887316,65.4118679523468,146.2220947265625,56.68403472900391
1113.497,7.547486114501953,35.3966251373291,-3.0869261741638185,0.9617009878158568,-0.0223480699583887,0.1976097166538238,3.0190094470977784,-74.52442932128906,-96.05558776855467,-0.924335527420044,-7.372290897369385,-6.669516849517822,-0.9389898538589476,0.3003693580627441,0.115558511018753,67.71634521484376,71.08980712890624,-39.97999877929688,36.49668699083117,0.9820862398064538,10.889985447415103,0.9926952490320616,64.69733576774597,145.6142364501953,56.07558898925781
1119.114,6.612708473205567,41.23541793823242,-4.398209762573242,0.9520164728164672,-0.017663968540728,0.1984401524066924,3.232601499557495,-73.73560791015625,-96.07464599609376,1.0738166332244874,-9.398344230651857,-6.768779277801514,-0.9403359413146972,0.2959692716598511,0.1191425263881682,67.08736419677734,71.14366455078125,-40.66871795654297,42.04382516953815,0.972663122628374,12.399536839358678,0.993047079398078,63.85476269721985,144.8792724609375,55.40592803955078
1146.676,6.692980480194092,47.51386413574219,-5.2115425109863285,0.9393157362937928,-0.0197954921051859,0.2122523069381713,3.4569586277008058,-72.81919708251954,-96.0970458984375,2.6070977210998536,-10.678316879272462,-6.24252233505249,-0.9469748854637144,0.2887109398841858,0.1235235005617141,66.42364196777343,71.17896270751953,-41.42575759887696,48.289525650186725,0.9636699279940768,13.004640951820866,0.9977591333820108,62.96668334007264,143.99815979003907,54.671288299560544
1169.241,6.549649906158447,53.59047164916992,-6.025854206085205,0.926051664352417,-0.0179812090471386,0.2297746837139129,3.689604949951172,-71.77794494628907,-96.13373260498048,4.457476854324341,-10.976254653930663,-5.090615367889404,-0.9479498386383056,0.2856112360954285,0.1233903646469115,65.81077117919922,71.19004516601562,-42.16851806640625,54.35064371247379,0.9553295085413618,13.135468527664566,0.9977760428895744,62.12116622924805,142.96799011230468,53.965214538574216
1189.101,5.465239953994751,59.5719467163086,-7.334949111938476,0.9112516164779664,-0.010383472032845,0.248997151851654,3.93943452835083,-70.6126495361328,-96.2163345336914,5.947084283828735,-9.577487087249756,-4.3283164501190186,-0.9401371836662292,0.2852207541465759,0.1203503653407096,65.3300064086914,71.19649200439453,-42.80425338745117,60.32090793902429,0.946105405961464,12.672419811787968,0.989898117098402,61.39057188034057,141.80914154052735,53.41208114624023
1199.311,4.12599663734436,65.27055053710937,-8.824907588958741,0.8952809691429138,-0.0088612558320164,0.2645745038986206,4.191461563110352,-69.33171997070312,-96.33443298339844,6.258805131912231,-6.785078859329223,-3.5747488498687745,-0.9359119176864622,0.2855591237545013,0.1157836735248565,65.0344482421875,71.21144409179688,-43.25220260620117,66.10692257540104,0.934610901538953,11.309851970251724,0.9855150497309432,60.84298667907715,140.5431640625,53.08223037719726
1220.585,3.005799287557602,70.64096145629883,-10.22918767929077,0.8796173691749573,-0.0126871889457106,0.2897778034210205,4.431912708282471,-67.93728790283203,-96.48587646484376,5.212486797571183,-2.7371968746185296,-2.5257009506225585,-0.9358905196189878,0.2879542052745819,0.1130217641592025,64.96801147460937,71.23975219726563,-43.43688583374024,71.55848162490845,0.9266349038827264,9.76505633289483,0.9858832100102588,60.5360987663269,139.17704010009766,53.04899063110352
1239.214,1.550586086511612,75.70364990234376,-12.007655811309814,0.8641445636749268,-0.0062277986202389,0.3164526224136352,4.687498092651367,-66.43448791503906,-96.70203094482422,4.611011248826981,0.5877904415130615,-1.6985862612724305,-0.9363714694976804,0.2902320742607116,0.112275543808937,65.09026641845703,71.27954864501953,-43.409799194335946,76.72689254011908,0.9215934682191198,8.261268085425533,0.9868727183495972,60.40276832580567,137.7140365600586,53.29223175048829
1261.5749999999998,-0.7073632657527924,80.36103668212891,-14.17501983642578,0.848332405090332,0.004319387441501,0.3403616189956665,4.955912590026856,-64.83262252807617,-96.98967590332032,3.962552863359451,3.834238576889038,-1.2823446869850157,-0.9357308268547057,0.2885447978973388,0.108259980380535,65.38743133544922,71.34010009765625,-43.18470077514648,81.6540747637774,0.9161642402817444,7.549769253921056,0.9853259412290444,60.431518745422366,136.17272262573243,53.80497512817383
1284.588,-3.328638643026352,85.1712890625,-16.105410766601562,0.8357390999794007,0.0045771238859742,0.3592840790748596,5.191347312927246,-63.13369293212891,-97.3191650390625,2.7653095066547397,7.89866337776184,0.2496189951896668,-0.9409982442855832,0.2888223230838775,0.1078638389706611,65.9161880493164,71.40541381835938,-42.689588928222655,86.85538168714997,0.9116409659352092,9.188711314942063,0.990370524177322,60.72484073638916,134.5391067504883,54.62957611083984
1309.3010000000002,-5.359534543752671,90.11779327392578,-17.85991516113281,0.8212552428245544,0.0082370183896272,0.3857943832874298,5.398426914215088,-61.33073425292969,-97.68334350585936,2.290847140550613,11.041880226135254,2.405570590496063,-0.9493416070938108,0.2906808972358703,0.1078612446784972,66.65468902587891,71.45381164550781,-41.96257629394531,92.1645125509164,0.9084143975474062,11.928375580198898,0.998839434208882,61.256262111663816,132.7845458984375,55.72076721191407
1319.342,-6.570834290981293,94.82808837890624,-19.467966270446777,0.8008437395095825,0.0175194747280328,0.4234941244125366,5.596007537841797,-59.4215690612793,-98.06952209472657,2.594634747505188,14.17303171157837,4.194874703884125,-0.9545943498611448,0.2894351541996002,0.1067138269543647,67.6089859008789,71.4901138305664,-41.01355514526367,97.12090275145418,0.9075861496054648,15.31633595804015,1.0033310720753916,62.01297836303711,130.91168289184571,57.05596694946289
1341.664,-8.57837610244751,99.54039916992188,-20.923555755615237,0.7801429271697998,0.0281637910753487,0.4538173794746399,5.761362457275391,-57.41149520874024,-98.46995086669922,3.252077102661133,18.187325477600098,5.189826512336731,-0.952312672138214,0.2891324520111084,0.1010016620159148,68.82593383789063,71.53262481689453,-39.801387786865234,102.10716328389093,0.9060052269546144,19.44654872542064,1.0004272212264744,63.064571380615234,128.94412002563476,58.66856307983399
1364.489,-11.441452693939208,104.88515777587892,-22.239982986450197,0.7585148572921753,0.03713317848742,0.4718028962612152,5.8655421257019045,-55.29506530761719,-98.87270965576172,2.9536824226379395,22.8131965637207,5.888176488876343,-0.9496621966362,0.2918801069259643,0.0998022586107253,70.31131591796876,71.58414001464844,-38.29917602539062,107.9077943712652,0.8973160347003539,23.93293509599425,0.9985488836344828,64.44577379226685,126.87920532226562,60.573533630371095
1386.45,-13.826669025421143,110.38107299804688,-23.32523880004883,0.7284329414367676,0.0422899443656205,0.4913092195987701,5.908391666412354,-53.06714553833008,-99.26922607421874,2.1255048751831054,25.147100830078124,5.754074048995972,-0.9517568707466124,0.2940090119838714,0.0981421768665313,71.9081298828125,71.64019165039062,-36.66125411987305,113.80181246385628,0.8816698976792574,26.14449499502657,1.0010036176323722,65.99973821640015,124.7073371887207,62.6079719543457
1409.226,-14.15694055557251,115.13682098388672,-23.686447525024413,0.6978345155715943,0.0368059292435645,0.540415221452713,5.90701904296875,-50.73044967651367,-99.6352325439453,0.5404874324798584,28.0401309967041,3.708576488494873,-0.9560258626937866,0.2936801075935363,0.1005049422383308,73.59485931396485,71.73831176757812,-34.893764877319335,118.5424440777872,0.8863777141017932,28.63832835275469,1.0051805281195991,67.68784027099609,122.4687614440918,64.74146766662598
1419.262,-15.15574531555176,119.86663818359376,-23.370244598388677,0.6740579843521118,0.045749370381236,0.5668761312961579,5.855512523651123,-48.30130996704101,-99.96893463134764,-0.7345428943634034,30.046955871582032,0.7014670372009277,-0.9608108878135682,0.2895189702510833,0.1061796590685844,75.31923065185546,71.89071807861328,-33.058274841308595,123.19708737908545,0.885487532269779,30.583021513734455,1.0092436532539402,69.46371812820435,120.1920280456543,66.91065979003906
1441.5800000000002,-16.61570453643799,124.42279663085938,-23.007997131347658,0.6384558081626892,0.0529771905392408,0.5893109977245331,5.746953678131104,-45.7806999206543,-100.27277526855468,-1.6755345344543455,29.442656326293942,-1.891890239715576,-0.9645779132843018,0.285276460647583,0.1066098272800445,76.95829162597656,72.07844696044921,-31.292374420166016,127.74954323106768,0.8758138947127039,30.175196917566257,1.0117460419165332,71.21133794784546,117.85914688110353,68.98040084838867
1464.509,-16.559989356994627,128.78650817871093,-22.254208755493163,0.5965510129928588,0.0513458620756864,0.6081880092620849,5.599419116973877,-43.17150955200195,-100.53475036621094,-2.1418351382017136,26.361426162719727,-3.4410268306732177,-0.9642004251480104,0.2887230277061462,0.094218348711729,78.41322174072266,72.26789245605468,-29.712536239624026,131.8516074867851,0.8575759202762331,27.150693097334106,1.0115323301459884,72.81380262374878,115.43940200805665,70.82221412658691
1484.709,-13.23484687805176,132.49158782958983,-21.059206008911133,0.5587918817996979,0.0402777105569839,0.6478198409080506,5.466216564178467,-40.4808349609375,-100.7443618774414,-1.840708240866661,24.511064529418945,-5.429846048355103,-0.9629070401191712,0.2900259733200073,0.0884032808244228,79.75814361572266,72.47498321533203,-28.256027221679688,134.90489221752915,0.8593594870969093,25.389011327628918,1.0102368720602342,74.29192705154419,112.95581817626952,72.48833465576172
1506.53,-9.995333433151243,136.07167053222656,-19.67390251159668,0.5179283738136291,0.0507270302623509,0.6790438294410706,5.369453144073487,-37.71631011962891,-100.91505584716796,-2.008963569998741,21.160173225402836,-7.437747955322266,-0.9687082052230837,0.2837319314479827,0.0853123255074023,80.89285736083984,72.70218200683594,-27.0176570892334,138.11603415152146,0.8605233096372695,22.855597034868712,1.0137104652634596,75.52340421676635,110.41849212646484,73.89739875793457
1526.567,-8.57379584312439,139.848828125,-19.085642623901368,0.4670655310153961,0.0589023273438214,0.704849898815155,5.2861183166503904,-34.86865310668945,-101.06434936523438,-1.3404811710119249,17.2499059677124,-8.256665229797363,-0.973955512046814,0.2898314297199248,0.0721607200801372,81.83449859619141,72.92182922363281,-25.99896049499512,141.701057393184,0.8529895265186699,19.551639429616426,1.0191648691618032,76.54838027954102,107.79048233032226,75.06538887023926
1549.163,-6.71971173286438,144.0077667236328,-18.98618087768555,0.4119552969932556,0.0544955205172299,0.7113984584808349,5.221866989135743,-31.931518936157225,-101.19800415039064,-0.533853182196617,16.81786518096924,-8.199533081054687,-0.96653470993042,0.2933722078800201,0.0613866634666919,82.80583190917969,73.12846069335937,-24.968663406372077,145.62710231382823,0.8299602863571949,19.173126191405345,1.0121987314294725,77.58396492004394,105.0599796295166,76.22934074401856
1559.142,-1.3954102039337155,147.29806213378907,-18.90091018676758,0.3612974196672439,0.0344210032373666,0.7656183362007141,5.242449188232422,-28.92532157897949,-101.31461334228516,-0.8151958584785461,16.877236366271973,-8.79947214126587,-0.96616473197937,0.2823740243911742,0.0646596834063529,83.77210235595703,73.34615020751953,-23.93721580505371,148.62694623511928,0.8541970226379524,19.45095761392268,1.0088975208593016,78.5296531677246,102.27147178649902,77.37739753723145
1588.71,1.8023074626922608,150.0673828125,-19.163288497924803,0.3168784886598587,0.0470649607479572,0.8033146381378173,5.324233436584473,-25.856430435180663,-101.42948303222656,-1.6700315952301026,14.868310165405273,-9.478030014038088,-0.9729904294013976,0.2834875106811523,0.0653330087661742,84.59388885498046,73.56730346679687,-23.039040756225585,151.43845993224974,0.8693849407880692,18.119617852100514,1.0157677931125413,79.269655418396,99.42373390197751,78.39044227600098
1608.953,2.2244529724121094,153.66220703125,-20.67223014831543,0.2499613642692565,0.0622393853962421,0.8129792094230652,5.421173095703125,-22.71976699829101,-101.56449737548829,-0.1995501041412353,12.859001731872558,-8.64103832244873,-0.9669427275657654,0.2923606276512146,0.0570679575204848,85.34288330078125,73.75792694091797,-22.24902229309082,155.21493384274285,0.8597343525742905,15.989165405847569,1.0120037349512905,79.92171020507813,96.477693939209,79.31547508239746
1619.192,3.4822059154510496,156.38827819824218,-22.4393009185791,0.1743681460618972,0.0595236279070377,0.8224942445755005,5.539794254302978,-19.535191154479985,-101.720361328125,2.034948396682739,10.329508018493652,-6.887960529327392,-0.9563960790634156,0.2825670063495636,0.0494025126099586,85.9924087524414,73.90981597900391,-21.61011466979981,158.15633461992311,0.8517388590054432,14.523143685793157,0.9988618964469036,80.45261449813843,93.44500713348388,80.1102466583252
1641.6280000000002,6.6909246921539305,157.26679077148438,-23.1091194152832,0.1143343593925237,0.0514935631304979,0.8924710154533386,5.7143041610717775,-16.34383907318115,-101.87656707763672,3.0528555393218992,7.653921699523925,-6.820748805999756,-0.9602919340133664,0.2625722736120224,0.0531232252717017,86.47706298828125,74.06402893066407,-21.16363945007324,159.1235570974418,0.9108234942738778,12.789435268934376,0.9981511824477276,80.76275882720947,90.4078680038452,80.71292762756347
1664.64,5.84069185256958,157.0243347167969,-23.481430435180663,0.0631745124235749,0.0747259806841611,0.929376745223999,5.864854621887207,-13.143554592132569,-102.03065185546876,3.648468446731568,6.535812950134277,-8.7235821723938,-0.9630934000015255,0.2532214105129241,0.0502688124775886,86.90357208251953,74.2573257446289,-20.791035461425786,158.90830591761073,0.9416734105330355,13.287515872165216,0.9985463707490768,81.03871746063233,87.40088033676147,81.23961639404297
1686.297,3.1413910388946533,156.51702270507812,-23.47061195373535,-0.0085341518744825,0.0926950808614491,0.9283031344413756,5.957613277435303,-9.963050413131716,-102.17862854003906,5.814600467681885,4.608496725559235,-10.481747150421144,-0.9579814076423644,0.2492142736911773,0.0406163044273852,87.25396575927735,74.48283081054687,-20.54418487548828,158.35337401252696,0.9362060148962446,14.371808026803524,0.9920663093419206,81.29635248184204,84.44588122367858,81.63444366455079
1706.355,0.4248627185821533,154.68529357910157,-22.601790618896484,-0.0615350073203443,0.0883295085281133,0.9325603604316712,5.985258388519287,-6.824809420108795,-102.30823822021485,6.443729114532471,2.396681082248688,-13.153832912445068,-0.9611536383628844,0.2316288560628891,0.0381808690726756,87.44993591308594,74.76746063232422,-20.4709529876709,156.43819258899467,0.941887118529582,16.84399089938487,0.9902566096568766,81.46467752456665,81.59227005243301,81.83728523254395
1718.9509999999998,1.851109790802002,152.16383056640626,-20.385576248168945,-0.0903146570548414,0.0777745496481656,0.9771859884262084,6.024759769439697,-3.7313111901283262,-102.39600830078126,4.017835998535157,1.2106290459632871,-17.687949562072752,-0.9669845342636106,0.2274874866008758,0.0346445193514227,87.49511108398437,75.14191589355468,-20.504355239868165,153.70958845513297,0.9877165655590928,19.914377404352813,0.9948451571543192,81.47035131454467,78.87322708368302,81.89165306091309
1741.571,2.7529246330261232,150.039501953125,-18.344016456604,-0.1114655764773487,0.1056965008378028,0.9851501941680908,6.082867431640625,-0.6778896927833558,-102.44403686523438,1.8589863300323488,0.3050062775611876,-21.108259201049805,-0.9688564896583556,0.2470649808645248,0.0388913726434111,87.4117935180664,75.56932525634765,-20.626554489135746,151.42522032073012,0.9997626660673272,22.31022975339472,1.0015064798325997,81.32892608642578,76.247214949131,81.81748237609864
1764.853,0.7243435382843021,149.6482391357422,-17.35629596710205,-0.154585963487625,0.1348666012287139,0.9623353600502014,6.101449298858642,2.350870931148529,-102.471044921875,1.9767426013946532,-0.861665952205658,-21.827619552612305,-0.9758155941963194,0.2517250537872314,0.0423662541434168,87.23937225341797,76.00406951904297,-20.843969345092773,150.94093915898415,0.9872815526778764,22.59718039817365,1.0094776923711817,81.13792295455933,73.65319858789444,81.62707557678223
1786.345,-0.1416140556335445,149.59555053710938,-16.8532133102417,-0.2018506556749343,0.130158919095993,0.9450316429138184,6.0991312026977536,5.377523505687714,-102.48829498291016,1.094615602493286,-1.7783557891845705,-21.702050018310548,-0.9867938518524167,0.2412851363420486,0.0428680656477808,86.96182708740234,76.43812713623046,-21.15121879577637,150.8569170291667,0.9819488151866084,22.377857715947314,1.01736969644752,80.86269588470459,71.06060363054276,81.33707618713379
1808.642,5.821063423156739,149.8764434814453,-15.345067977905272,-0.2402645707130432,0.1246800459921359,0.9519323587417604,6.217163848876953,8.41342134475708,-102.4722412109375,0.2363322973251342,-4.15916862487793,-20.972182846069337,-0.9921384334564208,0.2515956044197082,0.0453773079439997,86.43013305664063,76.84378509521484,-21.7007251739502,151.24652447687637,0.9987617789384592,22.81153805518981,1.0252062048701778,80.21296920776368,68.43036375045777,80.77151603698731
1818.739,9.106012725830078,150.10702209472657,-13.891040706634522,-0.2898576706647873,0.1567706860601901,0.9666125059127808,6.425869750976562,11.44741849899292,-102.41392974853515,2.3126606702804566,-8.002656078338623,-19.09989948272705,-0.9932460904121396,0.2527746975421905,0.0553681068122386,85.54943542480468,77.19699096679688,-22.64864768981933,151.76079915733462,1.0281921355700725,23.67252390304814,1.0268886132508537,79.12356567382812,65.74957246780396,79.76528205871583
1841.304,5.842585563659667,150.71205444335936,-13.182154178619385,-0.3552658855915069,0.1732670463621616,0.9511719703674316,6.587815856933593,14.4927095413208,-102.32474517822266,5.799538636207581,-10.85574779510498,-18.007387351989745,-0.9881292819976804,0.2205834999680518,0.0539983503520488,84.44795989990234,77.53394165039063,-23.89427146911621,152.2066167457498,1.0341743810159527,24.093832519704307,1.0153014944131786,77.86014404296876,63.041232109069824,78.43047370910645
1864.684,5.047587966918944,150.16055908203126,-12.119211101531985,-0.4274968445301056,0.1532394804060458,0.9097775936126709,6.7422380447387695,17.523526191711426,-102.20640563964844,8.700152516365051,-12.782989978790283,-18.20533275604248,-0.9799049854278564,0.1982673540711402,0.0396367104724049,83.22348480224609,77.87887573242188,-25.327316665649413,151.6050224799326,1.0252153807068711,25.48303817752464,1.0029719199041986,76.48124675750732,60.35534954071045,76.87908897399902
1886.118,9.958121681213376,149.0311767578125,-9.819944858551024,-0.4767149031162262,0.1372813619673251,0.8966141104698181,7.016039085388184,20.530475425720216,-102.02996063232422,10.7020427942276,-14.108937644958496,-18.510413551330565,-0.9760474324226378,0.2040182217955589,0.0375199856236576,81.87368927001953,78.2157470703125,-26.929585647583007,150.42245922272272,1.037992849455873,26.92451599489753,1.0006066908782243,74.85765018463135,57.68527164459229,75.10037498474121
1908.747,12.98695774078369,147.03656921386718,-7.207025301456452,-0.5422091364860535,0.1550627231597899,0.9478176236152648,7.389817619323731,23.488257217407227,-101.77290954589844,12.776142883300782,-13.089911842346192,-17.933066368103027,-0.972874879837036,0.195828141272068,0.0364266516640782,80.6103271484375,78.53701782226562,-28.484695434570312,148.96119852812822,1.1141571476118413,26.451326253430587,0.9954264363654298,73.22050952911377,55.0487606048584,73.28821411132813
1918.858,7.748081159591673,143.96241149902343,-6.29493795633316,-0.6029305696487427,0.1783439368009566,0.9350337147712708,7.691576957702637,26.375955963134764,-101.47584533691406,13.032645416259763,-9.677069091796875,-19.06597671508789,-0.962432849407196,0.1739173397421836,0.0312853084877133,79.59369049072265,78.89287109375,-29.791911697387697,145.39352884055074,1.1345068355939545,25.35459706685932,0.980880552386567,71.90211353302001,52.51691513061523,71.68393363952637
1944.908,4.724515485763549,140.17881774902344,-6.36302934885025,-0.6567799091339112,0.1468891069293021,0.8624596714973449,7.932548999786377,29.180360412597658,-101.1741928100586,11.14065761566162,-7.030697059631348,-20.05268440246582,-0.969580614566803,0.1894101202487945,0.0094445494934916,78.80208282470703,79.26567230224609,-30.83329048156738,141.87924439601724,1.1029143714521337,24.908497498804365,0.9897994173288318,70.86953382492065,50.08531188964844,70.34090232849121
1966.205,8.812676191329954,136.6620666503906,-4.63086906671524,-0.687376070022583,0.1408701717853545,0.8346925616264343,8.291580295562744,31.909312438964843,-100.81836700439452,8.325210428237915,-5.750656294822693,-19.040924072265625,-0.9831749081611634,0.2046562492847442,0.0097043430432677,78.07706298828126,79.61114196777343,-31.74914131164551,138.2487579186147,1.1043044457348103,22.65732373661758,1.0055917015096836,69.7854826927185,47.7018295288086,69.06922569274903
1986.218,11.5881507396698,134.56256713867188,-2.434121477603912,-0.7156977176666259,0.165504416823387,0.8646374821662903,8.769679260253906,34.58430938720703,-100.36914672851564,5.687096428871155,-5.440416884422302,-17.69611873626709,-1.004390501976013,0.1884582698345183,0.0240414632484316,77.25350494384766,79.93365020751953,-32.70845718383789,136.60935235084767,1.1475390310102132,20.72004172747848,1.0234756831453622,68.48382568359375,45.3493408203125,67.66068954467774
2008.7670000000005,7.68657488822937,132.17886047363282,-2.570888638496399,-0.7317107319831848,0.1769659221172332,0.8518410801887513,9.210702323913576,37.19127616882325,-99.8887435913086,4.82346785068512,-7.006786131858827,-17.51810474395752,-1.0102867603302002,0.1685226172208785,0.0341209365054964,76.1271759033203,80.24579772949218,-33.95494995117188,133.51189331699712,1.1468878738230806,21.34021021951859,1.026224007409086,66.91647357940674,43.05452156066895,65.93379364013671
2028.623,4.147926521301271,130.75437927246094,-2.867121815681457,-0.7429626107215881,0.1468294531106948,0.7815119385719299,9.606280708312989,39.770590209960936,-99.37881317138672,6.137106919288636,-9.284069800376894,-18.122997093200684,-1.0122998237609864,0.1673722997307776,0.0461304327473044,74.60806579589844,80.54457092285156,-35.624436950683595,132.33760539695945,1.0952223870758622,23.363537952071315,1.0288636602942616,65.00178508758545,40.77398071289063,63.75437622070312
2038.696,5.218105697631836,130.15194702148438,-1.253284430503845,-0.7736137390136719,0.1447014525532722,0.7300046265125275,10.08909339904785,42.3304313659668,-98.78431396484376,8.145948433876038,-11.889510321617127,-18.174440574645995,-1.006796395778656,0.1541413769125938,0.0544624531641602,72.68775329589843,80.82517547607422,-37.74002532958984,131.53604871678772,1.0931290375392808,24.636156201243335,1.0211912325816648,62.598659896850585,38.49474411010742,61.04428863525391
2061.188,6.9394735336303714,130.28028259277343,0.7496755838394167,-0.8142445802688598,0.1541070103645324,0.7023730576038361,10.707375526428224,44.88360137939453,-98.06560516357422,8.517492079734803,-14.002264976501468,-18.04522075653076,-1.001570427417755,0.144121466577053,0.0624691113829612,70.4239273071289,81.0849594116211,-40.209963989257815,131.8638964980097,1.114081179181163,25.16000627620867,1.014461268809208,59.71655178070069,36.201358032226565,57.8556411743164
2078.67,6.696418571472168,129.62158203125,0.9302851915359496,-0.8525693655014038,0.1576593816280364,0.6702424585819244,11.407161331176756,47.41659774780273,-97.26828002929688,8.893373656272889,-14.149947166442876,-17.51677131652832,-0.9892183423042296,0.1362540766596793,0.0644778668880462,68.0987060546875,81.32252044677735,-42.748521423339845,131.17410834535724,1.119811792769884,24.88764342101607,1.0012519470020276,56.691544723510745,33.90592269897461,54.51975860595703
2101.186,4.252618598937988,129.0699478149414,1.4167271614074708,-0.8947482824325561,0.1598065733909606,0.6184540808200836,12.156241035461424,49.93207550048828,-96.37516784667967,8.999804663658143,-12.160338020324708,-17.57759838104248,-0.9794535756111143,0.1381384775042533,0.0616576388478278,65.94320449829101,81.5568130493164,-45.11653213500976,130.4137730383438,1.109786202390866,23.597740696178608,0.9916537965502904,53.78696346282959,31.62473754882813,51.258635711669925
2123.726,1.4149831771850585,127.83594055175782,1.7939680099487303,-0.9330844163894654,0.1583937853574752,0.5599438190460205,12.941079902648926,52.416290283203125,-95.39190368652343,6.255347609519959,-9.336505031585691,-17.484603691101075,-0.9755603909492492,0.1403942763805389,0.0503825113177299,63.98621520996094,81.7965316772461,-47.22813262939453,129.74741861879576,1.10993878455532,21.57189137947615,0.987333251267685,51.04513530731201,29.38024139404297,48.163771057128905
2138.983,0.3309185028076172,125.84920043945311,2.068574619293213,-0.9565998673439026,0.1527441143989562,0.5441182494163513,13.805712127685547,54.8533218383789,-94.32662200927734,1.3363836050033568,-7.112905585765839,-17.600561714172365,-0.977574014663696,0.133343967795372,0.0502238353714346,62.04374923706055,82.04918365478515,-49.22473220825195,127.91539770343203,1.1260667964153408,20.657182465126205,0.9885112549982544,48.238037109375,27.19586181640625,45.10188980102539
2160.981,-2.0801926612854005,122.74640197753908,1.3521135807037354,-0.9753883004188536,0.1477324604988097,0.529838091135025,14.720754814147949,57.22947235107422,-93.19120635986329,-2.375641655921936,-4.766690838336945,-18.42004985809326,-0.9793026447296144,0.1223626792430877,0.0507150014862417,60.14122314453125,82.3342041015625,-51.10565338134766,124.57717035638454,1.1371125133139628,21.68646353018887,0.9889704547670708,45.4204683303833,25.10473175048828,42.08555297851562
2183.5170000000003,-5.283079051971436,119.09698791503908,0.5440081715583801,-0.9962332248687744,0.143994116783142,0.4950795829296112,15.669966888427734,59.52486724853516,-91.99017944335938,-3.967294692993164,-2.87398909330368,-19.08656044006348,-0.9799774169921877,0.1136030659079551,0.0475533312186598,58.31991195678711,82.64502868652343,-52.872240447998045,120.42913875323195,1.1353093736318989,21.740426605451194,0.9883337905755376,42.64994506835937,23.12016143798828,39.11793899536133
2206.222,-5.868471717834472,115.6803970336914,-0.2918416857719421,-1.0024917721748352,0.1346348404884337,0.4336590945720672,16.71576099395752,61.75054397583008,-90.69924621582032,-4.567823028564453,-1.9636529803276064,-18.76273555755615,-0.9897246837615968,0.1100493475794791,0.0451828008517622,56.53806076049805,82.9519775390625,-54.58579559326172,116.9947273163972,1.1043127232181456,20.828121113728447,0.9972945150166992,39.822299766540525,21.20143356323242,36.1134506225586
2228.776,-2.027033042907714,113.31546936035156,-0.4411933779716491,-1.0147937893867494,0.1342683583498,0.4267607390880584,17.999463844299317,63.91825561523437,-89.26716766357421,-3.6719697952270502,-3.100005233287811,-16.746296310424803,-1.004971730709076,0.1060319200158118,0.0539347415789961,54.62333602905274,83.19954681396484,-56.448201751708986,113.95878397982165,1.1130524624055225,19.623915681149533,1.012410734022234,36.62387218475342,19.281291198730468,32.818965911865234
2239.029,-1.6290956497192377,110.37626037597656,-1.0062425971031188,-1.0262514114379884,0.1484704107046126,0.4270975947380065,19.46670265197754,66.02543029785156,-87.65676422119141,-1.0223051071166993,-4.505009460449219,-14.585040855407716,-1.0035728693008423,0.1025995880365371,0.0590157397091388,52.623206329345706,83.38294067382813,-58.44729385375977,111.00431120973823,1.1252868763193686,17.632261740316586,1.0108491088692988,33.156503677368164,17.357510375976563,29.20947036743164
2260.994,-5.04159002304077,106.10113372802736,-2.2310259699821477,-1.0348976373672485,0.1473913609981536,0.4113706290721893,21.01552505493164,68.03875122070312,-85.91885375976562,0.8079341888427735,-4.734650135040283,-13.92167682647705,-0.990790069103241,0.0959749393165111,0.0527758718933909,50.58726577758789,83.54964752197266,-60.51879730224609,106.84327293533356,1.1285588914715683,16.204286278888524,0.9975064309814868,29.57174072265625,15.510896301269533,25.400056457519533
2283.293,-9.679207515716552,99.4533645629883,-3.208045721054077,-1.0482255697250369,0.1402088284492492,0.3692228376865386,22.58312950134277,69.91997375488282,-84.06970977783203,-0.8167058944702148,-2.4541293382644653,-15.043765640258789,-0.9747885704040528,0.0872827224433421,0.0322990657296031,48.65235595703125,83.76888580322266,-62.45842819213867,100.1937227452012,1.1241135082979845,18.470186142601825,0.9803399633877652,26.06922645568848,13.848912048339844,21.61128158569336
2306.056,-12.584218597412107,90.75540466308595,-3.8509528160095217,-1.0592650175094604,0.1325753986835479,0.3268002271652221,24.14932556152344,71.63308715820312,-82.1777114868164,-6.170514488220215,1.9678152799606323,-16.787770080566407,-0.9672553300857544,0.0751744084060191,0.0149488755967468,46.93331832885743,84.08032836914063,-64.07722549438476,91.7425723741707,1.1169395888454243,22.61228581318815,0.9712490458668736,22.783992767333984,12.4472412109375,18.10048599243164
2328.707,-12.267164993286134,80.8621940612793,-4.29490852355957,-1.0615249156951907,0.1341852456331252,0.3068616211414337,25.744865798950197,73.14618682861328,-80.266796875,-12.385698890686037,7.945661616325379,-18.208009910583492,-0.9678939580917358,0.0680923752486705,0.0033050728496164,45.6478157043457,84.49659118652343,-65.14034271240234,81.94796500692304,1.1133724771403188,26.447000042613144,0.9706278818851948,19.90294990539551,11.350404357910156,15.126454162597655
2338.735,-11.571092987060547,71.37949905395507,-5.253123092651367,-1.0532499313354493,0.1366660892963408,0.3005603611469268,27.31140556335449,74.46797485351563,-78.41456146240235,-17.701398658752442,13.31934506893158,-19.30113067626953,-0.975976836681366,0.0663720034062862,0.006038507586345,44.72339859008789,84.99998016357422,-65.73926849365235,72.61130931191636,1.1040737895390225,30.16896116392484,0.9786776280048012,17.4119930267334,10.532005310058594,12.67529296875
2361.6220000000003,-12.480193901062012,62.28745803833008,-6.14366512298584,-1.0429824829101562,0.1352082118391989,0.3009110689163208,28.757870864868163,75.60852661132813,-76.66327362060547,-20.92451477050781,17.653749656677245,-20.29800148010254,-0.9837993502616882,0.0627696745097636,0.0154057156294584,44.04728317260742,85.57663421630859,-66.03223876953125,63.99567395588518,1.0942006529071584,34.20720187206498,0.9865437023869305,15.28941230773926,9.968107604980467,10.63103485107422
2385.925,-14.459709167480469,54.0316520690918,-6.515283679962158,-1.0327564239501954,0.1336432769894599,0.2939286947250366,30.0506160736084,76.58788452148437,-75.03768920898438,-23.37735748291016,20.64000396728516,-21.351619720458984,-0.9908491849899292,0.058123518526554,0.0291213970631361,43.43215637207031,86.21231842041016,-66.22875366210937,56.6305983177708,1.0823354559834963,37.84515387457266,0.9934837404514348,13.381540298461914,9.624433898925782,8.808935546875
2408.5260000000003,-15.27556610107422,47.08724136352539,-6.475505447387695,-1.0318845510482788,0.1323273196816444,0.2776490062475204,31.23257331848145,77.435986328125,-73.51308135986328,-25.90258445739746,22.455400466918945,-21.6356746673584,-1.0015607833862306,0.0529750168323516,0.0405881378799676,42.91548843383789,86.89098815917968,-66.3003143310547,50.26141205952116,1.077117539073429,40.645675167973806,1.003973290609557,11.682915115356446,9.455001831054688,7.212767028808594
2418.475,-15.943110084533693,41.16995429992676,-6.516609573364258,-1.0368115186691285,0.1294581547379493,0.2653705269098281,32.293866348266604,78.17482147216796,-72.10299987792969,-28.522369384765625,23.18262405395508,-20.886232376098636,-1.0095547318458555,0.0514577597379684,0.0408789966255426,42.907022857666014,87.61155700683594,-65.85099792480469,44.8427125633857,1.0786930803038657,42.571362925105845,1.0118441774562084,10.613156509399412,9.436735534667967,6.252001953125
2448.607,-16.391561889648436,35.079925537109375,-6.399699306488037,-1.0402085781097412,0.1331602439284324,0.2593248724937438,33.190599060058595,78.79945220947266,-70.85517730712891,-31.24550437927246,23.671191787719728,-19.746212768554688,-1.0140697121620177,0.0508675709366798,0.0313359141349792,44.19659652709961,88.38163909912109,-64.1255859375,39.39117179471162,1.0809824521357048,44.31584605999019,1.0160372234929906,11.005997467041016,9.582186889648437,6.729591369628906
2468.433,-16.01902084350586,29.51837921142578,-6.147360897064209,-1.040119171142578,0.1438211798667907,0.2562284409999847,33.93887176513672,79.3195083618164,-69.76917572021485,-33.95889663696289,23.333052825927734,-18.115020751953125,-1.0240756034851073,0.0474396992474794,0.0279028058052062,48.22191390991211,89.02010040283203,-59.78976440429688,34.236225355296696,1.081437432697802,45.318745331293016,1.025794950515979,14.28304214477539,9.700592041015623,9.979411315917968
2478.258,-14.988834571838378,24.539560890197755,-5.793452358245849,-1.0392077445983887,0.1587932318449019,0.270117574930191,34.55736083984375,79.75869598388672,-68.83865051269531,-34.2838249206543,21.18246459960937,-15.600067520141602,-1.0303673982620238,0.0386913762427866,0.0271308057010173,58.08616180419922,89.5073455810547,-49.8930591583252,29.552084359918677,1.0867974760578858,43.34430335433491,1.0319177091780192,23.52880096435547,9.748649597167969,18.94559135437012
2500.958,-15.316543006896971,19.60486125946045,-5.434827375411987,-1.0342963695526124,0.1743159025907515,0.2993187695741653,34.96496734619141,80.11656799316407,-68.1167495727539,-31.22089347839356,18.21271743774414,-12.773448276519776,-1.025105547904968,0.0268579219467938,0.0229584302753209,80.39158096313477,89.83553009033203,-26.61506233215332,26.175396361728115,1.0929145029998384,38.36182273538893,1.0263833046704391,45.42661361694336,9.718962097167967,41.50168724060059
2523.504,-17.48266181945801,13.690915310382843,-4.6883180141448975,-1.0294885158538818,0.1851254135370253,0.3200329631567001,35.04036407470703,80.36602172851562,-67.68730316162109,-26.279629707336422,14.798811626434324,-10.087390804290772,-1.0185327529907224,0.0134434156585484,0.0193485846742987,106.52643127441408,90.0,0.6374950408935547,24.495397878905727,1.0950924101973425,31.82201116805585,1.0193098684210729,71.48606719970704,9.633978271484375,68.32479820251464
2549.136,-20.61582355499268,7.077989494800569,-3.5030683040618897,-1.0357263326644897,0.179979634284973,0.324794214963913,34.72154006958008,80.49026794433594,-67.59234008789062,-21.186014556884764,11.850250625610352,-7.579997372627258,-1.0137401580810546,-0.0013329545501619,0.011424390412867,60.76853256225586,90.0,27.890911483764647,24.814271837624773,1.1015394149999989,25.48598313978483,1.0142145934215776,26.04699249267578,9.509732055664063,95.48325157165527
2559.061,-23.93852481842041,-0.9706379771232612,-2.418957829475403,-1.0478750467300415,0.1713212087750434,0.3154134631156921,33.92588424682617,80.47148742675782,-67.91190643310547,-17.93521614074707,9.618053817749024,-5.063018000125885,-1.0073402643203733,0.0011151374783367,-0.0166941998526453,84.15665740966797,90.0,52.29734153747559,26.9706582877973,1.1098234088958123,21.137681985261757,1.0089940596009537,50.2307731628418,9.528512573242187,120.20924797058106
2580.718,-27.65442657470703,-10.523232924938204,-1.9525940656661984,-1.0590136528015135,0.1637335553765296,0.291543310880661,32.54641838073731,80.27369537353516,-68.74686889648437,-19.021211624145508,10.135577774047851,-3.788841116428375,-1.0026724576950072,0.0036215858999639,-0.0462971633300185,30.628237915039065,90.0,72.04756317138671,32.13633733650763,1.112808775276926,22.03293666381289,1.0053283308178615,-1.9181804656982364,9.726304626464843,140.7944320678711
2603.402,-31.340621185302734,-20.879326140880583,-2.261690640449524,-1.0677281141281127,0.1431214034557341,0.2551829218864441,30.54617500305176,79.89073486328125,-70.13643035888671,-23.90596694946289,11.489760589599609,-3.4257840752601623,-1.0052533149719238,0.0054384853225201,-0.0624329352751374,-34.714169311523435,89.83533935546875,79.07726135253907,39.641596096526136,1.1083637969763374,26.834631403741184,1.0082767535231567,-65.26034431457519,9.9446044921875,149.21369171142578
2625.8430000000003,-32.70428581237793,-31.908693408966062,-2.8351256608963014,-1.0814167976379394,0.1101023711264133,0.2467146694660186,28.01664505004883,79.31091766357422,-72.03576354980468,-28.313222694396973,14.98106927871704,-4.241581690311432,-1.0100376605987549,-0.0030474580824375,-0.076223487406969,-103.74254760742188,89.51871185302734,82.28540496826172,47.34291234778191,1.1155727773934268,32.464701682559806,1.013613979766776,-131.7591926574707,10.207794189453123,154.3211685180664
2648.325,-32.21781997680664,-43.572686767578126,-3.057610249519348,-1.083554482460022,0.098391830176115,0.2705450117588043,25.182331466674807,78.50663757324219,-74.2574966430664,-32.38973808288574,18.416453170776368,-6.0657527327537535,-1.0122500658035278,-0.0111903292126953,-0.0827715963125228,-101.4524871826172,89.07344512939453,84.96645812988281,55.34510589408613,1.123528568829975,38.05717164397365,1.0163821843834668,-126.634818649292,10.566807556152344,159.2239547729492
2658.453,-32.913888168334964,-55.18799819946289,-3.847816228866577,-1.0767098903656005,0.0927370645105838,0.291659790277481,22.163998794555663,77.47524871826172,-76.66570739746093,-34.976955795288085,21.315254974365235,-8.557033443450928,-1.009353268146515,-0.0189707111567258,-0.0738090753555297,-170.50369262695312,88.50823364257812,88.46600494384765,65.05686918053286,1.1219526193325795,42.22940602776855,1.012601717556778,-192.6676914215088,11.032984924316406,165.1317123413086
2681.458,-30.93491973876953,-65.79467391967773,-4.421145248413086,-1.0737635374069214,0.0757496364414691,0.3073135197162627,19.198650550842284,76.2334228515625,-79.08128356933594,-33.478987503051755,21.95467567443848,-8.996757793426514,-1.0118307232856751,-0.0162140091881155,-0.0654558569192886,-168.41403503417968,87.85051116943359,91.13282012939452,73.52564010489559,1.1213393061279386,41.37079129663401,1.014385465863225,-187.612685585022,11.617088317871094,170.21410369873047
2703.249,-24.855391407012934,-75.56996078491211,-4.129411029815674,-1.068254041671753,0.0739296399056911,0.3487510561943053,16.55551052093506,74.77451019287109,-81.31485443115234,-29.130786514282228,21.867158508300783,-7.480142736434937,-1.0179073929786682,-0.0173800020478665,-0.0622296549379825,-167.3430145263672,87.2888687133789,92.71962890625,80.70751708566405,1.12759780057127,37.45363895171312,1.0202855007386815,-183.89852504730223,12.514358520507812,174.03448333740235
2725.7380000000003,-18.977464294433595,-84.10400390625,-3.418194603919983,-1.0565195083618164,0.0880408808588981,0.4012470304965972,14.340639686584472,73.11502380371094,-83.25026397705078,-25.39769344329834,19.44330711364746,-4.571541357040405,-1.0211717247962953,-0.0143996897153556,-0.0521998718380927,-167.35489807128906,86.84190979003907,93.16967163085936,87.49039197811344,1.136078257675896,33.07023898808304,1.0230765872071617,-181.69553775787352,13.726885986328124,176.41993560791016
2748.773,-14.900483322143554,-91.71392974853516,-3.155967092514038,-1.0521461963653564,0.090089577436447,0.4396019458770752,12.477296447753906,71.29009857177735,-84.91849060058594,-20.40860433578491,15.84845552444458,-0.9629756450653076,-1.0213206648826598,-0.009889072086662,-0.0475795112550258,-168.38927307128907,86.50560455322265,92.50937042236328,93.96589000901947,1.1481158533579945,27.14495194850524,1.0228040709120203,-180.86656951904297,15.215505981445313,177.42786102294923
2759.894,-10.338092803955078,-98.65911407470703,-2.466942381858826,-1.05185546875,0.0893070831894874,0.4745003044605255,10.976455688476562,69.31645355224609,-86.31153259277343,-13.944690179824828,12.022348594665528,3.3086063861846924,-1.026309275627136,-0.0148358568549156,-0.0422194547951221,-170.28598327636718,86.27703094482422,90.86463623046876,99.55998595115548,1.160972096523407,20.775913708929995,1.027593785042474,-181.2624389648437,16.960577392578124,177.1761688232422
2783.846,-6.8025205612182615,-105.36695098876952,-1.619911301136017,-1.0502468585968017,0.0896700963377952,0.506788969039917,9.78459997177124,67.20303878784179,-87.44241180419922,-7.634017038345337,8.818797206878662,6.91530966758728,-1.0259945154190064,-0.0218508347868919,-0.043126007169485,-172.69939270019532,86.12649536132812,88.58023681640626,105.63884969590538,1.1707525619702952,16.517572082412148,1.0273277718045468,-182.48399267196655,18.923456573486327,176.02264862060548
2805.57,-5.1255146026611325,-112.40559844970704,-0.7834611296653747,-1.057736349105835,0.0877529934048652,0.5441615104675293,8.811628055572509,64.94857330322266,-88.37183532714843,-2.704880571365357,6.685742282867432,9.17327709197998,-1.0161688923835754,-0.0164757970720529,-0.0537006705999373,-103.3845001220703,86.01392211914063,85.92674560546875,112.63502469779624,1.1933928995515548,13.80661309716715,1.0183159776092066,-112.19612817764283,21.065348815917968,174.2985809326172
2825.7870000000003,-4.452795839309692,-120.48549041748046,-0.3738244414329529,-1.0663585901260375,0.0878548085689544,0.5635737180709839,7.985050773620605,62.54506759643554,-89.1598403930664,-0.2321765422821046,6.093831539154052,10.111161231994627,-1.0043077707290649,-0.0061134774237871,-0.0699000649154185,-34.13664855957031,85.89751281738282,83.15668029785157,120.7068874166106,1.2102645063815525,12.579816605005222,1.0073407996624644,-42.12169933319093,23.352445220947267,172.31652069091797
2849.239,-3.078148889541626,-129.02029724121093,-0.2678897738456726,-1.0675517082214356,0.0787771575152873,0.5826145291328431,7.284029197692871,59.98551635742187,-89.8543930053711,-0.6030943393707278,7.149216842651367,10.76930923461914,-1.0001604318618775,0.002154710330069,-0.0784185215830802,35.05755615234375,85.74731750488282,80.3391616821289,129.17529441224832,1.2205687840770798,13.814190427955566,1.003720318424517,27.77352695465087,25.761801147460936,170.1935546875
2859.1510000000003,-1.060759687423706,-137.53164825439453,-0.2225116848945617,-1.060030460357666,0.0717573091387748,0.6163285374641418,6.70195894241333,57.26444091796875,-90.47266845703126,-2.7347815513610847,8.528463268280028,11.516222190856933,-0.9956555128097534,0.0147574665024876,-0.0862197399139403,104.14984741210938,85.55519104003906,77.46091766357422,137.5710482014975,1.2306021231377966,15.749147386077444,0.999696692553063,97.44788846969604,28.290750122070317,167.93358612060547
2889.195,0.5556395530700684,-145.8420379638672,-0.4309338808059692,-1.0439943313598632,0.0630096618086099,0.6669776916503907,6.208287906646729,54.37946548461914,-91.05601501464844,-5.013980007171631,10.220394325256349,12.166079330444337,-0.9941283226013184,0.0211968211457132,-0.0841988123953341,173.28114013671876,85.31821746826172,74.66644897460938,145.8571824897201,1.242193511904419,17.234345489605108,0.9980446756398432,167.07285223007202,30.93875198364258,165.72246398925782
2899.306,1.2169272422790527,-153.75055236816405,-0.6958966016769409,-1.011879599094391,0.0536781344562768,0.6986433148384095,5.7727131843566895,51.34417343139648,-91.60756225585938,-7.1980572700500485,11.50442085266113,12.693317222595216,-0.9958635926246644,0.0188461476936935,-0.0774221591651439,170.5942169189453,85.04842529296874,72.09796142578125,153.78029829277764,1.2330129848928109,18.68800929130473,0.9991819927502158,164.82150373458862,33.70425186157227,163.7055236816406
2919.271,2.7621946811676024,-160.40790710449218,-0.4322279930114746,-0.9723158478736876,0.0431028228253125,0.7370797276496888,5.418237590789795,48.18063888549805,-92.11825256347656,-8.085426330566406,12.437141227722169,13.90404987335205,-1.0022274017333983,0.0176429336890577,-0.0690834015607833,167.96361694335937,84.75257415771485,69.60350494384765,160.48185553807846,1.2236120982755354,20.41186976200317,1.004887921892727,162.54537935256957,36.5719352722168,161.7217575073242
2940.574,3.856561040878296,-166.18623046875,-0.0722044825553894,-0.9360060811042784,0.0588559258729218,0.7833627223968506,5.152148151397705,44.90482864379883,-92.5741943359375,-7.016320562362671,13.19577751159668,15.707865524291991,-0.9990371465682985,0.0234841313213109,-0.0662416949868201,165.29613647460937,84.4271469116211,67.05021820068359,166.26778980881957,1.2258169945566462,21.904375737022235,1.0016578537749248,160.14398832321166,39.52231826782226,159.6244125366211
2959.249,3.0189820766448974,-171.30178833007812,-0.5535498023033142,-0.9003668069839478,0.0572297502309083,0.8043931365013123,4.909809017181397,41.53047561645508,-93.00922851562498,-5.8258466720581055,14.772896575927737,17.43881492614746,-0.9948760747909544,0.0247957583516835,-0.0694456964731215,162.7319793701172,84.0526138305664,64.57635726928712,171.40513587158156,1.211103701011813,23.78141726121436,0.997841673554572,157.8221703529358,42.52213821411133,157.5855857849121
2980.517,3.403948402404785,-175.98518981933594,-1.0883614420890808,-0.8582094550132752,0.0507320102304219,0.8233340501785278,4.71372013092041,38.06074600219726,-93.42181091308592,-4.443141520023346,16.415529632568358,19.66968955993652,-0.9916384458541868,0.0351309094578027,-0.0768008612096309,160.2170440673828,83.61875,62.12350845336914,176.1032609937575,1.1922057506499637,26.32717359902508,0.9956349686006972,155.5033239364624,45.558003997802736,155.5453193664551
3002.8830000000003,5.189517688751221,-179.93685607910157,-1.3043773531913758,-0.8117233157157898,0.0528082776814698,0.8529824376106262,4.585767459869385,34.52098007202149,-93.8142837524414,-2.6583057880401606,18.13556785583496,22.67741470336914,-0.9956600427627562,0.0492598913609981,-0.0779004134237765,157.66851806640625,83.11975402832032,59.59984436035156,180.1516267353776,1.1813347963117111,29.42543190579254,1.0002531460998596,153.08275060653688,48.59877395629883,153.41412811279298
3019.308,5.730021953582764,-183.53070373535155,-1.971793782711029,-0.7561159014701844,0.0502289552241563,0.8642237424850464,4.486224365234375,30.9201416015625,-94.20640411376954,-0.6412225723266599,19.50451240539551,25.109888076782227,-0.9969486474990844,0.0601139560341834,-0.0877027183771132,155.22076110839845,82.56164093017578,57.13574752807617,183.768800960456,1.1535037943359967,31.926278423004657,1.0027692580392942,150.73453674316406,51.64149932861328,151.3421516418457
3041.938,7.375881195068359,-186.2916473388672,-2.201963829994201,-0.6855729222297668,0.0372317042201756,0.8737098932266235,4.435332870483398,27.27038917541504,-94.59414215087892,1.3322206020355227,20.892916107177733,27.28456687927246,-1.009546422958374,0.0621097914874553,-0.0847511008381843,152.94461669921876,81.95555114746094,54.803401184082034,186.59924300794503,1.1181755045253463,34.61666084835806,1.01523119494775,148.50928382873536,54.6851619720459,149.39754333496094
3062.8250000000003,10.178696155548096,-187.9945770263672,-1.051864743232727,-0.6123730361461639,0.0475116912275552,0.8945191502571106,4.478218936920166,23.584257888793942,-94.94683685302736,3.482347774505615,20.503210830688477,28.59795150756836,-1.018987131118774,0.0611238338053226,-0.0796139106154441,150.81615600585937,81.34499053955078,52.5751953125,188.31911693514425,1.0909378160378955,35.52180975815517,1.0241820849501426,146.3379370689392,57.76073265075684,147.52203216552735
3085.351,11.184599113464357,-188.69119262695312,-0.4222018003463745,-0.5330737650394439,0.0524731408804654,0.9092449426651,4.566230297088623,19.89522609710693,-95.2816665649414,6.139222776889801,18.03947372436523,29.90503234863281,-1.028132891654968,0.0769907526671886,-0.0771683633327483,148.7101257324219,80.75506744384765,50.31384201049805,189.0416759001137,1.059866776024618,36.098888936672594,1.0346874437764062,144.14389543533326,60.85984134674072,145.59550857543945
3107.616,11.773637199401856,-188.58050231933595,0.0764873504638672,-0.4639732837677002,0.0603380251675843,0.9148783922195436,4.692832183837891,16.211093139648437,-95.6041534423828,10.593734884262084,13.732940798997875,31.92945785522461,-1.0225213408470153,0.0880937002599239,-0.0840841352939605,146.52701416015626,80.19794616699218,47.8799072265625,188.9817802747215,1.031717535892431,37.93001623711227,1.0308468169185203,141.83418197631835,63.98685302734375,143.48406066894532
3118.838,11.558364868164062,-187.7629547119141,0.331977716088295,-0.4062559425830841,0.0714910786598919,0.933583962917328,4.84088020324707,12.53141965866089,-95.92176361083986,15.132593822479247,8.173553019762036,34.55464973449707,-1.0219999194145202,0.09101829752326,-0.0732667744159698,144.0975372314453,79.6913818359375,45.0993537902832,188.15213497364635,1.0240044242439152,40.73028504297413,1.029774259765634,139.25665702819825,67.15996217727661,141.02111740112304
3140.737,7.8786214828491214,-187.11158142089843,0.1117967277765274,-0.352031272649765,0.0765914160758256,0.9249340891838074,4.938115406036377,8.852409482002258,-96.24549407958985,19.37640008926392,0.5129233658313737,36.42675361633301,-1.020815622806549,0.0954010039567947,-0.0839354842901229,141.35699157714845,79.25990142822266,41.90140762329101,187.44293630079972,0.9957717145452124,43.394506833855374,1.0297431801825625,136.41887617111206,70.4074919462204,138.14690170288085
3160.295,5.407342958450317,-185.8599609375,-1.0576367229223251,-0.2920789211988449,0.0591811597347258,0.9076448678970336,5.000732517242431,5.192375445365906,-96.5931625366211,24.719298934936525,-6.337804096937181,39.09513549804687,-1.0178770422935486,0.1246134296059608,-0.0973832607269286,138.2566650390625,78.86133270263672,38.22499046325684,186.1659191637904,0.9577814775787457,47.83975624915216,1.0312514646074975,133.25593252182006,73.66895725727082,134.81815299987792
3182.186,6.3942625522613525,-184.51626892089843,-1.220862564444542,-0.2436551064252853,0.062535474076867,0.9129239201545716,5.111557960510254,1.5436658620834351,-96.94373779296876,27.50797386169433,-12.324466007947922,41.26244583129883,-1.009775698184967,0.1252811357378959,-0.1035904735326766,134.92071533203125,78.48534393310547,34.24562301635742,184.8885192217064,0.9500351095940462,51.71481667546749,1.023977988906243,129.809157371521,76.94167807102204,131.18936080932616
3202.803,6.571313333511353,-183.1575012207031,-1.8042965978384016,-0.1880104735493659,0.0583245072513818,0.913572096824646,5.2465770721435545,-2.094901490211486,-97.31134796142578,28.263948822021483,-18.017276191711424,42.04178237915039,-1.0158061027526857,0.1350332394242286,-0.1020452305674552,131.41221466064454,78.13027801513672,30.06915321350097,183.55507528995724,0.9383817496113372,54.216138625459664,1.0312094235245373,126.16563758850096,80.22517950534821,127.38050117492676
3225.4700000000003,6.673155641555786,-182.1910705566406,-2.9498639822006227,-0.1276568167842924,0.0391444006934761,0.903156077861786,5.410530471801758,-5.715736889839173,-97.7105438232422,29.251457595825197,-23.579833984375,41.9250732421875,-1.0152876138687132,0.1492361053824424,-0.115111482143402,127.79588165283204,77.78706817626953,25.755763244628906,182.6153857598925,0.9174135607156432,56.728952914545154,1.033421137324085,122.38535118103027,83.5028050661087,123.4663070678711
3247.9010000000003,9.8486168384552,-180.1504638671875,-3.6890451669692994,-0.0614321106113493,0.0404525125399231,0.8616726279258728,5.6688008308410645,-9.282374143600464,-98.13675384521484,29.07348937988281,-27.48435668945313,41.59743957519531,-1.007862043380737,0.1678383558988571,-0.1133963868021964,124.1124053955078,77.43540802001954,21.38197174072265,180.62179780185187,0.8702670551591531,58.246087055782006,1.028149830130077,118.44360456466674,86.71778216362,119.5187255859375
3258.024,15.331685829162598,-176.8809051513672,-3.5578484773635863,-0.0199552663601934,0.0658196268603205,0.8482534527778626,6.065114116668701,-12.781848621368407,-98.57836303710936,28.707603454589844,-31.10104103088379,40.937765502929686,-1.0087501764297484,0.1680786430835724,-0.1109570190310477,120.43409576416016,77.08375701904296,17.014412498474123,177.6730833364842,0.8559070272004288,59.20354290285725,1.0287540752766209,114.36898164749144,89.86560564041137,115.5927755355835
3288.051,17.281390571594237,-173.8232208251953,-3.6850642919540406,0.0364395461045205,0.0696413619443773,0.8439007878303528,6.5315672874450685,-16.214969062805174,-99.0487335205078,29.834574127197264,-33.162452697753906,39.87045745849609,-1.0074350595474242,0.181665900349617,-0.1032968536019324,116.89649810791016,76.71538696289062,12.763188552856445,174.84858997590658,0.8522422743349563,60.0012162442858,1.0292096087777316,110.36493082046508,92.9303560256958,111.81192207336426
3308.299,15.552630043029785,-170.2034912109375,-3.521635627746582,0.1062397248111665,0.0872017307206987,0.8134743571281433,7.00191297531128,-19.56284980773926,-99.5464111328125,30.223397064208985,-34.03693771362305,37.884515380859376,-0.9966197729110716,0.1776291579008102,-0.1012086063623427,113.62096557617188,76.34156646728516,8.7664794921875,171.09731575081094,0.8331212593165027,59.28553799026359,1.0177301355730726,106.6190526008606,95.90441627502442,108.312890625
3318.0,12.445228004455569,-165.12872619628905,-2.961441707611084,0.1656191334128379,0.1105511404573916,0.7560483574867248,7.448977375030518,-22.801500701904292,-100.06089630126954,30.29293785095215,-32.859887313842776,33.6164779663086,-0.9735041379928588,0.1851205259561538,-0.1008623868227004,110.761376953125,75.98785552978515,5.190486812591553,165.9609285525052,0.790394411895698,56.17681215027015,0.9964779215379058,103.31239957809449,98.78935623168944,105.25138311386108
3342.998,10.382080340385436,-159.79188537597656,-2.819724178314209,0.2187639817595481,0.1140992678701876,0.7496158957481385,7.890220165252685,-25.934349822998048,-100.59739837646484,30.1938045501709,-31.778293991088866,29.47050094604492,-0.9719528794288632,0.2016417056322098,-0.095280073583126,108.2362045288086,75.6608642578125,1.956705141067505,160.56876391795944,0.8000187214590294,53.216785080027805,0.9979059950850342,100.34598436355591,101.59521408081056,102.55410351753235
3358.37,7.541005206108093,-155.16281127929688,-2.511763429641724,0.2933466047048568,0.1151862062513827,0.7622429728507996,8.310127353668213,-28.95948486328125,-101.15386047363282,30.327859115600585,-33.49880409240723,26.445854949951173,-0.9799129366874691,0.2227363228797912,-0.0810166426002979,105.77892150878908,75.3579315185547,-1.2135607242584228,155.66557227835483,0.8315100694207895,52.90892778373251,1.0091316566690145,97.46879415512085,104.31741638183594,99.9402997493744
3380.433,2.801902163028717,-149.28677368164062,-2.433235788345337,0.3503285527229309,0.1383328244090079,0.7283251643180847,8.678182983398438,-31.85566864013672,-101.73381958007812,30.99704704284668,-35.97118797302246,24.60083770751953,-0.9783207058906552,0.2318192213773727,-0.079376945644617,103.3511459350586,75.0634750366211,-4.372833490371704,149.44834025103793,0.8218150274273294,53.81475665858229,1.0096267830900334,94.67296295166015,106.9191436767578,97.36098608970642
3402.711,-0.85810741186142,-143.09161987304688,-3.684180927276612,0.3886788427829742,0.1293202787637709,0.6828724622726441,9.019913482666016,-34.634664154052736,-102.35975189208985,31.408104705810548,-37.70207481384277,22.279239654541016,-0.9557091116905212,0.2446273863315581,-0.0759982518851756,100.97632598876952,74.77994079589844,-7.49053692817688,143.2855288553698,0.7997142067591679,53.98752141755888,0.9898869815933604,91.95641250610352,109.41460494995115,94.86921496391297
3425.338,-0.2932805895805363,-137.2653564453125,-4.3951739311218265,0.4287647724151611,0.1242384001612662,0.6536197125911712,9.416304779052734,-37.3063289642334,-103.02200775146484,29.6518253326416,-37.9320068359375,20.17805709838867,-0.9431185483932496,0.2551102817058562,-0.0727983482182025,98.66241149902342,74.50813751220703,-10.51266589164734,137.47648297717836,0.7978754692886743,52.33592166399357,0.9799948608899848,89.2461067199707,111.81446647644044,92.50934185981752
3447.873,2.268589341640472,-131.4723342895508,-4.092588472366333,0.471616268157959,0.1308927461504935,0.6425057828426362,9.900653839111328,-39.86406326293945,-103.70321655273438,27.112523078918457,-37.53263740539551,17.922288703918458,-0.9456957459449769,0.2658440411090851,-0.0625901348888873,96.4101089477539,74.25332336425781,-13.420816898345947,131.8009053361526,0.8139937739697414,49.96679258256909,0.984882946868417,86.50945510864258,114.11738662719726,90.28239965438844
3457.8250000000003,1.5929056525230407,-125.54909057617188,-4.174046659469605,0.5144990682601929,0.1363409295678138,0.6255357444286347,10.41116428375244,-42.302652740478514,-104.41293792724608,23.340858459472656,-35.7806941986084,16.20267219543457,-0.9326471567153932,0.261739057302475,-0.061030601710081,94.32428741455077,74.00034027099609,-16.08251533508301,125.8496201329763,0.8244922937287551,46.16849966073735,0.971157346663502,83.91312313079834,116.3029930114746,88.33042259216309
3480.136,-2.262493181228637,-119.74385681152344,-4.754475355148315,0.5587416172027588,0.1346883937716483,0.5880916655063629,10.895332717895508,-44.635328674316405,-105.16649017333984,19.682138442993164,-31.640456771850587,12.145963287353515,-0.9153174638748168,0.2546248078346252,-0.0581051960587501,92.55472412109374,73.79994506835938,-18.342178535461425,120.401472496707,0.8241753196465685,39.53213701129459,0.9524396651386822,81.65939140319824,118.43527374267578,86.82431163787842
3502.489,-5.979328775405884,-113.7290756225586,-4.974264097213745,0.5959376156330108,0.1382467061281203,0.5628874063491821,11.355937194824218,-46.8531967163086,-105.95653839111328,16.86465187072754,-27.398300552368163,8.376116085052491,-0.9274157881736756,0.261263108253479,-0.055296242982149,91.08631439208985,73.65335845947266,-20.231858825683595,115.06760293029863,0.8355216528308285,33.543095882146005,0.9656096233962524,79.73037719726562,120.50655517578124,85.72467956542968
3525.252,-8.959176158905029,-107.3107894897461,-4.848638296127319,0.6454568266868591,0.1362301141023635,0.5416972696781158,11.786597633361817,-48.94017562866211,-106.76100463867188,15.214322280883788,-24.34486198425293,6.523279285430908,-0.9469066262245178,0.266505342721939,-0.0451617464423178,89.80609283447265,73.53644714355468,-21.89110984802246,108.95156345336872,0.8629860728426347,29.843471836927485,0.9849582919242984,78.01949520111084,122.4766227722168,84.86989479064941
3545.2870000000003,-11.108901739120483,-100.43104553222656,-4.617782044410705,0.6890055537223816,0.1334196671843528,0.5296396553516388,12.186533164978028,-50.89433670043945,-107.5632568359375,13.9369966506958,-21.571417808532715,6.04867582321167,-0.9473878502845764,0.2625891268253326,-0.0459077171981334,88.71138763427734,73.42037048339844,-23.331462478637697,101.94726434112432,0.8869062299845982,26.760891762649266,0.984326707299017,76.52485446929931,124.3147071838379,84.2317943572998
3567.518,-13.240848302841188,-93.69764709472656,-4.545772099494934,0.717139732837677,0.1308553144335746,0.5000357329845428,12.559019660949708,-52.71943740844726,-108.36674346923829,11.99862575531006,-13.94912486076355,4.314696502685547,-0.9373275876045228,0.2684402883052825,-0.0394467322155832,88.10236511230468,73.33256530761719,-24.22466468811035,95.21015397009204,0.8866910967428652,20.286551288516584,0.9761563922736493,75.54334545135498,126.05200271606444,84.14207878112794
3578.334,-13.298041677474975,-86.92076568603515,-4.621526837348938,0.7379379391670227,0.1378352835774421,0.4805048108100891,12.959756660461426,-54.40723953247071,-109.18461761474607,9.16564598083496,-7.438334989547729,3.826237869262696,-0.945372235774994,0.2840191423892975,-0.0390175303444265,87.88742370605469,73.25194396972657,-24.648170471191406,88.61367636599215,0.8936536563720384,16.47189350655887,0.9882009463882556,74.92766704559327,127.65918350219728,84.53644714355468
3600.796,-12.039012670516968,-80.49394226074219,-4.334271168708801,0.7609532356262207,0.1375206723809241,0.4654533207416534,13.39876594543457,-55.967767333984376,-110.0004104614258,5.281454992294312,-1.9933582782745365,5.2103194236755375,-0.9449947953224184,0.2974476099014282,-0.0350827438756823,87.95211029052734,73.13912658691406,-24.697520065307614,82.08634410137093,0.9061396477229656,13.877035148045218,0.9916573469970886,74.55334434509277,129.10689392089844,85.30289039611816
3622.609,-9.04600396156311,-74.53641357421876,-3.99113609790802,0.778093695640564,0.1390286356210708,0.4758065640926361,13.899229812622073,-57.40910949707031,-110.80504455566408,2.0995038986206054,1.838644313812256,6.532184314727783,-0.9436259508132936,0.3035947501659393,-0.0323299391195177,88.20066833496094,72.99698028564453,-24.487368392944337,75.82314603005094,0.9261743831487448,11.64019129105554,0.9920720576033192,74.30143852233887,130.40608978271484,86.31767616271972
3642.605,-7.968014717102051,-69.04128341674806,-4.023015117645263,0.7889939308166504,0.1391600131988524,0.4653771817684173,14.428847503662109,-58.73494262695313,-111.60864868164064,-0.4963571548461914,6.014948463439941,6.854888153076172,-0.936492681503296,0.3037823140621185,-0.0305491970852016,88.67143096923829,72.85412139892578,-23.99056739807129,70.408150293378,0.9295004778957028,10.154044523596763,0.9852380196613482,74.24258346557617,131.5890640258789,87.61808128356934
3665.616,-7.655956888198853,-63.95248718261719,-4.10161509513855,0.8024157404899597,0.1430704355239867,0.4391776978969574,14.982835388183592,-59.96197662353516,-112.4219985961914,-2.807395172119141,8.192521238327027,7.006545066833496,-0.9387154459953309,0.2995526313781738,-0.032316843047738,89.2268295288086,72.71198425292968,-23.35604286193848,65.31336813292003,0.9273917952290608,12.125424502534951,0.9861588996640892,74.243994140625,132.67396087646483,89.06595573425292
3685.581,-6.391063737869263,-59.853929901123045,-3.0221705406904222,0.8171738624572754,0.1275866925716399,0.4347963273525238,15.518959045410156,-61.10900039672852,-113.18318786621094,-5.372476959228516,9.87764925956726,6.575645589828492,-0.9344924092292785,0.2940856099128723,-0.0268410000950097,89.81197357177734,72.57967681884766,-22.634425735473634,60.98941514074943,0.93535700713591,13.810697810964076,0.980265529372748,74.29301452636719,133.68867721557618,90.5487621307373
3707.488,-4.35886025428772,-56.3386848449707,-1.4344295591115952,0.8373465538024902,0.1202440157532691,0.4256531536579132,16.046045875549318,-62.19355010986328,-113.8823028564453,-7.252604818344116,12.062745714187622,4.278764283657074,-0.9344873666763306,0.2902924597263336,-0.0187515884637832,90.46784362792968,72.49397430419921,-21.79674301147461,57.01466754904944,0.9495095267921108,15.50544545010809,0.9788835078303356,74.42179775238037,134.6875244140625,92.0855598449707
3717.568,-3.101127576828003,-53.51891555786133,0.4043491274118423,0.852665102481842,0.1174143120646475,0.4171843230724334,16.539749908447266,-63.22953262329101,-114.51017761230467,-9.585927581787107,14.394897556304931,2.929844653606415,-0.9404070615768432,0.2897811591625213,-0.0145350838080048,91.2046875,72.43438873291015,-20.823501205444337,54.24504550699562,0.959387296876744,17.97477436487301,0.984272747921543,74.66493759155273,135.66392135620117,93.68667640686036
3740.74,-3.0182218074798586,-50.81621475219727,1.9227415949106217,0.8710642218589782,0.1137319371104239,0.3894096255302429,16.985564041137696,-64.22919006347657,-115.07738342285155,-11.84332504272461,18.077039337158205,1.0781084895133972,-0.9396527290344237,0.2909883260726928,-0.0155497787520289,92.1241668701172,72.405029296875,-19.610610580444337,51.64477665067758,0.9630374790457136,22.03708428244848,0.9839200990806622,75.13860282897949,136.63421936035155,95.46677284240722
3757.655,-2.075914096832276,-48.0481201171875,3.448673859238625,0.8885660409927368,0.1028710484504698,0.3730795264244079,17.380580520629884,-65.18768005371093,-115.5653839111328,-12.88212661743164,19.779654693603515,0.4722537875175477,-0.948328101634979,0.2984318435192107,-0.0170563558116554,93.1174331665039,72.37779998779297,-18.29757232666016,48.94033570547723,0.9702384427089265,23.863796144618554,0.9944199366518488,75.73685264587402,137.56548004150392,97.26781158447264
3780.768,0.0291366100311279,-44.79512405395508,4.572932803630829,0.9057260274887085,0.1021617710590361,0.347069102525711,17.768735504150392,-66.0976791381836,-115.99426727294922,-13.882929611206055,20.71441993713379,-0.7045882344245911,-0.9618273496627806,0.3075870811939239,-0.0170336691662668,94.1387924194336,72.36339416503907,-16.945505714416505,45.4694613314668,0.9759300338265916,25.123520188795773,1.010055503846992,76.3700569152832,138.46107330322266,99.04876155853272
3797.62,2.6328266620635987,-41.35018310546875,5.538720226287841,0.9205557227134704,0.0994864031672476,0.3326442360877991,18.15020904541016,-66.94878997802735,-116.35569915771484,-13.556178855895997,20.385912322998045,-0.3941853761672973,-0.9628439664840696,0.3118094384670257,-0.0215060418471693,95.13912506103516,72.33512268066406,-15.673272895812987,41.926944727120656,0.9855697277151312,24.672666760720805,1.0124231784277715,76.988916015625,139.2839126586914,100.68242626190184
3820.789,4.900501108169555,-37.39512596130371,5.970690822601318,0.9312814950942994,0.099786503612995,0.3097675800323486,18.53093566894531,-67.73233947753906,-116.66369171142578,-12.491472244262695,18.29635353088379,-0.0639815092086792,-0.9574108362197874,0.3161938369274139,-0.022223069705069,96.0157958984375,72.29747009277344,-14.603662490844728,38.80102835885644,0.9879449478931464,22.57772355669641,1.0086595087395718,77.48486022949218,140.0298095703125,102.06002922058106
3843.292,6.206646966934204,-33.86242179870605,6.245208930969239,0.934264075756073,0.1018979936838149,0.298388648033142,18.89640007019043,-68.44849548339843,-116.92464294433594,-10.74276647567749,13.89115376472473,1.0728558778762818,-0.951061427593231,0.3198741734027862,-0.0223106740042566,96.63500671386718,72.23929443359376,-13.886288070678711,35.898623701005576,0.9871013767159356,18.21838366314615,1.003736519210818,77.73860664367676,140.6877899169922,103.03835487365724
3857.644,6.686724090576172,-30.599248504638677,6.391258239746094,0.937793469429016,0.103144498169422,0.2864092528820037,19.234484481811524,-69.102978515625,-117.14395294189453,-9.443355560302734,9.294777369499206,0.944646906852722,-0.9437644481658932,0.3190192282199859,-0.0225633287802337,96.98758087158204,72.1908966064453,-13.521784210205078,32.78026097089675,0.9865314476914564,14.249470965818336,0.9965366802574284,77.7530963897705,141.29387512207032,103.62216873168946
3880.695,6.475363111495971,-27.47702522277832,6.563647270202637,0.94293053150177,0.0967952847480772,0.2759688824415206,19.514850234985357,-69.70045623779296,-117.30602569580078,-7.613155841827393,4.194023156166077,1.789401149749756,-0.9369663000106808,0.3173024654388428,-0.0243170676752924,97.05469360351564,72.13638763427734,-13.527501106262209,29.801243818579344,0.987857505048406,10.15973754539116,0.9895988057309604,77.53984336853027,141.83684387207032,103.77852458953858
3902.424,6.79752287864685,-24.112482833862305,6.565075969696045,0.9427584409713744,0.0944590315222739,0.2739402562379837,19.747520446777344,-70.23001251220703,-117.41031951904296,-6.469640827178955,-0.630708384513855,1.8592540502548216,-0.939607000350952,0.3201811969280242,-0.0242166971787809,96.84627075195311,72.09114990234374,-13.838457107543944,26.604949486776537,0.98703015775754,8.103927294421766,0.9930498038753084,77.09875030517578,142.32116241455077,103.57186241149904
3924.863,6.763680028915405,-20.8331636428833,6.350993061065674,0.9364669203758238,0.089716676622629,0.2768338650465011,19.923538970947263,-70.68954620361328,-117.45627899169922,-5.994821071624756,-2.738894057273865,1.4146573096513746,-0.9415737032890318,0.3166274309158324,-0.0283248558640479,96.5326644897461,72.06192016601562,-14.262347412109374,23.983988781797667,0.9815260642645738,7.699847909533228,0.99387354499954,76.60912551879883,142.7514663696289,103.19393157958984
3947.451,6.706903409957886,-16.908412647247314,5.789987087249756,0.936173939704895,0.0855360411107539,0.2655086487531662,20.05475959777832,-71.07371063232422,-117.45601348876951,-5.90422248840332,-3.64859926700592,0.9605168610811232,-0.9417287468910216,0.313444036245346,-0.0339058112353086,96.1828369140625,72.04550628662109,-14.726484298706056,20.920957253109908,0.977571122076994,7.527142996336417,0.9932516458937772,76.12807731628418,143.1192169189453,102.72952919006347
3957.55,7.94758348464966,-12.200687217712405,5.365025043487549,0.936414635181427,0.0757944978773593,0.2588529616594314,20.12805137634277,-71.36833343505859,-117.3697723388672,-6.118984317779541,-4.124130868911744,0.2791946679353713,-0.9410390377044676,0.3094363689422607,-0.0376724999397992,95.81549987792968,72.04551239013672,-15.20441551208496,18.01609130883083,0.9748036447817904,7.789180671240149,0.9915383675831344,75.68744850158691,143.41384582519532,102.16535682678224
3979.793,10.190909957885744,-6.871151542663574,4.875515985488891,0.9335479021072388,0.0721100129187106,0.260970652103424,20.156731414794923,-71.55599517822266,-117.19001007080078,-6.280612850189209,-3.885796856880188,-0.8736230343580246,-0.9379684567451476,0.3050929248332977,-0.038136627152562,95.4717514038086,72.06945343017578,-15.656798553466796,15.47118337489576,0.9723104609200008,7.993712450910687,0.9872946463035196,75.31501998901368,143.62544860839844,101.53321151733398
4002.49,11.111980342864992,-1.436610794067383,4.232747220993042,0.9303999543190002,0.0716184675693511,0.2673789680004119,20.123765563964845,-71.63172302246093,-116.92633972167968,-5.9999082565307615,-3.1471044778823853,-2.134802910685539,-0.9377584218978882,0.2963584363460541,-0.0405569396913051,95.19459228515623,72.12075805664062,-16.050697898864748,14.47014413604193,0.9708952921419448,7.597720953590351,0.9843616650070602,75.07082672119141,143.75248107910156,100.87564182281494
4024.797000000001,9.86416597366333,4.334560966491699,3.366221737861633,0.9316155195236206,0.0746935807168483,0.260962438583374,20.00757713317871,-71.59546203613282,-116.60003662109376,-4.99561665058136,-3.143530392646789,-3.2987021684646605,-0.9374396920204162,0.292826372385025,-0.0408069521188735,94.94578857421877,72.19608306884766,-16.44065589904785,13.748372705879737,0.9704436096721608,7.448612842789124,0.982998795634506,74.93821144104004,143.79154510498046,100.1593807220459
4047.402,9.000599575042724,9.872715091705322,2.74460186958313,0.9286419987678528,0.0744756944477557,0.2643402814865112,19.798674011230467,-71.44891052246093,-116.18907012939454,-3.7842907547950735,-4.172547173500061,-4.4087149143219,-0.9418287634849548,0.2916415214538573,-0.036844366788864,94.65601806640623,72.29573669433594,-16.89905662536621,14.90380466864986,0.96848391590418,7.874246186123864,0.9866649290428562,74.85734405517579,143.74464721679686,99.29001350402832
4057.569,8.052141380310058,15.139408683776855,2.1000086069107056,0.9257424473762512,0.0739627949893474,0.2674498200416565,19.509135818481447,-71.19791564941406,-115.7124740600586,-2.585395872592926,-5.154629540443421,-5.998162937164307,-0.9409034848213194,0.2907988905906676,-0.0314781002700328,94.3257781982422,72.42767791748047,-17.42469253540039,17.878264344728514,0.966561233416197,8.725441709175266,0.985349032424492,74.81664237976074,143.62559356689454,98.2877815246582
4084.645,6.824667477607727,20.18903560638428,1.6381919384002686,0.9236010193824769,0.0766350425779818,0.2704479753971099,19.14286422729492,-70.84785919189453,-115.17906494140624,-2.0385976433753967,-6.072548770904541,-7.763063240051269,-0.9410564780235292,0.2873347461223602,-0.0277676068246364,93.94801177978516,72.59647827148437,-18.0099666595459,21.977498722744837,0.965534266448215,10.243073580079969,0.9843758158257828,74.80514755249024,143.4443374633789,97.16909828186036
4104.865,5.507878708839415,25.35309410095215,1.6373128414154052,0.9226463675498964,0.0815904602408408,0.273718523979187,18.686600494384766,-70.39956359863281,-114.57303771972656,-2.0444003701210023,-7.028267765045166,-9.673255062103271,-0.9435766577720642,0.2828446507453918,-0.0237992102280258,93.5050262451172,72.80517272949218,-18.6606014251709,26.468230250582906,0.9659198400264796,12.249127815216932,0.9854024433444768,74.81842575073242,143.204736328125,95.91243629455566
4128.313,4.059352993965149,30.71378440856933,2.1792760610580446,0.9225656986236572,0.0831133559346198,0.2811200261116028,18.11289291381836,-69.8513198852539,-113.85186614990236,-2.490320813655853,-8.111634922027587,-11.9064829826355,-0.9467999339103697,0.2781183779239654,-0.0192723227664827,92.97410736083984,73.05963897705078,-19.3919361114502,31.347117046050982,0.968067700274673,14.72112614344246,0.9870558443459408,74.86121444702148,142.91095886230468,94.45993003845214
4137.411,2.23130379319191,36.31274375915528,3.1035647869110106,0.9212687015533448,0.0844731599092482,0.2786386787891388,17.412560272216798,-69.20588073730468,-113.03114624023438,-3.215447425842285,-9.152298164367677,-14.572750663757324,-0.9493617534637452,0.2755707621574401,-0.0136149376630782,92.34376220703123,73.36593780517578,-20.21328086853028,36.60458532012472,0.9662817436458652,17.54006493436353,0.9886872427749608,74.93120193481445,142.57181854248046,92.8178653717041
4167.052,1.534855562448502,42.26472282409668,4.335822749137878,0.9153087377548218,0.0867517888545989,0.2840398192405701,16.607919120788573,-68.45219573974609,-112.10848693847656,-4.091193389892578,-10.009586906433103,-16.551529312133788,-0.9534729599952696,0.274055653810501,-0.00880374815315,91.61560821533205,73.70876007080078,-21.12000427246094,42.54067974007693,0.9625349011702216,19.78336251550656,0.9921598942405694,75.00768909454345,142.16095581054688,90.98848266601564
4187.281,0.4662964165210725,48.17239151000977,5.199546146392822,0.9082192659378052,0.0903834417462348,0.298273229598999,15.726903915405272,-67.58359985351562,-111.12074279785156,-4.278394794464111,-11.145866775512696,-17.65983009338379,-0.9568722963333128,0.274115514755249,-0.005689151957631,90.78018035888672,74.06897735595703,-22.129686737060545,48.51593163504736,0.9607817325791044,21.3275682430686,0.9954045462768772,75.05327644348145,141.65257720947267,88.99105606079101
4197.246,-1.3201548278331756,53.64751510620117,5.566279888153076,0.8961612939834595,0.094770799577236,0.3160638868808746,14.800133895874025,-66.60275268554688,-110.11768798828123,-4.14437952041626,-11.796275329589845,-17.283100891113282,-0.958521807193756,0.2762968719005584,-0.0037202614825218,89.87542724609375,74.41418151855468,-23.208070755004883,54.06257541001836,0.9560452070282828,21.39927026978617,0.9975840666275214,75.07529335021972,141.01693420410157,86.90961723327636
4219.655000000001,-3.215953224897385,58.7894889831543,5.275511646270752,0.8838650345802307,0.0965236261487006,0.3270860731601714,13.87160816192627,-65.51691284179688,-109.16478729248048,-3.972222661972046,-11.673173522949218,-15.478470993041991,-0.9531283259391784,0.2777441442012787,-0.0006630913820117,88.9564697265625,74.7149154663086,-24.29694786071777,59.24377967330703,0.948392413318869,19.970243195083263,0.9927825064636566,75.08486156463623,140.23182830810546,84.86783943176269
4240.882,-4.339824056625366,63.3944709777832,4.627734088897705,0.8736472845077514,0.0897242546081542,0.3569995582103729,12.968169593811036,-64.32664642333984,-108.26288299560548,-3.529077482223511,-11.730268669128415,-13.063076305389403,-0.9464508414268492,0.278203397989273,0.002634446742013,88.01631317138671,74.95898132324218,-25.405891036987303,63.83118152453701,0.948694899330316,18.216104117192103,0.9865182873581376,75.04814357757569,139.28562774658204,82.85699195861817
4257.273999999999,-5.466549348831177,66.76507873535157,3.514898419380188,0.8638798475265503,0.0854104205965994,0.3903294563293457,12.129451751708984,-63.05274276733398,-107.45050354003908,-2.382757127285004,-12.350996780395509,-10.156126976013184,-0.9517017483711244,0.279314649105072,0.0056807233486324,87.03637390136718,75.13773956298829,-26.56830101013184,67.12100332202739,0.953257679924564,16.67476382867803,0.991904046185869,74.9069221496582,138.19048233032223,80.88220252990723
4279.448,-5.395811700820923,69.48623657226562,2.3666439056396484,0.8532721161842346,0.0852461025118827,0.4201201140880585,11.38542594909668,-61.71089477539063,-106.73418884277343,-1.3352588295936585,-12.210222625732422,-6.626399326324463,-0.9597018241882324,0.2745331346988678,0.0097530387807637,86.0822738647461,75.24405059814453,-27.7187873840332,69.77606406264117,0.9567542428986224,14.558775364231517,0.9983858907936198,74.69684791564941,136.95494537353517,79.01540145874023
4302.142,-5.611147165298462,71.94591064453125,1.1952645301818847,0.8449172258377076,0.0769407659769057,0.446248185634613,10.715361404418946,-60.311109924316405,-106.1009765625,-0.1442941784858703,-10.601625537872314,-3.8395818710327143,-0.9574232339859008,0.2684942901134491,0.0183242240920662,85.26623229980468,75.29600830078125,-28.744129180908203,72.21653699589086,0.9605758133915608,12.060177217784444,0.9947164028173264,74.55087089538574,135.60711822509765,77.35684738159179
4324.862999999999,-5.132112646102906,73.69862518310546,0.5223902046680451,0.8288437843322753,0.0717918038368224,0.479840362071991,10.11640148162842,-58.863512420654295,-105.532373046875,0.0419094443321228,-8.236743116378785,-1.7271736145019532,-0.9624199271202089,0.2626290053129196,0.0223011456429957,84.63836822509765,75.3117172241211,-29.57547988891601,73.9091141427277,0.9615484344609936,10.197012202585244,0.998030815935412,74.52196674346924,134.17522964477538,75.95689315795899
4337.37,-4.090498602390289,74.87147216796875,-0.0407857507467269,0.811044454574585,0.0706767290830611,0.5113617420196533,9.599800300598144,-57.38137283325195,-105.02776794433592,-1.2101254105567931,-3.927381086349487,0.4554659366607666,-0.9728247046470642,0.25430588722229,0.0208927899599074,84.32881774902344,75.29671173095703,-30.05287322998047,75.02949826432189,0.962237449971445,9.862950407517769,1.0058921936455203,74.7290174484253,132.67808456420897,74.97489471435547
4359.685,-3.11791797876358,75.8937484741211,-0.1591638654470443,0.7974960923194885,0.0691851146519183,0.5326703429222107,9.146259307861328,-55.876591491699216,-104.5664047241211,-2.893039393424988,1.811809587478638,1.6361908197402957,-0.9730152130126952,0.2476410895586013,0.0252877365797757,84.4171859741211,75.27130889892578,-30.08513145446777,76.03208649438218,0.9625415518197696,10.009953390445288,1.004476727555728,75.27092666625977,131.147900390625,74.48127326965331
4382.234,-2.334010148048401,76.97855682373047,0.4008801609277725,0.781151020526886,0.0695037014782428,0.5509065151214599,8.72828712463379,-54.350965881347655,-104.11962432861328,-4.3812541484832765,7.817960214614868,1.0590739011764527,-0.967442774772644,0.2430532008409499,0.0273250326514243,84.92025299072266,75.26896667480469,-29.659960556030278,77.11136309138314,0.9593718658391504,11.620161811198416,0.9980114399511308,76.19196586608886,129.61993255615235,74.45966377258301
4404.9310000000005,-1.194569706916809,77.9385009765625,1.2966654926538468,0.7595635652542114,0.0703293316066264,0.5708028674125671,8.341736984252929,-52.80539398193359,-103.67442779541015,-6.3075638771057125,13.095360326766968,-0.1117962121963501,-0.97290620803833,0.2376727819442748,0.0255313407629727,85.77914276123047,75.2997833251953,-28.831518173217773,78.00462616695667,0.9535373697252438,15.324117564371226,1.001937637638202,77.43740577697754,128.1051773071289,74.84290962219238
4427.075999999999,0.2513038396835327,78.72425994873046,2.145319208502769,0.7437731504440308,0.0661199435591697,0.5958096504211425,7.988787078857422,-51.24331207275391,-103.22808074951172,-7.483568096160889,16.46149787902832,-1.7694097757339478,-0.9763579130172728,0.2384143650531768,0.0220401018857955,86.86708221435546,75.36449890136718,-27.74182243347168,78.78033887610408,0.9561821239224454,18.705074366352825,1.005415970519244,78.87829513549805,126.6078109741211,75.48625831604004
4437.197,1.9666988253593445,79.61909484863281,2.9963835000991823,0.7280906081199646,0.0672588929533957,0.6134397029876709,7.67813138961792,-49.66593551635742,-102.78189239501953,-7.524038600921631,19.07452392578125,-3.315899062156677,-0.9737732648849488,0.2420723468065261,0.020911954017356,88.14857482910156,75.4530746459961,-26.446944427490237,79.77784870828613,0.9554186748981672,20.95639329672239,1.0038027597580008,80.47044343948365,125.11901016235352,76.3349479675293
4463.336,3.773904979228973,80.93582763671876,3.497264862060547,0.7023186445236206,0.0748529158532618,0.6293325781822204,7.422591876983643,-48.06056289672851,-102.3466094970703,-7.466856002807617,21.34453811645508,-4.200758123397828,-0.9736247658729552,0.2377915441989898,0.0151033867616206,89.61632385253907,75.55293426513671,-24.957118988037116,81.23114909890145,0.9472934582720424,23.05084139467027,1.0025109064409377,82.19373197555542,123.61349716186524,77.38949050903321
4482.482,5.199579811096191,82.43796081542969,3.3715210437774656,0.6743408799171448,0.0733313299715518,0.6500966787338257,7.216856956481934,-46.41948623657227,-101.93048400878904,-7.695463085174561,23.35532989501953,-4.532079124450684,-0.9739616990089416,0.2366119265556335,0.005308897094801,91.26412963867188,75.64645690917969,-23.2700912475586,82.79364661852546,0.9409859004023348,25.07740726843261,1.002531480175938,84.04727268218994,122.06594314575196,78.66039276123047
4504.939,6.933302974700927,83.54495697021484,3.1264628648757933,0.6561086297035217,0.0699932537972926,0.6744760870933533,7.0661852836608885,-44.75358352661133,-101.5345672607422,-7.341050815582276,23.317688751220704,-5.742332839965821,-0.9690251350402832,0.2427879065275192,-0.0118208903353661,92.96962738037112,75.7456039428711,-21.52592735290528,83.93647249981758,0.9449516896587232,25.33527069259905,0.999458295295115,85.90344209671021,120.49918746948242,80.00863990783691
4526.911,8.76593313217163,84.88390197753907,2.946805310249329,0.6362321972846985,0.0758769273757933,0.6980395913124084,6.976200199127197,-43.0584228515625,-101.1587173461914,-6.989187908172608,24.694144439697265,-7.163949966430664,-0.9724838852882384,0.2393492102622985,-0.0189585119020193,94.82881622314451,75.85879364013672,-19.622840881347656,85.40841694609705,0.9488888921057445,26.95468949198034,1.0020908102979458,87.85261602401734,118.91721649169922,81.53587646484375
4537.151,8.191099643707275,86.90868530273437,2.222944366931915,0.6125218391418457,0.0901379585266112,0.7078921318054199,6.911363029479981,-41.32264709472656,-100.8161834716797,-7.052728939056396,23.6988208770752,-8.589935302734375,-0.9856486201286316,0.2325767159461975,-0.0204230177216231,96.63495330810548,75.99338073730469,-17.7647274017334,87.3618646067489,0.9414374318294048,26.6186440988701,1.0133311928778337,89.7235902786255,117.31602783203124,83.05145606994628
4566.841,7.650855445861817,89.1800552368164,1.2118584990501404,0.5825811505317688,0.0867823585867881,0.7300458550453186,6.859183883666992,-39.53407363891601,-100.50150451660156,-5.778585767745971,20.49774227142334,-9.34054536819458,-0.9870145559310912,0.2435857415199279,-0.0297927337698638,98.24156951904295,76.13170166015625,-16.131224060058592,89.55420658557362,0.9398958182173496,23.62521444601744,1.0174997366292515,91.38238563537598,115.66577529907228,84.37028045654297
4586.902,7.871564769744873,90.30506134033205,-0.1667482495307922,0.567125654220581,0.0724775832146405,0.7478743672370911,6.831285858154297,-37.72416534423828,-100.22022705078123,-4.13826539516449,16.867306327819826,-9.91879653930664,-0.9869868040084836,0.2486472427845001,-0.0353770016692578,99.6194839477539,76.27582702636718,-14.763700103759763,90.71064360526492,0.9436185230120472,20.294583661213203,1.018879631024418,92.7881980895996,113.99999237060548,85.45652694702149
4596.858,9.993068408966064,92.32238006591795,-0.7970800280570984,0.5337384164333343,0.0840078245848416,0.7702174663543702,6.869948101043701,-35.86648330688477,-99.95983276367188,-3.605069088935852,15.616208839416505,-9.650240325927737,-0.9920690417289733,0.2339246183633804,-0.0363896033726632,100.93046875,76.4160873413086,-13.471528053283691,92.97962445678044,0.9439649806781172,18.993223245345604,1.0205923662127123,94.0605206489563,112.28257064819336,86.48830471038818
4616.88,8.038410305976868,94.60958557128906,-2.436325776576996,0.496533328294754,0.0948184233158826,0.7790777444839477,6.905047798156739,-33.95615234375,-99.74118041992188,-4.035857319831848,13.812283515930176,-8.854326438903808,-0.9926405906677244,0.221547719836235,-0.0387468236498534,102.1052703857422,76.54297637939453,-12.311380577087402,95.14167999449975,0.9321864355656334,17.260013197841655,1.0187905545072795,95.20022258758544,110.49912872314454,87.42979984283447
4639.512,6.97305144071579,96.63667144775393,-3.7189314126968394,0.4614494264125824,0.0851680602878331,0.793179702758789,6.931808757781982,-31.998902893066408,-99.5456756591797,-2.456279182434082,11.526385021209716,-8.422370719909669,-0.9887513875961302,0.2222488313913345,-0.045256109535694,103.14481811523436,76.66328582763671,-11.3258243560791,97.17285900414934,0.9234130508350644,14.941476981478328,1.0152888826093984,96.2130093574524,108.66218872070311,88.21985130310058
4656.87,7.322877967357636,97.7279296875,-4.299854373931884,0.4349376380443573,0.0779148366302251,0.8237359285354614,6.9718530654907225,-30.01645278930664,-99.36070556640624,-0.1452839374542236,8.808761310577392,-8.960125160217284,-0.9852954149246214,0.2215155094861984,-0.0572228156030177,104.0489990234375,76.8018569946289,-10.527718353271483,98.30608267555996,0.9381647502901664,15.5028673982042,1.012534854947796,97.07714595794678,106.81830978393556,88.83298721313477
4680.967,4.910434758663177,100.19180603027344,-4.49698133468628,0.3936480343341827,0.1086092978715895,0.844999098777771,6.98750410079956,-27.97555809020996,-99.18511962890624,1.2641798734664915,8.558529567718505,-8.688283443450928,-0.9812744498252868,0.2102459162473678,-0.0610435247421264,104.97919006347657,76.93646240234375,-9.72884120941162,100.7074548954274,0.9412289747085272,15.6702448598468,1.0063034150671877,97.991685962677,104.91202049255372,89.45627841949462
4697.094,-1.4248004555702214,102.96192321777345,-6.390540599822998,0.3518280029296874,0.115496003627777,0.8192149758338928,6.908180046081543,-25.87713737487793,-99.05211181640624,0.7503103494644165,7.772180080413818,-8.286476230621338,-0.9812308192253112,0.2071629226207732,-0.0581389836966991,105.83231658935549,77.06318511962891,-8.994652271270752,103.46961540370908,0.9020423890902816,14.91936625775097,1.0055592093926138,98.92413654327392,102.94032249450684,90.0574595451355
4719.418,-1.8649085402488712,105.15308990478516,-7.223326778411865,0.3137461632490158,0.0915639094077049,0.8274006247520447,6.8154112815856935,-23.73038673400879,-98.93119201660156,0.8535454034805298,5.285338401794434,-7.923724746704101,-0.9773065209388732,0.2225838303565978,-0.0643139593303203,106.48446350097656,77.18243560791015,-8.465284824371338,105.7120029380026,0.8939894776141916,13.101998279437884,1.0052627745417213,99.66905221939086,100.91282234191894,90.46590719223022
4742.501,-0.2329460144042972,107.08700408935547,-7.362187671661377,0.2837084919214249,0.0927639476023613,0.8678566336631774,6.75977087020874,-21.54048881530762,-98.81314544677734,0.3540058135986328,3.826443243026733,-7.366262817382813,-0.9678836941719056,0.226493415236473,-0.0730256751179694,107.0121063232422,77.29250030517578,-8.049606132507325,107.71092361854144,0.9211650304783208,12.424681689073656,0.9975394595726954,100.25233545303344,98.8329891204834,90.76353931427002
4764.882,-3.770974540710449,110.0597915649414,-8.127072525024413,0.2464991509914398,0.1227901375852524,0.8893632292747498,6.660508441925049,-19.28789710998535,-98.71511840820312,-2.6936695098876955,5.936823797225952,-6.778195190429687,-0.9735104322433472,0.206543543934822,-0.0626322515308856,107.63457794189452,77.39023895263672,-7.47021598815918,110.6987508424186,0.9354280782462168,11.63804370740526,0.9978336473707116,100.97406949996947,96.67813606262207,91.24490242004394
4784.228,-9.488598585128784,113.15670471191406,-9.806019401550293,0.2032117158174514,0.121162802632898,0.8497684359550476,6.462283420562744,-16.972286987304688,-98.65101470947266,-5.740923976898193,4.623091697692871,-7.100085735321045,-0.9772848010063172,0.206923198699951,-0.0626798383891582,108.09762878417968,77.49962005615234,-6.992354202270508,114.75129789535568,0.8866712832488375,11.052148724295405,1.0016016659155695,101.63534536361696,94.47190704345704,91.65866050720214
4807.540999999999,-9.353519582748412,115.95345611572266,-10.26247959136963,0.1647523060441016,0.0997837557457386,0.8449393510818481,6.2560640335083,-14.594465637207032,-98.59451141357422,-6.631700134277343,2.5093642711639403,-6.764941883087158,-0.9786142945289612,0.2116809517145156,-0.0624706186354159,108.35371246337893,77.6111083984375,-6.708717250823975,117.54304006798137,0.8712950768943994,10.264728991653646,1.0037612468995485,102.09764842987062,92.20557403564452,91.88579416275024
4816.87,-6.8913061141967775,118.70151824951172,-9.53184185028076,0.1265978068113326,0.0990907952189444,0.8964332580566406,6.101476001739502,-12.160971927642825,-98.52833709716796,-7.049391365051269,-0.2374295711517334,-7.251213264465332,-0.9779696106910706,0.2030789166688918,-0.0617917768657207,108.38305358886718,77.75240631103516,-6.6436385154724125,120.34662463300069,0.9167292760253984,11.4084199402679,1.0011531269084593,102.2815775871277,89.91337823867798,91.88469858169556
4839.232,-9.244951915740966,121.33646240234376,-9.4858642578125,0.091235789656639,0.1232047349214553,0.911976408958435,5.914541912078858,-9.679689502716064,-98.4647979736328,-7.63786506652832,-0.7578716278076172,-8.406102180480957,-0.9797531843185424,0.190687084197998,-0.0539713196456431,108.3779083251953,77.92569580078126,-6.595717906951904,122.92494881738575,0.9298560042930806,12.792273165590654,0.9997371292055212,102.46336641311646,87.60538530349731,91.86908006668092
4859.348,-13.046368503570555,124.56353607177736,-9.502596473693847,0.0427583381533622,0.1185489326715469,0.8570736646652222,5.647906684875489,-7.146732807159424,-98.40316162109374,-6.915153861045837,-3.5941020965576174,-8.682078552246093,-0.9751106023788452,0.1883224666118621,-0.0546523809432982,108.1466537475586,78.12064971923829,-6.787370777130127,126.65011403147236,0.8727455888912333,12.968105489830572,0.9947937344970874,102.49874706268312,85.26738252639771,91.61579084396362
4882.775,-8.9057147026062,127.3585922241211,-8.63820686340332,-0.0019491657614707,0.0831405624747275,0.8601677536964416,5.45361328125,-4.56755884885788,-98.327490234375,-5.713591742515564,-6.808743143081665,-8.810412406921387,-0.9801317572593689,0.1860324293375014,-0.0464344602078199,107.6235366821289,78.33847045898438,-7.2926606178283695,128.61306978305714,0.8722079692149916,13.985730120432502,0.9988840786256794,102.16992340087891,82.90602930784226,91.03482961654665
4905.121,-1.1322121620178225,129.4013442993164,-6.336383867263794,-0.0439111649990081,0.0858453221619128,0.9438918709754944,5.415649032592773,-1.9528226733207703,-98.20825653076172,-4.438829922676087,-8.911588668823242,-10.847583961486816,-0.963511312007904,0.1870228469371795,-0.0410287994891404,106.96428527832032,78.6037826538086,-7.953832340240479,130.82766453818493,0.9576732328065392,15.501358240050314,0.982650227833176,101.54863624572754,80.55660532712936,90.25442419052123
4926.752,-3.654082679748535,130.48851318359374,-5.845952272415161,-0.0833128198981284,0.12527067810297,0.9493573546409608,5.354305362701416,0.6764474034309387,-98.07957611083984,-3.3551692247390745,-6.311833095550537,-12.428088760375976,-0.9544936180114744,0.1772725880146026,-0.017329554632306,106.54894561767578,78.88992614746094,-8.385526371002197,131.78634284531398,0.9685806843718964,15.723932423507389,0.971746453690607,101.19464025497436,78.21347874403,89.69404973983765
4936.594999999999,-9.449242877960206,131.8683837890625,-6.104880666732788,-0.1414722338318824,0.110527716577053,0.908241581916809,5.182713985443115,3.3392537236213684,-97.9572036743164,-2.415577459335327,-8.340395832061768,-11.6196683883667,-0.9611072421073914,0.1776133835315703,-0.0152715075761079,105.90145874023438,79.16890411376953,-9.072337341308591,133.9620517032913,0.9302840468915632,16.13138159257674,0.978226680004632,100.71874475479126,75.82965039014816,88.8848663330078
4965.023999999999,-6.6569437980651855,132.4729766845703,-5.175670146942139,-0.1931564331054687,0.0779659487307071,0.8934724569320679,5.073467826843261,6.012838470935821,-97.82238311767578,-2.150838828086853,-10.136961841583252,-11.27966775894165,-0.9784753203392028,0.1737992674112319,-0.0143671859055757,105.03469543457032,79.44934387207032,-9.989774894714357,134.09436136319633,0.9255320766271816,17.453800244651966,0.994759996352417,99.96122760772704,73.4365054011345,87.83260822296143
