Timestamp (ms),Wrist Gyroscope X (deg/s),Wrist Gyroscope Y (deg/s),Wrist Gyroscope Z (deg/s),Wrist Accelerometer X (g),Wrist Accelerometer Y (g),Wrist Accelerometer Z (g),Wrist Roll (deg),Wrist Pitch (deg),Wrist Yaw (deg),Arm Gyroscope X (deg/s),Arm Gyroscope Y (deg/s),Arm Gyroscope Z (deg/s),Arm Accelerometer X (g),Arm Accelerometer Y (g),Arm Accelerometer Z (g),Arm Roll (deg),Arm Pitch (deg),Arm Yaw (deg),Wrist Gyroscope Magnitude (deg/s),Wrist Accelerometer Magnitude (g),Arm Gyroscope Magnitude (deg/s),Arm Accelerometer Magnitude (g),Difference Roll (deg),Difference Pitch (deg),Difference Yaw (deg)
0.0,-4.854067,-3.394466,6.553807,-1.004276,0.271404,0.124786,65.428291,73.142166,-70.577652,-9.864525,-3.602742,4.157224,-1.080584,0.022796,0.067599,51.62059,87.170418,-173.64505,8.833841296904422,1.047760450288137,11.294738367061232,1.0829363155204466,-13.807701000000002,14.028251999999997,-103.067398
19.987,-2.3764505,-2.5034435,5.6670325,-1.0295535,0.2866125,0.111152,65.47927849999999,73.09349800000001,-70.5200425,-5.8658775,-4.5057825000000005,4.1491665,-1.112451,0.0476474999999999,0.0888555,51.1314275,87.0814475,-174.10668950000002,6.635510808724431,1.0744681947933592,8.480930221799655,1.1170106586499076,-14.347851,13.987949499999992,-103.586647
39.973,-1.0542593333333332,-1.2084403333333331,3.996807,-1.034633666666667,0.2807066666666666,0.1000636666666666,65.56465666666666,73.08431233333333,-70.43826033333333,-2.8004366666666667,-4.845771666666667,2.9954210000000003,-1.099972333333333,0.050212,0.0889789999999999,50.455373,87.01509866666667,-174.79065966666667,4.306536540701382,1.0766967048793268,6.347952074230047,1.1047070387590447,-15.109283666666665,13.93078633333333,-104.35239933333332
59.96,0.3396162500000002,-0.2046405,2.814828,-1.0235245,0.26786875,0.09415425,65.67887125,73.09707625,-70.3461685,-0.9051837500000002,-3.95748725,2.11053375,-1.07354775,0.043625,0.0722845,50.026679,86.983654,-175.24681475,2.842617385630417,1.062177523825408,4.575523539996892,1.076862554412267,-15.652192249999995,13.886577749999995,-104.90064625
79.946,1.5676046,0.254518,2.3472384,-1.0057779999999998,0.2619614,0.0927265999999999,65.8080384,73.10986319999999,-70.254576,0.824842,-2.652428,1.9664564,-1.0460444,0.040297,0.0555698,50.0531662,86.9729706,-175.2698212,2.8340239414478696,1.0434612511835404,3.4033350398174083,1.0482942037674348,-15.754872199999998,13.8631074,-105.0152452
99.933,3.6880006,1.2676338,1.3891368,-0.9826984,0.2609438,0.0821746,66.056975,73.1094542,-70.0682998,4.2393142,-1.3206766,1.7379184000000003,-1.0142498,0.0520271999999999,0.0443275999999999,50.175740000000005,86.92085420000001,-175.2292634,4.139800106963746,1.0200688589532374,4.768262989094431,1.0165502557481554,-15.881234999999997,13.8114,-105.1609636
119.919,4.255708,1.9225674,0.91993,-0.94756,0.2565608,0.0796686,66.34374720000001,73.1194122,-69.8563368,4.3313706,0.2942697999999999,1.6746366,-0.968074,0.0583592,0.0227479999999999,50.92033,86.8938614,-174.5739656,4.759578468069075,0.9849063323598848,4.653146648430066,0.9700982100821752,-15.423417199999998,13.7744492,-104.7176288
139.905,4.2187,1.878788,1.4127231999999998,-0.9214284,0.2552108,0.0844665999999999,66.6286592,73.1152068,-69.64591959999998,1.3624222000000006,1.7064720000000002,2.497074,-0.9459526,0.057447,0.0071024,52.2372664,86.87698499999999,-173.29069220000002,4.829395498275352,0.9598424116899398,3.317170405528308,0.9477219652100084,-14.391392799999997,13.761778199999998,-103.64477259999998
159.892,3.3977828000000003,1.5128088,2.2511346,-0.9126896,0.2610512,0.0902893999999999,66.8885468,73.0870132,-69.44368419999999,-2.2804156,1.9889452,3.5266238000000003,-0.9481258,0.0532962,0.0030216,53.7513518,86.8496292,-171.7377962,4.347542456221726,0.9535733903176828,4.646856329181358,0.9496273730398888,-13.137195,13.762615999999998,-102.294112
179.878,2.2904856,1.273574,2.8669596,-0.9252086,0.2610274,0.099128,67.1091828,73.0457304,-69.25725080000001,-4.8268202,1.2884108,4.2262718,-0.969444,0.0459684,0.0035005999999999,55.091368,86.8034942,-170.30585639999998,3.8842981818232647,0.96642258740611,6.543666324023554,0.9705395494954958,-12.017814799999998,13.757763799999996,-101.0486056
199.865,1.3466148,1.069708,3.2709602,-0.9446831999999998,0.2544476,0.1053328,67.28884120000001,73.0008452,-69.0923536,-5.231545,0.3080956000000001,4.294230199999999,-0.9912484,0.0329378,0.0037983999999999,56.0528358,86.75025159999998,-169.2416534,3.695514477691446,0.9840045367089724,6.775278517991448,0.9918027611445532,-11.236005399999998,13.749406399999994,-100.1492998
219.851,0.494963,0.7334188,3.4761714,-0.9668902,0.2510232,0.1118758,67.4187362,72.954103,-68.96042320000001,-3.1919760000000004,-0.7668969999999999,4.0296314,-1.0165806,0.0296428,0.0068638,56.6229828,86.6902298,-168.6069884,3.5870125605774503,1.00518928586606,5.197573569758389,1.0170358516977855,-10.795753399999995,13.736126799999996,-99.6465652
239.837,-0.1300046,0.3441696,3.2875242,-0.9811992,0.2539456,0.1133318,67.5057998,72.9088532,-68.8590042,-0.0346374000000002,-1.595555,3.3893174000000004,-1.029153,0.045971,0.0133803999999999,56.92427299999999,86.62237100000002,-168.3027282,3.308046141632695,1.019845250384214,3.746260528239664,1.0302661138531928,-10.5815268,13.7135178,-99.443724
259.824,-0.9626874,-0.1921831999999999,2.949165,-0.9866962,0.257127,0.112285,67.5388458,72.8656616,-68.7938354,1.5792,-1.8765972,2.2951252,-1.030117,0.0615124,0.0249162,56.9757836,86.55968179999999,-168.27980340000002,3.1082592571576133,1.0258126566037484,3.3590310172314397,1.0322526948694295,-10.563062199999996,13.6940202,-99.485968
279.81,-2.1427632,-0.7754268,2.604231,-0.979151,0.266308,0.1053266,67.5235946,72.8204622,-68.753096,0.4760215999999996,-1.5936818,1.061895,-1.0212038,0.0751556,0.0405209999999999,56.813703200000006,86.51067359999999,-168.4482208,3.460453720943755,1.020171713160368,1.9733320132057857,1.0247670548894514,-10.709891399999998,13.6902114,-99.6951248
299.797,-3.7276318,-1.1468944,2.160042,-0.9713344,0.2789116,0.1077708,67.44886779999999,72.772951,-68.7425766,-2.2275604,-1.0729506,0.3615408,-1.01558,0.0782948,0.0535061999999999,56.534868,86.47464620000001,-168.6794038,4.458294185323194,1.0163152771510229,2.4987917231640497,1.0199979046770045,-10.9139998,13.7016952,-99.9368272
319.783,-5.086031199999999,-1.1047208,1.7677945999999998,-0.9597318,0.2854314,0.1085474,67.34416660000001,72.7281068,-68.7367264,-4.2990696,-0.5170806000000001,-0.1512996,-1.0050272,0.067073,0.0664443999999999,56.1286836,86.4552872,-168.996454,5.496655270354439,1.0071438576906282,4.332697005503694,1.0094519891308351,-11.215483,13.7271804,-100.2597276
339.769,-5.7471688,-0.5924588000000001,1.4301574,-0.946374,0.2885381999999999,0.1084848,67.251819,72.69004220000001,-68.7055116,-4.311433599999999,-0.0891946,-0.3475752,-0.994155,0.0541819999999999,0.0734498,55.6968552,86.447841,-169.339087,5.952000238085146,0.9953125100018988,4.326340703589253,0.9983359786509948,-11.5549638,13.757798799999998,-100.6335754
359.756,-5.7299552,0.2769251999999999,0.9793624,-0.9341626,0.2919112,0.1088235999999999,67.20299539999999,72.6634356,-68.6299668,-2.6619552,0.0117545999999999,-0.1240514,-0.9841372,0.056991,0.074183,55.3774032,86.4353042,-169.6025146,5.8196413008823695,0.9847408226742508,2.664870054481111,0.988573274974516,-11.8255922,13.7718686,-100.9725478
379.742,-6.059764400000001,1.1906181999999998,0.3338801999999999,-0.9250902,0.2869226,0.1112194,67.1780428,72.6565278,-68.5230866,-0.9496434,-0.1791412,-0.0171374,-0.9746102,0.0593812,0.067598,55.125727000000005,86.4192184,-169.83266,6.184641644398699,0.9749288237933884,0.966544281023772,0.9787546467125866,-12.0523158,13.7626906,-101.3095734
399.729,-5.816625,1.8033038,-0.1466162,-0.9177888,0.2794618,0.1116598,67.175908,72.6656892,-68.3963608,-0.3449628,-0.1919148,-0.2891524,-0.9642952,0.0623544,0.057044,54.9276014,86.4096816,-170.02229000000003,6.091512726394149,0.9658690853323342,0.4893257956297012,0.9679913852294346,-12.2483066,13.7439924,-101.6259292
419.715,-5.4997406,2.0384234,-0.6645503999999999,-0.9134688,0.270872,0.1120252,67.1737396,72.6896654,-68.27498920000001,-1.452887,0.0044916,-0.740928,-0.9566604,0.0676878,0.0478568,54.7719434,86.4106338,-170.1484466,5.902875897314467,0.9593469311945916,1.6309123552243878,0.9602452980896288,-12.401796200000003,13.7209684,-101.8734574
439.702,-5.536505200000001,1.9465056,-1.036795,-0.9119428,0.2600452,0.1111853999999999,67.1495178,72.7251222,-68.1756804,-3.5728904,0.3169726,-1.3291194,-0.9544298,0.0636224,0.0393448,54.5897688,86.4305082,-170.2598236,5.959590401402047,0.9547907465450428,3.825255000522093,0.9573568123729208,-12.559749000000002,13.705386,-102.0841432
459.688,-5.5363582000000005,1.7450586,-1.3878064,-0.9159706,0.2495704,0.110271,67.098703,72.7714996,-68.1059172,-5.038041,0.6325438,-1.7814082,-0.9581376,0.0492524,0.0340309999999999,54.3402182,86.47119119999999,-170.4099854,5.968458615088335,0.9557443267221208,5.381020716520861,0.9600060251896964,-12.758484800000002,13.699691599999998,-102.3040682
479.675,-4.4999938,1.687339,-1.6917864000000002,-0.925753,0.2447318,0.109729,67.0555358,72.8267746,-68.0520248,-5.3053648,0.940266,-1.6793204,-0.9723464,0.0413274,0.0334482,54.1447882,86.5182828,-170.5011322,5.095017009214435,0.9638219360344732,5.643679014409945,0.9737988794750998,-12.910747600000002,13.691508199999996,-102.4491074
499.661,-3.2283854,1.9026944,-2.3708072,-0.943909,0.2403452,0.1077986,67.0343932,72.9011902,-67.997612,-4.5181694,1.0555464,-1.5728372,-0.9937726,0.0386136,0.0382912,53.965285400000006,86.564816,-170.5918916,4.4343483230680425,0.9799747719232368,4.899168275059876,0.9952593665036064,-13.0691078,13.663625799999997,-102.5942796
519.647,-1.3051746000000002,2.3667052,-3.3716204,-0.9643436,0.2381107999999999,0.1038554,67.0602126,73.0020446,-67.93117980000001,-2.9312,1.288939,-1.6936822,-1.0143824,0.0352266,0.0416857999999999,53.8108154,86.61724219999999,-170.6896424,4.321180204745963,0.9987198185911604,3.6224103274363935,1.0158495325091013,-13.249397199999995,13.615197599999997,-102.7584626
539.634,0.5924906,2.8380078,-4.5965196,-0.9808618,0.2387868,0.103712,67.122267,73.130284,-67.8661514,-0.8787876000000001,1.891284,-1.9470524,-1.025773,0.033218,0.040387,53.8059304,86.6831266,-170.6803192,5.434457269786318,1.014822735997514,2.853109858192552,1.0271050544233535,-13.316336599999994,13.5528426,-102.8141678
559.62,2.5491608,3.1375316,-5.6774534,-0.9895612,0.243029,0.1097243999999999,67.2062468,73.277365,-67.820894,2.6225572,2.8306162,-2.0236062,-1.0305402,0.0383761999999999,0.0399524,54.42555560000001,86.78638600000001,-170.1563996,6.969634311384405,1.0248579937444016,4.357198227261725,1.0320281153186868,-12.780691199999996,13.509021,-102.3355056
579.607,4.0080124,3.0944116,-6.5010566,-0.9873248,0.2515988,0.1111013999999999,67.299266,73.4327818,-67.7994034,6.1803292,3.4948274,-2.2941458,-1.031993,0.0503562,0.0432882,55.3078828,86.8942582,-169.442749,8.240344863242793,1.024917429814929,7.461460482226053,1.0341272490301567,-11.991383199999998,13.461476400000004,-101.6433456
599.593,5.3382032,2.7907526,-6.9625072,-0.980548,0.2664504,0.111127,67.3990846,73.5844282,-67.80694880000001,8.1630746,4.3888046,-2.6447972,-1.0202202,0.049419,0.0358049999999999,55.6396378,86.9621736,-169.16959219999998,9.206585685744136,1.0221640798292413,9.638067491529316,1.0220437818772932,-11.759446799999996,13.377745400000004,-101.3626434
619.579,6.266052,2.2924894,-7.210083399999999,-0.9759552,0.2817662,0.1079983999999999,67.4969088,73.72778459999999,-67.844246,10.448597,4.4819244000000005,-2.4400398,-1.0200568,0.062213,0.036181,56.71959,87.05243379999999,-168.30985100000004,9.823656037889965,1.0215402088376353,11.628182137432676,1.0225924884118014,-10.7773188,13.324649200000003,-100.465605
639.566,7.338573200000001,1.80873,-7.1738444,-0.9769938,0.2932798,0.1035616,67.6031312,73.86077259999999,-67.8988648,11.501017999999998,4.2667614,-2.1731436,-1.0216342,0.066914,0.0344029999999999,57.8818878,87.1325014,-167.3891144,10.42066237338441,1.025307237524948,12.457978206236954,1.02440103885863,-9.7212434,13.271728800000002,-99.4902496
659.552,7.960028199999999,1.3923292,-6.8089016,-0.9774782,0.2958576,0.096201,67.7199372,73.9828858,-67.95457300000001,10.418029,3.861404400000001,-1.996059,-1.0207472,0.0598502,0.0260959999999999,58.735247,87.1824128,-166.7185576,10.56701332186396,1.0257923685395598,11.288490763457329,1.022833267919987,-8.9846902,13.199527,-98.7639846
679.539,8.4901938,1.0018704,-6.107028000000001,-0.9765104,0.286489,0.0935442,67.837442,74.09312,-68.018277,9.2808968,3.6055404,-1.935827,-1.0096336,0.0441243999999999,0.0102407999999999,59.58695680000001,87.240213,-166.028134,10.506327905254938,1.0219584266411232,10.14309583717966,1.0106492185268636,-8.250485199999998,13.147092999999998,-98.009857
699.525,8.96618,0.5111028,-5.0151316,-0.9707968,0.2749051999999999,0.093078,67.95219420000001,74.1833558,-68.0935608,9.7054668,2.6858484,-1.5323612,-1.0036062,0.0481222,0.0016205999999999,61.219539,87.33789979999999,-164.7170652,10.286163270621676,1.0132535763377692,10.186167006335124,1.004760557125746,-6.732655199999999,13.154543999999998,-96.6235044
719.512,9.1002532,-0.2652942,-3.5519718,-0.958935,0.2618035999999999,0.0946636,68.0439436,74.244124,-68.1932556,8.3853474,1.9797676,-1.3206938,-0.9871738,0.0450102,-0.013193,62.1960978,87.39600999999999,-163.9195524,9.772486530287935,0.9985282451502911,8.716522407592088,0.9882874504715116,-5.847845799999996,13.151885999999996,-95.7262968
739.498,8.3338964,-1.3598618,-1.878764,-0.9478902,0.2551527999999999,0.0990062,68.07940819999999,74.2657838,-68.33463900000001,5.9893202,0.776435,-1.1548509999999998,-0.9791786,0.0488208,-0.0203042,62.8335778,87.4373476,-163.41017119999998,8.650595788078888,0.9866108707298537,6.148860756233958,0.9806051507861052,-5.245830399999996,13.171563799999996,-95.0755322
759.484,6.6483808,-2.701445,-0.3501062,-0.9434662,0.2515181999999999,0.1039871999999999,68.0218628,74.24894259999999,-68.5382034,2.1573716,-0.7135182,-1.3404076,-0.9785406,0.0565026,-0.0192146,62.8727592,87.4614946,-163.41782819999997,7.184799698050885,0.9819384976858376,2.6381912319533547,0.9803588376244078,-5.149103599999998,13.212551999999995,-94.8796248
779.471,4.3475566,-4.0072698,0.9660406,-0.9445472,0.2538767999999999,0.108025,67.8640274,74.1960494,-68.7983124,-2.9395722,-2.3852646,-1.7809781999999998,-0.9831258,0.0577642,-0.0112088,62.053717000000006,87.4723192,-164.1755432,5.991051166618757,0.9840184161036216,4.183593584455981,0.9848851093527204,-5.810310399999997,13.276269799999998,-95.3772308
799.457,1.2329067999999996,-5.110462,2.0585054,-0.9473234,0.2517844,0.1089157999999999,67.6019638,74.1162338,-69.101706,-8.591308399999999,-3.8165516,-2.3687458,-0.9868908,0.0454197999999999,0.0015325999999999,60.2862404,87.479442,-165.76216440000002,5.645735161408069,0.9862452330736812,9.694720357204265,0.9879366164989736,-7.315723399999998,13.363208199999995,-96.6604584
819.444,-1.9398662,-5.6213932,3.0529104000000005,-0.9488978,0.2507542,0.1118307999999999,67.26905839999999,74.0148452,-69.41195379999999,-13.0370692,-4.9269798,-2.467867,-0.9913334,0.0263114,0.0154043999999999,57.798174200000005,87.4784532,-167.97473159999998,6.684564630051597,0.9878212548285848,14.153821773813805,0.9918021452209508,-9.4708842,13.463608,-98.5627778
839.43,-3.929726,-5.456785,3.7935088,-0.9574828,0.2476201999999999,0.1180104,66.9192308,73.9034576,-69.697995,-14.5308312,-5.7573276,-1.823074,-1.0056398,0.0112586,0.0311713999999999,54.9886764,87.4544038,-170.47457300000002,7.720748537996717,0.9959997641827232,15.73580233944527,1.0061857778740266,-11.930554400000002,13.550946200000002,-100.776578
859.417,-3.997488600000001,-4.5778406,4.012977600000001,-0.9681358,0.2504478,0.112836,66.647069,73.7970992,-69.9042848,-12.7645682,-6.623279600000001,-1.1282532,-1.0220768,0.0103018,0.0477437999999999,52.05831980000001,87.396631,-173.1270082,7.2828928925420895,1.006351325662405,14.42480465294202,1.0232431688606185,-14.5887492,13.5995318,-103.2227234
879.403,-3.0032602000000006,-3.1583028,3.522235600000001,-0.982574,0.2547241999999999,0.1033234,66.4956164,73.71383660000001,-70.0088578,-9.5344156,-6.7808726,-0.5317914,-1.0331984,0.0183942,0.0563276,49.368343200000005,87.3142488,-175.6034028,5.603623116100801,1.0202998620646777,11.711879274653922,1.0348961681627584,-17.1272732,13.6004122,-105.594545
899.39,-1.7061050000000002,-1.6817304,2.6913780000000003,-0.9927564,0.2553055999999999,0.0973312,66.45400260000001,73.660707,-70.0253632,-6.280894000000001,-5.9139894,0.0252099999999999,-1.0359164,0.0309172,0.0563372,47.2989584,87.225087,-105.527881,3.603127384397221,1.0296696468410438,8.627023565903155,1.0379077710223774,-19.155044200000003,13.56438,-35.5025178
919.376,0.0261513999999996,-0.561642,1.8675052,-0.9962162,0.256649,0.091156,66.5079088,73.6332884,-69.97861019999999,-3.789071,-4.0555176,0.2237471999999999,-1.0328503999999998,0.0411888,0.0563909999999999,45.9896856,87.1537278,-106.7483034,1.950308002319889,1.03277531083941,5.5546687440799385,1.0352083900870392,-20.5182232,13.520439399999995,-36.7696932
939.362,1.2716261999999996,0.262844,1.0947064000000002,-0.985181,0.2618058,0.0820394,66.63732459999999,73.6244154,-69.879274,-2.2406956,-1.7429412,0.0712491999999999,-1.015762,0.0509722,0.0585453999999999,45.406375,87.1135086,-107.2806124,1.6983822488071991,1.022670202375624,2.839654423872285,1.0187237945969458,-21.2309496,13.489093199999996,-37.4013384
979.336,2.4136307999999995,1.1693032,0.3860526,-0.9677024,0.2667512,0.0867807999999999,66.87484900000001,73.62924480000001,-69.7096038,-1.2930452,0.6346664000000002,0.4910683999999999,-0.9954558,0.0507827999999999,0.0577506,45.610839,87.1016892,-107.0507236,2.7095977971288727,1.0075391034177483,1.521813228359696,0.998421891952415,-21.264010000000003,13.472444399999995,-37.3411198
1019.308,2.8842949999999994,1.702406,0.260249,-0.9520536,0.2658218,0.0983561999999999,67.181665,73.6411894,-69.48912340000001,-0.1450042000000001,2.2001962,1.404447,-0.9801238,0.0452638,0.059611,46.4130318,87.0999496,-106.2498844,3.3593263279803582,0.9933484930811745,2.614261064301169,0.9829775919307012,-20.768633200000004,13.4587602,-36.760761
1039.295,3.2356529999999992,2.005209,0.252516,-0.9421427999999998,0.2672674,0.1051356,67.5003112,73.6516782,-69.26253340000001,1.2417903999999995,2.8280526,2.3456818,-0.9757594,0.0404242,0.0603422,47.5818572,87.0939742,-177.11171599999997,3.814980707729201,0.9849458934794132,3.878420814294158,0.9784588411041314,-19.918454,13.442296000000002,-107.8491826
1079.268,3.2422743999999994,2.1147496,0.1021936,-0.9459444,0.2676712,0.1138939999999999,67.8243408,73.66617099999999,-69.0337584,3.4082782,2.451708,3.1006942,-0.9781888,0.0380716,0.0561293999999999,48.8775222,87.0723798,-175.88972180000002,3.8723316861390473,0.9896618222588968,5.21934257620372,0.9805372429012372,-18.946818600000004,13.406208800000002,-106.8559634
1099.254,2.8953332,2.0722102,-0.1119726,-0.9524956,0.2638352,0.117774,68.11956040000001,73.686279,-68.82580540000001,5.157718999999999,1.762754,3.4600356,-0.9836176,0.0380816,0.047088,50.1544448,87.0376966,-174.7204622,3.562239087309699,0.9953530006256072,6.456098922781803,0.9854801220888832,-17.965115600000004,13.3514176,-105.8946568
1059.281,1.8774724,1.7566686,0.0822122,-0.96105,0.255183,0.1182534,68.2807878,73.7006834,-68.70491,5.3914176,1.2315028,3.1839074,-0.9901708,0.041064,0.0380954,51.2877914,87.001689,-173.698584,2.572459140358999,1.0013587432087263,6.381320334834505,0.9917538629971652,-16.992996400000003,13.3010056,-104.993674
1119.24,0.7679261999999996,1.0993964000000005,0.088495,-0.9640602,0.2554155999999999,0.1140344,68.3453524,73.7089826,-68.65180339999999,4.5157594,1.0129439999999998,2.5635584,-0.9996068,0.0461374,0.0331667999999999,52.250064,86.9724318,-172.8298004,1.343954782723139,1.0038192279144489,5.290554807960591,1.0012204806670908,-16.095288400000005,13.263449199999997,-104.177997
1139.246,0.0422525999999996,0.4967394,0.0859299999999999,-0.9638436,0.2574105999999999,0.1130766,68.3601396,73.71191080000001,-68.63524,3.2612484000000004,0.6731966,1.6973356,-1.004179,0.0512766,0.0345384,52.9102012,86.9502548,-172.236917,0.5058846495191567,1.004012459943043,3.737630656951203,1.006080342131343,-15.449938400000004,13.238343999999994,-103.601677
999.322,0.6621315999999997,1.0638514,-0.0515953999999999,-0.955402,0.2599284,0.1142752,68.2441376,73.70157300000001,-68.7204436,1.6831472,0.4634952,0.8608162,-1.005255,0.0533014,0.034462,53.3048568,86.938585,-171.877301,1.2541372103169892,0.99670184913323,1.9464883322212128,1.007256811201076,-14.939280800000002,13.237011999999996,-103.1568574
1159.213,0.3282643999999996,0.7947858000000001,0.1119936,-0.9535228,0.2633204,0.1127882,68.2144348,73.694403,-68.73462219999999,0.2031074,0.3430795999999999,0.2134876,-1.003422,0.050761,0.0363086,53.4643554,86.93687299999999,-171.7226012,0.8671704276726461,0.9956226901970644,0.452253450207602,1.0053609817567817,-14.7500794,13.24247,-102.987979
1179.199,-0.2158398000000003,0.3055668000000001,0.1987996,-0.951244,0.2681893999999999,0.1119224,68.18574520000001,73.684584,-68.74674239999999,-0.5819409999999999,0.3239659999999998,-0.0903645999999999,-1.0009374,0.0483993999999999,0.0400731999999999,53.4940802,86.9397706,-171.681491,0.4236498194103713,0.9946443210666416,0.6721421408974145,1.0029077933675457,-14.691665000000004,13.255186600000002,-102.9347486
1199.186,-0.1477634000000003,0.164283,0.3411104,-0.949801,0.2709242,0.112173,68.141536,73.6663528,-68.7740586,-0.871993,0.2721061999999999,-0.1925024,-0.9967346,0.047194,0.0416738,53.4630362,86.94360220000002,-171.6950774,0.406422479024869,0.9940345284121876,0.9335259772139176,0.998721103251353,-14.678499800000004,13.277249400000002,-102.9210188
1219.172,-0.0633224000000003,0.1906076,0.4737954,-0.9499718,0.2721284,0.1115142,68.1066606,73.6455932,-68.796045,-1.1263767999999998,0.2542101999999999,-0.1006142,-0.9961284,0.0464107999999999,0.043611,53.420819,86.94515860000001,-171.714444,0.514609623482383,0.9944524642653564,1.1590818515548933,0.9981621466295943,-14.685841600000003,13.299565400000006,-102.918399
1239.159,-0.9866912000000004,-0.6531072,0.7519916,-0.9546604,0.2699184,0.1071104,68.1675874,73.6314742,-68.74031520000001,-1.3178308,0.1051285999999999,0.0140102,-0.9967058,0.0453314,0.046501,53.328231,86.9422854,-171.7797638,1.4019985396996106,0.9978502191084994,1.3220916479846017,0.9988191681083218,-14.8393564,13.310811200000003,-103.0394486
1259.145,-0.4688234000000003,-0.5477672,0.7420912,-0.9553494,0.2663556,0.107429,68.142041,73.6105056,-68.75771180000001,-1.323242,-0.078308,0.0886274,-0.9982132,0.0453624,0.0473148,53.1952934,86.935509,-171.8848878,1.0346707857578854,0.9975864733308688,1.32851659735916,1.000362949277431,-14.9467476,13.325003400000003,-103.127176
1279.132,0.1871911999999996,-0.4466378,0.6267016,-0.9564414,0.2631332,0.1063326,68.13291939999999,73.59467140000001,-68.7696182,-1.1993237999999995,-0.3163132,0.029391,-0.9997574,0.0442604,0.0460212,52.99226159999999,86.92775739999999,-172.06216439999997,0.792010584013143,0.997660189843696,1.240683460283758,1.0017942866239355,-15.1406578,13.333086000000003,-103.2925462
1299.118,0.5977473999999996,-0.3616071999999999,0.4842588,-0.9575912,0.260337,0.1057582,68.13280180000001,73.5839964,-68.78007360000001,-0.7004292,-0.4639494,-0.0463766,-1.00012,0.0414154,0.0453093999999999,52.73411120000001,86.921132,-172.30426640000002,0.8500401794480302,0.9979684648092244,0.8414278929299647,1.002002091557458,-15.398690599999998,13.337135600000002,-103.5241928
1319.105,0.8873821999999997,-0.3212935999999999,0.2200352,-0.9566672,0.2583272,0.1051067999999999,68.1340606,73.5796278,-68.79468080000001,0.4114892,-0.4818668,-0.0864142,-0.9999586,0.0406528,0.0436342,52.4971438,86.91597,-172.5476532,0.969067714618973,0.996490096901078,0.6395204364369602,1.0017353918432952,-15.636916799999998,13.3363422,-103.75297240000002
1339.091,1.1591339999999997,-0.3845866,-0.0074403999999999,-0.9560414,0.2595868,0.1047308,68.1327056,73.5783782,-68.8206208,1.5118658,-0.1971388000000001,-0.169323,-0.9976478,0.043982,0.0422902,52.37571280000001,86.91474919999999,-172.6983642,1.2212918743722645,0.9961771959429908,1.5340378685039298,0.9995118859647842,-15.7569928,13.336371,-103.8777434
1359.077,0.6067405999999996,-0.5344462,-0.2108273999999999,-0.9546262,0.2607168,0.1033631999999999,68.1093292,73.57926160000001,-68.8622466,2.2308524,0.1745771999999999,-0.2040722,-0.9967504,0.0473452,0.0401953999999999,52.4007882,86.9181014,-172.7180326,0.8355926573238659,0.9949715486600206,2.2469590766541434,0.9986834323469876,-15.708540999999997,13.3388398,-103.855786
1379.064,-0.1191816000000003,-0.7138116,-0.3871846,-0.9531414,0.260845,0.1038541999999999,68.05526419999998,73.5816512,-68.9234754,2.2427366,0.6361912,-0.4232322,-0.9933362,0.0491797999999999,0.0399913999999999,52.5197488,86.9302872,-172.6451444,0.8207576795560795,0.9936318922400792,2.369331592465233,0.9953566049574596,-15.535515399999998,13.348636,-103.721669
1399.05,-0.5537658000000004,-0.9622296,-0.5396212,-0.9512842,0.2597094,0.1047702,67.9710998,73.58501580000001,-69.0060696,2.0621828,1.2712751999999998,-0.5919416,-0.9910026,0.0517834,0.0378251999999999,52.8097504,86.952974,-172.3992856,1.2343959672063258,0.9916488271691952,2.493819037653181,0.9930752335434412,-15.1613494,13.3679582,-103.39321599999998
1419.037,-1.2665098000000004,-1.2830735999999998,-0.5808638,-0.9518906,0.2603017999999999,0.1116864,67.8399856,73.5849946,-69.1209288,1.7774614,2.107718,-0.7499752000000001,-0.9886818,0.0506519999999999,0.0368646,53.2986144,86.9898376,-171.9508816,1.8941297977338936,0.9931397652881292,2.857325147166314,0.9906645877835748,-14.5413712,13.404843,-102.8299528
1439.023,-2.0318474000000006,-1.8614912,-0.5817007999999999,-0.948917,0.2549816,0.1215824,67.63608239999999,73.580568,-69.29216899999999,1.3751624,3.3857254,-0.6382030000000001,-0.9847152,0.0517898,0.0330786,54.22781139999999,87.0405746,-171.0576292,2.816368080575556,0.9900713960201658,3.709651085990152,0.98663083383454,-13.408271000000004,13.4600066,-101.7654602
1459.01,-1.9012248000000005,-3.0138236,-0.243336,-0.9487808,0.256972,0.1351825999999999,67.35116880000001,73.5568788,-69.5464508,1.4244278,5.389041799999999,-0.4561228,-0.9774606,0.0546294,0.0261035999999999,55.92562339999999,87.11000059999999,-169.4027374,3.571694393554409,0.992216685293792,5.592746560344024,0.9793339541901322,-11.425545400000004,13.553121799999996,-99.8562866
1479.008,-2.8096764000000003,-4.9142328,0.4343894,-0.9490056,0.2601992,0.1510402,66.9274886,73.50045480000001,-69.922838,1.7644873999999997,8.3814524,-0.1975132,-0.969903,0.0490028,0.0112601999999999,58.8783646,87.2091492,-166.5099396,5.677381406612133,0.9955543152073824,8.567448370570947,0.9712053829756506,-8.049124000000003,13.708694399999994,-96.5871016
1498.983,-3.685597800000001,-8.292920800000001,1.8034948,-0.9493864,0.2689504,0.1919716,66.309294,73.386792,-70.4822222,2.147522,12.5758362,0.0789697999999999,-0.9582304,0.043095,-0.0030044,63.7359254,87.3331756,-161.7333162,9.25250020438068,1.005247208089473,12.758124591766084,0.959203682712134,-2.573368600000004,13.946383599999995,-91.251094
1518.969,-4.3753466,-14.8592444,4.6020754,-0.9595624,0.2808389999999999,0.2450304,65.3860968,73.16443620000001,-71.3431916,2.574648,18.8131396,0.3903332,-0.9402804,0.0454154,-0.048786,71.6077646,87.45248260000001,-153.9613618,16.15920480705496,1.0294029533369915,18.99250889008649,0.942639837359593,6.221667799999997,14.288046399999994,-82.6181702
1538.955,-7.972819800000001,-24.170577400000003,9.545832,-0.9812136,0.2884478,0.2375124,64.0671188,72.76916940000001,-72.54443819999999,3.3910005999999995,25.9503188,-0.384083,-0.9334928,0.0319816,-0.0920108,82.785792,87.5286988,-142.8931336,27.182817660884364,1.049949714178522,26.173754996975937,0.9385614618697276,18.7186732,14.759529399999996,-70.34869540000001
1558.942,-13.3571868,-35.5697964,16.4511304,-1.0077252,0.3258174,0.2578743999999999,62.320359,72.129997,-74.078601,2.5866476,33.775278400000005,-1.7883086,-0.9457232,0.0263312,-0.110872,96.7792222,87.48318180000001,-128.9624938,41.40367793548481,1.0900303954629704,33.92135351740739,0.9525640679217752,34.4588632,15.353184799999998,-54.88389280000001
1578.928,-18.4468314,-49.806645200000006,24.1039662,-1.0438237999999995,0.3716152,0.3093338,60.1245972,71.20200320000001,-75.974951,0.4494376000000002,40.1060892,-3.682131,-0.963147,0.0524684,-0.133873,112.0377412,87.26441960000001,-113.686676,58.32656925749578,1.1503709758768774,40.27726993945607,0.973820854539766,51.913144,16.0624164,-37.711725
1598.914,-23.5084712,-66.3620554,33.0079088,-1.0773044,0.4193825999999999,0.3495031999999999,57.537106400000006,69.9254088,-78.1804518,-5.9096654,45.0378608,-4.6452764,-0.9935954,0.0913318,-0.1517103999999999,126.68265700000002,86.84242259999999,-98.8620742,77.75662453079491,1.2077330095068033,45.66083270607897,1.0092518823666172,69.1455506,16.9170138,-20.68162240000001
1618.901,-28.9756144,-83.2519908,42.3442836,-1.101293,0.4650579999999999,0.3813388,54.7006318,68.2623732,-80.55805959999999,-13.989206,47.2390944,-6.9916056,-1.0225031999999998,0.081994,-0.1473372,139.449907,86.25291460000001,-85.7251098,97.79324391601908,1.254808549380518,49.76055137464313,1.0363127233369662,84.74927520000001,17.9905414,-5.167050200000006
1638.887,-31.3092066,-99.997059,51.8056328,-1.1131134,0.5290794,0.4833818,51.822584600000006,66.20254359999998,-82.9582688,-20.9227934,47.3619292,-7.100996,-1.0362326000000002,0.0946752,-0.1358657999999999,149.078897,85.52406479999999,-75.5792426,116.89098261362764,1.3238596667831375,52.26222120611514,1.0493812035706758,97.2563124,19.3215212,7.379026199999996
1658.874,-32.0140494,-117.1557268,61.0325372,-1.1172694,0.5632809999999999,0.5782149999999999,49.0163224,63.7486206,-85.3084474,-26.7643202,45.2381072,-6.573591599999999,-1.0429841999999998,0.1076078,-0.1424994,155.39761040000002,84.7412524,-68.6424042,135.92400184695586,1.3783718596091403,52.97194809831341,1.0581595149460403,106.381288,20.9926318,16.666043199999997
1678.86,-32.1358634,-134.6472276,69.1062478,-1.1108428,0.6054796,0.64542,46.3654518,60.8908876,-87.5479402,-30.8396596,42.6101166,-4.2322468,-1.0401198,0.0958878,-0.1378622,159.2256224,83.9521838,-64.13588779999999,154.7199505617316,1.4202620352343436,52.769485063676505,1.05358894011361,112.86017060000002,23.0612962,23.4120524
1698.847,-34.3595372,-151.58058939999998,77.338517,-1.1024266,0.632714,0.7148634,43.8944572,57.6182046,-89.6035372,-29.8634198,39.43737779999999,-2.4225399999999992,-1.0285556,0.063404,-0.1328636,161.64271520000003,83.2024584,-61.0767912,173.6044328097899,1.4583213277063185,49.52776302178975,1.0390377402733355,117.748258,25.5842538,28.526746
1718.833,-36.1663564,-168.25270999999998,84.944519,-1.0899226,0.6541452,0.7991498,41.6295884,53.9510942,-91.44368,-26.805406999999995,36.7945358,0.0850362000000003,-1.0271554000000005,0.0679024,-0.118442,162.88617240000002,82.489174,-59.2645758,191.9180842592414,1.5014917980175049,45.52334500372793,1.036188910883976,121.256584,28.5380798,32.1791042
1738.82,-38.585079,-185.3672426,91.0225172,-1.0845053999999998,0.6791904,0.8680049999999999,39.5208282,49.9054368,-93.11689,-25.695327,36.10721199999999,0.3812390000000003,-1.0285592,0.0685418,-0.1153814,163.7063568,81.7926332,-57.9020736,210.0831301841911,1.5462484412623736,44.318460388702505,1.0372776261531145,124.1855286,31.887196400000004,35.214816400000004
1758.806,-42.0579996,-202.3338532,96.3392316,-1.0668384,0.6819972,0.914177,37.5285492,45.5034654,-94.637886,-26.6286882,40.3350494,-3.3219541999999995,-1.0142434,0.0543522,-0.1142862,164.80617080000002,81.0360536,-56.23398579999999,228.0112081157222,1.5617246683879331,48.446244695127376,1.0221081995556245,127.27762160000002,35.5325882,38.4039002
1778.792,-44.676813,-217.9828644,101.7346128,-1.0416219999999998,0.661696,0.9586378,35.69304279999999,40.772209200000006,-95.9781692,-28.8877464,47.55764,-4.1000446,-1.0144791999999998,0.0406309999999999,-0.111203,165.96391,80.1505356,-54.45981439999999,244.6680981113633,1.5626274088498635,55.79463576511905,1.02136429965152,130.2708672,39.378326400000006,41.5183548
1798.779,-43.7343104,-232.3881804,104.9340834,-0.996856,0.6468626000000001,0.9785392,34.0515302,35.774512800000004,-97.1817412,-32.0710278,53.01288219999999,-3.3797436,-1.0332028000000002,0.0528653999999999,-0.1060622,166.9760834,79.1592972,-52.7680038,258.70469295083274,1.539380418854092,62.05110128032532,1.03997690681757,132.9245532,43.3847844,44.4137374
1818.765,-42.2348346,-244.6775084,106.4607374,-0.921102,0.6245646,0.9820454,32.59138839999999,30.557795,-98.2756346,-35.8856416,51.54413519999999,1.5108910000000002,-1.0673718,0.0442178,-0.0926439999999999,167.376001,78.16781619999999,-51.625946,270.15690436905953,1.4842247139966105,62.82403949264493,1.0722969197046497,134.7846126,47.6100212,46.6496886
1838.752,-39.3711788,-254.13468000000003,106.810234,-0.8259384000000001,0.5827202,0.977093,31.321063400000003,25.1612904,-99.277774,-36.286675,39.9990516,7.372553200000001,-1.1151372,0.0159179999999999,-0.0774092,166.9614044,77.3660782,-51.3129028,278.4653504225234,1.4058619429843031,54.5068936203662,1.1179340507348725,135.64034099999998,52.204787800000005,47.96487119999999
1858.738,-34.276643199999995,-261.11798080000005,105.7547622,-0.7173022,0.5433078,0.949613,30.2646012,19.635608,-100.2140258,-27.229094600000003,16.706905199999998,16.5817744,-1.1563136,-0.0183682,-0.0579077999999999,165.2520598,76.9589158,-52.512408400000005,283.7984458979785,1.3082318836638558,35.993048166972905,1.1579083925842495,134.98745860000002,57.3233078,47.7016174
1878.725,-27.3025736,-265.1871032,104.5001922,-0.6031316,0.5067192,0.9139132,29.452699,14.027593,-101.0881332,-9.738200400000002,-11.219245400000002,22.4109804,-1.1775208,-0.0422336,-0.0507136,162.6434966,77.03829959999999,-54.99393619999999,286.3388209772259,1.2065526974407044,26.887842175696537,1.179368806025732,133.1907976,63.010706600000006,46.094197
1898.711,-22.6126872,-266.214917,102.73706359999998,-0.4824651999999999,0.472155,0.8775708,28.8281326,8.3921642,-101.9106156,14.4552438,-40.086365,24.0155744,-1.1842365999999998,-0.0869723999999999,-0.0326158,159.4173522,77.6295472,-58.6040352,286.2457334055346,1.1071736639970624,48.914400190461286,1.187873862643235,130.5892196,69.237383,43.3065804
1918.697,-17.1585814,-265.1095336,100.4966202,-0.3869504,0.4416116,0.8317501999999999,28.403548,2.7772163999999995,-102.6958542,39.219320800000006,-63.376366,21.9465284,-1.157133,-0.0744528,-0.0226803999999999,155.584558,78.63293619999999,-63.331633,284.03706165374444,1.0181158148829434,77.69407313425701,1.159747558592386,127.18101,75.8557198,39.3642212
1938.684,-12.009803,-262.3177,97.9449432,-0.2988552,0.410605,0.7811188,28.1623692,-2.7688408000000004,-103.4626296,62.2995352,-80.9166888,19.0070512,-1.123678,-0.052438,-0.0118418,150.6110076,79.91981659999999,-69.6758362,280.2642021376259,0.931696021406918,103.87497584987209,1.1249632081784895,122.4486384,82.6886574,33.7867934
1958.67,-8.456271000000001,-258.0527494,94.8642044,-0.2201979999999999,0.3912602,0.7567214,28.069264,-8.2128164,-104.2310898,76.7790298,-91.2527026,16.8851078,-1.0763206,-0.0149077999999999,0.0098873999999999,143.4533232,81.2836624,-78.5050026,275.06716864898584,0.879885776976762,120.44576378707124,1.0764692458049885,115.3840592,89.4964788,25.7260872
1978.657,-7.564313200000001,-252.5837186,90.9306182,-0.1561432,0.3737708,0.717938,28.0731264,-13.5239104,-105.0242142,75.7345642,-96.5016664,9.8156058,-1.0490499999999998,0.0331152,0.0406505999999999,133.6488844,82.6291794,-89.95981139999999,268.5593622688024,0.8243302018504963,123.06356873486892,1.0503594576388595,105.575758,96.1530898,15.064402800000002
1998.643,-3.930277,-246.4859158,86.4613676,-0.1059334,0.3434604,0.6707821999999999,28.2360164,-18.6842472,-105.8656708,62.57939839999999,-98.0917038,4.660391400000001,-1.0194713999999998,0.0769238,0.0363236,120.3269576,83.7757966,-104.6576036,261.2399698597513,0.7610096526592549,116.446909390048,1.023014472205237,92.0909412,102.4600438,1.2080672000000008
2018.63,-1.809895,-239.2991606,82.36043079999999,-0.048987,0.3258182,0.6486242,28.5313442,-23.675987,-106.759401,50.0998502,-97.683766,0.8488372000000004,-0.992849,0.0698192,0.028103,104.0589078,84.56263279999999,-122.0248446,253.08220906523084,0.7275098476624766,109.78539818481008,0.9956975625653806,75.5275636,108.2386198,-15.265443599999998
2038.616,-0.6195966,-231.2625732,78.21377559999999,0.0066205999999999,0.2976438,0.6155336,28.9474394,-28.481991600000004,-107.71595320000002,35.628067,-90.432994,-4.0384994,-0.9653962,0.0762178,0.0241139999999999,86.7731146,84.9254792,-140.08853159999998,244.13143254533864,0.6837523504542855,97.28203862668754,0.9687003979596994,57.8256752,113.4074708,-32.372578399999995
2058.603,1.8581068000000005,-222.0988252,74.1660034,0.0573552,0.277402,0.5827008,29.5151922,-33.0816238,-108.7403322,20.9395926,-80.0978804,-7.262193799999999,-0.9530272,0.0731298,-0.006366,70.7173506,84.89360959999999,-84.59649060000001,234.1622018525389,0.6479056342490626,83.10761963632117,0.9558500601788336,41.2021584,117.9752334,24.143841599999995
2078.589,4.5641248,-211.2385042,70.4578416,0.1154348,0.2517644,0.5269069999999999,30.2360418,-37.4466548,-109.8246218,14.218267,-67.9087332,-5.191122399999999,-0.938736,0.050334,-0.039469,57.3960638,84.5653518,-26.21196,222.72593996832535,0.5952659009278122,69.57516017289399,0.9409126373967988,27.160022000000005,122.0120066,83.6126618
2098.575,6.733719600000001,-198.7326174,67.42045759999999,0.1791646,0.2301422,0.5018468,31.085368,-41.554100000000005,-110.94667060000002,12.9071498,-48.8175646,-2.906405999999999,-0.918929,0.0300428,-0.0683875999999999,48.4921736,84.1628966,36.629144200000006,209.96550740847795,0.5804443098043429,50.57861529610759,0.921959836818611,17.406805600000002,125.7169966,147.5758148
2118.562,9.0764902,-184.4526826,64.7001436,0.229848,0.2207182,0.426287,32.0466172,-45.375953,-112.0813492,8.765533600000001,-25.1674578,-2.1815028,-0.9267036,0.0374608,-0.0786556,44.3675444,83.926007,104.3308532,195.6815867028568,0.5322285536160569,26.739380431751176,0.9307897599355937,12.3209272,129.30196,216.4122024
2138.548,11.3808934,-168.4697846,62.02580880000001,0.2936118,0.2083072,0.3780097999999999,33.070553000000004,-48.885077,-113.181514,4.5355136,2.635468999999998,-0.7901265999999989,-0.9029124,0.0240884,-0.1225855999999999,44.9922948,83.9932022,104.8621702,179.88550251492396,0.5220068845974352,5.304797876429742,0.9115142798748026,11.9217418,132.8782792,218.0436842
2178.521,12.4520898,-146.72372739999997,58.060621000000005,0.3697638,0.1988589999999999,0.3029688,34.3114808,-52.4666246,-114.3666854,2.4256014,32.794821,-1.387384599999999,-0.9023728,0.0309986,-0.1448778,51.3403532,84.3901214,39.1474454,158.28437204424955,0.5177453654499286,32.91365465277352,0.914454569847316,17.028872400000004,136.856746,153.51413079999998
2198.508,14.6175082,-125.1303206,53.14735040000001,0.4642746,0.187111,0.261907,35.5537858,-55.627131,-115.454312,-0.5699412,64.14170279999999,-3.2077355999999986,-0.911828,0.040174,-0.1552442,65.2818244,84.8894806,-18.9112062,136.73298626877215,0.5649395606391536,64.224391306843,0.925821264334342,29.7280386,140.51661159999998,96.5431058
2158.535,15.0804008,-113.609767,51.5151468,0.5052922000000001,0.1983582,0.227312,36.1947298,-57.32024839999999,-116.026741,-2.1926202000000004,92.9992142,-3.630275599999999,-0.8841744,0.0597738,-0.1875412,84.640042,85.0347976,-71.4767214,125.65193192270654,0.5885039746952268,93.09586632117929,0.90581950656808,48.4453122,142.355046,44.55001959999999
2218.494,15.0599198,-95.715225,46.17324,0.5866356,0.204502,0.198314,37.13132399999999,-59.4179594,-116.7739778,-1.7794078,115.6977904,-2.673207399999999,-0.8909762000000001,0.0816282,-0.19405,105.7622498,84.59591359999999,-122.2504228,107.33207150372462,0.6521432647719058,115.74234762335024,0.91550923234104,68.6309258,144.01387300000002,-5.47644500000001
2238.48,14.6326706,-78.56973239999999,39.6572306,0.6687772000000001,0.1992686,0.148808,38.0024872,-61.1579656,-117.43434299999998,1.130622,127.4893644,-1.764975199999999,-0.9254462,0.1126744,-0.1946549999999999,126.3044694,83.479936,-101.6325166,89.2189096389173,0.7135227670157415,127.50659386353118,0.952384774413577,88.3019822,144.6379016,15.801826399999992
2258.467,16.660255,-67.06085099999999,33.4793764,0.7471586,0.2043062,0.1274342,38.6552902,-62.1451864,-117.8725342,4.190485600000001,131.60977459999998,1.5082324000000011,-0.9275608,0.1244876,-0.1979534,143.352025,81.7141508,-84.5409028,76.78274856790489,0.7850009377332233,131.6851081360342,0.9565833726455628,104.69673480000002,143.85933719999997,33.33163139999999
2278.453,15.2975272,-55.9986646,27.801808800000003,0.8094918,0.2159678,0.1008528,39.21662740000001,-62.882858,-118.2354386,7.5008773999999985,124.2650678,2.299731600000001,-0.9346844,0.1365198,-0.2087799999999999,153.9583834,79.61955700000001,-73.9409898,64.36462808072295,0.8438544614872401,124.51248532793996,0.967399437562065,114.74175599999998,142.502415,44.29444879999999
2298.44,13.2522786,-35.6935092,18.1905088,0.9196344,0.2041575999999999,0.0637634,40.2037756,-64.4288762,-118.91101840000002,9.145158,106.95287,2.7649632000000013,-0.982766,0.1310118,-0.1833505999999999,159.2335086,77.64548640000001,-68.7400262,42.19649390062378,0.94417875769405,107.37874714103911,1.0082710672312285,119.029733,142.0743626,50.17099219999999
2318.426,12.0606906,-23.2685968,11.371959,0.985211,0.1786763999999999,0.0415026,40.70149,-64.9320058,-119.1958098,7.6974632,84.80984939999999,0.7788630000000014,-0.9851936,0.1177112,-0.2005195999999999,162.1582004,76.0507614,-65.88845160000001,28.56937707209556,1.002141924202715,85.16201102920716,1.0122600782756177,121.4567104,140.98276719999998,53.30735819999999
2338.413,12.2147266,-11.386772,5.222765000000001,1.0262087999999998,0.1767946,0.0406194,41.0862326,-65.17357319999999,-119.351358,3.3557783999999997,61.27096479999999,-0.0381871999999987,-0.9905632,0.1038218,-0.19032,163.7222384,74.90214399999999,-64.3327622,17.496725314696935,1.0421184037540838,61.362804975449,1.014009921918657,122.6360058,140.0757172,55.01859579999998
2358.399,10.363389,0.8235069999999993,-0.7679579999999998,1.0345754,0.1552456,0.0317065999999999,41.2914382,-65.1515182,-119.3490966,-3.3739258000000008,37.1320554,-3.278481799999999,-1.0157286,0.089411,-0.1880242,164.634604,74.24586500000001,-63.3095672,10.42438270758197,1.0466387930361076,37.42888398610766,1.0368471514956292,123.3431658,139.3973832,56.03952939999999
2378.386,11.7142168,13.097812599999996,-6.9567044,1.0252878,0.128632,0.042846,41.3807968,-64.862935,-119.1885542,-10.033584800000002,13.806151799999991,-3.765075199999999,-1.0158844,0.0696816,-0.1908788,164.93117980000002,74.0452912,-62.78889,18.89897632812688,1.0342132487881015,17.477369445230856,1.0360074110890134,123.550383,138.9082262,56.39966419999998
2398.372,14.2198,25.701788,-13.3845558,0.984588,0.114768,0.0400652,41.3802346,-64.2998988,-118.8716962,-16.599089400000004,-8.472233400000006,-4.540201599999999,-1.0088018,0.0585988,-0.1983342,164.71777939999998,74.2756988,-62.6645576,32.278955255712006,0.992063729716514,19.181291360643858,1.029782183733201,123.3375448,138.57559759999998,56.20713859999999
2418.358,17.1942306,38.9802126,-20.235525,0.9311808,0.1041544,0.0541354,41.3056656,-63.4465426,-118.4035398,-19.6299438,-28.592292600000007,-3.286445999999999,-0.9969412,0.0455296,-0.2012874,163.9333952,74.880899,-63.07234100000001,47.16540058446233,0.938550191977584,34.837546082152365,1.0180772653057135,122.6277296,138.3274416,55.3311988
2438.345,19.9436752,52.8894782,-27.6138054,0.8693818,0.1043412,0.0634322,41.16931,-62.28607040000001,-117.799423,-20.574359200000004,-50.136438600000005,-1.324473999999999,-0.9986446,0.031314,-0.2034784,162.36236559999998,75.87500600000001,-64.2737716,62.90921501195544,0.8779153969406847,54.20997106952624,1.0196445767872844,121.1930556,138.1610764,53.5256514
2458.331,23.4953032,67.4410362,-35.2098476,0.8077875999999999,0.1129849999999999,0.068007,40.9999282,-60.8054886,-117.0688552,-17.346511600000003,-71.5617244,1.2547464000000008,-0.9801748,0.0240214,-0.2095626,159.6666686,77.225502,-66.693341,79.62446862745689,0.8184811353890571,73.64479786324898,1.002614656551439,118.6667404,138.0309906,50.37551419999999
2478.318,25.9532402,82.8691834,-42.9475162,0.7444658000000001,0.1375524,0.0777576,40.786209,-58.9890884,-116.2172104,-11.6783302,-88.29268420000001,3.876931800000001,-0.9741651999999998,0.0286562,-0.204031,155.3417602,78.812079,-70.8826508,96.87807482609774,0.7610494297173871,89.14601550087932,0.9957146497116932,114.5555512,137.8011674,45.33455959999999
2498.304,28.099492,98.7529664,-50.9538802,0.68882,0.1631328,0.1001592,40.5506728,-56.8302154,-115.2689836,-6.352079000000002,-103.1569032,6.383803800000001,-0.9929638,0.0494224,-0.1709918,148.0341476,80.5267518,-78.1889496,114.62123595081997,0.7149245891564228,103.5492565709349,1.0087903039777095,107.4834748,137.3569672,37.08003399999999
2518.29,29.8249808,114.4295502,-59.0750014,0.6373092,0.197375,0.1150204,40.31526699999999,-54.328267,-114.2522752,-2.2775272000000006,-113.6826112,11.191608,-1.00403,0.0676114,-0.1501798,136.38703900000002,82.08736880000001,-89.9320192,132.1873943653656,0.6770152135999604,114.25486995757672,1.0174485316899329,96.071772,136.4156358,24.320255999999997
2538.277,30.9193492,130.3172866,-67.151389,0.5787007999999999,0.248036,0.1465863999999999,40.0928306,-51.47744,-113.1844422,3.759286,-114.0707628,16.954069800000003,-0.9900012,0.0853551999999999,-0.1280628,121.6425672,83.1699356,-104.8824556,149.82626734443932,0.6464549836466572,115.38505813053496,1.0018921932584963,81.5497366,134.6473756,8.301986599999987
2558.263,29.815552000000004,145.46195219999998,-75.062248,0.5191277999999999,0.299312,0.2276273999999999,39.8587182,-48.2890452,-112.0848282,9.2288214,-109.1428544,21.9902098,-0.9838858,0.1096144,-0.0719358,105.40659460000002,83.64446860000001,-121.4128908,166.38055100796274,0.6410113722139412,111.7179624682652,0.9925831670195904,65.5478764,131.9335138,-9.328062600000017
2578.25,29.9974562,157.81176139999997,-82.4234266,0.4556759999999999,0.327803,0.2844424,39.6886018,-44.815294,-111.0065918,13.0875836,-98.9675522,28.442690400000004,-0.9396554,0.1238961999999999,-0.0391968,89.8363844,83.5008696,-137.3301178,180.5492195140345,0.6292876152466057,103.80196467378144,0.948598401987817,50.147782600000006,128.3161636,-26.32352600000001
2598.236,30.417373,167.7754058,-88.32113939999999,0.3891548,0.3857206,0.3500995999999999,39.5878876,-41.1069818,-109.9498778,18.5058178,-82.8869842,32.451234,-0.903856,0.1310222,-0.0155434,76.97776999999999,82.83147579999999,-150.6128142,192.0271518210121,0.6502242455857518,90.91644532393796,0.913435319501277,37.3898824,123.9384576,-40.662936400000014
2618.223,28.694326,176.1818604,-93.4258956,0.3147018,0.4248833999999999,0.4171984,39.5199342,-37.2003952,-108.919197,19.6819898,-63.07780440000001,27.9224848,-0.8752048,0.1457296,0.0236841999999999,68.46850579999999,81.9907882,-159.54546180000003,201.47409324094616,0.6735114189687952,71.73461708142169,0.8875705603437058,28.9485716,119.1911834,-50.626264800000015
2638.209,28.2290256,180.8908174,-97.2603196,0.2587142,0.4459714,0.4980264,39.5192148,-33.1720184,-107.9350966,10.377323399999998,-44.561134200000005,21.2074178,-0.8713538,0.1718802,0.057743,63.5628578,81.24584039999999,-164.68024580000002,207.3112044117725,0.7168359798423626,50.42953590786211,0.8900193829212261,24.043643,114.4178588,-56.745149200000014
2658.196,28.2489918,183.2973938,-100.416536,0.1831148,0.492783,0.5530462,39.6081514,-29.0687346,-107.0126768,-2.5037770000000004,-25.006479400000007,13.609040000000002,-0.8912902,0.1839408,0.068877,61.2827866,80.7510438,-166.92477100000002,210.90144810747043,0.7630374921342202,28.579693507278098,0.9126754514336848,21.6746352,109.8197784,-59.9120942
2678.182,23.2319688,184.7483186,-102.2507234,0.1205564,0.5304858,0.6134192,39.6646012,-24.9200832,-106.12598699999998,-22.0283974,-8.013663200000007,4.559966600000001,-0.9248876,0.1817966,0.0834623999999999,60.21571279999999,80.57224120000001,-167.5566742,212.4308735463717,0.8198976427037951,23.880167195572074,0.94627324204961,20.5511116,105.4923244,-61.43068720000001
2698.168,19.3548378,184.809662,-103.76049360000002,0.049082,0.5455932,0.6602826,39.7218072,-20.7520088,-105.290196,-43.0373078,7.157561399999994,-2.6550323999999987,-0.9465534,0.1802306,0.0892429999999999,60.0067408,80.6683104,-166.8995882,212.82730310496865,0.8579359500994233,43.70914944164162,0.967683171950882,20.2849336,101.4203192,-61.609392200000016
2718.155,15.845535800000002,182.7752076,-103.335692,-0.0035023999999999,0.586515,0.7272632,39.7815622,-16.621602799999998,-104.4948744,-60.4760374,19.632298799999997,-3.052410599999999,-0.9600122,0.1387786,0.0839553999999999,60.80638280000001,80.90458220000001,-164.8720156,210.5614465165241,0.9343039516693696,63.65607171550623,0.9736177038016308,21.0248206,97.526185,-60.3771412
2738.141,9.5392666,180.9746674,-101.7315598,-0.0745892,0.6219414000000001,0.7528086,39.776065800000005,-12.5397984,-103.7138046,-67.9364904,29.73842219999999,-3.112054399999999,-0.9757786,0.1003255999999999,0.0688843999999999,62.67884299999999,81.24836880000001,-161.6125734,207.82718327289976,0.979334183016482,74.22550347019079,0.983338274855952,22.902777200000003,93.7881672,-57.89876880000001
2758.128,3.0080334,178.3341492,-98.57072,-0.1210308,0.6348179999999999,0.8109643999999999,39.6949386,-8.5383976,-102.9335388,-68.4210898,36.31593199999999,-4.212133999999999,-0.986124,0.0738902,0.0453646,65.4962692,81.6653274,-157.39418659999998,203.78494516804173,1.0369694333682162,77.57599190008622,0.9899284074948048,25.8013306,90.203725,-54.4606478
2778.114,0.6170534,174.649179,-95.2949172,-0.1757726,0.639292,0.8089916,39.619612800000006,-4.6344224,-102.1639038,-61.21704619999999,40.2027026,-4.757138799999998,-1.0054534,0.0633374,0.0409883999999999,69.231211,82.0951752,-152.4005434,198.95687403160352,1.045972120587026,73.39219584778374,1.0082798295834745,29.611598200000003,86.7295976,-50.2366396
2798.101,-0.9956300000000002,169.87110280000002,-91.0611236,-0.2208999999999999,0.6684332000000001,0.8401004000000001,39.562986,-0.8531196000000001,-101.3984192,-49.8900094,41.49401,-4.914512599999998,-1.0094182,0.0696532,0.0124851999999999,73.8304488,82.48782059999999,-146.77002579999998,192.74156551423863,1.0960695392822484,65.07625018321005,1.0118955237476446,34.2674628,83.3409402,-45.37160660000001
2818.087,-2.9215708,166.2880308,-87.9948516,-0.2740316,0.6789188,0.8413413999999999,39.5165816,2.8421718,-100.6359252,-35.8459146,39.3345274,-6.917688799999999,-1.0391956,0.0872444,0.0151426,78.68522039999999,82.8521242,-141.1688234,188.15774943219105,1.1152934170638504,53.66552951034294,1.0429613505425217,39.1686388,80.0099524,-40.532898200000005
2838.074,-3.1396924000000004,161.9758238,-85.62338559999999,-0.305009,0.671711,0.8541992,39.5107154,6.4475750000000005,-99.8923796,-24.418477,34.7328122,-9.896444399999998,-1.0585124,0.0958196,0.0240276,83.3520706,83.19720319999999,-135.9900712,183.241341748148,1.128664002652091,43.59552584936084,1.063112045957377,43.8413552,76.7496282,-36.097691600000005
2858.06,-0.7330954000000002,157.97347100000002,-83.92081900000001,-0.3428682,0.6541142000000001,0.8077970000000001,39.5960632,9.984199,-99.1671324,-16.3984828,28.2855582,-10.949816799999995,-1.0583018,0.100059,0.0288776,87.49082960000001,83.50233779999999,-131.5058792,178.88224850522232,1.094513582566192,34.48016137985791,1.0634135691940363,47.8947664,73.5181388,-32.33874680000001
2878.046,2.8139102,155.6554046,-82.0288498,-0.3825227999999999,0.6788719999999999,0.8205404,39.8065338,13.4719986,-98.4230298,-8.2667696,20.8016592,-12.613481399999998,-1.0704090000000002,0.095513,0.0248708,90.794951,83.800722,-128.0268768,175.9694725550836,1.1315818277685443,25.69335357870931,1.0749496347004543,50.9884172,70.3287234,-29.60384700000001
2898.033,2.651826,155.7200072,-80.91879420000001,-0.4278001999999999,0.6558586,0.7807496,40.0754568,16.9442444,-97.6323698,-4.0471268,11.514396399999995,-15.804644199999998,-1.0841902,0.056115,0.0617948,92.5860444,84.1524508,-126.1555952,175.50955551845115,1.1057727850757406,19.96865889538416,1.087398675881151,52.51058760000001,67.20820640000001,-28.52322540000001
2918.019,6.5546852,155.1393646,-79.3578978,-0.4780042,0.6394016,0.7699347999999999,40.4853904,20.3835078,-96.788774,1.2580844,2.055611199999994,-17.9280434,-1.0715962,0.0555159999999999,0.0490554,92.7624008,84.53996300000001,-126.0160414,174.38137024865378,1.1091086590371746,18.089307723497114,1.0741540273068848,52.27701040000001,64.15645520000001,-29.227267400000017
2938.006,11.4222926,155.1630462,-78.4248824,-0.5500246,0.6290517999999999,0.7178158,41.0656478,23.7977726,-95.8785232,4.9118714,-7.554360400000005,-18.205539,-1.040295,0.0626688,0.0499348,90.86866460000002,84.9167788,-128.0262694,174.2311735992075,1.1015864697871156,20.313455934029225,1.0433765139054452,49.80301680000001,61.1190062,-32.147746200000014
2957.992,16.2102848,155.4765044,-78.3390228,-0.6141182,0.6299624,0.7242634000000001,41.8105636,27.1963132,-94.9005386,6.916835999999999,-14.796302000000006,-17.252118,-1.0469464,0.0613266,0.061968,87.1288772,85.2516664,-131.92348320000002,174.85056261562116,1.139539934168417,23.75728832615423,1.0505702020162764,45.31831360000001,58.0553532,-37.02294460000001
2977.979,19.81338,154.68940419999998,-79.45282900000001,-0.6800624,0.6011626,0.6805434000000001,42.6964562,30.57706,-93.8721208,8.6484244,-20.884886000000005,-17.824142,-1.0259234000000002,0.0676038,0.06238,81.602928,85.5536668,-137.640428,175.02609472555403,1.134469329164998,28.786693903115644,1.0300390093787712,38.906471800000006,54.9766068,-43.76830720000001
2997.965,27.830023200000007,152.1441558,-80.6426742,-0.7488619999999999,0.5906528000000001,0.6687504000000001,43.809443,33.922095,-92.8049302,10.1759724,-23.96966560000001,-16.212079199999998,-1.0052592,0.0709381999999999,0.0397058,74.936926,85.771811,-144.52063900000002,174.42934167603383,1.1648571254415712,30.67453007379996,1.0085409451070988,31.127483000000005,51.849716,-51.715708800000016
3017.952,33.391116999999994,149.6577452,-83.0945146,-0.7946866,0.5732974000000001,0.6395040000000001,45.1041954,37.2428634,-91.7005296,11.747628799999998,-25.842611400000003,-15.580424399999998,-1.0038862,0.0596762,0.0456214,67.317262,85.89811239999999,-152.3748778,174.4050049438531,1.1701119891199816,32.38204704582641,1.0066926360785795,22.213066600000005,48.655249000000005,-60.67434820000001
3037.938,39.1034438,146.4544554,-85.4698364,-0.849568,0.5660254,0.639713,46.5859346,40.543129,-90.552794,17.9151842,-24.382157600000006,-14.0128168,-1.0060058,0.0463033999999999,0.0409486,60.1562688,85.9444306,-159.88599240000002,174.02034294235003,1.2047336894260738,33.34370208632404,1.007903002439798,13.5703342,45.4013016,-69.33319840000001
3057.924,43.4249158,140.813771,-86.3597168,-0.8997784,0.5496414,0.5865158000000001,48.2350976,43.7574074,-89.3613726,22.7727172,-21.832189800000005,-13.387619199999998,-0.9658766,0.0333944,0.0137376,53.8716376,85.9659852,-166.6158478,170.79883518705194,1.2065270910137742,34.27053410699356,0.9665513509548678,5.636539999999998,42.2085778,-77.2544752
3077.911,46.7310674,132.8587006,-85.8852386,-0.946239,0.5548740000000001,0.5983912,49.998838,46.832074,-88.15563820000001,27.574698,-16.238987200000004,-9.952309199999998,-0.9520172,0.0291638,-0.0018753999999999,49.468985,85.968454,-171.56109940000002,164.95908945809174,1.2495300833651186,33.51293979174869,0.952465638987276,-0.5298530000000028,39.13638,-83.40546120000002
3097.897,46.0091512,122.53295,-84.352739,-0.9716544,0.551132,0.5748506000000001,51.7697952,49.721206,-86.97305300000001,31.6705056,-8.338096000000006,-7.567804399999997,-0.9387894,0.0406346,-0.0350457999999999,47.2687616,86.0131286,-174.39243779999998,155.713038653316,1.2563088659974186,33.61274212707894,0.940321708973668,-4.501033600000002,36.29192260000001,-87.41938480000002
3117.883,45.2382886,108.5801394,-79.8683272,-1.0086293999999998,0.5695258,0.5660672,53.50545580000001,52.3328492,-85.8632034,33.1001222,2.194321399999994,-3.304640599999998,-0.9212668,0.0535641999999999,-0.0704013999999999,48.39107299999999,86.1173996,-173.9433716,142.17981262227974,1.2892342604530176,33.33697325128061,0.9255041855258356,-5.114382800000001,33.7845504,-88.08016820000002
3137.87,41.823298,91.6515704,-73.341494,-1.0114046,0.5885452,0.5622074,55.0728668,54.5964532,-84.91172639999999,31.9114464,12.754832399999994,-0.5667235999999984,-0.9279948,0.061352,-0.1001426,52.744510000000005,86.2933028,-170.2544738,124.6120915262038,1.2982302869518028,34.37073372116108,0.935396684335475,-2.328356800000001,31.6968496,-85.34274740000001
3157.856,37.2171686,73.6127184,-65.6657562,-1.0033444,0.6174136000000001,0.5786770000000001,56.3960396,56.5057016,-84.1747162,31.867465600000003,23.202907399999997,2.2828944000000013,-0.9616564,0.073437,-0.0932071999999999,60.557486,86.48652320000001,-163.1157652,105.43216532992368,1.3125420407763404,39.48571744848648,0.9689497441879016,4.1614464,29.9808216,-78.94104899999999
3177.843,31.5495074,55.7849962,-56.586245,-0.9818256,0.643177,0.5795982000000001,57.42762700000001,58.0541552,-83.6744172,30.0195828,30.436736399999997,3.540927400000001,-1.0009376,0.0648876,-0.0782491999999999,70.70594559999999,86.64821140000001,-153.60396099999997,85.49468019366289,1.3090424880757692,42.89648518260222,1.006086187673879,13.2783186,28.5940562,-69.9295438
3197.829,25.3643356,38.870327,-46.7145466,-0.9551122,0.6879763999999999,0.6159292,58.1317026,59.246438,-83.4285066,28.408381,33.68181379999999,3.8920628000000015,-1.039583,0.0569446,-0.0406259999999999,82.1823302,86.73670940000001,-142.72424759999998,65.85211238494881,1.3285027741628692,44.23402361009198,1.0419337662414825,24.050627599999995,27.4902714,-59.295741
3217.815,17.1752086,22.4974498,-36.6182564,-0.9298406,0.7051314,0.625492,58.4325326,60.0976372,-83.469121,25.785029400000003,33.77439679999999,2.715678200000001,-1.0664264,0.0648171999999999,-0.0111041999999999,93.5915846,86.7341932,-131.8437378,46.281959117275655,1.3240294840895046,42.57878026022669,1.0684520762722305,35.159052,26.636556,-48.37461680000001
3237.802,9.385034999999998,6.401127600000001,-25.5784404,-0.9129128,0.7323348000000001,0.6541931999999999,58.33294920000001,60.5999526,-83.7973908,20.6415128,31.4876292,0.2765724000000015,-1.0718394,0.058841,0.0049218,104.167012,86.66788319999999,-121.677156,27.987674605066044,1.3407806616375104,37.65128597540458,1.0734645717435671,45.834062800000005,26.0679306,-37.87976520000001
3257.788,0.5441644000000003,-10.4517052,-13.496128000000002,-0.9096208,0.7471760000000001,0.671708,57.7858476,60.7150534,-84.436679,16.5586628,27.520663199999998,-2.2834819999999985,-1.0655886,0.045568,-0.0087097999999999,113.2217666,86.5608414,-112.93351280000002,17.07863365361288,1.3553131047963196,32.19923146188837,1.066598034730048,55.435919,25.845788,-28.49683380000002
3277.775,-8.455536599999999,-28.767778799999995,-0.2908454000000006,-0.907728,0.7655977999999999,0.6967777999999999,56.7900894,60.402429,-85.387123,14.0073478,23.340746799999994,-4.534220399999998,-1.0513,0.0567974,-0.02844,120.709645,86.4366914,-105.6972044,29.986093232136287,1.3768113218308744,27.596293378054437,1.0532171989892496,63.91955559999999,26.0342624,-20.31008140000001
3297.761,-17.2209332,-48.6500198,13.3925228,-0.9182664,0.7658296,0.7094684,55.3638902,59.6281066,-86.63913099999999,10.6782818,19.6117128,-6.414385399999999,-1.0370114,0.0723078,-0.0466927999999999,126.9972442,86.3173478,-99.5922118,53.31739522677167,1.3903429678333616,23.23336654920307,1.0405773778257148,71.63335399999998,26.6892412,-12.95308080000001
3317.748,-24.6781792,-68.7224216,27.415826400000004,-0.9276988,0.7766447999999999,0.7445088,53.605575,58.373750400000006,-88.1178572,6.317213,16.026933799999995,-7.547977799999998,-1.036185,0.0665858,-0.0577777999999999,132.2549942,86.22752080000001,-94.432965,77.99622616761914,1.4205969034761128,18.80802371293284,1.0399285057923358,78.64941919999998,27.853770399999995,-6.3151078000000105
3337.734,-32.4535402,-88.37400740000001,41.3887508,-0.9418952,0.7849826,0.7615932000000001,51.601265,56.6344308,-89.7257796,3.545483,12.326186799999997,-7.906826799999999,-1.041394,0.0595942,-0.0591883999999999,136.58329759999998,86.168515,-90.1512344,102.84078056993135,1.4433947666428752,15.067290425852333,1.0447756690334054,84.9820326,29.534084199999995,-0.4254548000000113
3357.721,-39.310678200000005,-107.383493,54.591594,-0.9552212,0.7887554,0.7748892,49.4562614,54.4042328,-91.3712752,-0.0364749999999997,8.462591399999994,-8.449388799999998,-1.0420154,0.0612614,-0.0552631999999999,140.01739179999998,86.1545836,-86.69753419999999,126.71537446137243,1.46117620232306,11.958635152999037,1.0452765539518043,90.5611304,31.7503508,4.67374099999999
3377.707,-44.3774682,-125.6573226,66.25445959999999,-0.9751986,0.786378,0.788158,47.2721238,51.7139,-92.9872008,-4.4281788,5.259332799999994,-8.465306599999998,-1.036076,0.0669502,-0.0506284,142.6151488,86.1789426,-83.9980576,148.82464790393598,1.4800661138239604,10.90553826355805,1.0394705584780168,95.34302499999998,34.4650426,8.98914319999999
3397.693,-47.7644684,-143.4465514,77.00450459999999,-0.991018,0.7884979999999999,0.811172,45.1330742,48.581971,-94.5205612,-8.2272554,3.608328399999994,-7.626687399999999,-1.0285377999999998,0.0633506,-0.0543893999999999,144.6545318,86.2093274,-81.783673,169.67041957506578,1.5039434118051118,11.784486664950428,1.0319212718912036,99.5214576,37.6273564,12.73688819999999
3417.68,-50.8217574,-160.56132480000002,86.34905260000001,-1.0042594,0.7807112,0.8142802,43.0704826,45.0444876,-95.9468444,-10.8848944,3.7957873999999943,-6.723124999999999,-1.0180593999999998,0.0579808,-0.0580867999999999,146.4678436,86.21891919999999,-79.74152959999999,189.25894676784276,1.5103308129035309,13.345011721642477,1.021362223420878,103.397361,41.174431600000005,16.20531479999999
3437.666,-52.3684896,-176.9168882,94.2827684,-1.0070381999999998,0.768809,0.8288372,41.120781,41.1384398,-97.2595276,-11.9258814,5.497439399999995,-4.849999599999999,-1.0073394,0.0647457999999999,-0.0580981999999999,147.99912120000002,86.1695752,-77.9576872,207.19865938399465,1.5139895372307166,13.998963648911245,1.011088564989853,106.8783402,45.0311354,19.301840399999996
3457.653,-52.35975940000001,-192.096005,100.5194412,-0.9935372,0.7535461999999999,0.8465672,39.315336,36.9243468,-98.460132,-14.644671399999998,9.336754599999995,-2.7953811999999987,-0.9909902,0.0764923999999999,-0.0553217999999999,149.3595002,86.022531,-76.2843688,223.03940817834453,1.507190786673711,17.591348524996953,0.995476350954175,110.0441642,49.098184200000006,22.175763199999995
3477.639,-51.731398,-205.8473966,105.13459759999998,-0.961347,0.7358458000000001,0.8606261999999999,37.6528366,32.4233996,-99.5619326,-17.6558278,14.395316799999994,-0.1938547999999986,-0.9888036,0.0756578,-0.0445833999999999,150.5849824,85.7630814,-74.6802566,236.85981473974437,1.485373539522325,22.781373548561508,0.9926954929027128,112.9321458,53.3396818,24.88167599999999
3497.626,-50.7972358,-217.6405698,108.0669464,-0.9093974,0.7124948,0.865785,36.1304946,27.6802728,-100.574544,-19.1074116,18.83195419999999,3.4942408000000014,-0.9994494,0.0652359999999999,-0.0333527999999999,151.4345826,85.3973878,-73.4215042,248.246332685923,1.4436883795954027,27.054489383669697,1.0021313527298703,115.304088,57.717115,27.153039799999995
3517.612,-48.847528,-227.4195342,109.5569014,-0.8392774000000001,0.6890514,0.8791812,34.7541756,22.7357842,-101.5119676,-18.022169400000003,20.500357999999995,8.857387600000001,-1.0144208,0.0725696,-0.0157453999999999,151.36454780000005,84.9587892,-73.1088884,257.1156163515259,1.3971893101602804,28.69697864074011,1.017135106039488,116.6103722,62.223005,28.40307919999999
3537.599,-46.5126168,-235.4304686,109.3170072,-0.7522376,0.6543084,0.8800962,33.5156422,17.6318786,-102.3989152,-17.2088276,16.916923199999992,14.03925,-1.0368834,0.0737894,-0.0003115999999999,150.052124,84.5368364,-74.0662736,263.70653600160176,1.3298684936559555,27.918212308164,1.0395057276621806,116.5364818,66.9049578,28.332641599999988
3557.585,-43.3167442,-241.3583312,108.425015,-0.6636546,0.6252058,0.8677916,32.4261508,12.4051984,-103.2389724,-11.730749,6.845111599999996,20.099491000000004,-1.0801881999999998,0.0623564,0.017448,146.8461212,84.2187668,-77.047136,268.11596044526584,1.2587223607632303,24.258103045715192,1.082127210980391,114.41997039999998,71.8135684,26.19183639999999
3577.571,-39.1427488,-245.5285766,107.011238,-0.5615464,0.5820379999999999,0.8573995999999999,31.5022152,7.1074556,-104.0383894,-1.2492584000000009,-7.576661600000008,24.5200934,-1.107561,0.0436812,0.015428,141.66791840000002,84.0525756,-82.23237920000001,270.6803313303991,1.1786588424464135,25.69438514336564,1.108529403822217,110.1657032,76.94512,21.80601019999998
3597.558,-34.247986,-247.776239,104.8815794,-0.453323,0.5407166,0.8305451999999999,30.753758,1.7826046000000002,-104.8109876,13.0627036,-24.44174340000001,26.41923880000001,-1.1232164,0.040636,0.025337,134.3411728,84.0563232,-89.8727494,271.2307778543574,1.0898080166192574,38.28849989937348,1.1242367763482743,103.5874148,82.27371860000001,14.93823819999998
3617.544,-29.0698488,-248.2701384,102.2606994,-0.3501722,0.4998599999999999,0.7870182,30.1820728,-3.5324048,-105.5708494,29.688335599999995,-41.52202440000001,25.393672200000005,-1.1241526,0.0264464,0.0203534,125.0401032,84.1865142,-99.8332656,270.07474589858856,0.9959308391570572,57.011528384822974,1.1246478297899658,94.8580304,87.718919,5.737583799999985
3637.531,-23.9156824,-246.959091,99.5627136,-0.2519044,0.4691968,0.7614848000000001,29.7854022,-8.8038596,-106.324397,46.223801,-53.12046680000001,23.6581866,-1.1103752,0.040082,0.032519,114.28178859999998,84.2995636,-111.5819152,267.3452569835485,0.9292257876859854,74.28414073769665,1.1115741706517113,84.49638639999999,93.1034232,-5.257518200000013
3657.517,-19.3991836,-244.478494,95.723755,-0.1637168,0.4203082,0.7147355999999999,29.555999000000003,-13.998264999999998,-107.102934,57.7018614,-60.877618600000005,20.806634800000005,-1.0872886000000002,0.0548845999999999,0.0385766,102.750673,84.288266,-124.3246748,263.2662143613467,0.8451681202558695,86.42051438826574,1.0893562195511073,73.19467399999999,98.286531,-17.221740800000013
3677.503,-14.967999,-240.726306,91.8124848,-0.0877576,0.3874416,0.6621562,29.4958148,-19.0906852,-107.9189452,61.5873794,-63.64803320000001,18.0973386,-1.038673,0.0697934,0.0535088,91.3888916,84.1046676,-136.9641036,258.0750428840803,0.7721808227136698,90.39685335226496,1.0423895199444395,61.8930768,103.1953528,-29.04515840000001
3717.476,-12.2537004,-234.2877104,87.0275102,-0.0097125999999999,0.3455854,0.617729,29.6734132,-24.9621964,-108.992633,52.7699018,-61.1451958,11.1637214,-1.0013938000000002,0.0913704,0.0633592,79.384626,83.7311598,-150.1908722,250.22923879830336,0.7078931562975588,81.53542899193454,1.0075477561382589,49.7112128,108.6933562,-41.19823920000001
3737.463,-9.5725916,-226.9186522,82.0919358,0.0660344,0.306763,0.569834,30.029048,-30.6530622,-110.1536392,38.1624278,-54.04685600000001,5.746055800000001,-0.9657486,0.1026425999999999,0.0642568,69.088089,83.2843062,-89.4092744,241.5011286714749,0.6505189218680422,66.41122417431909,0.973311254472566,39.05904099999999,113.9373684,20.74436479999999
3757.449,-7.909868399999999,-218.4882262,77.2137528,0.1364466,0.2725698,0.5059488,30.5535864,-36.138638400000005,-111.4160218,22.49063,-44.77968560000001,-0.2810773999999991,-0.9404596,0.0962522,0.0565838,60.6035584,82.87494339999999,-26.499395799999995,231.865552912862,0.5906743254493461,50.111153296811466,0.947064132812261,30.049972000000004,119.0135818,84.916626
3697.49,-6.770767000000001,-215.9231048,76.3160934,0.1749582,0.270771,0.5049786,30.6842252,-38.0515302,-111.7909272,15.940248999999998,-41.60634640000001,-3.9734264,-0.916618,0.0939858,0.0562138,57.3896302,82.6697814,-30.0414734,229.11302141972985,0.5991082478535912,44.732177638641865,0.9231369778294444,26.705404999999995,120.7213116,81.7494538
3777.436,-6.595061799999999,-207.46808460000003,72.1102386,0.238303,0.2452838,0.4668906,31.3280246,-42.3374242,-112.9815232,1.6293335999999976,-27.884860800000013,-7.741749400000001,-0.9240284,0.0950254,0.0266012,53.0267838,82.52070920000001,37.5407288,219.74163801766727,0.5787394013887425,28.98542519246297,0.9292824836900564,21.6987592,124.8581334,150.522252
3797.422,-5.1675182,-199.7449888,68.9309248,0.2925455999999999,0.2367298,0.4347468,32.0452344,-45.5027738,-114.0768372,-1.5061528000000026,-12.655336200000004,-5.900689599999999,-0.9158406,0.0826802,-0.0072297999999999,52.2105324,82.6025392,36.871518,211.3675381624215,0.575003222945437,14.044364291327913,0.9195935461324424,20.165298,128.105313,150.94835519999998
3817.409,-5.019902399999999,-190.9484678,66.5213866,0.3354086,0.2352954,0.3895284,32.882209,-48.4787382,-115.2586472,-2.371961600000003,5.740608799999994,-5.464298399999999,-0.9310084,0.0791598,-0.0192611999999999,53.87756040000001,82.89712540000001,-33.2892608,202.26619008242537,0.5653275410075826,8.272807759808908,0.9345661606499776,20.9953514,131.3758636,81.96938639999999
3837.395,-3.5169716,-181.7741576,64.072753,0.389492,0.2122291999999999,0.3409073999999999,33.868163800000005,-51.2729934,-116.5321778,-1.6512828000000028,28.2472596,-3.497566599999999,-0.9066146,0.0680238,-0.0672154,59.56127940000001,83.35856340000001,-99.4410278,192.7680760328947,0.5594310563165044,28.51082920430066,0.9116442180460314,25.6931156,134.6315568,17.091149999999995
3857.382,-1.856047,-164.37362960000002,58.628060000000005,0.4850912,0.2008903999999999,0.2668308,35.5733278,-57.215203800000005,-118.8887682,-6.813486400000002,60.32916939999999,-3.2030509999999994,-0.9106592,0.065984,-0.106326,66.9758668,83.7323382,-91.89115,174.52617121139113,0.588955941440648,60.79713655366905,0.9192166692769668,31.402539,140.947542,26.9976182
3877.368,-1.6226476,-150.6897734,56.510172,0.5493146,0.2002822,0.1975286,36.9978792,-60.3203568,-120.5847016,-0.6013776000000026,82.31426259999999,-3.8220959999999993,-0.9206610000000002,0.0636376,-0.1189757999999999,81.8627382,84.0235034,-148.94942780000002,160.94545763098353,0.6171523614375627,82.40514486506747,0.9304953852869988,44.864859,144.34386020000002,-28.3647262
3897.354,-2.4369280000000004,-136.2808716,54.841635,0.6110089999999999,0.2052374,0.1390395999999999,38.4643098,-63.1664368,-122.2947022,4.787381999999997,101.9767982,-3.714505399999999,-0.920262,0.0666068,-0.1236735999999999,99.3837648,83.87787499999999,-131.4470046,146.92181428095046,0.6593833473844481,102.15666374693367,0.9309209277845244,60.91945499999999,147.0443118,-9.152302399999993
3917.341,-3.929975,-121.8415192,52.4701246,0.6800227999999999,0.1889453999999999,0.073098,39.9069758,-65.741961,-123.9764222,11.075748999999998,113.47534939999998,-2.238930999999999,-0.9116746,0.0736734,-0.1567332,117.1984956,83.1728608,-113.7499464,132.71742342286532,0.7095595044145345,114.03657285882385,0.9279782552058856,77.2915198,148.9148218,10.226475800000006
3937.327,-5.317821199999999,-107.0131866,50.2666068,0.7478832,0.190259,0.0196848,41.2645448,-68.03718119999999,-125.5652664,17.349090599999997,111.624257,-1.025005199999999,-0.9333834,0.0960268,-0.1440724,132.559465,81.9975922,-98.6149718,118.3504672056152,0.7719554775207441,112.969094583913,0.9493063647503688,91.2949202,150.0347734,26.950294600000007
3957.314,-8.2967416,-93.2455094,47.0191596,0.8163126,0.168104,-0.0288257999999999,42.48733,-70.06565259999999,-127.0536774,20.6175582,100.0827752,-3.352669199999999,-0.9306632,0.1157108,-0.15019,143.9288832,80.6396256,-87.52944020000001,104.75859064502984,0.8339401312326923,102.23935635863886,0.9497789306838093,101.4415532,150.7052782,39.5242372
3977.3,-9.6015318,-79.78561859999999,42.6215286,0.8842167999999999,0.1599818,-0.0498772,43.614882,-71.8246796,-128.449704,22.3876538,81.13859219999999,-4.247904599999999,-0.9466332000000002,0.1331078,-0.1524144,151.0734586,79.3633088,-80.72028800000001,90.96443837287016,0.8999562549442722,84.27765350528725,0.9680197575930154,107.4585766,151.1879884,47.729416
3997.287,-10.8937902,-66.712757,36.64447080000001,0.9515614,0.1231177999999999,-0.0895321999999999,44.6320322,-73.2983094,-129.74529420000002,20.379934799999997,56.68897639999999,-4.326421599999999,-0.9746308,0.137211,-0.1608856,155.00788240000003,78.4106094,-77.1147156,76.89007641870775,0.9636613022652928,60.396189545309504,0.9973044826516124,110.3758502,151.7089188,52.6305786
4017.273,-7.25536,-53.4702574,29.6935524,1.0174962,0.0872086,-0.098131,45.6051736,-74.47887419999999,-130.909909,15.191098999999998,32.832482599999985,-5.5255861999999984,-0.9857306,0.1435626,-0.1468582,157.08420080000002,77.87188719999999,-75.2903368,61.59071138802831,1.0259305776169263,36.59608592951892,1.0068973963628869,111.4790272,152.35076139999998,55.61957220000001
4037.26,0.5191494000000005,-39.4989404,21.5743644,1.0506588,0.0549013999999999,-0.1110608,46.5443574,-75.3430984,-131.8731018,6.9878047999999975,14.562308799999988,-7.394870999999999,-1.0016548,0.12627,-0.1523721999999999,158.27272320000003,77.6787918,-74.2078844,45.009876783726696,1.0579378899708811,17.764413038884822,1.0210160324871889,111.7283658,153.02189019999997,57.6652174
4057.246,12.3761982,-23.482909799999995,13.676396,1.0559619999999998,0.031258,-0.1214034,47.3284844,-75.8690536,-132.4285156,-0.694388200000003,3.6992705999999886,-5.645927799999999,-1.0076262,0.0921674,-0.1598812,158.8055114,77.673674,-73.6442902,29.8606956065902,1.0633774464128716,6.785519778700549,1.024386346386284,111.477027,153.5427276,58.7842254
4077.232,24.957013,-6.093184400000001,6.0199768,1.0373876,0.0083938,-0.1194488,47.81747360000001,-76.0443192,-132.418921,-9.074483800000005,-0.0857494000000112,-5.022865799999999,-0.9775762,0.0653614,-0.1741246,159.06185,77.7267242,-73.1964188,26.385971929931078,1.0442755883068606,10.37221239856148,0.9951114087083716,111.2443764,153.7710434,59.22250220000001
4097.219,38.7396932,13.081090799999998,-1.9037780000000004,0.9911028,0.0019506,-0.1139272,47.934069,-75.841156,-131.739789,-18.4410674,2.0672727999999885,-6.843010999999999,-0.9492552,0.0579535999999999,-0.1936376,159.3866304,77.738211,-72.4878388,40.93291018754047,0.997631180300636,19.77810363070948,0.9705357152695412,111.4525614,153.579367,59.2519502
4137.192,50.068242000000005,36.1952242,-14.291752000000002,0.9141616,0.0121409999999999,-0.096413,47.5618698,-74.8409118,-130.0673006,-27.012454400000003,5.853307599999988,-5.615645999999999,-0.9356898,0.0597713999999999,-0.2146961999999999,159.5961122,77.5636338,-71.5439376,63.41275334732229,0.9193118629521542,28.20406677359868,0.9618640654356726,112.0342424,152.4045456,58.523363
4157.178,57.002673400000006,59.6117978,-27.568345,0.8394921999999999,0.0277345999999999,-0.0729128,46.9045616,-73.3222,-127.9460542,-34.081707,2.7253229999999897,-3.4928419999999987,-0.9409718,0.0602481999999999,-0.2345056,159.410779,77.42434560000001,-70.86160720000001,86.9648484028701,0.8431089124791884,34.368446033027766,0.9716226893346204,112.5062174,150.74654560000002,57.084447
4117.205,59.7211054,71.7519044,-33.9858916,0.8014086,0.024755,-0.0692382,46.4284866,-72.713678,-126.75228579999998,-39.28305580000001,8.551199199999989,-3.843593399999999,-0.935449,0.0849298,-0.2462726,159.7354952,77.25957659999999,-70.0920546,99.34780844624404,0.8047748023628722,40.38631811602189,0.9710448475944868,113.3070086,149.9732546,56.6602312
4177.164,61.09667460000001,90.843908,-46.55413600000001,0.753968,0.0436612,-0.057398,45.67180019999999,-70.77702339999999,-124.6691116,-43.8712098,-3.873414000000011,-1.2363191999999992,-0.9390362,0.0779984,-0.2501904,158.8251374,77.3059954,-70.1291106,118.96514971451616,0.7574091204979249,44.05922003957062,0.9749194692717752,113.15333719999998,148.0830188,54.540001
4197.151,61.0905306,109.2354828,-58.7156198,0.7110255999999999,0.0592652,-0.0327724,44.9669922,-68.4000742,-122.6112654,-46.040603,-24.94392560000001,1.4739086000000008,-0.9543624000000002,0.061911,-0.246307,156.7693908,77.720444,-71.29781619999999,138.24604023275597,0.7142435144879931,52.38424338962146,0.9875766809234412,111.8023986,146.1205182,51.3134492
4217.137,59.8821268,124.1077468,-66.0356706,0.6773702,0.0977726,-0.0051459999999999,44.439621,-65.9977778,-120.975534,-47.1475114,-46.63776720000001,0.8711798000000007,-0.9526974,0.0350468,-0.2384446,153.54202260000002,78.6129412,-73.8208494,152.804815753483,0.6844094903453634,66.32290791919829,0.9827087266459782,109.1024016,144.610719,47.1546846
4237.124,55.703596000000005,137.8132552,-72.3383394,0.6535757999999999,0.1279196,0.03041,43.8850442,-63.30582439999999,-119.3590942,-47.207377,-60.01299760000002,-0.4750247999999993,-0.9693082,0.0429432,-0.2207281999999999,148.984036,79.7089982,-77.69030599999999,165.31248973777252,0.6666704722048217,76.35654505488283,0.9950494677596284,105.0989918,143.0148226,41.66878820000001
4257.11,52.7451998,161.10685719999998,-86.4478594,0.5904538,0.1865006,0.0881086,43.0175096,-58.8957826,-116.6247726,-45.89573,-79.59900060000001,3.2881938000000006,-0.9922944,0.0572732,-0.1969428,141.68384980000002,80.9413544,-83.82287740000001,190.29111364865489,0.6254448729734381,91.94145499837416,1.0132693926994143,98.6663402,139.837137,32.801895200000004
4277.097,47.9712862,175.0075408,-94.9590424,0.537621,0.2318734,0.1661662,42.4552842,-55.032911,-114.8114196,-40.028589800000006,-78.6272096,10.778795,-1.0039112,0.0911378,-0.1764078,133.30312940000002,81.91987759999999,-91.5090454,204.8074787942837,0.6086154937980136,88.88592977806455,1.023358934086726,90.8478452,136.95278860000002,23.3023742
4297.083,42.35609,187.0489044,-103.0506484,0.4851454,0.2897794,0.2149952,41.974752,-50.8736146,-113.153009,-30.181617,-70.70852900000003,17.753390200000002,-0.983415,0.1182097999999999,-0.1305872,124.0874556,82.50983119999998,-100.217006,217.71717234290196,0.6046164865669477,78.90379548330986,0.9990653811662576,82.1127036,133.3834458,12.936002999999996
4317.069,36.150448,196.8555696,-110.6977018,0.4242026,0.326924,0.2771116,41.5690886,-46.4600632,-111.6586608,-16.455726200000008,-60.284690200000014,24.632795800000004,-0.9562646,0.1269953999999999,-0.0867636,114.8611098,82.6947158,-109.195668,228.7202469326729,0.6030074514276917,67.17000391695568,0.96855445852016,73.2920212,129.15477900000002,2.4629927999999977
4337.056,33.1417732,204.4945162,-117.193176,0.3656432,0.3623918,0.3595342,41.2911818,-41.8379692,-110.3168014,-1.4811386000000042,-47.67029200000001,31.515607,-0.9197092,0.1244987999999999,-0.0563638,106.672995,82.4901688,-117.4172896,238.0139172142656,0.6279232495959359,57.16540908185757,0.9298074218441796,65.38181319999998,124.328138,-7.100488199999998
4357.042,29.0563572,210.8456026,-122.2946318,0.2981392,0.40539,0.4111912,41.0842184,-37.0529708,-109.086383,11.193878199999997,-36.473963800000014,31.838863600000003,-0.913418,0.1035854,-0.0079694,100.266214,82.09796300000001,-124.0924254,245.4712141913766,0.6498509349336047,49.69271757289545,0.9193072876647504,59.18199559999999,119.1509338,-15.006042399999997
4377.029,22.8220804,216.0488986,-125.5041092,0.236124,0.4416586,0.4652436,40.8808622,-32.144386600000004,-107.9314774,16.272384799999998,-23.65179840000001,23.0304686,-0.8917996,0.0972978,0.051993,96.372966,81.7657502,-128.33649880000002,250.89690186636952,0.6835703838456725,36.80489856756978,0.8985970512382067,55.4921038,113.9101368,-20.405021399999992
4397.015,17.8811018,219.3854464,-127.79053359999996,0.1688562,0.4566688,0.5224506000000001,40.6977674,-27.1542304,-106.8476564,7.549791799999997,-9.654522800000011,13.451041,-0.9182192,0.098951,0.0743122,94.64431319999998,81.556032,-130.2231946,254.51940666967212,0.7141522517028425,18.19724349187943,0.9265204275775468,53.9465458,108.7102624,-23.37553819999999
4417.002,16.101558,221.5473634,-128.912485,0.0997192,0.4852028,0.5716773999999999,40.5850164,-22.1144252,-105.8147462,-5.4607234000000044,3.8386489999999887,5.7388146,-0.9620428,0.089545,0.0747251999999999,94.7428742,81.4571016,-130.0058714,256.82858717127704,0.7564262856665148,8.802767701676654,0.9690864314249168,54.1578578,103.5715268,-24.191125199999995
4436.988,10.2757668,223.1633148,-129.10512720000003,0.0226884,0.5350404,0.6198286,40.4510854,-17.045859,-104.8107698,-13.121167400000004,14.72948039999999,-1.8431601999999987,-0.9799206,0.0816172,0.0837904,96.2344558,81.4846788,-128.22860559999998,258.0224608928069,0.8191278816550441,19.81211413039181,0.9868771862660318,55.7833704,98.5305378,-23.4178358
4456.974,3.650782,223.353717,-127.9219912,-0.063828,0.5616361999999999,0.6705826,40.2770598,-11.9871632,-103.8284242,-19.532595800000003,24.807427399999987,-8.2887262,-0.9909278,0.0739857999999999,0.0883486,99.114476,81.601204,-124.9217912,257.4184277387703,0.8770349241376879,32.644045933539154,0.9976057731070124,58.83741619999999,93.5883672,-21.093367
4476.961,2.827001800000001,221.745166,-126.6607362,-0.150785,0.5729,0.7034996,40.1762016,-6.9670068,-102.8796068,-25.248941800000004,31.320351199999987,-12.446729,-1.0243248,0.0589933999999999,0.0613258,102.961731,81.7491624,-120.52366200000002,255.38569395772888,0.9197076782462784,42.11169106210969,1.0278532827618152,62.7855294,88.7161692,-17.644055200000004
4496.948,3.1001664000000004,219.511853,-124.817598,-0.2544422,0.6129819999999999,0.7641268,40.1616714,-2.0039616,-101.946312,-20.359976600000003,32.91990779999999,-14.8818292,-1.0421698,0.0748048,0.0438839999999999,107.3610732,81.8864334,-115.6672884,252.53613089950292,1.0121153748180491,41.46948054956826,1.0457721814960843,67.1994018,83.890395,-13.720976400000003
4516.934,0.0179304000000002,216.4046448,-121.78242500000002,-0.3318646,0.6470722,0.7987902000000001,40.1677314,2.8748992,-101.0105698,-14.437263600000003,31.57678339999999,-20.3807218,-1.0675234,0.079398,0.052467,112.16161499999998,82.0843888,-110.5277666,248.3182024165648,1.080232534393424,40.260422889425726,1.0717569864668763,71.9938836,79.20948960000001,-9.517196800000002
4536.92,0.5304710000000001,212.622046,-119.3567308,-0.4362232,0.6590312,0.7995706,40.2643554,7.6640744,-100.0798736,-16.484887200000003,24.95759619999999,-26.009788,-1.07449,0.0853318,0.0243261999999999,116.68042,82.3946488,-105.636873,243.83282189231957,1.124244611806541,39.63763597748889,1.0781475039147843,76.4160646,74.7305744,-5.5569994000000005
4556.907,4.606562800000001,207.9221132,-117.1896882,-0.5054276,0.6719698000000001,0.8336874,40.5180288,12.355974,-99.1535462,-13.060955400000005,14.119374799999989,-27.4423442,-1.075778,0.0959686,-0.0021858,120.1100388,82.8005388,-101.9185456,238.71792684839815,1.1840756529346257,33.511603302362865,1.0800523390982495,79.59201,70.4445648,-2.7649993999999998
4576.893,8.4976406,203.1927796,-114.85765700000002,-0.5885912,0.6795016,0.8201122,40.9244444,16.944003600000002,-98.2115662,-4.783674600000003,2.050128399999988,-28.0789516,-1.0653714,0.0987273999999999,-0.0142816,122.3919464,83.2955552,-99.5315674,233.56326112826605,1.216859090325926,28.557207358043858,1.0700314404480271,81.467502,66.35155160000001,-1.320001199999996
4596.88,11.0960476,198.968277,-112.095244,-0.6498628,0.6943882,0.782745,41.4751204,21.4268394,-97.2190278,5.062826599999997,-9.74515280000001,-25.9736008,-1.0605466,0.0635266,-0.0190348,123.1290176,83.8754946,-98.9064302,228.64129384717396,1.231741192843724,28.1997899778487,1.0626180138178345,81.65389719999999,62.4486552,-1.6874023999999963
4616.866,16.881997000000002,195.14068,-110.1679566,-0.7137464,0.6855325999999999,0.766245,42.2462272,25.8201094,-96.1612412,16.5183896,-23.33421760000001,-23.840645,-1.0639294,0.057306,-0.0227454,121.4959624,84.5586534,-100.9066514,224.72620113148776,1.2516070746047738,37.22525030134201,1.0657143609061106,79.2497352,58.738544000000005,-4.745410199999995
4636.853,22.923816,192.4108002,-109.6088454,-0.7503306000000001,0.6695068,0.735744,43.2531326,30.1626868,-95.0166504,28.7203632,-35.45338980000001,-21.4376302,-1.0816545999999998,0.0547903999999999,0.0224791999999999,115.9441406,85.2850998,-107.0900482,222.6241594336232,1.2460154886993178,50.41204319646855,1.0832746540309894,72.691008,55.12241300000001,-12.073397799999997
4656.839,29.609765200000005,191.4995208,-109.893614,-0.8196730000000001,0.6625232,0.6723695999999999,44.5552406,34.4774264,-93.7261398,33.863142399999994,-45.050422400000016,-21.645696,-1.0811942,0.0379342,0.0535492,105.231317,85.9542862,-118.5270156,222.7676167215732,1.250152669265398,60.372088972848346,1.0831839264242802,60.6760764,51.4768598,-24.8008758
4676.826,36.005456200000005,191.3889648,-111.1814284,-0.8875954,0.6628755999999999,0.6313066,46.1796394,38.7878856,-92.2481596,35.0092556,-56.161855400000015,-22.93991,-1.0753456,0.0462126,0.0833097999999999,88.8738638,86.4347718,-63.59337600000001,224.24860923637877,1.2750598724687716,70.04313992422628,1.0795574494273843,42.6942244,47.6468862,28.654783599999995
4696.812,42.623074,189.4786256,-113.9086806,-0.9642186,0.6248760000000001,0.5957284,48.1345368,43.0877364,-90.5924772,32.5004578,-62.16868980000002,-23.393441,-1.0482862000000002,0.0612486,0.083124,70.479293,86.6325454,-10.621484200000005,225.1534221647703,1.2942487591373306,73.94916382541919,1.0533588882657232,22.3447562,43.544809,79.97099299999999
4716.798,49.1362762,184.6528076,-116.1915068,-1.0617392,0.5976188,0.5431440000000001,50.4308412,47.3170258,-88.7573942,25.2271904,-64.14356320000002,-25.2585914,-0.9957986,0.0641559999999999,0.0595453999999999,50.9072498,86.486435,41.3433778,223.6325093670859,1.3339579317452557,73.40847549828563,0.9996381839241236,0.4764085999999935,39.1694092,130.100772
4736.785,53.581633,175.8212646,-115.61510760000002,-1.1473012,0.5839008000000001,0.5245126,53.0301194,51.36531,-86.7342864,21.053749199999995,-57.51717700000002,-22.8891118,-0.950683,0.0417774,-0.0018054,34.108996399999995,86.0605698,96.1847504,217.14272169669763,1.3900912399266605,65.38652341590529,0.9516022157965588,-18.921123000000005,34.6952598,182.9190368
4756.771,53.892190600000006,162.0326172,-112.06888279999998,-1.1983960000000002,0.544029,0.4959037999999999,55.81690160000001,55.1297312,-84.57405080000001,21.4062348,-46.0744552,-19.3913658,-0.9170418,0.0349342,-0.0849004,22.3760112,85.5156112,156.0783966,204.25075700322043,1.4064284924984425,54.37929181112005,0.9216258130049528,-33.44089040000001,30.385880000000004,240.65244740000003
4776.758,51.7162972,143.1747758,-104.5154372,-1.2145902,0.5201872,0.4678725999999999,58.6640978,58.4853334,-82.3553788,24.7019142,-28.80966880000001,-13.886206799999997,-0.8982294,0.0312474,-0.1749702,16.2576854,85.09750820000001,149.4873596,184.65391529714756,1.4016878564112054,40.41049765595843,0.9156456879815248,-42.40641240000001,26.6121748,231.8427384
4796.744,49.97512,120.30702979999998,-93.1609328,-1.217282,0.5231739999999999,0.4265621999999999,61.4612948,61.3346276,-80.2136994,27.4509948,-8.607843800000012,-9.169292599999997,-0.8886839999999999,0.0543992,-0.2406098,13.806784,85.0065582,146.49297800000002,160.1569650014591,1.391920188900513,30.194834279711493,0.9222860731208512,-47.65451080000001,23.671930600000003,226.7066774
4816.731,45.4174364,94.9648576,-80.486811,-1.1801236,0.5429632,0.4143771999999999,63.9535944,63.6592408,-78.3496888,31.0330646,14.718694999999988,-0.472567799999997,-0.9230444,0.0893974,-0.2688602,15.9424866,85.2932632,147.9996308,132.51111067788256,1.3635282218241909,34.34988211473796,0.965550965326098,-48.011107800000005,21.6340224,226.3493196
4836.717,40.0400158,69.511455,-66.6400764,-1.1348442,0.5639757999999999,0.4060698,65.99680359999999,65.4726936,-76.90438700000001,27.9902322,34.029447199999986,3.185965000000003,-0.9584742,0.1213293999999999,-0.2419144,22.3200582,85.91111140000001,153.7779938,104.28779901828936,1.3307263970220624,44.1769934279001,0.9959498944712832,-43.6767454,20.4384178,230.6823808
4856.703,33.6800332,45.7167836,-52.6392184,-1.0841476,0.6128384,0.434502,67.46906,66.80554040000001,-75.96649479999999,18.9724952,48.56551259999999,4.897135800000003,-1.001798,0.1127708,-0.1781322,34.24139340000001,86.7403916,93.2106536,77.42904011315929,1.318991626624036,52.36932811539998,1.023741943466946,-33.227666600000006,19.9348512,169.17714840000002
4876.689,25.8293,24.3765658,-39.1933446,-1.0529829999999998,0.6619532,0.4625954,68.2724688,67.71213379999999,-75.6042266,10.002179399999998,55.84337079999999,6.079887000000003,-1.0505258,0.0901542,-0.1044206,52.595807,87.52312620000001,39.212452600000006,52.8912843446449,1.32700781511655,57.05690739068185,1.0595451372865812,-15.676661800000002,19.8109924,114.8166792
4896.676,15.7430398,4.843138600000001,-25.589616600000003,-1.0198144,0.6914334,0.5050022000000001,68.3121386,68.21890579999999,-75.8501114,4.0678715999999975,56.82905119999998,4.828149600000003,-1.0845376,0.0614887999999999,-0.0557026,74.8319256,88.0166336,-10.746704199999996,30.43234745099677,1.3315888175738635,57.178664449305614,1.087706512799275,6.519786999999996,19.7977278,65.10340719999999
4916.663,6.088719599999999,-13.6395618,-10.832417200000002,-1.0029024,0.7224223999999999,0.5409258,67.6192278,68.31144880000001,-76.6791612,-3.646938800000002,53.68356099999998,2.392641000000003,-1.088164,0.0549476,-0.0274934,97.674176,88.1394348,-59.89944319999999,18.451325558297956,1.3491879294794924,53.86046430552327,1.0898972505173687,30.0549482,19.827986000000003,16.779717999999995
4936.649,-3.900701,-32.270879,4.1941376,-0.9996387999999998,0.7508838,0.5693463999999999,66.220868,67.9683398,-78.0484422,-11.060845400000002,48.13917539999999,0.1962234000000028,-1.0967352,0.0526537999999999,-0.025484,118.4227202,87.9130006,-110.9429474,32.775232873799325,1.373775649355032,49.39393700422525,1.098294111715746,52.2018522,19.9446608,-32.894505200000005
4956.635,-11.396009,-51.5938758,19.7203732,-1.006234,0.7623614,0.5845444,64.2417528,67.16078660000001,-79.8998568,-17.964135000000006,41.44004599999999,-1.5769545999999972,-1.0901004,0.0648572,-0.0455158,134.960559,87.43712000000001,-93.9747406,56.39760775370871,1.3911843596509124,45.19374231672789,1.0929762241337369,70.71880619999999,20.27633340000001,-14.0748838
4976.622,-17.1900714,-72.0715826,35.4756528,-1.0136544,0.7736856,0.6064483999999999,61.810968200000005,65.856772,-82.1420474,-24.624580800000004,35.15247619999999,-2.5307539999999973,-1.0779432,0.0812242,-0.069008,145.4546172,86.86943199999999,-82.86530619999999,82.14824109371952,1.4120426028095894,42.99385163457457,1.0831994355407872,83.64364899999998,21.01266,-0.7232588000000021
4996.608,-22.66235,-92.461593,51.0148524,-1.0265558,0.7875053999999999,0.637022,59.104157400000005,64.0413988,-84.6039462,-31.24565640000001,29.136176799999998,-2.935871399999997,-1.0702414,0.0799114,-0.0780754,151.270285,86.3556626,-76.3344988,108.00575657349904,1.442143749432351,42.82320846532937,1.0760568080771016,92.1661276,22.3142638,8.269447399999999
5016.595,-27.6783506,-112.0800584,65.79895619999999,-1.0461234,0.7847586,0.6627257999999999,56.310687400000006,61.717589,-87.102167,-33.496231800000004,23.374249999999986,-2.648727799999997,-1.049414,0.0547034,-0.0895076,154.653247,85.9302506,-72.2259324,132.88165117838298,1.4660919869800666,40.93127003673748,1.054643928454206,98.3425596,24.2126616,14.8762346
5036.581,-30.484423600000003,-131.4751694,80.12178800000001,-1.0664292,0.7845717999999999,0.6810295999999999,53.5920808,58.87176000000001,-89.52062099999999,-30.272562800000003,18.99025759999999,-0.6338021999999974,-1.0200262,0.0462642,-0.1048134,156.4686158,85.5580598,-69.770041,156.9538822817068,1.4888335917905802,35.74156750092288,1.026440292324712,102.876535,26.686299799999997,19.75058
5056.567,-33.593116200000004,-150.19917,93.35561520000002,-1.0874304,0.7809498,0.6964938,51.0134644,55.5304088,-91.770897,-25.4078954,17.08551479999999,2.5555632000000026,-1.006625,0.0478923999999999,-0.1122336,157.1294738,85.18979519999999,-68.57733759999999,180.00988587876523,1.509135871418687,30.7246947569468,1.013994059929209,106.11600939999998,29.659386399999995,23.1935594
5076.554,-35.669963,-167.3993988,105.1542328,-1.0988056,0.7734620000000001,0.7197442000000001,48.65037,51.739796,-93.7945954,-21.563907800000003,16.96565879999999,4.697416000000002,-0.996888,0.0441096,-0.1071266,157.2639678,84.81360500000001,-67.993753,200.8788631359193,1.5243519690245428,27.83705112259512,1.0035972547709169,108.6135978,33.073809,25.800842400000004
5096.54,-35.9645988,-183.0326568,115.0547744,-1.1015802,0.7762474,0.7578164,46.5423614,47.5544406,-95.585759,-19.704599,18.637407799999988,6.256116800000003,-0.990885,0.0465494,-0.0970526,157.1644134,84.4032182,-67.68363780000001,219.1620563289787,1.546067482080831,27.83456823213796,0.996714170177248,110.62205199999998,36.84877759999999,27.902121200000003
5116.527,-37.547905,-196.5623504,123.246785,-1.0920964,0.7735992,0.779521,44.6587624,43.040507,-97.145311,-19.9518222,22.40622319999999,7.495610600000002,-0.9963262,0.046947,-0.0828882,157.0085358,83.926172,-67.4244428,235.0241961532847,1.5488005870913788,30.92407194170042,1.0008698073749054,112.3497734,40.885665,29.7208682
5136.513,-38.71679759999999,-208.456131,130.0030182,-1.0703302,0.7704394000000001,0.7981026,42.9881548,38.2536856,-98.4905838,-22.3293694,27.12322579999999,7.8001410000000035,-1.0057794000000002,0.0414012,-0.0716124,157.05665879999998,83.3725754,-66.91124860000001,248.70410874973103,1.541477008012497,35.987668932834794,1.0091752061260524,114.068504,45.1188898,31.579335200000003
5156.5,-39.7679122,-219.4665314,134.82286979999998,-1.0265415999999998,0.765976,0.8240938,41.4844744,33.2208002,-99.6749986,-25.031132400000004,32.108560199999985,8.938252600000002,-1.0051435999999998,0.05513,-0.063565,157.10844419999998,82.7252106,-66.338603,260.6228145550612,1.5230356136036345,41.6822454635635,1.0086592500671174,115.6239698,49.5044104,33.3363956
5176.486,-40.710673400000005,-229.7091402,137.9021514,-0.9600128,0.7569184,0.8550352,40.114834,27.970003599999995,-100.7428072,-27.59037,32.25263839999999,14.0470052,-1.0313468,0.0582024,-0.0524874,156.30794379999998,81.8851746,-66.44129460000002,270.9993567904789,1.4918563046290485,44.70771248439,1.0343203896253617,116.1931098,53.915171,34.3015126
5196.492,-41.9004828,-238.7399264,139.655838,-0.8766070000000001,0.7343964000000001,0.849737,38.854609,22.5322844,-101.7188554,-24.928026200000005,22.869117999999983,21.0713006,-1.087593,0.0402458,-0.036358,154.4422912,81.14630279999999,-67.6851576,279.7430177928178,1.424721332033377,39.85477082234159,1.0889445175171415,115.5876822,58.614018400000006,34.0336978
5216.459,-42.1260152,-246.9183932,140.4931366,-0.7709756,0.7088882,0.8605788000000001,37.6998954,16.9259714,-102.6286362,-26.1302452,23.55545899999999,23.7125428,-1.0928702,0.0510216,-0.0262284,154.1781004,80.6638794,-67.5735274,287.19612721763275,1.3555521852381929,42.42562962354991,1.094374893115316,116.478205,63.73790799999999,35.0551088
5236.446,-40.8856664,-253.6079318,140.12262579999998,-0.6508646,0.6652587999999999,0.8547969999999999,36.6656606,11.1921992,-103.491339,-15.155565600000005,4.888748999999992,28.456152600000003,-1.1342770000000002,0.0243304,-0.0173016,150.91723919999998,80.3117828,-70.57598399999999,292.61403084939786,1.2636739728741744,32.60895055403334,1.1346698314733323,114.2515786,69.11958360000001,32.915355
5256.432,-39.1386006,-258.653696,139.67932760000002,-0.5326834,0.6340144000000001,0.8412154000000001,35.7558598,5.3700298,-104.3075042,2.272729599999998,-16.08977120000001,31.057884800000004,-1.165689,-0.0062148,-0.0048462,146.4841916,80.2468748,-75.1269882,296.5533325898984,1.180410612134642,35.05193639947923,1.165715640331929,110.7283318,74.876845,29.180516
5276.418,-37.277013,-261.890143,138.5291598,-0.4198812,0.5813334,0.7758016000000001,34.969730000000006,-0.5027374000000002,-105.0854598,22.4980366,-33.93245320000001,29.4299028,-1.154914,0.0041595999999999,-0.002455,141.43866699999998,80.5757886,-80.8476944,298.6073522431364,1.0564643234068816,50.23636342175435,1.1549240999707122,106.468937,81.07852600000001,24.2377654
5296.405,-32.2814362,-263.6729188,136.33702420000003,-0.2952412,0.5296914,0.7363356,34.3691372,-6.3880094,-105.8497162,40.1058076,-43.83205040000001,23.9563702,-1.1121952,0.0296906,-0.000978,135.9021238,81.02438179999999,-87.4151566,298.58547084437555,0.9539027525061242,64.05959817760183,1.1125918618772113,101.5329866,87.4123912,18.4345596
5316.391,-26.9061666,-263.0423036,133.3877092,-0.1903416,0.5024016,0.6862594000000001,33.957523800000004,-12.2372678,-106.6139328,62.085289,-67.3701126,21.9423364,-1.1313448000000002,0.0386553999999999,0.0189531999999999,126.6033216,81.4539808,-97.9417482,296.1544803813126,0.8715441792941309,94.20605770671526,1.1321636455152764,92.6457978,93.6912486,8.672184599999998
5336.378,-24.0819438,-260.9949616,128.63878340000002,-0.1042021999999999,0.4559962000000001,0.6304164,33.69692980000001,-18.0040228,-107.4209214,70.5633064,-73.71419520000002,19.297373000000004,-1.0829608,0.0715066,0.0344585999999999,117.7497558,81.91873460000001,-108.3206134,291.96959874686263,0.7849939300964308,103.85254637602834,1.0858658680031157,84.052826,99.9227574,-0.899692000000001
5356.364,-20.2188724,-257.170346,123.0327546,-0.0263947999999999,0.4164784,0.5636384000000001,33.6141608,-23.6471842,-108.29151,67.6778914,-76.83237,15.988791400000002,-1.0297814,0.1217698,0.0482585999999999,107.8669282,82.2248932,-119.663077,285.8014142150998,0.7013124760676657,103.62987751898488,1.0380782766496754,74.2527674,105.8720774,-11.371567
5376.35,-15.1278078,-252.1084626,116.68180100000002,0.0404346,0.3777556,0.5317586,33.758260400000005,-29.1351668,-109.2621338,56.00925500000001,-77.1311294,11.068081400000002,-1.0079952,0.1349109999999999,0.0480309999999999,97.5284546,82.36143799999999,-131.21824959999998,278.2124550913797,0.6535299984564442,95.9622331651968,1.018117025741658,63.77019419999999,111.4966048,-21.9561158
5396.337,-12.8479418,-245.25202640000003,110.8548296,0.1017628,0.352502,0.4919268,34.0848306,-34.440826400000006,-110.3382094,40.6820904,-76.58000180000002,5.660565800000002,-0.9761992000000002,0.131883,0.0460691999999999,86.8860474,82.3431152,-142.7627442,269.4483611147923,0.613681761197186,86.89977652547736,0.9861441958244648,52.8012168,116.7839416,-32.42453479999999
5416.323,-10.9953834,-237.5382904,104.6634906,0.1495144,0.304913,0.4439784,34.6083338,-39.543011,-111.5505936,25.4349114,-71.96576220000001,-1.1957653999999978,-0.9296284,0.1248103999999999,0.0352777999999999,76.5895136,82.20194240000001,-153.64741199999995,259.80720568691703,0.5589662897196217,76.33764144800806,0.9386325805167642,41.98117979999999,121.7449534,-42.09681839999999
5436.31,-8.2471454,-228.3515412,99.8880298,0.2079323999999999,0.2807175999999999,0.397344,35.3550942,-44.424337,-112.8933396,8.7461326,-61.08485700000002,-9.981490399999997,-0.918339,0.1210796,0.0004429999999999,67.6049318,82.0619796,-162.8742582,249.37935013346575,0.5290751442427815,62.50987714571615,0.9262866644328632,32.24983759999999,126.4863166,-49.98091859999999
5456.296,-6.386167800000001,-218.567447,95.291434,0.2682592,0.2416476,0.3655888,36.334414,-49.0748642,-114.398227,-1.6393432,-47.40503000000001,-15.385964199999998,-0.9199298,0.099731,-0.0384324,60.347484,81.9918486,-98.1543546,238.52247152216896,0.5138207193718837,49.866343457205375,0.9261177887605876,24.013069999999992,131.0667128,16.243872400000008
5476.283,-5.7762916,-206.8585998,91.191057,0.3260978,0.2311001999999999,0.3207308,37.5492608,-53.4617836,-116.0828644,-4.7215754,-29.63375500000001,-18.5066332,-0.9014336,0.0770386,-0.0637166,55.1693538,82.07220140000001,-31.2793914,226.1407852039124,0.5124600703211128,35.25547024303113,0.90696046562928,17.62009299999999,135.533985,84.80347300000001
5496.269,-5.3298700000000006,-194.0342744,86.5753602,0.3701702,0.1982554,0.2529572,39.021885,-57.5713324,-117.9773942,-5.231413,-8.818464200000012,-19.3522622,-0.8902825999999999,0.0745556,-0.102421,52.4671924,82.3355408,-33.90261220000001,212.53940846325688,0.490222934621627,21.90075444090453,0.8992506361382904,13.445307399999994,139.9068732,84.074782
5516.255,-3.4218847999999995,-180.2055452,82.0925034,0.4340934000000001,0.1793782,0.1944712,40.80840980000001,-61.3887938,-120.1088486,-4.491255000000001,15.027192999999988,-16.116151999999996,-0.8731145999999999,0.0816986,-0.1410676,53.18774979999999,82.7815978,-33.102453600000004,198.0528387347496,0.508362730919803,22.48818036705899,0.8882025859818693,12.379339999999992,144.1703916,87.006395
5536.242,-2.2070868000000003,-165.21945820000002,76.63272620000001,0.4897286,0.171974,0.1536252,42.9569076,-64.887605,-122.5421264,-1.0647382,37.66808339999999,-12.782471799999998,-0.8533553999999999,0.092334,-0.1580434,58.0735996,83.3675978,-28.19686900000001,182.1398235556641,0.5413038522022543,39.79208162162026,0.8727649870089427,15.116691999999995,148.2552028,94.3452574
5556.229,-2.2523228000000004,-148.10838940000002,70.8990218,0.5426084,0.1646167999999999,0.082933,45.3777022,-68.02591,-125.2133118,1.0918042,57.55344199999998,-10.266017399999996,-0.8719894,0.1011614,-0.1674512,67.5331928,83.9644026,-90.75202040000002,164.21887607962222,0.5730623431022143,58.47206029990394,0.8936660712725756,22.155490599999997,151.99031259999998,34.46129139999999
5576.215,-3.2422552,-130.0322192,64.6936476,0.6039556,0.147194,0.0228968,47.987034400000006,-70.789491,-128.0601944,4.126332,72.10185999999999,-8.066492799999995,-0.890579,0.104845,-0.1602568,80.7701336,84.37236920000001,-149.5722382,145.2727031780292,0.6220552257296775,72.66892827974192,0.9109366998931594,32.783099199999995,155.1618602,-21.512043800000004
5596.201,-3.0450278000000006,-111.132747,58.231036200000005,0.6699706,0.142315,-0.022127,50.70958,-73.15804419999999,-130.9829422,5.8758358,77.39851839999999,-6.219778399999997,-0.9073288,0.110451,-0.1514896,95.6972354,84.5223584,-134.7211426,125.50144711115682,0.6852764173808698,77.87003107877128,0.9264955874792928,44.9876554,157.6804026,-3.7382004000000015
5616.188,-2.9257906,-91.7249092,51.62525839999999,0.7320993999999998,0.129266,-0.0647046,53.3801162,-75.13724199999999,-133.819162,6.548275599999999,73.67283419999998,-5.755489199999997,-0.9501224,0.1124289999999999,-0.1385142,110.2236346,84.4029188,-120.27314,105.29570989954938,0.7462344909594569,74.18687261453714,0.9667259377012702,56.8435184,159.54016080000002,13.546022000000002
5636.174,-3.9026102,-73.4266426,45.0949888,0.7956787999999999,0.1164115999999999,-0.1050411999999999,55.82295839999999,-76.7497298,-136.4189912,7.1163116,62.89037079999999,-5.471986399999997,-0.9684444,0.1171316,-0.1205398,122.5507036,84.059947,-108.0267502,86.25694305244885,0.8109809289258533,63.527814894828325,0.982921263883308,66.72774519999999,160.8096768,28.392241
5656.161,-2.40188,-56.903346,37.4717756,0.8741688,0.0850672,-0.1283116,58.0312768,-78.02106160000001,-138.7314454,5.862057399999999,49.04308599999998,-5.364749399999996,-0.9450002,0.1216786,-0.1042694,131.2849106,83.6206862,-99.346193,68.17546318248868,0.8876211951637027,49.68267844519948,0.9584900455791704,73.25363379999999,161.64174780000002,39.3852524
5676.147,4.0049346,-41.8148984,29.963765,0.9538788,0.0544208,-0.163436,59.9541444,-78.984024,-140.6113008,1.0688642000000002,33.294531599999985,-5.243187199999997,-0.9482842,0.137822,-0.0963138,136.3345732,83.2402022,-94.2675218,51.59798874304913,0.9693078533975056,33.72179291134567,0.9630753738540302,76.3804288,162.2242262,46.343779
5696.134,14.4476858,-27.439491999999998,22.2736296,1.0203046,0.0288196,-0.1755042,61.4796594,-79.65644080000001,-141.860071,-4.21738,21.376735599999986,-5.2453011999999966,-0.9709436,0.1233616,-0.0820528,139.256909,82.98834059999999,-91.2259202,38.18083186301186,1.035689997220674,22.411253950982484,0.9821823765082328,77.77724959999999,162.6447814,50.63415080000001
5716.12,26.0222588,-13.013337800000002,15.704349599999995,1.0634376,0.0171714,-0.1680588,62.3266396,-80.065442,-142.16798720000003,-11.277509,14.488771399999983,-5.286663599999996,-0.9722434,0.0843354,-0.092775,141.175366,82.83164500000001,-89.0578018,33.06253937782315,1.0767720958165472,19.10642609035252,0.9802942870188116,78.8487264,162.897087,53.1101854
5736.107,39.2294862,2.6233658000000006,10.622278,1.0804872,0.003816,-0.1660582,62.232695,-80.2304216,-141.2401978,-19.304614800000003,14.299198799999983,-7.3384813999999965,-0.9871124,0.0590096,-0.1006562,143.097119,82.6944396,-86.7251402,40.72674091485696,1.093179983811943,25.119485427779885,0.9939842522516944,80.864424,162.9248612,54.5150576
5756.093,50.5610628,18.4000356,5.6588628,1.0640106,0.0035644,-0.1515188,61.1452408,-80.14507,-139.0747314,-26.8783714,18.570198799999982,-11.113987199999997,-0.995692,0.049099,-0.1086312,145.5526458,82.5116392,-83.6986128,54.10180320225968,1.074750765811851,34.50825762146827,1.0028030755230262,84.407405,162.6567092,55.376118600000005
5776.079,57.882203,33.0326238,-0.8512738000000002,1.0292435999999998,0.0084307999999999,-0.1163947999999999,59.2867524,-79.78652059999999,-135.9674346,-32.8412418,25.693318999999985,-13.786788799999997,-0.982218,0.06439,-0.1220306,148.5697662,82.2125426,-79.98070499999999,66.65004370837353,1.0358384121071391,43.91775665511198,0.9918617539558424,89.2830138,161.9990632,55.98672960000001
5796.066,58.13729420000001,46.54115900000001,-8.9234546,0.9808474,0.0156,-0.094666,56.8878694,-79.1318026,-132.3024734,-35.679123399999995,33.34605299999999,-14.471044999999997,-0.9509608,0.0931354,-0.1363994,151.8728028,81.75883019999999,-75.9104628,75.00434987358331,0.985528606202154,50.934960888011496,0.9651971001770364,94.9849334,160.8906328,56.392010600000006
5816.052,55.7191324,58.836224400000006,-19.3286894,0.9370054,0.0016382,-0.0934526,54.3592576,-78.1423188,-128.5624878,-35.6978386,36.81598079999999,-13.526197999999996,-0.9392022,0.117167,-0.1398458,154.9883424,81.2159302,-72.02489,83.30618975188793,0.9416555589891454,53.03498991527029,0.9567579245302754,100.6290848,159.358249,56.5375978
5836.039,53.6019708,70.5728164,-31.5936996,0.8972512,0.0006374,-0.0869278,52.0882226,-76.78466039999999,-125.1268098,-35.162559400000006,32.09639619999999,-8.813631799999996,-0.9441862,0.11171,-0.1530646,157.1113862,80.7007156,-69.15496519999999,94.0843001923658,0.9014524749497558,48.41760359716158,0.9630137466015738,105.0231636,157.485376,55.9718446
5856.025,50.5973436,83.2526442,-43.5791986,0.8580886,0.0113154,-0.0725984,50.1532152,-75.0509828,-122.074547,-33.646064,18.629357799999987,-2.468542199999996,-0.9563376,0.0780006,-0.1760434,157.8112244,80.369371,-67.7633072,106.72506967103136,0.8612285477210332,38.53834837309064,0.9755290756598084,107.6580092,155.4203538,54.3112398
5876.011,46.7923472,97.89653,-53.9307734,0.8133289999999999,0.027222,-0.059421,48.4137116,-72.94446559999999,-119.2838228,-32.112639,-1.9931290000000144,2.087356800000004,-0.9799426,0.0309908,-0.1921146,156.9579622,80.374585,-67.9843216,121.16840620412732,0.8159509512011123,32.24207197382743,0.99907754879817,108.54425059999998,153.3190506,51.29950120000001
5895.998,43.516292,113.9571104,-63.0834962,0.7642598,0.0495878,-0.0407933999999999,46.7988244,-70.4648162,-116.6668152,-31.919431800000005,-27.65250560000001,4.225908400000004,-1.0174990000000002,0.0054526,-0.1933484,154.27840580000003,80.8219436,-70.0680068,137.32959685720508,0.7669524713360275,42.442543446382594,1.0357207874858554,107.4795814,151.2867598,46.59880840000001
5915.984,39.1252336,130.57144599999998,-72.2071908,0.7138669999999999,0.0821996,-0.0160054,45.2944192,-67.60368580000001,-114.2205216,-31.7860806,-54.51316720000001,3.644653000000004,-1.0449634,0.014922,-0.1888674,149.0094208,81.707611,-74.77865299999999,154.25162825076785,0.7187621586855556,63.20857389290841,1.061999090492228,103.7150016,149.31129679999998,39.44186860000001
5935.971,35.017959,146.27244560000003,-81.6381226,0.6657292,0.098247,0.02672,43.9544626,-64.3692224,-111.995575,-31.1676374,-79.063049,2.885569400000004,-1.0652146,0.041798,-0.160583,139.149321,82.86148519999999,-84.125058,171.13348256838367,0.6734699689976087,85.0336042340703,1.0780612768976354,95.1948584,147.23070760000002,27.870517
5955.957,33.1486924,161.04219360000002,-91.5761034,0.6088332000000001,0.1367325999999999,0.0602597999999999,42.8676758,-60.7653206,-110.0356964,-28.4603002,-93.7983804,5.5374010000000045,-1.071157,0.0762806,-0.1435968,124.8254868,83.88463899999999,-97.9862824,188.20097407095744,0.626901039097113,98.17732764224144,1.0834279346387556,81.95781099999999,144.64995960000002,12.049413999999995
5975.944,30.9365722,175.1112824,-101.7932862,0.550846,0.1783938,0.1286578,42.0231858,-56.796502,-108.3353454,-20.455634600000003,-99.383722,13.075812200000003,-1.0702982,0.0990214,-0.0912699999999999,108.2363968,84.4607834,-114.2529176,204.8973055914925,0.593134464599116,102.30608022083376,1.0787370798675644,66.21321099999999,141.2572854,-5.9175722
5995.93,30.1222994,187.3809114,-111.1777056,0.5007263999999999,0.2142173999999999,0.2056524,41.4216484,-52.5036248,-106.8663024,-10.336696800000002,-96.55281060000002,21.114174800000004,-1.023804,0.0918662,-0.042651,91.3689896,84.4647706,-130.9785676,219.953270266023,0.5821588543906894,99.37354231876591,1.0288017967127778,49.9473412,136.96839540000002,-24.112265200000003
6015.917,32.105999999999995,197.8353976,-118.914728,0.430201,0.2674078,0.2820946,41.0673516,-47.9451234,-105.5707166,2.244528799999999,-82.29821700000002,31.3538306,-0.9388308,0.0639137999999999,0.0015617999999999,76.81045839999999,83.89462599999999,-145.6145492,233.0458159136612,0.5797906477781442,88.09708919258694,0.9410051456173448,35.7431068,131.8397494,-40.04383260000001
6035.903,32.0395068,206.9463808,-124.320569,0.356896,0.3399948,0.3396382,40.8542976,-43.1747712,-104.3704816,17.4766372,-61.886108000000014,36.8714462,-0.8779879999999999,0.0549579999999999,0.0337057999999999,67.1648872,82.9416262,-155.6052306,243.5342653482044,0.5986028113384367,74.12709866228128,0.8803518562834066,26.3105896,126.11639739999998,-51.23474900000001
6055.889,31.2173068,212.8256594,-128.0342546,0.291554,0.3748504,0.4405216,40.7454522,-38.2678502,-103.2471418,28.3455268,-39.653079800000015,33.2328592,-0.8547144,0.0623276,0.0881319999999999,62.846434,82.04221199999999,-160.4759946,250.32389397312383,0.647746738596745,58.99371625691767,0.8615037345903498,22.100981799999992,120.3100622,-57.228852800000006
6075.876,29.87718,216.1403476,-129.4772936,0.2280376,0.4313314,0.4908762,40.7155586,-33.297609800000004,-102.1770628,24.117442,-15.290972000000014,21.228411800000003,-0.8403090000000001,0.0777852,0.1202429999999999,62.1950058,81.5258682,-161.5954006,253.71965888236136,0.6921035813851566,35.58244371707103,0.8524248540892272,21.479447199999992,114.823478,-59.4183378
6095.862,25.614694799999995,216.7039554,-130.14777540000003,0.1456572,0.4921062,0.5547964000000001,40.705107,-28.31612280000001,-101.1691756,12.8247886,7.078386799999985,8.600673200000006,-0.8805076,0.085121,0.1035247999999999,63.8524278,81.4355164,-160.1768978,254.07707554455044,0.7557668803561322,16.98676961103265,0.8906495396696728,23.1473208,109.7516392,-59.0077222
6115.849,19.9089786,215.6984622,-130.5770784,0.0762362,0.5289254,0.5912336,40.6843298,-23.344221600000004,-100.2309798,-1.0591982000000002,21.47115639999999,-2.7738027999999955,-0.9374668,0.1192858,0.1064792,66.4015748,81.659523,-157.586334,252.9279886209113,0.7969511946942297,21.6754801550838,0.9510052172393796,25.71724499999999,105.0037446,-57.3553542
6135.835,17.483271000000002,212.3936892,-130.6550478,0.0017438,0.5683769999999999,0.6783964,40.7184096,-18.4216714,-99.3755828,-14.641189399999998,34.13039759999999,-11.793756999999996,-0.9750092,0.1394874,0.1018081999999999,70.0067574,82.1195128,-153.6644834,249.9749697319032,0.8850294517700525,38.9658975458773,0.990184116430192,29.28834779999999,100.5411842,-54.2889006
6155.822,11.1258728,209.2632784,-130.3517732,-0.0895729999999999,0.628653,0.6915302,40.7101546,-13.5508026,-98.5818038,-29.2682104,41.28377699999999,-15.308970199999996,-0.9947118,0.1296063999999999,0.0778579999999999,74.5939774,82.6598572,-148.46633899999998,246.79240164288268,0.9388513909293844,52.87100294101564,1.006136795939896,33.8838228,96.2106598,-49.8845352
6175.808,6.1968908,204.8492066,-129.8808808,-0.1829192,0.6507842,0.7485421999999999,40.6862404,-8.7527404,-97.8601898,-33.2401312,45.32182619999999,-13.790611999999996,-1.0134126,0.1159284,0.0446429999999999,80.4601424,83.1098282,-141.9059876,242.63273088687023,1.0086103974672875,57.87188636661814,1.0209982807107565,39.77390199999999,91.8625686,-44.0457978
6195.795,8.0531638,199.6013854,-128.7213882,-0.2634877999999999,0.6495827999999999,0.739181,40.7649582,-4.049512,-97.1992432,-31.495997,47.99837419999999,-13.097718399999996,-1.0068506,0.1392368,0.0292969999999999,87.61358320000001,83.43562460000001,-134.0879502,237.64419260929571,1.018711041250501,58.88456487189943,1.0168546264848284,46.84862499999999,87.4851366,-36.888707
6215.782,9.980502,194.2979368,-127.0986082,-0.3344745999999999,0.6859845999999999,0.7719744,40.9393784,0.5508239999999993,-96.5772172,-27.626093800000007,48.00294579999999,-12.210784599999997,-1.0288832,0.1208874,0.0005695999999999,95.288928,83.66294400000001,-125.8223526,232.39052233532647,1.0855379328875063,56.71496385145398,1.0359607749162898,54.34954959999999,83.11212,-29.2451354
6235.767,9.2145392,191.3164794,-126.4145994,-0.3935728,0.6983518,0.7458558,41.1512962,5.095119,-95.9690598,-22.766910000000003,42.189525199999984,-9.763786799999997,-1.0598208,0.108483,0.0059215999999999,102.3093246,83.7792192,-118.3098176,229.49412620836603,1.0949409389810574,48.92463347052677,1.0653749362305271,61.15802839999999,78.6841002,-22.3407578
6255.754,12.3622484,188.864096,-126.3680326,-0.4320617999999999,0.6746738,0.7549994,41.4750328,9.6002466,-95.36752020000002,-18.2965742,33.12458859999999,-11.756047999999996,-1.0807794000000002,0.1193988,0.0121659999999999,108.2188262,83.8951448,-112.0030946,227.57713331219196,1.1008570431377729,39.62584588313111,1.0874227312603872,66.74379339999999,74.29489819999999,-16.6355744
6275.74,19.2913824,187.6615418,-126.3022292,-0.4650866,0.6659596000000001,0.7099286,41.9977576,14.085686199999998,-94.737259,-14.205131200000002,20.073995399999987,-13.116348799999995,-1.077721,0.1044168,0.0137417999999999,112.1272018,84.053728,-107.791713,227.02701338507163,1.0787985685148456,27.87094633434063,1.082854680476785,70.1294442,69.96804180000001,-13.054453999999998
6295.727,23.819116,189.4956696,-126.4244628,-0.5263976,0.6933324000000001,0.6998306000000001,42.69116519999999,18.5921242,-94.0165192,-7.221282000000004,5.435985799999988,-14.163782399999995,-1.0874228,0.0372152,0.0396125999999999,113.72392419999998,84.3083316,-106.0491074,229.0395247079473,1.11694544131389,16.8020709204513,1.088780269452767,71.03275899999998,65.71620739999999,-12.0325882
6315.713,25.576671800000003,192.53070380000003,-127.1821152,-0.5978222,0.6827016,0.7067251999999999,43.5165726,23.1566036,-93.1781342,-0.1909234000000033,-10.036173000000014,-14.679191999999995,-1.0791208,0.0356686,0.0732367999999999,112.2878662,84.6667314,-107.498993,232.1584124532952,1.150188404467042,17.783135212989322,1.0821911009118677,68.7712936,61.5101278,-14.320858800000003
6335.7,29.5242092,193.3455718,-127.0417176,-0.6771658,0.6488162,0.6745542,44.538855,27.717814,-92.2127304,2.6433901999999967,-23.182001600000014,-18.8373464,-1.030602,0.0604638,0.0566473999999999,107.936096,85.1595582,-111.9387986,233.2247565639473,1.1552226412296982,29.987302801776824,1.033927116116605,63.39724099999999,57.4417442,-19.726068200000004
6355.686,38.1465386,192.9123168,-126.642563,-0.792313,0.6513002,0.6207010000000001,45.8709984,32.2509182,-91.1006592,8.622245199999998,-32.91788440000001,-15.977313599999995,-1.0226544,0.0113127999999999,0.0506819999999999,97.9098632,85.6320388,-122.1320358,233.8988224500368,1.1988417626567904,37.59261597087162,1.0239720046989569,52.03886479999999,53.3811206,-31.03137660000001
6375.672,42.7158142,192.1196836,-127.459987,-0.8999028000000001,0.6669744000000001,0.640633,47.4520082,36.7634854,-89.825734,18.0611192,-39.45691360000002,-17.4630436,-0.9984632,0.0225097999999999,0.0233297999999999,85.3278366,86.02618079999999,-135.0580138,234.47955538889357,1.2903838732688038,46.77616860507042,0.9989893555080156,37.87582839999999,49.2626954,-45.23227980000001
6395.659,43.87807780000001,188.5907592,-127.8045808,-0.994542,0.6423466,0.6387457999999999,49.238823,41.20904779999999,-88.38337100000001,14.846544999999995,-43.122320400000014,-17.0467566,-0.9862556,0.0594916,0.0112295999999999,78.70503699999999,86.3135724,-141.8239608,232.00381686627264,1.345258020348959,48.68825654813413,0.9881120700194286,29.466214,45.104524600000005,-53.44058980000001
6415.645,45.412851,180.8231232,-125.875914,-1.0836058,0.6099728,0.5628636,51.2617356,45.480697000000006,-86.7702148,16.0862812,-37.761852800000014,-18.357098599999997,-0.9465932,0.0493639999999999,-0.0601438,67.0892388,86.500865,-153.7574308,224.95349440514585,1.3649482696199295,44.9634188951915,0.9497856429009022,15.827503199999992,41.020168,-66.987216
6435.632,46.2781578,169.58563859999998,-121.5808456,-1.1634898,0.610264,0.5370868,53.481106,49.5144358,-85.0046784,19.316295,-27.14044060000001,-14.351816199999996,-0.927863,0.0271731999999999,-0.1164962,58.0403566,86.58923159999999,-163.177493,213.73548775423924,1.419363552841301,36.27254329003877,0.9355423529598648,4.559250599999994,37.0747958,-78.1728146
6455.618,41.4018268,154.6688768,-115.1050552,-1.1916514,0.6114447999999999,0.537721,55.7252228,53.221940800000006,-83.15872039999999,23.6405768,-12.949689400000011,-11.722123399999996,-0.9056322,0.0841742,-0.1759204,55.9776064,86.66800980000001,-165.7489102,197.19469172760665,1.4432746365158642,29.393528267256357,0.9263924464062948,0.2523835999999931,33.446069,-82.5901898
6475.605,35.391631600000004,135.1143648,-105.7673202,-1.2080918,0.5998821999999999,0.5004166,57.8899864,56.505279,-81.3264556,22.1024238,2.209099599999988,-6.295190199999997,-0.9314074,0.0908264,-0.2015973999999999,59.1282884,86.81076340000001,-163.1027006,175.20041433999785,1.4386664744337514,23.08737054174213,0.9572934196987254,1.2383019999999934,30.3054844,-81.77624499999999
6495.591,27.7349376,113.87328340000002,-94.2669906,-1.1777856,0.602514,0.4816171999999999,59.8811364,59.324042000000006,-79.5717742,26.5836532,19.00090319999999,-2.360436599999997,-0.9410136,0.0986394,-0.2234996,60.3138672,86.99308160000001,-162.66079399999998,150.40816783922708,1.407891035236463,32.76120572897553,0.9722080013132376,0.4327307999999917,27.6690396,-83.0890198
6515.577,21.141349,92.66897120000002,-81.6786262,-1.1355352,0.627929,0.5062096,61.63521820000001,61.67212919999999,-77.9773774,21.5728722,31.653109399999988,-0.691609199999997,-0.9814408,0.1010368,-0.189103,72.4993828,87.1990324,-150.9655534,125.3231536417974,1.392832789179017,38.31170151443844,1.004586692858252,10.864164599999992,25.5269032,-72.98817600000001
6535.564,11.807872999999995,72.75159679999999,-69.1321648,-1.0846589999999998,0.6548048,0.525378,63.02005319999999,63.57562420000001,-76.6288072,14.3718204,40.78819979999999,-0.507985999999997,-1.0251626,0.1035428,-0.1553418,88.1249694,87.2806334,-135.66234300000002,101.05185258899638,1.3715963383109622,43.24909842194137,1.04202233310896,25.10491619999999,23.7050092,-59.0335358
6555.55,1.9953628,53.998938,-55.6171386,-1.0404428,0.6767606,0.5401222,63.9630602,65.0557276,-75.5745698,4.478801599999999,44.86145539999999,-3.277329599999997,-1.0555278,0.0801974,-0.1165276,104.819,87.2059218,-119.05940719999998,77.5443929880367,1.353609293968182,45.20343718883982,1.0649644318480125,40.85593979999999,22.1501942,-43.48483740000001
6575.536,-7.4119264,36.114764,-41.7767934,-1.013351,0.688766,0.5469754,64.3920274,66.1262644,-74.89709640000001,-3.5475398000000014,45.66687839999999,-5.753839799999997,-1.054768,0.0601148,-0.0964382,120.778874,86.94819179999999,-102.9929918,55.718159504070094,1.341812557759898,46.16443971150342,1.0608721173743234,56.38684659999999,20.8219274,-28.095895400000007
