Timestamp (ms),Wrist Gyroscope X (deg/s),Wrist Gyroscope Y (deg/s),Wrist Gyroscope Z (deg/s),Wrist Accelerometer X (g),Wrist Accelerometer Y (g),Wrist Accelerometer Z (g),Wrist Roll (deg),Wrist Pitch (deg),Wrist Yaw (deg),Arm Gyroscope X (deg/s),Arm Gyroscope Y (deg/s),Arm Gyroscope Z (deg/s),Arm Accelerometer X (g),Arm Accelerometer Y (g),Arm Accelerometer Z (g),Arm Roll (deg),Arm Pitch (deg),Arm Yaw (deg),Wrist Gyroscope Magnitude (deg/s),Wrist Accelerometer Magnitude (g),Arm Gyroscope Magnitude (deg/s),Arm Accelerometer Magnitude (g),Difference Roll (deg),Difference Pitch (deg),Difference Yaw (deg)
0.0,-2.252432346343994,0.8057848215103149,-0.6409734487533569,-0.9247021675109864,0.3773209452629089,0.0279488656669855,85.52164459228516,67.49703216552734,-49.43868637084961,0.6588650941848755,-0.6938459873199463,-0.4059680998325348,-0.9589059948921204,0.2782878279685974,-0.0174589604139328,93.52779388427734,74.0844497680664,5.269959449768066,2.476608086767039,0.9991127731270792,1.039391920565517,0.9986238719028612,8.006149291992188,6.587417602539063,54.70864582061768
18.982,-1.733677625656128,0.8914999961853027,-0.4856780767440796,-0.910737931728363,0.3905515670776367,0.0157918408513069,85.5508041381836,67.50128936767578,-49.38733673095703,-0.4239116609096527,-0.1938511729240417,0.0140853328630328,-0.9496697187423706,0.2946957945823669,-0.0147422524169087,93.49948120117188,74.07146453857422,5.274786949157715,2.0090528980414857,0.991071888953131,0.4663451190921478,0.9944523719349608,7.948677062988281,6.5701751708984375,54.662123680114746
34.866,-1.864590287208557,1.439392328262329,-0.5316084027290344,-0.9151102900505066,0.394330620765686,0.0288163349032402,85.58396911621094,67.5057601928711,-49.32624053955078,-2.305217027664185,1.1732134819030762,-0.5202550292015076,-0.9628283381462096,0.285361498594284,-0.0197588559240102,93.54265594482422,74.0748062133789,5.369400024414063,2.414778397216824,0.9968720392242072,2.638393585908194,1.00442023376911,7.958686828613281,6.5690460205078125,54.69564056396485
56.843,-1.8041651248931885,0.8603847026824951,-0.8714793920516968,-0.930245041847229,0.3727777004241943,0.0363403372466564,85.57540893554688,67.53035736083984,-49.317176818847656,-2.3072597980499268,1.3333327770233154,-1.005953669548035,-0.9655543565750122,0.2645667791366577,-0.020828565582633,93.60353088378906,74.09930419921875,5.459211826324463,2.180538916245637,1.0028158713971893,2.8483621355542645,1.0013613859481303,8.028121948242188,6.568946838378906,54.77638864517212
79.095,-1.5124248266220093,0.1989132463932037,-0.7127361297607422,-0.9248072504997252,0.3715950846672058,0.0270301830023527,85.55548095703125,67.5503921508789,-49.330448150634766,-0.4653984010219574,0.3864753246307373,-0.563107967376709,-0.9654479026794434,0.2650137543678283,-0.0079090958461165,93.60607147216795,74.1160888671875,5.451746463775635,1.6837422981084782,0.9970366032994128,0.8264680460522096,1.0011915384127907,8.050590515136719,6.565696716308594,54.7821946144104
99.878,-0.3593429327011108,0.073831170797348,-0.2734078466892242,-0.9159940481185912,0.386619508266449,0.0229006055742502,85.56226348876953,67.5516128540039,-49.33760452270508,0.3852980434894562,-0.3276743590831756,0.1405726969242096,-0.959979772567749,0.2890393435955047,-0.011870838701725,93.57789611816406,74.10533905029297,5.409623622894287,0.4575262131231178,0.9945070025377108,0.5249626187052927,1.0026194805093454,8.015632629394531,6.553726196289063,54.747228145599365
114.05,-0.9086244702339172,0.6585425734519958,-0.1650268733501434,-0.9237801432609558,0.3982017338275909,0.0354003384709358,85.56915283203125,67.54676055908203,-49.32413864135742,-0.7837486267089844,0.3625721633434295,-0.0006946101784706,-0.963241159915924,0.2888480722904205,-0.0138287292793393,93.57940673828124,74.09729766845703,5.422450065612793,1.1342445141522035,1.006572182146113,0.8635513684680567,1.0057126700880068,8.01025390625,6.550537109375,54.746588706970215
137.22899999999998,-1.2914515733718872,0.8778282999992371,-0.435665488243103,-0.9227718710899352,0.3835680484771728,0.0280615016818046,85.58702850341797,67.55535888671875,-49.29212188720703,-1.7252012491226196,0.9617602825164796,-0.5597875714302063,-0.962137758731842,0.2701811790466308,-0.0200725253671407,93.62168884277344,74.10957336425781,5.495599746704102,1.6211829348628042,0.999709868793964,2.052964762514972,0.9995548221899458,8.034660339355469,6.554214477539063,54.78772163391113
158.998,-1.4571995735168457,0.4814245998859405,-0.228976771235466,-0.9268032908439636,0.3740682601928711,0.0279715359210968,85.58222198486328,67.56507110595703,-49.303958892822266,-0.7085448503494263,0.439142644405365,-0.2589605450630188,-0.969966471195221,0.2644740641117096,-0.0185274928808212,93.64359283447266,74.1207275390625,5.525975227355957,1.551654150962267,0.9998368917101964,0.8728932529189142,1.0055469923494988,8.061370849609375,6.555656433105469,54.82993412017822
181.611,-1.0505256652832031,-0.1719027012586593,0.0577413737773895,-0.9261772632598876,0.3810228407382965,0.031979776918888,85.5501937866211,67.56399536132812,-49.35307312011719,-0.3850187063217163,-0.7977805733680725,-0.1824096590280532,-0.9608827829360962,0.2839272916316986,-0.0091392789036035,93.56332397460938,74.12003326416016,5.448694705963135,1.0660622769634245,1.0020007157061508,0.904415021529314,1.0019949879591248,8.013130187988281,6.556037902832031,54.80176782608032
204.102,-1.716238260269165,0.0462195202708244,-0.4003368616104126,-0.9164990186691284,0.3848905563354492,0.027663791552186,85.52088165283203,67.56836700439453,-49.38167572021485,-1.2721952199935913,-0.014542706310749,-0.3550772368907928,-0.956382691860199,0.2811692357063293,-0.0131099047139287,93.5300064086914,74.12240600585938,5.463221073150635,1.7629179257214076,0.9944226852504572,1.3208981839034313,0.9969432591672658,8.009124755859375,6.554039001464844,54.84489679336548
214.873,-0.4431313276290893,0.3021445274353027,-0.1749186664819717,-0.9190097451210022,0.3870365619659424,0.0252284593880176,85.53418731689453,67.56819915771484,-49.388275146484375,-0.6925474405288696,0.837162971496582,0.2334848344326019,-0.9615962505340576,0.274790495634079,-0.0165178179740905,93.57330322265624,74.1162338256836,5.544317245483398,0.564139370075563,0.9975032266057484,1.111296074922473,1.0002249766140645,8.039115905761719,6.54803466796875,54.93259239196777
236.663,0.982042908668518,0.7109165191650391,0.0490650981664657,-0.9228533506393432,0.3841903209686279,0.0273213647305965,85.59262084960938,67.56639099121094,-49.37596893310547,-0.1349029242992401,0.7175259590148926,0.4062918722629547,-0.9680069088935852,0.2736374139785766,-0.0225098114460706,93.63052368164062,74.10826873779297,5.609137058258057,1.2133498899929664,1.0000034832354248,0.835532995345884,1.0061915829532335,8.03790283203125,6.541877746582031,54.985105991363525
257.527,0.472180962562561,0.3511831164360046,0.0307625234127044,-0.9284722208976746,0.3770632743835449,0.0330140851438045,85.61372375488281,67.56918334960938,-49.3828239440918,-0.1337409615516662,-0.5596126317977905,-0.1380598396062851,-0.9618332386016846,0.2744583785533905,-0.0195187851786613,93.59449005126952,74.11149597167969,5.566746234893799,0.5892629086604113,1.0026601157348305,0.5917038632428615,1.0004156953047127,7.980766296386719,6.5423126220703125,54.9495701789856
279.80100000000004,-1.6531459093093872,-0.1588570773601532,-0.0669205784797668,-0.9185001850128174,0.3773282468318939,0.0248334035277366,85.57980346679688,67.5711441040039,-49.405181884765625,-0.9988681077957152,0.147026315331459,-0.6065290570259094,-0.956430435180664,0.2748388051986694,-0.020627113059163,93.59517669677734,74.12207794189453,5.587538719177246,1.6621087005120443,0.9932954714769324,1.177808019665377,0.9953496993399163,8.015373229980469,6.550933837890625,54.99272060394287
301.309,-2.4683146476745605,-0.0625528246164321,-0.0009297747164964,-0.9197527766227722,0.3813183307647705,0.0245753601193428,85.53565979003906,67.5700912475586,-49.41615676879883,-1.9213638305664065,0.1276260316371917,-0.5124444961547852,-0.9602583050727844,0.2774973511695862,-0.0123654389753937,93.55818939208984,74.13014221191406,5.610809803009033,2.469107312425547,0.9959682664661186,1.9926180604921764,0.9996267785771084,8.022529602050781,6.560050964355469,55.02696657180786
321.39,-1.8071855306625368,0.3508017361164093,-0.1807773262262344,-0.9184120893478394,0.3811682462692261,0.0267836507409811,85.52102661132812,67.57296752929688,-49.40435028076172,-1.3335734605789185,0.772965669631958,0.0839696526527404,-0.9608625173568726,0.2677383124828338,-0.0146314781159162,93.58161163330078,74.1307144165039,5.683849811553955,1.849773456933532,0.9947297933465328,1.543679048169222,0.9975743888975892,8.060585021972656,6.557746887207031,55.08820009231568
344.683,1.859907507896424,0.1732389777898788,0.1428444981575012,-0.9206832647323608,0.3799038827419281,0.0264094341546297,85.57257080078125,67.5702896118164,-49.40031051635742,0.1322637349367141,0.6881983876228333,0.4509695768356323,-0.9643720388412476,0.267969399690628,-0.0182405281811952,93.6338882446289,74.12445068359375,5.722607612609863,1.873411922671849,0.9963343275693148,0.8333572316464207,1.0010762934650432,8.061317443847656,6.554161071777344,55.122918128967285
353.888,0.6564673781394958,-0.0669831037521362,0.136604368686676,-0.9289700388908386,0.3765220046043396,0.0277251787483692,85.58565521240234,67.57089233398438,-49.42398071289063,0.6213818788528442,-0.0819112285971641,0.2077183872461319,-0.9661163091659546,0.2668050527572632,-0.0182433128356933,93.64295959472656,74.12495422363281,5.695444583892822,0.673867129554409,1.0027576170963477,0.6602816195663194,1.002446246676835,8.057304382324219,6.5540618896484375,55.11942529678345
385.189,-0.8449768424034119,0.004015777260065,0.0937588065862655,-0.924278199672699,0.371712863445282,0.0287682134658098,85.56990814208984,67.5739517211914,-49.44584274291992,0.7501036524772644,0.1479203253984451,0.0931851640343666,-0.9635451436042786,0.275044173002243,-0.013912945985794,93.66104125976562,74.12268829345703,5.679818153381348,0.8501721616693431,0.9966384767541894,0.7702073661825277,1.002128789593374,8.091133117675781,6.548736572265625,55.12566089630127
404.14,-0.2963349819183349,-0.1465027332305908,0.0373199805617332,-0.9248771667480468,0.3804916143417358,0.0383894629776477,85.54451751708984,67.572998046875,-49.483795166015625,0.7263319492340088,0.7748334407806396,0.2668410539627075,-0.9610278606414796,0.2870411276817322,-0.0167616605758667,93.7257080078125,74.10912322998047,5.724340915679932,0.3326713893644924,1.0008223583753448,1.0950475375571456,1.0031191909116284,8.181190490722656,6.536125183105469,55.20813608169556
414.909,0.2770218253135681,-1.3480823040008545,-0.0848260447382927,-0.9277379512786864,0.3767707943916321,0.0320242084562778,85.48162078857422,67.57535552978516,-49.57161712646485,0.5638272166252136,1.6837809085845947,0.2129841148853302,-0.9563423991203308,0.2718845009803772,-0.0361319333314895,93.89219665527344,74.10237121582031,5.874765396118164,1.3788627371592344,1.001838054615878,1.7884019435000584,0.99489571455246,8.410575866699219,6.527015686035156,55.44638252258301
434.857,1.5674400329589844,-2.745161533355713,-0.1280956417322158,-0.9223011136054992,0.3666545450687408,0.0091651398688554,85.41099548339844,67.58149719238281,-49.70047378540039,1.4872667789459229,1.2291632890701294,0.0664708167314529,-0.9590432047843932,0.2632061839103699,-0.0309875346720218,94.03491973876952,74.10453796386719,5.981499671936035,3.163730170948392,0.9925517111799894,1.930601779868346,0.994988236712791,8.623924255371094,6.523040771484375,55.681973457336426
456.754,3.81479287147522,-2.234681844711304,-0.0085285156965255,-0.9195438623428344,0.3768832683563232,0.0197186842560768,85.39604187011719,67.57947540283203,-49.81172180175781,3.020590543746948,2.2765111923217773,0.8791903257369995,-0.958660364151001,0.2698974609375,-0.0278423316776752,94.2679672241211,74.08522033691406,6.150890827178955,4.421144686042344,0.9939772327614516,3.883226245096896,0.996317985709326,8.871925354003906,6.505744934082031,55.96261262893677
473.975,3.3807194232940674,-2.068476438522339,0.1076864600181579,-0.9296940565109252,0.3812560737133026,0.0393213033676147,85.35236358642578,67.57450866699219,-49.9390869140625,4.499057292938232,2.443577289581299,0.6541147828102112,-0.9668829441070556,0.2728446424007416,-0.0252072736620903,94.5343017578125,74.06996154785156,6.318822383880615,3.9647767868356816,1.005601013003443,5.161439009073829,1.004958821612802,9.18193817138672,6.495452880859375,56.25790929794312
496.928,3.389636278152466,-2.853014707565308,0.0414174273610115,-0.9244754910469056,0.3721996545791626,0.0306740794330835,85.28313446044922,67.5735855102539,-50.101898193359375,4.5612406730651855,1.809258222579956,0.5561991333961487,-0.9661261439323424,0.2710971236228943,-0.0215181969106197,94.74811553955078,74.05864715576172,6.422168254852295,4.43069322149937,0.9970598856459588,4.938389339611444,1.003671464785399,9.464981079101562,6.4850616455078125,56.52406644821167
518.89,3.5957629680633545,-2.9893860816955566,0.0630653128027916,-0.9248957633972168,0.3830059170722961,0.0316922925412654,85.21207427978516,67.56631469726562,-50.27394104003906,3.570952653884888,0.9942341446876526,0.3482131958007812,-0.9627447724342346,0.2919114232063293,-0.0147946197539567,94.8672103881836,74.04114532470703,6.449494361877441,4.6765283813540375,1.001563830751207,3.723097745222398,1.0061355060932176,9.655136108398438,6.474830627441406,56.7234354019165
543.654,1.658537745475769,-2.9735145568847656,-0.2872416377067566,-0.9225359559059144,0.3976974487304687,0.0380688570439815,85.094970703125,67.55751037597656,-50.45124816894531,1.6428937911987305,2.888641357421875,-0.1108669489622116,-0.9614737033843994,0.2928711175918579,-0.0205301251262426,95.09204864501952,74.02872467041016,6.655799865722656,3.41687635591426,1.0053283486217814,3.325002312982597,1.0052992886981047,9.997077941894531,6.471214294433594,57.10704803466797
553.714,-0.2253707647323608,-2.78221082687378,-0.5701758861541748,-0.9293537139892578,0.3796529471874237,0.0410828478634357,84.94282531738281,67.56539154052734,-50.62306594848633,0.9230673909187316,3.4201033115386963,-0.5871500968933105,-0.9763131737709044,0.2615216076374054,-0.0236620865762233,95.35184478759766,74.04389953613281,6.911690711975098,2.848962900411556,1.004749962131024,3.590808447419229,1.0110098213573449,10.409019470214844,6.478507995605469,57.53475666046143
577.074,-0.690712571144104,-2.738191843032837,-0.6579843759536743,-0.9310620427131652,0.3713206350803375,0.0357134938240051,84.79132843017578,67.579833984375,-50.78474807739258,2.3023552894592285,0.8578052520751953,-0.4818412363529205,-0.9708040952682496,0.2574162781238556,-0.0220362674444913,95.45650482177734,74.06290435791016,6.983859062194824,2.8996071913601003,1.0030109645755596,2.503765305782231,1.004594111427908,10.665176391601562,6.483070373535156,57.7686071395874
599.524,-0.3683578073978424,-2.6146931648254395,-0.1529411375522613,-0.9219093322753906,0.3824608325958252,0.0324675217270851,84.66234588623047,67.5765151977539,-50.92691802978516,2.90108585357666,-0.209425613284111,-0.1030117720365524,-0.961603581905365,0.2830387353897095,-0.0173252336680889,95.48117065429688,74.06098175048828,6.968555450439453,2.644938338035804,0.9986226741735074,2.9104586653137945,1.0025430355779683,10.818824768066406,6.484466552734375,57.89547348022461
622.086,-0.0499102883040905,-2.2558038234710693,-0.315134584903717,-0.9267120957374572,0.3918461203575134,0.0551630482077598,84.52508544921875,67.5720443725586,-51.0777587890625,1.92261290550232,3.4170992374420166,-0.469059407711029,-0.9536125659942628,0.293173998594284,-0.0419000349938869,95.7880401611328,74.05113220214844,7.263529300689697,2.278256292313868,1.0076614770412318,3.948800363514609,0.9985407014270437,11.262954711914062,6.479087829589844,58.3412880897522
643.7460000000001,-1.6110100746154783,-3.746793985366821,-0.7400028109550476,-0.9286082983016968,0.379325807094574,0.0486684218049049,84.29243469238281,67.58025360107422,-51.29914855957031,-1.4733035564422607,2.269094467163086,-1.821681022644043,-0.9640278220176696,0.2587666809558868,-0.0503631383180618,95.97920989990234,74.0904312133789,7.462316989898682,4.145047983982203,1.004275885841985,3.2615847097073822,0.9994229747700928,11.686775207519531,6.510177612304688,58.761465549468994
653.6110000000001,-1.8052732944488523,-5.392531871795654,-0.6587613224983215,-0.931362807750702,0.3738406002521515,0.0398680381476879,83.9917984008789,67.5869369506836,-51.59536361694336,1.7520482540130615,4.486537933349609,-0.5382890701293945,-0.9453092217445374,0.2514305710792541,-0.062851458787918,96.40706634521484,74.09915161132812,7.837378025054932,5.724716424068697,1.0043818668832614,4.846488505587934,0.9801924110399304,12.415267944335938,6.512214660644531,59.43274164199829
676.883,-1.2248294353485107,-7.956560134887695,0.0482362769544124,-0.9279018640518188,0.3860252797603607,0.0536849312484264,83.56822204589844,67.56539154052734,-52.0328483581543,4.966588973999023,9.462646484375,-0.502818763256073,-0.9333671927452089,0.2823284268379211,-0.0961689203977584,97.30079650878906,74.07272338867188,8.624208450317383,8.050427508163445,1.0064290624619567,10.698668666408246,0.979863316154002,13.732574462890623,6.507331848144531,60.65705680847168
696.288,-1.3513379096984863,-11.82563591003418,0.5512759685516357,-0.9385156631469728,0.3737072050571441,0.0671471357345581,82.94367218017578,67.53131866455078,-52.687686920166016,8.422152519226074,18.20830726623535,-0.9741453528404236,-0.9193121194839478,0.2697673141956329,-0.152773380279541,98.9813995361328,74.02637481689453,10.145726203918455,11.915354968123305,1.0124117062347606,20.085419232050043,0.9701798197037654,16.03772735595703,6.49505615234375,62.83341312408447
719.9219999999999,-1.5982366800308228,-18.54460525512696,0.1911023557186126,-0.9561794400215148,0.3598631918430328,0.1059950292110443,81.94232940673828,67.49171447753906,-53.7374153137207,16.40949058532715,21.547685623168945,-0.337592750787735,-0.9437139630317688,0.246275782585144,-0.1315435767173767,100.97402954101562,73.96206665039062,11.832173347473145,18.61432955183289,1.027139515635906,27.08667764511267,0.9841501499693288,19.031700134277344,6.4703521728515625,65.56958866119385
738.425,-2.7775025367736816,-25.12097549438477,0.8370121121406555,-0.9386271834373474,0.3763806223869324,0.0803326368331909,80.66641235351562,67.4020004272461,-55.060977935791016,25.454818725585938,22.43204498291016,2.4229390621185303,-0.9360889196395874,0.2615669965744018,-0.1044310554862022,103.06602478027344,73.81730651855469,13.487034797668455,25.28791251580752,1.01446374747276,34.01492425636848,0.9775405897040416,22.39961242675781,6.415306091308594,68.54801273345947
761.319,-3.443565368652344,-32.23761749267578,0.2989133596420288,-0.9550321102142334,0.4105720818042755,0.1509489715099334,78.9756088256836,67.26583862304688,-56.80400466918945,26.15678024291992,24.68995475769043,1.840920090675354,-0.9012389183044434,0.2904961407184601,-0.1390857845544815,105.33259582519533,73.6301040649414,15.302501678466797,32.42239154116842,1.0504481700194708,36.01610758248951,0.9570603173802674,26.35698699951172,6.364265441894531,72.10650634765625
782.106,-9.882773399353027,-41.54663848876953,-2.118072748184204,-0.962831974029541,0.4210423827171325,0.1938419044017791,76.68999481201172,67.10803985595703,-59.037254333496094,22.865203857421875,41.269187927246094,-1.3198471069335938,-0.8527830839157104,0.2821869552135467,-0.2336665689945221,108.51275634765624,73.40843963623047,18.176483154296875,42.758374758005786,1.0685957056622732,47.19857430051776,0.9281532908798812,31.82276153564453,6.3003997802734375,77.21373748779297
804.0260000000001,-18.07235717773437,-63.09382629394531,-4.636112213134766,-1.007814645767212,0.3646247684955597,0.1842766851186752,73.29415893554688,66.88381958007812,-62.30016708374024,25.0142822265625,40.41990661621094,-4.6406025886535645,-0.9440502524375916,0.2426424175500869,-0.2462696880102157,111.89598083496094,73.20515441894531,21.200878143310547,65.7946391951725,1.0874738979403868,47.76000794136399,1.0053631091076896,38.60182189941406,6.321334838867188,83.50104522705078
814.104,-19.290451049804688,-77.42584228515625,-5.803757667541504,-0.95723694562912,0.3561068475246429,0.0715566873550415,69.4871597290039,66.52517700195312,-66.00545501708984,30.437885284423828,34.08623504638672,-2.1006579399108887,-0.9288941025733948,0.2343780547380447,-0.2040812075138092,114.80331420898438,72.96598052978516,23.614606857299805,80.00353841133746,1.0238334905816149,45.74657412316006,0.9795031728374936,45.31615447998047,6.440803527832031,89.62006187438965
840.898,-19.7797794342041,-89.84020233154297,-3.746390819549561,-1.0386080741882324,0.4396639466285705,0.3654806017875671,65.15680694580078,65.87825012207031,-70.23616790771484,40.97911834716797,35.60488510131836,1.3974473476409912,-0.9336280226707458,0.2963207364082336,-0.1841286569833755,117.70671844482422,72.59382629394531,25.81820297241211,92.06811105703837,1.1855746235547562,54.30422490634324,0.9966798010715908,52.54991149902344,6.715576171875,96.05437088012695
863.394,-36.133338928222656,-107.30282592773438,-6.733513832092285,-1.0168311595916748,0.4228306412696838,0.3202123343944549,60.027469635009766,64.98168182373047,-75.00686645507812,42.75767135620117,36.50254440307617,4.674891471862793,-0.92807137966156,0.2931879460811615,-0.2542582154273987,120.56985473632812,72.10961151123047,27.931331634521484,113.4233434646786,1.1468510354058317,56.41372898485925,1.005943784506136,60.54238510131836,7.1279296875,102.9381980895996
873.626,-43.33892822265625,-118.4774932861328,-6.307162284851074,-1.0672879219055176,0.3903737962245941,0.3532750606536865,54.76225280761719,63.80408477783203,-79.80838012695312,46.81463623046875,38.80032730102539,6.091978073120117,-0.9170160293579102,0.2557475566864013,-0.2458515763282776,123.4489517211914,71.56819152832031,30.017593383789062,126.3129423730666,1.1900833909873985,61.10800079286828,0.9832437177188118,68.68669891357422,7.764106750488281,109.8259735107422
896.0740000000001,-42.623023986816406,-134.88784790039062,-5.619277000427246,-1.0757964849472046,0.3990877568721771,0.4522865116596222,49.48222732543945,62.213478088378906,-84.6977310180664,48.68452453613281,41.566673278808594,12.83308219909668,-0.9551364779472352,0.3274509906768799,-0.1861932277679443,125.94220733642578,70.8554458618164,31.69041633605957,141.57340837525658,1.233358100204177,65.28904391630583,1.026731591443141,76.45998001098633,8.6419677734375,116.38814735412598
913.695,-37.99149703979492,-148.9990997314453,-4.168746948242188,-1.060612678527832,0.4431760609149933,0.5275269150733948,44.57599258422852,60.19868850708008,-89.3799057006836,36.46530532836914,42.268211364746094,13.08461570739746,-0.9695342779159546,0.3412756323814392,-0.1785972118377685,128.02699279785156,70.11682891845703,33.20896911621094,153.82283321803826,1.264748560366433,57.336963233818985,1.0432462496398385,83.45100021362305,9.918140411376951,122.58887481689452
937.175,-39.65093612670898,-163.4680633544922,-3.787536382675171,-1.0831382274627686,0.4442645907402038,0.62720787525177,39.95491027832031,57.78450393676758,-93.8161392211914,26.578596115112305,38.47072219848633,14.283080101013184,-0.9904552102088928,0.2874088287353515,-0.2062110304832458,129.66580200195312,69.4162826538086,34.47687530517578,168.25085409721615,1.3281374797642709,48.891968819994666,1.0517263652480766,89.71089172363281,11.631778717041016,128.2930145263672
958.34,-36.50976943969727,-179.6944580078125,-2.594124794006348,-1.0952675342559814,0.4083223342895508,0.705864429473877,35.766197204589844,54.94614410400391,-97.93272399902344,25.18602561950684,28.55736351013184,15.029956817626951,-1.0166730880737305,0.2906332015991211,-0.2159657925367355,130.77003479003906,68.83013153076172,35.19829177856445,183.3842713721878,1.365497232905042,40.936029351855744,1.0792279876982207,95.00383758544922,13.883987426757812,133.1310157775879
973.603,-35.57592010498047,-197.80838012695312,-0.2140509784221649,-1.1344506740570068,0.4583661556243896,0.8118082284927368,32.04206466674805,51.63540267944336,-101.66314697265624,23.49355697631836,9.548924446105955,10.996647834777832,-1.023008108139038,0.2966990768909454,-0.2021686881780624,131.1795196533203,68.55968475341797,35.23590087890625,200.98220607204635,1.468370002533011,27.641552797899777,1.0841808474723171,99.13745498657228,16.92428207397461,136.8990478515625
996.891,-40.31704711914063,-217.13922119140625,0.5112767815589905,-1.1329057216644287,0.438273549079895,0.8617538213729858,28.620756149291992,47.87639236450195,-105.063720703125,21.0266170501709,-19.13096809387207,10.195916175842283,-0.9983323216438292,0.3182362914085388,-0.1903080940246582,130.42691040039062,68.66930389404297,34.03712844848633,220.8510064997776,1.489355137854646,30.200484622735623,1.0649689818297603,101.80615425109865,20.792911529541016,139.10084915161133
1018.846,-42.62978744506836,-236.81114196777344,2.137373685836792,-1.1480721235275269,0.45562544465065,0.9286250472068788,25.582218170166016,43.65918731689453,-108.10218811035156,18.38077735900879,-54.86148071289063,16.862430572509766,-1.0555644035339355,0.4147582650184631,-0.1249914020299911,127.81369018554688,69.10498046875,30.869792938232425,240.6270643630212,1.5453182924349549,60.26588261317536,1.1409923220558944,102.23147201538086,25.44579315185547,138.97198104858398
1040.645,-38.87867736816406,-256.5267944335937,0.4944307208061218,-1.0890671014785769,0.4088221788406372,1.065528154373169,22.927715301513672,38.99797821044922,-110.91162872314452,-0.6055682897567749,-75.30908966064453,13.032093048095703,-1.080620288848877,0.4173712432384491,-0.0713549554347992,124.07283782958984,69.78079223632812,26.89219284057617,259.4567252510729,1.5775148091846385,76.43076048086124,1.1606164280326818,101.14512252807616,30.782814025878903,137.8038215637207
1061.914,-36.59593963623047,-275.23516845703125,-1.7924320697784424,-1.0512105226516724,0.3982759118080139,1.0903327465057373,20.64466857910156,33.953765869140625,-113.49810028076172,-13.45925998687744,-66.63249206542969,9.473997116088867,-1.1841214895248413,0.3293186724185943,-0.0679429098963737,120.30227661132812,70.35950469970703,23.177085876464844,277.6632376929898,1.566043665726742,68.63524823004263,1.2309389623223652,99.65760803222656,36.405738830566406,136.67518615722656
1073.442,-34.038936614990234,-289.8399963378906,0.5600293874740601,-0.9512488842010498,0.3548834323883056,1.109655499458313,18.76417732238769,28.57021141052246,-115.77790069580078,-9.088396072387695,-65.9793930053711,-1.032160997390747,-1.1268165111541748,0.2537586688995361,-0.0283624939620494,116.72086334228516,71.0721206665039,19.583908081054688,291.83246275207733,1.5040452179889825,66.6103940901894,1.1553845000323824,97.95668601989746,42.501909255981445,135.36180877685547
1096.736,-41.15406036376953,-304.0592956542969,2.5313100814819336,-0.8582009673118591,0.3666719198226928,1.1151092052459717,17.060787200927734,22.8041934967041,-117.79788970947266,9.122060775756836,-60.762733459472656,3.9981319904327393,-1.070997953414917,0.2243817448616027,0.030361820012331,113.53722381591795,71.52605438232422,16.02749252319336,306.8421735826751,1.4541065080336353,61.573588734752505,1.0946714684144003,96.47643661499023,48.72186088562012,133.82538223266602
1118.095,-41.56476211547852,-317.00946044921875,1.869767665863037,-0.705988347530365,0.329382985830307,1.0237935781478882,15.60141658782959,16.711116790771484,-119.64856719970705,22.544715881347656,-54.71064758300781,10.173215866088867,-1.0528643131256104,0.2935714423656463,0.0994933098554611,110.65670013427734,71.75993347167969,12.555909156799316,319.72820253325386,1.2864936800699798,60.041764582503816,1.0975456128708747,95.05528354644775,55.0488166809082,132.20447635650635
1140.595,-29.00697326660156,-322.8518371582031,4.062959671020508,-0.5019651055335999,0.2416855990886688,0.9625254273414612,14.630717277526855,10.470529556274414,-121.2965850830078,22.89553451538086,-55.02275848388672,18.858009338378903,-1.072260856628418,0.369822084903717,0.1679938435554504,107.59062957763672,71.76412963867188,8.91963005065918,324.1777612603995,1.1121313295915505,62.50867114351024,1.1466183543850037,92.95991230010986,61.29360008239746,130.216215133667
1163.0069999999998,-26.08230209350586,-325.5560607910156,8.663246154785156,-0.3674568235874176,0.2497184574604034,0.9986559152603148,13.915922164916992,4.143129348754883,-122.74767303466795,-6.736385822296143,-40.228275299072266,35.44814682006836,-1.1409845352172852,0.2007826268672943,0.2062004506587982,104.52432250976562,71.30210876464844,5.83704948425293,326.7140753536627,1.093022169162993,54.03946835843134,1.176723416401929,90.60840034484865,67.15897941589355,128.5847225189209
1173.08,-30.65949058532715,-322.4242553710937,10.376362800598145,-0.1948020607233047,0.1936625987291336,0.8387317061424255,13.278658866882324,-2.170871496200561,-124.05757904052734,-13.103830337524414,-40.62369537353516,-9.050214767456056,-1.059890866279602,0.3253061175346374,0.1069243252277374,101.9689712524414,71.67787170410156,3.498287916183472,324.0448637450155,0.8825666659789229,43.63371841424343,1.113833708348689,88.69031238555908,73.84874320030212,127.55586695671082
1195.792,-30.08316230773925,-317.5751037597656,13.29959201812744,-0.0569676272571086,0.2125475704669952,0.66757732629776,12.79348087310791,-8.39815616607666,-125.23543548583984,-22.60712623596192,-35.02912521362305,-31.927852630615234,-1.0106441974639893,0.3115284442901611,0.1968154460191726,99.72926330566406,72.44178009033203,1.7067362070083618,319.2738986048003,0.7029091455185322,52.5119942820941,1.0757267242479407,86.93578243255615,80.83993625640869,126.9421716928482
1220.72,-19.74146842956543,-308.1778564453125,14.500017166137695,0.0751250311732292,0.117456316947937,0.6358994841575623,12.593720436096191,-14.43082332611084,-126.32150268554688,-28.075698852539062,-37.97207260131836,-47.33480072021485,-1.0794925689697266,0.3423088192939758,0.054837629199028,96.98983764648438,73.49260711669922,-0.4823812246322632,309.149748951542,0.6510053076984907,66.86334214590762,1.1337930586325995,84.39611721038818,87.92343044281006,125.8391214609146
1241.7879999999998,-9.389283180236816,-295.86798095703125,11.496039390563965,0.1425743699073791,0.1992442458868026,0.5929115414619446,12.790095329284668,-20.217260360717773,-127.46017456054688,-12.781789779663086,-28.139720916748047,-37.772891998291016,-1.0403339862823486,0.3129279613494873,0.0484888181090354,94.91716766357422,74.30194854736328,-2.290034770965576,296.2400710840758,0.6415370733420369,48.80583380251304,1.0874602877761004,82.12707233428955,94.51920890808104,125.1701397895813
1263.179,-6.785817623138428,-277.5740051269531,9.53806972503662,0.1958484947681427,0.1904833018779754,0.5515638589859009,13.139375686645508,-25.638219833374023,-128.62266540527344,3.864192962646485,-3.495445251464844,-21.80388069152832,-0.9967914819717408,0.3009463846683502,0.0466735139489173,94.7308578491211,74.73357391357422,-2.4846644401550293,277.8207163209971,0.6155186526310165,22.41783526500621,1.0422765476977354,81.59148216247559,100.37179374694824,126.1380009651184
1274.63,2.115195035934448,-264.3690185546875,7.71610689163208,0.2111468166112899,0.1252613067626953,0.5478090643882751,13.755526542663574,-30.75558280944824,-129.84165954589844,16.67230224609375,25.06669807434082,-16.92555809020996,-0.9712185859680176,0.2574814558029175,-0.093962088227272,97.18944549560548,75.0182113647461,-0.2607565820217132,264.49005714236563,0.60030670841074,34.53664041565619,1.0091536631435942,83.4339189529419,105.77379417419434,129.58090296387672
1296.1370000000002,7.063846588134766,-249.89698791503903,6.85006046295166,0.2377645224332809,0.1797167658805847,0.4321103692054748,14.63467502593994,-35.60573959350586,-131.1583709716797,12.31506061553955,35.17211151123047,-12.814217567443848,-0.8806105256080627,0.2438220381736755,-0.1292493343353271,100.40494537353516,75.1489486694336,2.8220436573028564,250.09063522246484,0.5249280476802463,39.40738912930709,0.922837729255257,85.77027034759521,110.75468826293944,133.98041462898254
1323.266,3.552493095397949,-224.6922149658203,5.469936370849609,0.3365529477596283,0.1632621586322784,0.3937267065048218,15.571981430053713,-39.97895431518555,-132.53065490722656,-2.8063507080078125,41.743682861328125,-7.426046371459961,-0.8761603236198425,0.2029757052659988,-0.1480935961008072,103.7878189086914,75.1207504272461,6.401834011077881,224.7868587736845,0.5430866767856678,42.49184425080358,0.911475596392973,88.2158374786377,115.09970474243164,138.93248891830444
1333.237,12.630688667297363,-203.50390625,4.300902366638184,0.3768683969974518,0.1239100769162178,0.4150722920894623,16.7737979888916,-43.9057502746582,-133.94374084472656,1.63272225856781,52.754127502441406,-10.89254379272461,-0.9545295238494872,0.1749233305454254,-0.1965125203132629,108.16246032714844,75.05831909179688,10.906539916992188,203.94085396601224,0.5741676614693759,53.89166225673403,0.9901221915043132,91.38866233825684,118.96406936645508,144.85028076171875
1356.646,12.171224594116213,-183.0639038085937,3.2526168823242188,0.3952857851982116,0.1236228793859481,0.3769935667514801,18.085092544555664,-47.41238784790039,-135.42929077148438,8.678083419799805,38.98427963256836,-5.404150009155273,-0.8041552305221558,0.1439005136489868,-0.2493682652711868,111.27323150634766,74.8980941772461,13.96481227874756,183.4968967103958,0.5600514419760404,40.30245684363103,0.8541413959813355,93.188138961792,122.31048202514648,149.39410305023193
1373.11,6.579500675201416,-158.46823120117188,1.585353136062622,0.5030951499938965,0.1338735818862915,0.3073058724403381,19.386943817138672,-50.47354507446289,-136.96009826660156,8.234698295593262,18.45492172241211,2.36378026008606,-0.7748774290084839,0.1470980644226074,-0.252716988325119,112.7210464477539,74.71753692626953,15.320961952209473,158.6126838362212,0.6045359915759889,20.34654390597522,0.828214191336875,93.33410263061523,125.19108200073242,152.28106021881104
1396.752,11.23690414428711,-134.5994415283203,-0.2493115365505218,0.5568329095840454,0.1067651212215423,0.2374137639999389,20.787412643432617,-53.00055694580078,-138.45654296875,8.320947647094727,0.374775767326355,1.6761418581008911,-0.7562100291252136,0.1796219497919082,-0.1864627748727798,113.01878356933594,74.68356323242188,15.473642349243164,135.06790821925787,0.61467631778189,8.496356757454587,0.7993034589002228,92.23137092590332,127.68412017822266,153.93018531799316
1419.06,18.1345157623291,-111.2411880493164,-2.2875497341156006,0.6001713871955872,0.1329476535320282,0.1958729326725006,22.334169387817383,-55.05305480957031,-139.91896057128906,17.008468627929688,-14.027587890625,0.735044538974762,-0.732598066329956,0.1950074732303619,-0.2223764061927795,112.4652862548828,74.7790756225586,14.610897064208984,112.73284997880428,0.6451720532863102,22.05904616185283,0.7900500664118048,90.13111686706544,129.8321304321289,154.52985763549805
1438.554,8.718355178833008,-82.80597686767578,-5.241118431091309,0.635381817817688,0.1899428963661193,0.1728328019380569,23.600662231445312,-56.537147521972656,-141.23849487304688,15.521708488464355,-14.52188491821289,2.7659831047058105,-0.737800121307373,0.2125722467899322,-0.2450311183929443,111.71150207519533,74.8370361328125,13.588373184204102,83.42846543262716,0.6853171059582707,21.43500031523684,0.8059629197968051,88.11083984375,131.37418365478516,154.82686805725098
1453.12,5.693838119506836,-51.28607940673828,-7.185957431793213,0.6739000678062439,0.1802992224693298,0.1657958030700683,24.559494018554688,-57.41514205932617,-142.24557495117188,5.666744709014893,-2.4292845726013184,-0.2682387232780456,-0.7146430015563965,0.20026196539402,-0.2720964848995209,111.66558837890624,74.86007690429688,13.508974075317385,52.099133559560826,0.7170337225876855,6.171334632354081,0.790478318204672,87.10609436035156,132.27521896362305,155.75454902648926
1476.751,8.911284446716309,-21.25488471984864,-10.94287395477295,0.6999587416648865,0.1661009490489959,0.1592190861701965,25.33122634887696,-57.708492279052734,-142.94825744628906,-0.2865938544273376,12.778175354003906,-2.1363492012023926,-0.7836470007896423,0.190622791647911,-0.2160602658987045,112.71231842041016,74.79496765136719,14.676011085510254,25.513282919577225,0.7368055935651825,12.958699368553408,0.8349381468363172,87.3810920715332,132.50345993041992,157.62426853179932
1498.042,3.684183835983277,11.67624855041504,-10.921502113342283,0.7106015682220459,0.2498312294483184,0.1341934949159622,25.55703353881836,-57.40374755859375,-143.12814331054688,5.970807075500488,-1.8237769603729248,-9.054213523864746,-0.8972640037536621,0.1974605321884155,-0.1432970315217971,113.0979995727539,74.98043823242188,15.022390365600586,16.406925341456567,0.7651000758365206,10.99797627155874,0.9298426713413096,87.54096603393555,132.38418579101562,158.15053367614746
1521.156,-11.985723495483398,43.91880798339844,-8.955092430114746,0.7164658904075623,0.2759871482849121,0.1493811309337616,24.99053001403809,-56.53289031982422,-142.73812866210938,3.66682243347168,-11.763191223144531,-16.117464065551758,-0.8164211511611938,0.2100086510181427,-0.1541487574577331,112.9881820678711,75.34698486328125,14.903675079345703,46.39733766957651,0.7821809256271778,20.28770323164325,0.8569766443676233,87.99765205383301,131.87987518310547,157.64180374145508
1542.971,-7.983120441436768,69.78500366210938,-6.903875350952148,0.6866825222969055,0.1482668966054916,0.1833126544952392,24.161222457885746,-55.205841064453125,-141.9293975830078,-5.239349365234375,-0.9162218570709229,-14.669949531555176,-0.760762095451355,0.2451214492321014,-0.205361932516098,113.36833190917967,75.5926513671875,15.48137378692627,70.5786117953916,0.726029950040048,15.604411668522856,0.8252375500884146,89.20710945129395,130.79849243164062,157.41077136993408
1553.035,5.408013820648193,95.48980712890624,-7.68222713470459,0.6763184070587158,0.2092543840408325,0.2111837863922119,23.39501190185547,-53.39596939086914,-140.85296630859375,-12.449640274047852,19.152738571166992,-10.510293006896973,-0.8574314117431641,0.2774380445480346,-0.1753773093223571,114.83118438720705,75.59770202636719,17.313257217407227,95.95085457018727,0.7387777585997689,25.14532156922018,0.9181054923219132,91.43617248535156,128.99367141723633,158.16622352600098
1575.606,-0.2543544769287109,117.53059387207033,-12.281986236572266,0.6358655691146851,0.2201964855194091,0.2511992156505584,22.49769401550293,-51.13572692871094,-139.7261505126953,3.1981213092803955,-11.003223419189451,-9.919577598571776,-1.0929653644561768,0.2965319752693176,-0.0747884586453437,114.31877899169922,75.860595703125,16.767627716064453,118.17086095157644,0.7182705341054285,15.15575551582829,1.1349439694559784,91.82108497619627,126.99632263183594,156.49377822875977
1595.589,1.6878784894943235,142.8494415283203,-17.00309181213379,0.64939284324646,0.2539364993572235,0.1872797310352325,21.63710594177246,-48.36041259765625,-138.5545654296875,17.9400691986084,-45.47129440307617,-14.015240669250488,-0.98046612739563,0.3023858070373535,-0.0478734746575355,111.56271362304688,76.44635009765625,13.616474151611328,143.86770662633137,0.7219892715422795,50.85186003047575,1.027152799170406,89.92560768127441,124.8067626953125,152.17103958129883
1617.793,8.024383544921875,169.1841278076172,-18.7797966003418,0.6138589978218079,0.1833618283271789,0.2589583694934845,20.86784172058105,-45.071022033691406,-137.27838134765625,12.313247680664062,-41.19939804077149,-12.736035346984863,-0.8877105116844177,0.2597348093986511,-0.0787065327167511,108.8822021484375,76.936279296875,10.67299747467041,170.41226655863235,0.6910165456955457,44.846550187578,0.9282708882975148,88.01436042785645,122.0073013305664,147.95137882232666
1638.226,9.38217830657959,189.1660003662109,-26.718307495117188,0.5404845476150513,0.1703746020793914,0.2950001358985901,20.27633476257324,-41.341983795166016,-136.1420135498047,13.19133472442627,-40.37290191650391,-7.42259407043457,-0.9827048778533936,0.2552095949649811,0.054933588951826,105.78910064697266,77.31179809570312,7.3136467933654785,191.27380615162497,0.638886634250979,43.117020116259766,1.0167883326996685,85.51276588439941,118.65378189086914,143.45566034317017
1660.396,8.272591590881348,209.64743041992188,-29.716766357421875,0.5392472743988037,0.2439897954463958,0.2740833163261413,19.7260684967041,-37.200008392333984,-135.01119995117188,6.337712287902832,-64.83152770996094,-1.1906572580337524,-0.9659234881401062,0.1765680462121963,0.0719245746731758,100.19490814208984,77.64869689941406,1.5083719491958618,211.90461782615097,0.652257853549383,65.15144854074832,0.9845595991740974,80.46883964538574,114.84870529174805,136.51957190036774
1682.967,2.27132248878479,230.34390258789065,-29.62137794494629,0.4805849492549896,0.2224774807691574,0.3352489471435547,19.09190368652344,-32.6596565246582,-133.82598876953125,-5.634879112243652,-45.76425552368164,19.196474075317383,-0.8158740401268005,0.1808844208717346,-0.0290942806750535,95.78758239746094,77.39115905761719,-2.8385791778564453,232.25179955519192,0.626777456088422,49.94620669451042,0.8361914255928063,76.6956787109375,110.0508155822754,130.9874095916748
1693.0069999999998,-2.829838752746582,245.64727783203125,-33.01865005493164,0.3972325921058655,0.1650183349847793,0.4394294917583465,18.480314254760746,-27.814594268798828,-132.72018432617188,-10.338985443115234,-41.75419616699219,40.294166564941406,-0.9809980392456056,0.250964879989624,0.1229598671197891,91.4182586669922,76.62467193603516,-7.031781196594238,247.87259700318577,0.6149171174551027,58.94003203857168,1.0200292412053906,72.93794441223145,104.43926620483398,125.68840312957764
1723.548,-0.2722181677818298,251.4205017089844,-34.14932632446289,0.2660220265388489,0.1349582225084304,0.5473446249961853,17.99205780029297,-22.82348823547364,-131.67910766601562,8.3455810546875,-27.774662017822266,45.067718505859375,-1.001298427581787,0.2267578244209289,0.1510040313005447,89.02958679199219,75.73287963867188,-9.621345520019531,253.7292243135247,0.623351890138055,53.59272175088701,1.0376993155451577,71.03752899169922,98.55636787414552,122.0577621459961
1742.745,-2.490745782852173,258.95440673828125,-40.24392318725586,0.2171769440174102,0.2624028921127319,0.5439074039459229,17.705312728881836,-17.64741325378418,-130.82749938964844,12.910500526428224,-5.611752510070801,30.38862609863281,-0.931399941444397,0.2720115184783935,0.1752689927816391,88.82491302490234,75.12290954589844,-10.061750411987305,262.0747258650321,0.6417603656109192,33.49091498062865,0.986009805700855,71.11960029602051,92.77032279968262,120.76574897766112
1752.867,-4.587857246398926,267.8268127441406,-41.4260368347168,0.1114762276411056,0.1993357241153717,0.5788389444351196,17.39783477783203,-12.283045768737791,-129.97738647460938,15.39413833618164,-10.485347747802734,39.57353973388672,-0.9681638479232788,0.2271305918693542,0.0476336441934108,88.3497543334961,74.3426742553711,-10.848044395446776,271.05048715438534,0.6222669875804554,43.73770752537632,0.9955895269877428,70.95191955566406,86.62572002410889,119.1293420791626
1775.536,-0.6464052200317383,262.9136047363281,-47.48637008666992,-0.0994091182947158,0.0625340044498443,0.7353465557098389,17.269468307495117,-6.983297348022461,-129.30767822265625,22.08196830749512,7.539968490600586,29.475053787231445,-0.9785751104354858,0.2011427879333496,0.2096887230873108,89.30067443847656,73.76557922363281,-10.301438331604004,267.16836777426863,0.7446658522498457,37.59312762903155,1.0208021495331066,72.03120613098145,80.74887657165527,119.00623989105225
1792.951,10.87153148651123,274.8648376464844,-47.67171096801758,-0.1656962484121322,0.2953771352767944,0.9058908224105836,17.436580657958984,-1.4550848007202148,-128.574951171875,10.662747383117676,20.6563777923584,-10.92210865020752,-0.9374654293060304,0.3761109113693237,0.1380719542503357,90.80806732177734,73.94781494140625,-8.937186241149902,279.17997993751027,0.967130332948928,25.68409201478141,1.019492380229254,73.37148666381836,75.40289974212646,119.6377649307251
1815.495,-22.676767349243164,276.56414794921875,-46.75502014160156,-0.335635244846344,0.357034683227539,0.7262395024299622,16.99907875061035,4.102168083190918,-127.8304672241211,-6.125099182128906,23.61654090881348,-0.2210041880607605,-0.9461884498596193,0.2671680748462677,0.0965780168771743,92.20201873779295,73.9324722290039,-7.3513994216918945,281.40361692190567,0.8760985090160658,24.398907502995232,0.9879163305709332,75.20293998718262,69.83030414581299,120.4790678024292
1837.284,6.687225341796875,279.79400634765625,-47.36735916137695,-0.3901880085468292,-0.0803324207663536,0.684149980545044,17.221879959106445,9.727928161621094,-127.09748077392578,-1.446131944656372,43.45991897583008,16.795429229736328,-1.0888022184371948,0.1848182827234268,0.1076470613479614,94.9360580444336,73.5751953125,-4.472663402557373,283.853961897253,0.7916824967875107,46.61482916409919,1.1096107237763364,77.71417808532715,63.847267150878906,122.6248173713684
1852.703,59.90424346923828,276.993896484375,-36.37150192260742,-0.670861005783081,0.3310412168502807,1.0936262607574463,18.646726608276367,15.21915340423584,-126.05773162841795,13.991570472717283,45.31674957275391,-21.80030632019043,-1.0744048357009888,0.1202684417366981,-0.078425332903862,98.49939727783205,73.92149353027344,-1.0567395687103271,285.72193340260856,1.325013650704141,52.19794240951304,1.0839560793208016,79.85267066955566,58.7023401260376,125.00099205970764
1876.237,-10.64838409423828,276.7038879394531,-39.861083984375,-0.8344491720199585,0.4995523691177368,0.999564290046692,18.76697158813477,20.711620330810547,-124.9736557006836,12.538111686706545,57.24600601196289,-37.082279205322266,-0.8341295719146729,0.2779921591281891,-0.0189048461616039,103.12385559082033,74.41140747070312,3.4816102981567383,279.76299916364434,1.3946278213604104,69.34987296348491,0.8794368519045024,84.35688400268555,53.69978713989258,128.45526599884033
1897.5,-18.389368057250977,266.9442443847656,-39.25277328491211,-0.8733479380607605,0.0958470702171325,0.6934438347816467,18.81803131103516,26.01845932006836,-123.92284393310548,-12.558028221130373,83.41966247558594,-4.373484611511231,-0.940532684326172,0.2133996039628982,-0.1388280391693115,108.78873443603516,74.04723358154297,9.606948852539062,270.4407119467319,1.1192799621992997,84.47290410534323,0.9743789538556916,89.970703125,48.02877426147461,133.52979278564453
1919.984,50.04046630859375,254.2530517578125,-31.518871307373047,-1.0084236860275269,0.1885846555233001,0.8304802775382996,20.421606063842773,31.01932907104492,-122.66636657714844,10.75508975982666,75.2579116821289,0.3708055019378662,-1.205806016921997,0.0268962383270263,-0.1563537716865539,113.80072784423828,73.49382019042969,14.607742309570312,261.04042186035696,1.3199166618466018,76.02343535527258,1.2161981993088324,93.37912178039552,42.474491119384766,137.27410888671875
1940.053,42.247108459472656,248.47412109375,-26.12474250793457,-1.0539417266845703,0.427580714225769,1.0645898580551147,22.13536071777344,35.88011169433594,-121.083740234375,32.870628356933594,46.44927597045898,-31.482452392578125,-1.117756962776184,0.259447693824768,-0.1227445304393768,118.21283721923828,73.67257690429688,18.50531578063965,253.39042838592752,1.5578735495214242,65.0319787136333,1.154019043784986,96.07747650146484,37.79246520996094,139.58905601501465
1962.674,-0.4466396868228912,243.7808532714844,-26.68187522888184,-0.9966523051261902,0.3523021042346954,0.9140055775642396,23.20063018798828,40.64702224731445,-119.33284759521484,6.596945285797119,33.82924270629883,-33.168426513671875,-1.0242431163787842,0.3408884704113006,-0.0725536793470382,121.2870635986328,73.89656066894531,21.620473861694336,245.2370819727564,1.3974400830733609,47.83389871815096,1.0819163309126416,98.08643341064452,33.24953842163086,140.95332145690918
1972.727,14.58176040649414,236.95828247070312,-23.0411376953125,-0.996179699897766,0.36163330078125,0.7494907379150391,24.91305923461914,45.23790740966797,-117.22734832763672,-1.564151167869568,38.47346115112305,-30.0229549407959,-1.131489396095276,0.2370876371860504,0.0375461019575595,124.58029174804688,73.99968719482422,25.11473846435547,238.522010293206,1.2980327441720316,48.82654611172065,1.1566713063592111,99.66723251342772,28.76177978515625,142.3420867919922
1995.166,36.63945770263672,235.3800506591797,-16.49240493774414,-1.0048911571502686,0.3596740961074829,0.7384650111198425,27.58968544006348,49.642578125,-114.59488677978516,-1.3709354400634766,9.114834785461426,-25.09675407409668,-1.4134794473648071,0.1549093425273895,0.1254899203777313,126.09305572509766,74.30525207519531,26.75639533996582,238.7848770958744,1.2978837643555643,26.73586995410413,1.4274693596156094,98.50337028503418,24.662673950195312,141.35128211975098
2018.675,36.65702819824219,241.87423706054688,-11.902782440185549,-1.052862524986267,0.3850306868553161,0.8612723350524902,31.017465591430664,53.945892333984375,-111.09158325195312,-0.4353215098381042,-47.83069610595703,-47.41157913208008,-1.1430622339248655,0.1666543781757354,-0.0316410511732101,125.14219665527344,75.68153381347656,25.86693000793457,244.9256223831364,1.4137037035629154,67.34851765699696,1.1555804206154547,94.12473106384276,21.735641479492188,136.9585132598877
2041.108,17.808603286743164,236.91726684570312,-7.4495673179626465,-1.1773111820220947,0.4035600125789642,0.7698618173599243,34.95973587036133,57.98567962646485,-106.73220825195312,-9.43726921081543,-74.66975402832031,-42.10223388671875,-0.916376292705536,0.2695074379444122,-0.0715192109346389,121.48641204833984,77.18844604492188,22.340808868408203,237.7024058226748,1.4634239033498535,86.23938957958383,0.9578594711505528,86.52667617797852,19.20276641845703,129.07301712036133
2062.65,25.36638069152832,226.78439331054688,-5.80955171585083,-1.1602551937103271,0.4174634516239166,0.3950379490852356,40.1456298828125,61.702484130859375,-101.32688903808594,-14.90984058380127,-71.79283905029297,-27.926044464111328,-0.9199458360671996,0.2553814351558685,-0.2385151386260986,116.74616241455078,78.34095001220703,17.81633949279785,228.27256779946097,1.294806097140036,78.46259646829922,0.9840779898328572,76.60053253173828,16.638465881347656,119.1432285308838
2072.793,44.48519134521485,208.25180053710932,-4.228193759918213,-1.2896722555160522,0.4212355613708496,0.3827847242355346,46.63059997558594,64.8275146484375,-95.10432434082033,-15.634017944335938,-52.04547882080078,-23.05901908874512,-0.8404813408851624,0.303518533706665,-0.4312826097011566,112.66613006591795,79.20084381103516,14.01767921447754,212.99207097551724,1.4096872241456084,59.03281074203864,0.9922384159617106,66.03553009033203,14.373329162597656,109.12200355529784
2098.333,42.55331802368164,179.15386962890625,-7.952247142791748,-1.3415759801864624,0.480613499879837,0.4743814468383789,53.37545776367188,67.23210144042969,-88.63038635253906,-17.11090660095215,-28.17979049682617,-25.78854751586914,-0.8510361909866333,0.2734081149101257,-0.5089324116706848,110.52650451660156,79.8934097290039,12.21102809906006,184.3098806696368,1.501949800753836,41.856097526283584,1.028604294817344,57.15104675292969,12.66130828857422,100.84141445159912
2120.045,25.956695556640625,142.12930297851562,-12.805131912231444,-1.2345504760742188,0.4340207576751709,0.366860568523407,59.35418319702149,68.99956512451172,-82.76844024658203,-0.7010012865066528,-3.565040111541748,-25.323673248291016,-0.8831528425216675,0.147110566496849,-0.4909816384315491,111.15787506103516,80.39666748046875,12.860377311706545,145.04640710017077,1.3590715848715722,25.58298928168473,1.0211089223516037,51.80369186401367,11.397102355957031,95.62881755828856
2140.188,27.366703033447266,99.10135650634766,-12.403524398803713,-1.1369032859802246,0.3677370548248291,0.2342503517866134,64.23550415039062,70.15618896484375,-78.1559829711914,20.90933609008789,1.999336123466492,-16.110210418701172,-0.8903642296791077,0.2280400544404983,-0.3265299499034881,112.50714111328124,80.68376922607422,13.800353050231934,103.55608487110172,1.2176423327381585,26.47142913402444,0.9753832765150686,48.27163696289063,10.527580261230469,91.95633602142334
2162.835,32.946746826171875,68.8372802734375,-12.350711822509766,-1.0231479406356812,0.4872455298900604,0.2263022065162658,68.19309997558594,70.90120697021484,-74.67118835449219,22.51972961425781,11.86686897277832,-8.961137771606445,-0.9554136991500854,0.2769911587238312,-0.2197506725788116,114.76403045654295,80.73146057128906,15.62278652191162,77.30846890473472,1.1556178449206345,26.98634453345026,1.0187393173102042,46.57093048095703,9.83025360107422,90.2939748764038
2173.987,17.965465545654297,44.62705993652344,-11.98939037322998,-1.0331110954284668,0.505693793296814,0.4276818037033081,70.75152587890625,71.44001007080078,-72.3686752319336,17.767810821533203,15.354324340820312,-8.867044448852539,-0.9761698842048644,0.1883096694946289,-0.1385849863290786,117.41385650634766,80.7172622680664,17.936920166015625,49.57900677072753,1.2271741821335886,25.10129189127177,1.0037798428388298,46.662330627441406,9.277252197265623,90.30559539794922
2202.481,8.080939292907715,20.801393508911133,-10.14148235321045,-1.012069821357727,0.3756633400917053,0.4522478878498077,71.89955139160156,71.76619720458984,-71.32754516601562,20.424999237060547,14.366982460021973,-6.446979999542236,-1.0118627548217771,0.1683901697397232,-0.0549697466194629,119.61483001708984,80.6897201538086,19.76369857788086,24.512225849333003,1.170442830921925,25.790586072344315,1.0272502893179916,47.71527862548828,8.92352294921875,91.09124374389648
2212.527,11.747347831726074,1.1449121236801147,-5.980920791625977,-0.9895341992378236,0.4499983489513397,0.3741475343704223,72.08798217773438,71.88729095458984,-71.37889099121094,17.776596069335938,9.862377166748049,-3.420400381088257,-1.0423356294631958,0.2417023926973343,-0.054764375090599,120.9602508544922,80.6154556274414,20.789121627807617,13.231871310068463,1.1496359523760722,20.614873027949308,1.071392900789956,48.87226867675781,8.728164672851562,92.16801261901855
2235.02,0.7040624022483826,-11.357369422912598,-2.608050584793091,-1.0367714166641235,0.5017755031585693,0.4095419943332672,71.39508819580078,71.86549377441406,-72.12565612792969,9.434468269348145,8.641153335571289,-1.5176243782043457,-1.048560619354248,0.2486644834280014,-0.0899611860513687,121.952880859375,80.5066909790039,21.6232852935791,11.674222540606692,1.2224558360547175,12.883396533814828,1.0813909620367872,50.55779266357422,8.641197204589844,93.7489414215088
2252.362,-6.244114875793457,-28.86642265319824,-0.6220657825469971,-1.0515072345733645,0.4981020092964172,0.4502804279327392,69.60973358154297,71.68372344970703,-73.87258911132812,10.168045997619627,7.499329566955566,0.3248874545097351,-1.0517312288284302,0.1928191930055618,-0.1085222065448761,122.84616088867188,80.39750671386719,22.336668014526367,29.540587218486323,1.2476079271167455,12.638617615135775,1.0747534080884065,53.236427307128906,8.713783264160156,96.20925712585448
2274.774,-8.680992126464844,-47.65377807617188,2.419337511062622,-1.0887675285339355,0.4687786102294922,0.5007016062736511,66.8539047241211,71.28396606445312,-76.58505249023438,9.456827163696287,7.589306354522705,2.056610584259033,-1.0159738063812256,0.2185877561569214,-0.1242534518241882,123.59282684326172,80.2374038696289,22.91530418395996,48.49840598643649,1.2868062072913709,12.298731562324182,1.0466242413993188,56.73892211914063,8.953437805175781,99.50035667419434
2297.989,-21.094968795776367,-69.15190124511719,2.2939860820770264,-1.080657124519348,0.4931828379631042,0.488303542137146,62.86764526367188,70.65288543701172,-80.33309173583984,17.20584487915039,13.057418823242188,8.069106101989746,-0.9840056300163268,0.2080666422843933,-0.1882718652486801,124.7748565673828,79.8964614868164,23.77367210388184,72.3342624656807,1.2843245235139953,23.057488102916007,1.0232326728459893,61.90721130371094,9.243576049804688,104.10676383972168
2312.467,-15.451214790344238,-95.8872299194336,4.322339057922363,-1.1111990213394165,0.4302763938903808,0.4850366413593292,58.06825637817383,69.62814331054688,-85.05877685546875,23.97667121887207,20.847883224487305,17.350906372070312,-0.9515424370765686,0.2217350304126739,-0.197704866528511,126.1054229736328,79.29930877685547,24.64593505859375,97.22028345490108,1.2865308327537766,36.201781028177294,0.996838325667097,68.03716659545898,9.671165466308594,109.7047119140625
2334.752,-12.169309616088867,-123.81163787841795,5.915440559387207,-1.1454739570617676,0.4783044457435608,0.5699087381362915,52.7310905456543,68.12089538574219,-90.46092224121094,14.86347770690918,25.260498046875,22.93480491638184,-1.0045104026794434,0.2323378622531891,-0.1260905712842941,126.97219848632812,78.58964538574219,25.239744186401367,124.54881054301714,1.3658995932823537,37.21587037370555,1.0387111549869863,74.24110794067383,10.46875,115.7006664276123
2358.019,-26.83635711669922,-148.54615783691406,6.419851303100586,-1.1291935443878174,0.4527401626110077,0.5850001573562622,47.016380310058594,66.10303497314453,-96.02281951904295,10.598898887634276,22.02616310119629,27.05721664428711,-0.9960284233093262,0.2101631313562393,-0.1405239850282669,127.26158142089844,77.8634033203125,25.333620071411133,151.0872779626343,1.3499173677062664,36.463426760614304,1.027612841584683,80.24520111083984,11.760368347167969,121.3564395904541
2379.902,-30.43403434753418,-173.89706420898438,7.766080856323242,-1.1765456199645996,0.4696515202522278,0.627576470375061,41.44633865356445,63.45281600952149,-101.48766326904295,3.290475845336914,14.299123764038086,32.326255798339844,-0.9462278485298156,0.2547760009765625,-0.1565191149711609,126.53739166259766,77.12098693847656,24.536998748779297,176.710869498844,1.413748341290462,35.50040824621211,0.992348822419984,85.0910530090332,13.668170928955078,126.02466201782228
2401.093,-32.07505798339844,-199.4016571044922,8.735551834106445,-1.1913334131240845,0.3618810176849365,0.6291029453277588,36.29251480102539,60.2012825012207,-106.57174682617188,-10.60097885131836,10.332191467285156,35.4648551940918,-0.951834499835968,0.2010105401277542,-0.1413862258195877,125.2631378173828,76.40921020507812,23.471981048583984,202.1537535305793,1.3949923612717838,38.430338107550384,0.9830484307357122,88.97062301635742,16.207927703857422,130.04372787475586
2412.386,-19.71094512939453,-223.6605224609375,11.734018325805664,-1.1983884572982788,0.3733672797679901,0.6998123526573181,32.08372116088867,56.34654235839844,-111.02548217773438,-20.42490005493164,4.867878437042236,36.02828598022461,-1.00289785861969,0.1670286357402801,-0.1125205531716346,123.53571319580078,75.78218841552734,22.138887405395508,224.8338005093181,1.4371065893380588,41.70024188664397,1.022919134080143,91.45199203491212,19.435646057128903,133.16436958312988
2435.397,-33.18965530395508,-242.7203826904297,15.973543167114258,-1.2313920259475708,0.4364613592624664,0.7225346565246582,28.42090606689453,52.001712799072266,-114.71918487548828,-22.70195770263672,-14.848182678222656,30.06358337402344,-1.0023891925811768,0.1554583758115768,-0.1448649168014526,120.9461669921875,75.45641326904297,19.95939064025879,245.49926980318224,1.492943793173644,40.49279513277685,1.024664454411008,92.52526092529295,23.454700469970703,134.67857551574707
2458.159,-35.28411865234375,-261.447265625,17.45939064025879,-1.2158238887786863,0.3476195335388183,0.6893088817596436,25.30307388305664,47.24076843261719,-117.8768310546875,-13.989269256591797,-39.42729187011719,27.202539443969727,-1.028128743171692,0.1966096609830856,-0.1033219397068023,117.0009994506836,75.3855209350586,16.220855712890625,264.39453862247444,1.4402131103053477,49.90179506536375,1.051845756065243,91.69792556762695,28.144752502441406,134.09768676757812
2479.903,-17.62892723083496,-275.7773132324219,22.116050720214844,-1.1959742307662964,0.3286584317684173,0.7629097700119019,23.112682342529297,42.07659530639648,-120.4812240600586,-15.370237350463867,-70.89350891113281,25.332630157470703,-1.0820086002349854,0.2199808359146118,-0.0163267627358436,110.76670837402344,75.53292846679688,10.168456077575684,277.2237819316058,1.4561600333099116,76.83668363898624,1.1042647971992932,87.65402603149414,33.45633316040039,130.64968013763428
2502.265,-17.269296646118164,-282.944091796875,28.41953086853028,-1.1279537677764893,0.4120340049266815,0.913658857345581,21.44710922241211,36.67607116699219,-122.5668487548828,-9.169376373291016,-90.20665740966795,25.37004852294922,-1.186264157295227,0.2370130568742752,0.0662019252777099,103.06490325927734,75.61573028564453,2.4539458751678467,284.8916590990291,1.5089149184308344,94.15390520927464,1.211519927579699,81.61779403686523,38.93965911865234,125.02079463005066
2512.495,-37.34793472290039,-286.5848999023437,28.271833419799805,-1.0335716009140017,0.3809477388858795,0.9036273956298828,19.70160675048828,31.13467025756836,-124.35458374023438,-5.83051061630249,-94.64183807373048,15.109663009643556,-1.125070571899414,0.2168445587158203,0.0630057752132415,95.28498077392578,75.65826416015625,-5.387655258178711,290.3877918319214,1.4247574895788548,96.01757278897456,1.1475082056826238,75.5833740234375,44.52359390258789,118.96692848205566
2536.261,-30.41986083984375,-288.5937805175781,29.28968048095703,-0.8736509680747986,0.2753327786922455,0.9111327528953552,18.37822532653809,25.48882102966309,-125.85787963867188,-0.0071944892406463,-90.98474884033205,14.334365844726562,-1.0056145191192627,0.233920931816101,0.1440534442663192,87.99004364013672,75.4286880493164,-12.868593215942385,291.6669735668063,1.2919895690132697,92.10699548606196,1.0424638882043678,69.61181831359863,49.93986701965332,112.98928642272948
2559.802,-12.096597671508787,-292.6568908691406,31.69617462158203,-0.7449795007705688,0.273855447769165,0.9460562467575072,17.62843132019043,19.73913955688477,-127.15997314453124,-5.9568634033203125,-86.42048645019531,19.53596878051757,-1.076276183128357,0.1786306053400039,0.1568531095981598,81.28995513916016,74.91758728027344,-19.640745162963867,294.6167526364722,1.234914444352368,88.80111922767396,1.1022169539269904,63.66152381896973,55.17844772338867,107.51922798156738
2580.344,-29.693449020385746,-296.03790283203125,38.65952682495117,-0.6973549127578735,0.3564231395721435,0.9854556918144226,16.727785110473633,13.857970237731934,-128.22056579589844,-2.898972511291504,-50.90609359741211,17.23012351989746,-1.0517076253890991,0.1469922512769699,0.1136394366621971,77.64785766601562,74.45390319824219,-23.297924041748047,300.0244987367574,1.2587550394335856,53.8211070443616,1.0679932456724393,60.92007255554199,60.595932960510254,104.9226417541504
2602.297,-43.152305603027344,-299.150634765625,33.92689514160156,-0.5897606015205383,0.2148281037807464,0.9519817233085632,15.668866157531738,7.926157474517822,-129.2561798095703,9.54645824432373,-34.91838455200195,25.541025161743164,-0.994942843914032,0.1852489858865738,0.1669783145189285,75.6239013671875,73.82559204101562,-25.596097946166992,304.14512649964104,1.1402797388331691,44.30318736891176,1.0257242353319571,59.95503520965576,65.8994345664978,103.66008186340332
2612.303,-31.36111831665039,-300.4752197265625,32.59125518798828,-0.4306851923465729,0.1470578163862228,0.7339563369750977,14.958563804626465,1.9596836566925049,-130.20993041992188,10.398554801940918,-24.23456573486328,16.723758697509766,-0.9585755467414856,0.1957003474235534,0.1706896871328354,74.30387878417969,73.40261840820312,-27.172260284423828,303.8602759929727,0.8636015521366271,31.22704314050421,0.9931267160266825,59.34531497955322,71.44293475151062,103.03767013549805
2634.7070000000003,-13.4722261428833,-295.4586181640625,37.19760513305664,-0.2467542141675949,0.1403732001781463,0.8086901903152466,14.701375007629396,-3.940309524536133,-131.00079345703125,-0.392949640750885,-22.592958450317383,18.05400657653809,-1.0114965438842771,0.2692849040031433,0.1914828866720199,73.00333404541016,72.92330932617188,-28.544662475585938,298.0955513795821,0.857071818140015,28.92305887045169,1.0640983571559866,58.30195903778076,76.86361885070801,102.45613098144533
2662.06,-27.29147720336914,-289.3210754394531,37.27754592895508,-0.2049635946750641,0.2444023191928863,0.7815589308738708,14.244834899902344,-9.726001739501951,-131.73536682128906,-9.232029914855955,-3.631974220275879,13.527498245239258,-0.9465247988700868,0.2575996220111847,0.2050114125013351,72.75462341308594,72.62954711914062,-28.66461944580078,292.9865608724555,0.8441427196852991,16.77542314996838,1.0021459172157294,58.5097885131836,82.35554885864258,103.07074737548828
2672.231,-39.44342422485352,-285.5420837402344,27.1927547454834,-0.1294007301330566,0.1231100410223007,0.6964787244796753,13.6460599899292,-15.397079467773438,-132.6036834716797,-4.55358362197876,5.7069854736328125,11.989328384399414,-0.9525223970413208,0.1779945790767669,0.142835646867752,73.13530731201172,72.46686553955078,-28.21727561950684,289.5332644307814,0.7190154691050229,14.037407243062182,0.9794809896379756,59.48924732208252,87.86394500732422,104.38640785217284
2694.8340000000003,-19.994409561157227,-278.3263244628906,24.881237030029297,-0.0211296323686838,0.0530400574207305,0.5521992444992065,13.514232635498049,-20.922616958618164,-133.4664306640625,-3.2468607425689697,4.734772682189941,-23.582422256469727,-0.9027363061904908,0.2174965441226959,0.0419184155762195,72.96817779541016,72.98328399658203,-28.3595027923584,280.15066528364,0.5551429677846281,24.27119314158425,0.9295131730019688,59.45394515991211,93.9059009552002,105.1069278717041
2712.098,-13.871152877807615,-262.5286560058594,27.761350631713867,0.1310565918684005,0.0969041585922241,0.4888543486595154,13.532404899597168,-26.09990692138672,-134.21261596679688,-18.69244956970215,22.303850173950195,-38.43200302124024,-1.015896916389465,0.221221923828125,0.0299987215548753,73.3504867553711,73.89633178710938,-27.616304397583008,264.3565711218454,0.5153104117208835,48.20672421688177,1.0401373022859857,59.818081855773926,99.9962387084961,106.59631156921388
2735.185,-8.385651588439941,-248.42742919921875,27.422836303710938,0.2089397460222244,0.1376447528600692,0.4974237382411957,13.740293502807615,-31.029151916503903,-134.95286560058594,-4.235743045806885,57.56880187988281,-26.34712791442871,-1.0266395807266235,0.245531678199768,0.1337503492832183,76.60962677001953,74.71993255615234,-24.195838928222656,250.0770254982166,0.5568054155839244,63.45297170641079,1.0640318555604973,62.86933326721192,105.74908447265624,110.75702667236328
2757.128,-4.568216800689697,-236.26715087890625,26.41890335083008,0.2649710178375244,0.0852570533752441,0.4924335479736328,14.01253604888916,-35.69309997558594,-135.66989135742188,9.278261184692385,83.87882232666016,-39.6126594543457,-0.852742612361908,0.2115254998207092,-0.07071203738451,82.69609069824219,75.83659362792969,-18.18341064453125,237.78350162161053,0.5656582047614823,93.2250275117404,0.881426793468,68.68355464935303,111.52969360351562,117.48648071289062
2778.513,-5.0648064613342285,-221.5098876953125,24.733657836914062,0.357605516910553,0.1262615621089935,0.3297784626483917,14.39040184020996,-40.12123107910156,-136.4427947998047,0.3551526069641113,106.12480926513672,-46.35855484008789,-0.863840639591217,0.2375507354736328,-0.104191854596138,91.5412139892578,76.86542510986328,-9.112102508544922,222.9440208690833,0.5025709126260728,115.80896719078932,0.9019461985604296,77.15081214904785,116.98665618896484,127.33069229125977
2792.144,-0.8747572898864746,-198.18869018554688,25.15361213684082,0.4571374654769897,0.1252118498086929,0.3549361526966095,14.831363677978516,-44.11064529418945,-137.12991333007812,-14.532934188842772,137.30270385742188,-44.89751815795898,-0.8524338006973267,0.1845530569553375,-0.1189462691545486,103.9423370361328,77.3906021118164,3.8422484397888175,199.78044529259992,0.5921421638139878,145.18617633728215,0.8802564571467999,89.1109733581543,121.50124740600586,140.97216176986694
2814.703,3.253262042999268,-178.14443969726562,24.02920150756836,0.5789138078689575,0.127045676112175,0.2634737193584442,15.374353408813477,-47.675106048583984,-137.79502868652344,-14.37119483947754,112.7302017211914,-30.260873794555664,-0.8830090761184692,0.2032481729984283,-0.0719165727496147,113.97303771972656,77.2193832397461,14.411905288696287,179.78717316333902,0.64861406209911,117.60250891892042,0.9089482063191732,98.59868431091309,124.89448928833008,152.20693397521973
2838.454,8.206191062927246,-160.9404296875,28.08810043334961,0.6470922231674194,0.1416307985782623,0.3088035881519317,15.91887378692627,-50.92560195922852,-138.2974395751953,-6.763923168182373,80.66500854492188,-20.341100692749023,-0.9489739537239076,0.2297474592924118,-0.0281402915716171,120.63690948486328,76.83756256103516,21.446218490600582,163.57904775891174,0.7308538051109658,83.46469096312492,0.976794418446092,104.718035697937,127.76316452026369,159.7436580657959
2859.693,-1.761586308479309,-142.8369903564453,23.31584930419922,0.7350559234619141,0.1840545982122421,0.1218040809035301,16.332157135009766,-53.799198150634766,-138.86412048339844,-9.002580642700195,47.58372497558594,-10.979220390319824,-0.903411865234375,0.2332751750946045,-0.0961541011929512,124.20498657226562,76.4910888671875,25.33868980407715,144.73816991100034,0.7674760842295157,49.65682854512293,0.9379850301246258,107.87282943725586,130.2902870178223,164.2028102874756
2881.976,8.8090181350708,-120.4611587524414,23.913837432861328,0.8238303661346436,0.1113655790686607,0.1209939867258071,16.832979202270508,-56.24494934082031,-139.26083374023438,-12.250221252441406,20.207632064819336,-11.68062973022461,-0.8598443865776062,0.2371519953012466,-0.1305225789546966,125.80062866210938,76.41150665283203,27.281707763671875,123.12741851127318,0.8400823228652319,26.36007255861578,0.9014486017634992,108.96764945983888,132.65645599365234,166.54254150390625
2892.39,22.135498046875,-94.10204315185548,22.679737091064453,0.8518255352973938,0.1971704661846161,0.0366775281727314,17.462467193603516,-58.17742919921875,-139.48387145996094,-10.5101900100708,-5.570125579833984,-11.3842191696167,-0.9040278792381288,0.2280017435550689,-0.1495837569236755,125.73776245117188,76.63002014160156,27.51768493652344,99.29524295582684,0.8751160930945173,16.464836443912258,0.9442597639629368,108.27529525756836,134.8074493408203,167.00155639648438
2917.748,11.139517784118652,-61.96638488769531,23.712635040283203,0.8604953289031982,0.1859879940748214,0.0955177694559097,17.55461311340332,-59.50231170654297,-139.33192443847656,-5.619183540344238,-18.002395629882812,-12.687339782714844,-0.9005009531974792,0.2364688068628311,-0.1690036803483963,125.00525665283205,77.0008544921875,26.96269416809082,67.27711923876019,0.88553226326658,22.729497637144515,0.9462461134926804,107.45064353942873,136.50316619873047,166.29461860656738
2934.235,4.972361087799072,-31.322099685668945,17.784088134765625,0.8467483520507812,0.1348069757223129,0.0776888057589531,17.3935546875,-60.2067756652832,-139.03135681152344,-5.702194690704346,-18.10775375366211,-10.274700164794922,-0.852932333946228,0.225186601281166,-0.2055471837520599,124.21749114990234,77.31147003173828,26.32706451416016,36.36030932612582,0.8609246441729742,21.58645950058504,0.9057881741532762,106.82393646240234,137.51824569702148,165.3584213256836
2956.3830000000003,13.38122844696045,-0.1862163543701172,11.973393440246582,0.8231728076934814,0.1164323836565017,0.12556192278862,17.262977600097656,-60.28159332275391,-138.57330322265625,-4.953094959259033,-14.355782508850098,-7.195155143737793,-0.847800076007843,0.206512376666069,-0.2059026807546615,123.57653045654295,77.53224182128906,25.824295043945312,17.95700703779219,0.8407947239036884,16.804520185334066,0.896553536905147,106.31355285644533,137.81383514404297,164.39759826660156
2978.061,14.145273208618164,28.248565673828125,4.616193771362305,0.7741717100143433,0.1387810856103897,0.1622889041900634,17.103313446044922,-59.76900100708008,-138.0628662109375,-0.4083110988140106,-17.460126876831055,-5.1499762535095215,-0.8431167602539062,0.1885903030633926,-0.1787878274917602,122.63619232177734,77.76611328125,24.92568016052246,31.927722463555018,0.8030813873655287,18.20837730057692,0.8822569133136949,105.53287887573242,137.53511428833008,162.98854637145996
2999.466,9.307523727416992,54.19830703735352,-1.0369820594787598,0.776333749294281,0.1115749925374984,0.1621774733066558,16.791879653930664,-58.725852966308594,-137.48410034179688,1.6202369928359983,-21.702077865600582,-5.924342155456543,-0.8369617462158203,0.1696115732192993,-0.1670136004686355,121.41248321533205,78.06495666503906,23.69939422607422,55.00147102981296,0.8009023673964196,22.55444926333748,0.8701532009594966,104.62060356140135,136.79080963134766,161.1834945678711
3023.019,14.33961296081543,78.27883911132812,-5.503571033477783,0.7454730868339539,0.0892736539244651,0.2009878158569336,16.53076171875,-57.194129943847656,-136.8380126953125,2.07209849357605,-20.77399635314941,-4.736206531524658,-0.8666179180145264,0.1371351927518844,-0.1478641033172607,120.1634292602539,78.35328674316406,22.44415855407715,79.77148893310012,0.7772361356767385,21.40757270119623,0.8897732688526592,103.6326675415039,135.54741668701172,159.28217124938965
3032.347,18.81217765808105,99.98257446289062,-8.604246139526367,0.7004494667053223,0.0606235414743423,0.2567752003669739,16.309053421020508,-55.22720718383789,-136.1187744140625,2.480365753173828,-17.749666213989258,-1.4648698568344116,-0.9121946692466736,0.1258717775344848,-0.1114624440670013,118.88793182373048,78.568603515625,21.106090545654297,102.10017764968006,0.7484905962750376,17.98189947349866,0.9275595373986129,102.57887840270996,133.7958106994629,157.2248649597168
3060.384,22.70736694335937,120.57981872558594,-11.81936264038086,0.6911141276359558,0.0919133499264717,0.2392212897539138,16.14789581298828,-52.84560012817383,-135.35862731933594,9.553476333618164,-43.42813491821289,-2.79426383972168,-0.9847064018249512,0.1421326398849487,-0.0694873705506324,115.31298828125,79.03855895996094,17.288314819335938,123.26724841019356,0.7370981120476705,44.55423350185121,0.99733488848117,99.16509246826172,131.88415908813477,152.64694213867188
3082.395,19.959917068481445,140.6016845703125,-11.95685863494873,0.6488934755325317,0.0932783037424087,0.2699628472328186,15.861583709716797,-50.077030181884766,-134.4825897216797,9.618502616882324,-64.76655578613281,-5.252231121063232,-0.8285679221153259,0.1694491058588028,-0.1049771532416343,109.52234649658205,79.6075439453125,11.222240447998049,142.51385357854323,0.7089735703281185,65.68720021996896,0.852207723350108,93.66076278686523,129.6845741271973,145.7048301696777
3102.869,19.224693298339844,161.35887145996094,-14.647989273071287,0.6022460460662842,0.1090666800737381,0.2947766184806824,15.577167510986328,-46.891693115234375,-133.5894317626953,-10.78026008605957,-50.908016204833984,3.101299285888672,-0.9077025651931764,0.1586288064718246,-0.0359630659222602,103.82928466796876,79.84320068359375,5.69518518447876,163.1589342358899,0.6793298871002849,52.12924494653056,0.9221607165844125,88.25211715698242,126.73489379882812,139.28461694717407
3112.492,20.33053207397461,175.63890075683594,-19.055233001708984,0.5366301536560059,0.0914331376552581,0.3634597659111023,15.394279479980469,-43.461551666259766,-132.76974487304688,-17.32598304748535,-36.24391555786133,12.728078842163086,-0.9377259016036988,0.1111479103565216,-0.0267058406025171,99.29309844970705,79.77010345458984,1.4837167263031006,177.83547424018076,0.6545494189979143,42.14042114810259,0.9446676274951832,83.89881896972656,123.2316551208496,134.25346159934998
3135.413,19.416603088378903,192.6397857666016,-22.462953567504883,0.5233153104782104,0.1661183089017868,0.3433795273303985,15.264455795288086,-39.62824630737305,-131.98794555664062,-3.846029281616211,-46.66544723510742,28.689041137695312,-0.898503839969635,0.1145674511790275,-0.0984562113881111,94.15641784667967,79.32884979248047,-3.663906574249268,194.9145346521641,0.6475829726938033,54.91372313263797,0.9111138660292348,78.8919620513916,118.95709609985352,128.32403898239136
3152.324,9.16319179534912,211.12274169921875,-20.36293029785156,0.4601337015628814,0.1714943498373031,0.374802678823471,14.904047012329102,-35.446895599365234,-131.0967559814453,7.267193794250488,-45.16139221191406,29.939950942993164,-0.9301975965499878,0.2206843197345733,0.0915005058050155,89.53238677978516,78.7500228881836,-8.496615409851074,212.3003181269132,0.6177462127713356,54.66959040115778,0.9603861099405068,74.62833976745605,114.19691848754884,122.60014057159424
3174.071,8.464016914367676,225.08436584472656,-24.73418617248535,0.4040502309799194,0.0849478766322135,0.5509131550788879,14.613948822021484,-30.97232437133789,-130.28778076171875,4.3858842849731445,-19.910343170166016,45.6763916015625,-0.9500199556350708,0.236379474401474,0.0551865361630916,87.74153137207031,77.80423736572266,-10.394647598266602,226.5974212025913,0.6884606272970321,50.019900998045166,0.9805400174377684,73.12758255004883,108.77656173706056,119.89313316345216
3195.558,10.322172164916992,227.68093872070312,-31.3217716217041,0.2960297465324402,0.141989067196846,0.5058339834213257,14.516295433044434,-26.414634704589844,-129.67051696777344,11.350414276123049,-7.547670364379883,45.6435432434082,-1.0295617580413818,0.1703613251447677,0.0766283422708511,87.30329132080078,76.91111755371094,-11.060473442077637,230.0569722318038,0.6030443804724303,47.63540985424426,1.0463710133435085,72.78699588775635,103.32575225830078,118.6100435256958
3211.667,17.920944213867188,241.4241943359375,-31.29517936706543,0.2387999147176742,0.215715616941452,0.5709682106971741,14.630687713623049,-21.56192207336425,-129.01248168945312,20.24142837524414,-19.18239402770996,25.862817764282227,-1.0533990859985352,0.2580883502960205,0.0609803199768066,86.12689971923828,76.36373901367188,-12.677202224731444,244.1028269067973,0.6554108057457798,38.03373510467955,1.0862678446707077,71.49621200561523,97.92566108703612,116.33527946472168
3234.161,10.718664169311523,253.86181640625,-36.973777770996094,0.1514987647533416,0.1430878490209579,0.6245172619819641,14.670934677124023,-16.446182250976562,-128.42103576660156,40.36004257202149,3.983103275299072,10.319555282592772,-1.0240801572799685,0.2512510418891907,0.1303944587707519,87.05877685546875,76.15898895263672,-12.57685661315918,256.7640392136603,0.6583675407951717,41.84843329621281,1.062482926668982,72.38784217834473,92.60517120361328,115.84417915344238
3256.715,17.31865692138672,255.57147216796875,-40.47821044921875,-0.0108406711369752,0.1302964985370636,0.8270192742347717,14.887709617614746,-11.299652099609377,-127.88580322265624,36.8967170715332,19.34441566467285,-3.7469983100891113,-0.8707079887390137,0.1555078029632568,0.1247099936008453,89.29862213134766,76.26840209960938,-11.067212104797363,259.3360730496912,0.8372906171918612,41.82838921594066,0.8932343818619615,74.41091251373291,87.56805419921875,116.81859111785889
3279.578,18.76667213439941,258.26593017578125,-46.76775360107422,-0.0848954170942306,0.1634973734617233,0.8975697159767151,15.196133613586426,-6.070994853973389,-127.4447784423828,14.716245651245115,24.17313766479492,12.597673416137695,-1.000699520111084,0.2702206075191498,0.1624980121850967,91.39673614501952,76.02123260498047,-9.226290702819824,263.1362792346436,0.916280534558607,30.977570048804346,1.0492017490657743,76.2006025314331,82.09222745895386,118.218487739563
3302.554,12.782718658447266,259.36669921875,-45.32011795043945,-0.1833081096410751,0.2833147048950195,0.6460543870925903,15.422100067138672,-0.831023633480072,-126.94973754882812,19.273691177368164,7.584481239318848,-2.1249446868896484,-1.0516494512557983,0.2896415591239929,0.0327728725969791,92.40477752685548,76.05714416503906,-8.609086036682129,263.60651670808954,0.7288726611360307,20.8210210410652,1.091298704423613,76.9826774597168,76.88816779851913,118.340651512146
3312.805,16.506628036499023,263.7679443359375,-43.94022750854492,-0.3532649278640747,0.1905804425477981,0.92099791765213,15.769585609436035,4.483535289764404,-126.37491607666016,7.976890087127685,41.32584762573242,-17.003543853759766,-0.8619661331176758,0.2818496823310852,0.0938363671302795,95.92735290527344,76.31682586669922,-5.158862113952637,267.9118153830552,1.004666202606659,45.39357841186462,0.9117182250389542,80.1577672958374,71.83329057693481,121.21605396270752
3334.6800000000003,26.147497177124023,255.1039428710937,-50.06076431274414,-0.4548986256122589,0.1305485516786575,1.0179650783538818,16.347854614257812,9.661211013793944,-125.9276885986328,-10.057059288024902,48.39864349365234,9.056632995605469,-1.0990087985992432,0.1995523422956466,0.0819696709513664,99.32337951660156,76.0208511352539,-1.4490331411361694,261.281062077951,1.122599031122574,50.25530553847617,1.119982367571073,82.97552490234375,66.35964012145996,124.47865545749664
3361.376,48.29515075683594,253.98736572265625,-46.58959579467773,-0.5262237191200256,0.3445855379104614,0.871826708316803,17.441434860229492,14.790157318115234,-125.335205078125,12.113930702209473,41.81575393676758,-2.3624653816223145,-1.167452096939087,0.1361622065305709,-0.0504134111106395,102.93047332763672,75.97808837890625,1.996573686599732,262.7024818490897,1.075049954577026,43.5991494990165,1.176446368159023,85.48903846740723,61.187931060791016,127.33177876472472
3379.278,22.873594284057617,257.8427429199219,-42.491981506347656,-0.6547832489013672,0.4235873520374298,0.9071656465530396,18.140605926513672,19.956687927246094,-124.5256805419922,19.60161781311035,49.630767822265625,-22.03725814819336,-1.025840401649475,0.2900297343730926,0.041354451328516,107.37525939941406,76.13584899902344,6.190748691558838,262.31974741577574,1.1962929650106222,57.73280940859362,1.0668533015937878,89.23465347290039,56.179161071777344,130.71642923355105
3401.519,9.958824157714844,254.5708770751953,-48.1749382019043,-0.7439271211624146,0.1731974929571151,1.034060001373291,18.62375259399414,25.090091705322266,-123.78006744384766,-16.5843505859375,69.48162078857422,-2.6716253757476807,-0.981694757938385,0.2519901990890503,-0.0302848629653453,112.1820297241211,75.71208190917969,11.487595558166504,259.2804163530208,1.2855757541303268,71.48338194232876,1.0139727960480367,93.55827713012695,50.62199020385742,135.26766300201416
3411.812,52.761600494384766,241.68038940429688,-45.3924674987793,-0.7996376156806946,0.2127490639686584,0.8715825080871582,20.063438415527344,29.950733184814453,-122.95394134521484,-11.76715850830078,74.2280502319336,6.400932788848877,-1.131092190742493,0.0159373134374618,-0.0855202227830886,116.88990783691406,74.98297882080078,16.59796905517578,251.5028294373035,1.2018063691937015,75.42706013866173,1.1344325675962958,96.82646942138672,45.03224563598633,139.55191040039062
3436.406,67.88214111328125,235.55799865722656,-35.37529754638672,-0.9360716342926024,0.395202487707138,1.0174702405929563,22.07984733581543,34.64029312133789,-121.72962188720705,15.1221923828125,53.1265983581543,-22.5433349609375,-1.1046308279037476,-0.0015510730445384,-0.1243537440896034,121.48758697509766,74.87598419189453,21.07936286926269,247.6831998542024,1.4379362994616358,59.66002100848157,1.1116094302640702,99.40773963928224,40.23569107055664,142.80898475646973
3459.043,16.42881965637207,230.4303436279297,-29.560226440429688,-0.9777523875236512,0.4248150289058685,0.7866278290748596,23.3442325592041,39.14958190917969,-120.1808624267578,11.894399642944336,36.14531707763672,-25.846263885498047,-0.9722006320953368,0.2036560922861099,-0.2073902040719986,125.13504028320312,74.8996353149414,24.61943817138672,232.89881143319909,1.3248588157111385,45.99989180800072,1.014721917431986,101.79080772399902,35.75005340576172,144.80030059814453
3482.128,18.29007339477539,220.8974151611328,-25.602081298828125,-1.0248708724975586,0.3004450500011444,0.831330418586731,24.84571075439453,43.43569564819336,-118.42088317871094,7.000689506530762,41.65223693847656,-14.535484313964844,-1.0887893438339231,0.2702338993549347,-0.0356740839779377,128.19351196289062,74.65618133544922,27.71679306030273,223.12700727721847,1.353417082141232,44.66764824554075,1.122390856998819,103.3478012084961,31.22048568725586,146.13767623901367
3492.612,41.42631530761719,212.0909881591797,-22.67141342163086,-1.0144410133361816,0.3298172354698181,0.8450672030448914,27.10514068603516,47.47978591918945,-116.3683853149414,0.5046960115432739,13.033974647521973,-29.242631912231445,-1.1681973934173584,0.2445487231016159,-0.0798791050910949,130.1344757080078,74.98355865478516,29.78631591796875,217.28488176777952,1.3608852104470854,32.01984906789178,1.196189742218138,103.02933502197266,27.503772735595703,146.15470123291016
3521.782,35.295982360839844,207.3709716796875,-22.420244216918945,-1.019730567932129,0.4274135231971741,0.7623474597930908,29.665054321289062,51.34523010253906,-113.90403747558594,-7.907734870910644,-13.170656204223633,-36.20202255249024,-0.9935195446014404,0.1393805742263794,-0.1981992423534393,131.1454620361328,75.72311401367188,31.04611015319824,211.5447792240233,1.3430213700607976,39.326643545177895,1.0226392177333148,101.48040771484376,24.37788391113281,144.95014762878418
3541.454,23.279373168945312,194.8581695556641,-18.661840438842773,-1.1130489110946655,0.3756735324859619,0.641548752784729,32.36140823364258,54.89373779296875,-111.08790588378906,2.086478471755981,-14.857125282287598,-32.0755500793457,-0.9170238971710204,0.119517408311367,-0.2677136957645416,132.20236206054688,76.39059448242188,32.15055084228516,197.1291448423793,1.338504121659378,35.41085253081751,0.962750155425644,99.8409538269043,21.496856689453125,143.23845672607422
3551.4700000000003,36.65401077270508,182.97349548339844,-14.163606643676758,-1.116191029548645,0.3376352488994598,0.6213740706443787,35.784549713134766,58.101356506347656,-107.80380249023438,9.235466003417969,-22.989755630493164,-23.60678100585937,-1.0041028261184692,0.1487317681312561,-0.2472586184740066,132.49134826660156,77.03326416015625,32.31949996948242,187.1454629647633,1.3213575259608694,34.221379365956075,1.0447394166394897,96.7067985534668,18.9319076538086,140.1233024597168
3575.107,37.80940246582031,164.3620147705078,-14.852011680603027,-1.1413888931274414,0.438799500465393,0.5137226581573486,39.58115005493164,60.88789749145508,-104.25521850585938,12.30226707458496,-31.495132446289062,-18.135557174682617,-0.9163480401039124,0.2517472207546234,-0.3470814526081085,131.7373504638672,77.7037353515625,31.34524917602539,169.307427672869,1.3263576352053832,38.36909664065457,1.011699524811845,92.15620040893556,16.815837860107422,135.60046768188477
3592.367,32.55232238769531,144.525390625,-15.394587516784668,-1.162049651145935,0.4197610318660736,0.6190202236175537,43.32057571411133,63.21574020385742,-100.69506072998048,6.956061840057373,-24.2524471282959,-21.94384002685547,-0.8845605254173279,0.1995344161987304,-0.3497044146060943,131.54415893554688,78.35789489746094,31.06636619567871,148.94373284214825,1.381935147844929,33.438003875197374,0.9718819290270492,88.22358322143555,15.142154693603516,131.76142692565918
3613.971,23.23154830932617,117.82738494873048,-16.22517204284668,-1.1055563688278198,0.4098570346832275,0.3473963439464569,46.80181121826172,65.11404418945312,-97.3318099975586,12.45846939086914,-12.578619003295898,-15.11354160308838,-0.972228467464447,0.1916532814502716,-0.2477450370788574,132.0208740234375,78.6929931640625,31.36028289794922,121.18685443778482,1.229195628580922,23.27776310949107,1.0214385819206795,85.21906280517578,13.578948974609377,128.6920928955078
3637.691,26.37413787841797,98.32638549804688,-14.599284172058104,-1.0878125429153442,0.4286395311355591,0.448955774307251,50.12111282348633,66.58488464355469,-94.20984649658205,11.673616409301758,-14.867254257202148,-14.25812530517578,-1.0818709135055542,0.1885542571544647,-0.1441279351711273,132.0517120361328,79.09541320800781,31.227657318115234,102.84363048957786,1.2524493057445012,23.67705020558745,1.1075966066565512,81.93059921264648,12.510528564453123,125.43750381469728
3652.804,20.194440841674805,82.79008483886719,-15.00237274169922,-1.0461604595184326,0.4375575184822082,0.4840055704116821,53.12094497680664,67.80947875976562,-91.36497497558594,8.880894660949707,-22.273344039916992,-15.292827606201172,-1.0177940130233765,0.1877452731132507,-0.1453119963407516,131.5051727294922,79.60029602050781,30.56251335144043,86.52794217139115,1.2329516134989498,28.44016035278949,1.045116508721938,78.38422775268555,11.790817260742188,121.92748832702635
3674.059,14.40963363647461,69.13090515136719,-13.412899017333984,-1.0122900009155271,0.4298596382141113,0.4993217289447784,55.843482971191406,68.8327407836914,-88.7202377319336,10.693243980407717,-10.994540214538574,-12.78121852874756,-0.922860324382782,0.1688594371080398,-0.2074626237154007,131.8937530517578,79.88340759277344,30.766042709350582,71.87924212617956,1.2078214038157826,19.964591867434496,0.9608462041654824,76.0502700805664,11.050666809082031,119.48628044128418
3696.726,3.57345986366272,51.54118347167969,-10.354412078857422,-1.014379858970642,0.4534392952919006,0.4411070346832275,57.88568115234375,69.57074737548828,-86.59900665283203,10.821754455566406,-6.244029521942139,-9.83000946044922,-0.8771498203277588,0.2304420322179794,-0.3097169995307922,132.32998657226562,80.1149673461914,31.02294921875,52.69228651859154,1.195470245906248,15.8974010504855,0.9583422965267308,74.44430541992188,10.544219970703123,117.62195587158205
3718.735,-5.803754806518555,29.520891189575195,-9.885770797729492,-0.9755735397338868,0.4569626748561859,0.340100347995758,58.82886505126953,70.02593231201172,-85.46228790283203,7.573658466339111,9.872007369995115,-9.523646354675291,-0.8615522384643555,0.2460613250732422,-0.34675994515419,134.04141235351562,80.11900329589844,32.64435958862305,31.668518290980504,1.1297021131021494,15.66897163080296,0.9607605814473646,75.2125473022461,10.09307098388672,118.10664749145508
3731.904,-2.097764730453491,-0.1840600967407226,-8.04111385345459,-1.0134291648864746,0.4240064322948456,0.3846392333507538,58.54780578613281,70.16144561767578,-85.69540405273438,12.371973037719728,18.20505142211914,-7.935516357421875,-0.9263984560966492,0.2156327366828918,-0.3016107082366943,136.3975067138672,79.96145629882812,34.82004928588867,8.312280492606474,1.1639447867929804,23.39790661548541,0.997837960748462,77.84970092773438,9.800010681152344,120.51545333862305
3755.054,-3.893656253814697,-27.585426330566406,-6.83852481842041,-1.010711669921875,0.4981401860713959,0.4269802272319793,56.98492050170898,69.98249053955078,-87.25131225585938,10.908734321594238,23.41171646118164,-8.45392894744873,-0.9824926853179932,0.1745502650737762,-0.2009398341178894,139.06715393066406,79.67742919921875,37.34881210327149,28.685915124920253,1.2049870701142742,27.17678911877566,1.017907897933802,82.08223342895508,9.694938659667969,124.60012435913086
3776.599,-24.568544387817383,-50.27622985839844,-6.191727638244629,-1.0722848176956177,0.4935543239116668,0.5548114776611328,54.06186294555664,69.51455688476562,-89.81005859375,14.502543449401855,23.75734519958496,-7.775934219360352,-1.0339553356170654,0.1529958397150039,-0.1818042248487472,141.62594604492188,79.3846206665039,39.71226119995117,56.299646120174415,1.3043030233258512,28.89983339775249,1.0609072245931552,87.56408309936523,9.87006378173828,129.52231979370117
3798.844,-36.33532333374024,-74.37662506103516,-5.98166036605835,-1.0548118352890017,0.41989266872406,0.5087015628814697,50.07743453979492,68.69188690185547,-93.24890899658205,24.526844024658203,25.874500274658203,1.0860313177108765,-0.9721977114677428,0.1751540303230285,-0.2198206186294555,143.63609313964844,78.90463256835938,41.30919647216797,82.99348370789193,1.244072000003221,35.66840767817156,1.0120120695407508,93.55865859985352,10.212745666503906,134.55810546875
3822.695,-29.77008819580078,-99.0592041015625,-3.214829921722412,-1.0722867250442505,0.4123132228851318,0.5004788041114807,45.68138122558594,67.36515808105469,-97.26953125,16.555017471313477,28.174678802490234,6.6540141105651855,-0.9906267523765564,0.2280264645814895,-0.2055356055498123,144.87635803222656,78.31143951416016,42.28624725341797,103.48584057660436,1.2531081548840493,33.34901846955301,1.0371028474661443,99.19497680664062,10.946281433105469,139.55577850341797
3831.266,-32.476444244384766,-120.17208099365234,-1.6657227277755735,-1.104985594749451,0.4725447297096252,0.6262365579605103,41.18019104003906,65.64006805419922,-101.38453674316406,12.338082313537598,31.47549819946289,9.166419982910156,-0.9468627572059632,0.1602351367473602,-0.2270440310239792,146.07583618164062,77.64179992675781,43.2960319519043,124.49426939947638,1.3551619507300106,35.027967645627335,0.986799560222714,104.89564514160156,12.001731872558594,144.68056869506836
3856.932,-45.07308578491211,-144.04656982421875,-1.2307978868484497,-1.1171571016311646,0.3865613937377929,0.6780959963798523,36.41924285888672,63.38935089111328,-105.64510345458984,12.51325511932373,30.217798233032227,21.58524703979492,-0.970345675945282,0.1417385041713714,-0.2098176181316375,146.22720336914062,76.8767318725586,43.22777557373047,150.93876971717984,1.3628220284247807,39.18698474624582,1.0028379566355063,109.8079605102539,13.487380981445312,148.8728790283203
3876.744,-36.12599563598633,-168.6759490966797,0.9512725472450256,-1.1318211555480957,0.3501042127609253,0.6676056385040283,32.088600158691406,60.529727935791016,-109.7057876586914,9.000782012939453,18.946653366088867,28.18950653076172,-0.9995052814483644,0.1918892860412597,-0.2002841085195541,145.24652099609375,76.22459411621094,42.08855056762695,172.50382107019,1.3598857953892838,35.13741636869505,1.0372781834522844,113.15792083740234,15.694866180419922,151.79433822631836
3898.786,-28.313276290893555,-191.3903961181641,2.613621950149536,-1.1374908685684204,0.4228558540344238,0.7327591776847839,28.406967163085938,57.1372299194336,-113.33783721923828,1.3232530355453491,5.688642501831055,30.97954559326172,-0.9949733018875122,0.2152471244335174,-0.1753881871700287,143.36256408691406,75.75789642333984,40.17569732666016,193.4909722966178,1.4176136856876778,31.525289804769443,1.032988001984837,114.95559692382812,18.62066650390625,153.51353454589844
3921.506,-27.577756881713867,-211.31854248046875,4.211747646331787,-1.154487133026123,0.3503169417381286,0.8114490509033203,25.18549156188965,53.29609298706055,-116.5669403076172,-4.330063819885254,-13.164451599121094,33.01991271972656,-1.09098482131958,0.1851734369993209,-0.1404657363891601,140.4913330078125,75.5841064453125,37.36056518554688,213.15205344761043,1.4539642575398928,35.8101504410166,1.1154674828157056,115.30584144592284,22.28801345825196,153.92750549316406
3931.214,-21.13883209228516,-229.23765563964844,7.38667106628418,-1.1468722820281982,0.3844465613365173,0.8958667516708374,22.616065979003903,49.0260009765625,-119.31243896484376,-4.098856925964356,-45.99752807617188,24.36513328552246,-1.1425259113311768,0.1277976185083389,-0.1187720745801925,136.53843688964844,76.0085678100586,33.42849349975586,230.32871270171532,1.505221720065618,52.21334060600816,1.15577008745668,113.92237091064452,26.982566833496094,152.7409324645996
3962.469,-29.20329093933105,-243.351318359375,11.500615119934082,-1.1441243886947632,0.3602025210857391,0.8730040788650513,20.37244415283203,44.4477424621582,-121.59092712402344,-4.988919258117676,-68.63921356201172,22.73139953613281,-1.1001684665679932,0.174529880285263,-0.0882239565253257,130.9592742919922,76.67352294921875,27.864803314208984,245.3669914578364,1.483543930835115,72.47722041198027,1.117414336961872,110.58683013916016,32.22578048706055,149.45573043823242
3982.112,-27.351055145263672,-254.9342803955078,14.350339889526367,-1.0904420614242554,0.3254370391368866,0.9331253170967102,18.536928176879883,39.59996032714844,-123.50865173339844,-7.115869998931885,-86.7393798828125,28.30917358398437,-1.1035687923431396,0.2612084448337555,-0.0352598167955875,123.09158325195312,77.28276824951172,20.003192901611328,256.79855878349395,1.4716303928541972,91.51920529213918,1.134608824999446,104.55465507507324,37.68280792236328,143.51184463500977
3991.543,-21.704200744628903,-265.2333374023437,16.238813400268555,-1.003939867019653,0.3189062476158142,0.941509246826172,17.117197036743164,34.52862548828125,-125.14772033691406,-18.627666473388672,-95.22000885009766,23.883533477783203,-1.1061524152755735,0.2717010974884033,0.0496024414896965,113.92163848876952,77.78266143798828,10.986414909362791,266.6148807928721,1.4128114216763057,99.92128509502304,1.1401118604760354,96.80444145202635,43.25403594970703,136.13413524627686
4014.824,-19.890209197998047,-271.72515869140625,15.18202018737793,-0.8946072459220886,0.3249245584011078,0.979910135269165,15.95433235168457,29.32254981994629,-126.61380767822266,-25.20292282104492,-99.61595153808594,22.83422088623047,-1.0190898180007937,0.2720749676227569,0.0502035729587078,103.633544921875,77.97886657714844,1.0284810066223145,272.8748358218104,1.366060747665232,105.26123105418726,1.055977861461894,87.67921257019043,48.65631675720215,127.64228868484496
4031.115,-16.86707878112793,-281.9393615722656,12.141387939453123,-0.8230781555175781,0.2407521605491638,1.0129916667938232,14.9762544631958,23.84705924987793,-128.03445434570312,-37.63783264160156,-85.41869354248047,27.345563888549805,-1.0249786376953125,0.1594822853803634,0.0884845480322837,94.50008392333984,77.74031066894531,-7.470247268676758,282.7042894111828,1.3272420163229603,97.26633290529752,1.041078922235178,79.52382946014404,53.89325141906738,120.56420707702635
4054.5030000000006,-15.059551239013672,-287.4067687988281,14.703296661376951,-0.711266040802002,0.2075781226158142,0.9335162043571472,14.227716445922852,18.21224594116211,-129.27685546875,-26.009567260742188,-46.96117401123047,33.07086944580078,-1.1601063013076782,0.0512997508049011,0.061419989913702,89.66983032226562,77.13418579101562,-11.852170944213867,288.1763830844158,1.191822369979787,63.05181884375216,1.1628631518486712,75.44211387634277,58.92193984985352,117.42468452453612
4074.635,-12.518327713012695,-289.9391174316406,17.404268264770508,-0.5851055979728699,0.2220423370599746,0.9034016728401184,13.68453311920166,12.503478050231934,-130.37596130371094,7.281467914581299,-36.0358772277832,27.059585571289062,-1.0568301677703855,0.0532496720552444,0.0930076539516449,86.73975372314453,76.59004974365234,-15.01858615875244,290.73064664668766,1.0989931495312286,45.64893639348957,1.062250419993874,73.05522060394287,64.08657169342041,115.3573751449585
4091.202,-17.25014305114746,-285.3148498535156,19.2889404296875,-0.4245674610137939,0.1493105143308639,0.8780369758605957,13.177153587341309,6.866039752960205,-131.33644104003906,22.256895065307617,-32.36030197143555,35.12934494018555,-1.011049747467041,0.156232088804245,0.2059282809495926,84.70133209228516,75.84657287597656,-17.566118240356445,286.48594067618615,0.986661081435701,52.69373205189731,1.0435691229239006,71.52417850494385,68.98053312301636,113.77032279968262
4113.362999999999,-11.1587553024292,-287.0367431640625,20.713359832763672,-0.3299333155155182,0.1606538742780685,0.9374288320541382,12.891735076904297,1.182288408279419,-132.22726440429688,35.282928466796875,-27.239444732666016,45.10743713378906,-0.9754343628883362,0.1831069439649582,0.0984081476926803,83.51017761230469,74.92210388183594,-19.53046989440918,287.99939760647595,1.0066968139286037,63.41571788851565,0.997338715163442,70.61844253540039,73.73981547355652,112.6967945098877
4135.933,-17.161359786987305,-289.1614990234375,18.691944122314453,-0.2851899862289428,0.1049269810318946,0.7286511659622192,12.575448989868164,-4.5377044677734375,-133.14047241210938,12.283523559570312,-14.811585426330566,48.06301498413086,-0.9018670916557312,0.2395841777324676,0.1356982141733169,82.9029541015625,73.93560791015625,-20.40010643005371,290.2727571824328,0.789478005552931,51.77182074492643,0.9429627959581104,70.32750511169434,78.47331237792969,112.74036598205566
4158.513,-13.263639450073242,-282.4603576660156,19.23908424377441,-0.1353260278701782,0.0641515329480171,0.7031291127204895,12.418617248535156,-10.13422393798828,-133.98988342285156,2.8311333656311035,-8.249810218811035,29.583477020263672,-0.9486610293388368,0.232732817530632,0.0947920382022857,82.52493286132812,73.34618377685547,-20.86471366882324,283.4253343418934,0.7189013160050575,30.842451222120097,0.9813805803298288,70.10631561279297,83.48040771484375,113.12516975402832
4170.982,-1.064128875732422,-270.8597106933594,16.602933883666992,0.0090549085289239,0.1113158091902732,0.59201979637146,12.582636833190918,-15.48340129852295,-134.855712890625,-20.262426376342773,-11.400607109069824,-1.277822971343994,-1.040988206863403,0.2829524576663971,0.105265736579895,81.23480224609375,73.34859466552734,-21.815507888793945,271.37017643930574,0.60246214822166,23.28459998922419,1.083881642720203,68.65216541290283,88.8319959640503,113.04020500183104
4193.642,6.723712921142578,-255.0997467041016,21.638330459594727,0.1156227737665176,0.1245410218834877,0.7065386176109314,12.917402267456056,-20.49538993835449,-135.58602905273438,-33.17629623413086,8.975895881652832,-36.5828742980957,-1.0157827138900757,0.2582984566688537,0.163240447640419,80.55117797851562,74.11327362060547,-21.859743118286133,256.10409295640187,0.7266883170388888,50.19501997811485,1.0607450486809935,67.63377571105957,94.60866355895996,113.72628593444824
4216.181,-5.060554504394531,-246.4847717285156,24.319215774536133,0.1139524281024932,0.2117318660020828,0.6206453442573547,13.0872163772583,-25.40542221069336,-136.27931213378906,-30.68659019470215,27.73472785949707,-42.67859649658203,-0.9084582924842834,0.1619574874639511,-0.0730947777628898,81.53849029541016,75.08491516113281,-20.26627922058105,247.7332762505652,0.6655946080757478,59.433530486889445,0.9256724817478924,68.45127391815186,100.49033737182616,116.013032913208
4238.368,-21.604297637939453,-227.693603515625,21.280029296875,0.2218343168497085,0.1558368951082229,0.3775378167629242,13.01414394378662,-29.93442916870117,-136.98947143554688,-9.271512985229492,35.25349426269531,-44.58774566650391,-0.8656646013259888,0.1697436422109604,-0.0327244885265827,83.72083282470703,76.09492492675781,-17.904550552368164,229.704075726216,0.464790711068179,57.59198619934902,0.8827564772966846,70.70668888092041,106.02935409545898,119.08492088317873
4260.932000000001,-8.475683212280273,-202.653060913086,26.99762916564941,0.375759094953537,0.082649141550064,0.4190537929534912,13.06023406982422,-34.04823684692383,-137.43067932128906,-12.297612190246582,62.05869674682617,-34.420860290527344,-0.9431375861167908,0.2061281949281692,0.0183182321488857,88.41250610351562,76.885009765625,-12.883675575256348,204.6190907122885,0.5688865083898292,72.02297363089251,0.9655738691159846,75.3522720336914,110.93324661254884,124.54700374603271
4271.382,8.458996772766113,-190.9774932861328,29.51045799255371,0.3506876826286316,0.1258608549833297,0.4687192440032959,13.470260620117188,-37.90277862548828,-137.81512451171875,-3.36115837097168,85.40242004394531,-32.32148742675781,-0.9677312970161438,0.2026384770870208,-0.0564546324312686,96.06134796142578,77.481201171875,-5.044294834136963,193.42912060800683,0.5987658434343059,91.37586817336012,0.9903299153027968,82.5910873413086,115.38397979736328,132.7708296775818
4295.904,4.34345006942749,-171.75363159179688,28.232894897460938,0.3903838694095611,0.180368423461914,0.3915870785713196,13.816648483276367,-41.38141250610352,-138.18345642089844,8.12513256072998,105.25875091552734,-27.471961975097656,-0.793347954750061,0.1800169050693512,-0.1798494905233383,106.06392669677734,77.61260223388672,5.0156331062316895,174.11281365186014,0.5816122194223041,109.08772212392957,0.8331583898985577,92.24727821350098,118.99401473999023,143.19908952713013
4318.364,-7.171805381774902,-150.81187438964844,25.97176742553711,0.4810920655727386,0.1157031506299972,0.29334756731987,13.891327857971191,-44.44502258300781,-138.4915008544922,-5.509081840515137,95.6280517578125,-15.496532440185549,-0.819204568862915,0.1676626503467559,-0.1653351783752441,114.73329162597656,77.2122802734375,14.021042823791504,153.19983339599082,0.575230032139524,97.03203998365736,0.8523746894268663,100.84196376800536,121.65730285644533,152.5125436782837
4340.804,4.574490547180176,-127.77938842773438,24.302398681640625,0.5966066122055054,0.0526108220219612,0.3206405937671661,14.131670951843262,-47.04178237915039,-138.70042419433594,-2.351290702819824,78.78900146484375,-11.49295711517334,-0.9004153609275818,0.1709460169076919,-0.2193596959114074,121.32447814941406,76.65934753417969,20.81720924377441,130.15031560627682,0.6793509687139024,79.65753814327638,0.942384761698372,107.1928071975708,123.70112991333008,159.51763343811035
4350.835,13.355827331542969,-115.002685546875,21.25505828857422,0.6084154844284058,0.0548940077424049,0.3992038369178772,14.55884075164795,-49.41227340698242,-138.92507934570312,4.105990886688232,68.76838684082031,-17.00706672668457,-0.8064334988594055,0.2087113410234451,-0.1993043422698974,126.96642303466795,76.1169204711914,26.557315826416016,117.7105488456922,0.7297578072129342,70.95907629398917,0.8565148176196744,112.40758228302002,125.52919387817384,165.48239517211914
4374.193,4.672788143157959,-94.43587493896484,15.414703369140623,0.6635192632675171,0.1857627779245376,0.2597243785858154,14.872353553771973,-51.31698989868164,-139.2108917236328,2.9903364181518555,42.8143310546875,-19.9931755065918,-0.7926204800605774,0.2015414386987686,-0.1927539706230163,130.7517547607422,75.83794403076172,30.41470718383789,95.79969991851353,0.7363575050348151,47.34697585265067,0.8402501235436793,115.8794012069702,127.15493392944336,169.6255989074707
4398.341,-7.949076652526855,-69.55435943603516,11.439169883728027,0.7501260042190552,0.1344383358955383,0.198360189795494,14.887688636779783,-52.72008514404297,-139.43203735351562,-0.4898591339588165,27.46291732788086,-20.14956855773925,-0.7551071643829346,0.2142503708600998,-0.2464239299297332,133.46218872070312,75.71466064453125,33.24736404418945,70.93554358580549,0.7874702872234051,34.06547964130515,0.8226875496554816,118.57450008392334,128.43474578857422,172.67940139770508
4420.856,2.231715202331543,-44.42961883544922,5.479856967926025,0.792911171913147,0.1109070926904678,0.1755302250385284,15.097293853759766,-53.60679626464844,-139.63815307617188,-6.379228591918945,21.094465255737305,-16.040130615234375,-0.8978320360183716,0.2339393198490142,-0.2067813575267791,135.34791564941406,75.59893798828125,35.38499450683594,44.82187429142772,0.8196458806434694,27.257234122471846,0.9505727221485644,120.2506217956543,129.2057342529297,175.0231475830078
4440.98,6.8752546310424805,-13.798964500427246,2.204015254974365,0.7687535285949707,0.1956805884838104,0.2228491902351379,15.275193214416504,-53.88467025756836,-139.6883544921875,4.8711442947387695,3.573259353637696,-12.40351676940918,-0.977687656879425,0.2327988594770431,-0.1663810163736343,136.21961975097656,75.70417022705078,36.24081039428711,15.573638970063552,0.823974903759238,13.796501636195318,1.0187006950020776,120.94442653656006,129.58884048461914,175.9291648864746
4450.856,-2.867938041687012,15.881731033325195,-3.0989317893981934,0.8014794588088989,0.1871838569641113,0.1752204596996307,15.1857328414917,-53.56190872192383,-139.64845275878906,5.973678112030029,-6.846746444702148,-9.464292526245115,-0.9130467772483826,0.2124864608049392,-0.1749833822250366,136.4261016845703,75.91087341308594,36.41259765625,16.43343626455474,0.8414923224236311,13.12004573492514,0.9536372987273408,121.2403688430786,129.47278213500977,176.06105041503906
4474.101,4.92746639251709,45.38435363769531,-2.8936662673950195,0.8293017148971558,0.203538104891777,0.1482291519641876,15.044090270996094,-52.670528411865234,-139.34796142578125,1.124637007713318,-8.90307331085205,-10.38605785369873,-0.8563553690910339,0.1878499537706375,-0.2339613735675811,136.6272430419922,76.13189697265625,36.67568206787109,45.742680120734434,0.8666838962195627,13.725877768576462,0.9073974033599064,121.5831527709961,128.80242538452148,176.02364349365234
4493.161,12.475005149841309,72.42568969726562,-2.991102457046509,0.7726617455482483,0.1403223574161529,0.2572993636131286,14.889217376708984,-51.25577926635742,-138.8349609375,-6.3586201667785645,-0.6493313908576965,-9.478106498718262,-0.872020959854126,0.1970662474632263,-0.2302043139934539,137.060546875,76.2185287475586,37.32699966430664,73.55306231233153,0.8263773348417861,11.43189330257948,0.9231737033166324,122.17132949829102,127.47430801391602,176.16196060180664
4514.962,13.615801811218262,99.16036224365234,-5.914775371551514,0.7261854410171509,0.1486414819955825,0.2800382375717163,14.689820289611816,-49.30836868286133,-138.22178649902344,-1.356404423713684,-15.326997756958008,-8.813735008239746,-1.1456159353256226,0.1886926144361496,-0.065180554986,136.50759887695312,76.61106872558594,36.86319732666016,100.26540812738278,0.7923768039369843,17.732417150460247,1.1628797352964035,121.81777858734132,125.91943740844728,175.0849838256836
4534.532999999999,12.96589183807373,124.6728973388672,-6.376026153564453,0.694913923740387,0.1849856674671173,0.2708919048309326,14.390022277832031,-46.86310195922852,-137.470458984375,18.53550910949707,-68.4795913696289,-14.18931484222412,-1.0308904647827148,0.1511843800544738,-0.0700191557407379,133.3759765625,77.82550048828125,33.35097122192383,125.50736787748868,0.7684448468689515,72.34885063213765,1.0442674702024493,118.98595428466795,124.68860244750977,170.82143020629883
4550.814,17.30376434326172,148.41273498535156,-6.677846908569336,0.65104079246521,0.1849099099636078,0.254017025232315,14.12658405303955,-43.95392990112305,-136.61488342285156,3.500145435333252,-70.84920501708984,-5.451060771942139,-0.6760761737823486,0.1697415858507156,-0.2414704263210296,128.68902587890625,78.83113098144531,28.53947257995605,149.56722169517496,0.7228903356418266,71.14474634968853,0.737698560057532,114.5624418258667,122.78506088256836,165.15435600280762
4573.846,24.806793212890625,166.30596923828125,-7.28983211517334,0.586713969707489,0.10251384973526,0.3418426215648651,14.014558792114258,-40.69306564331055,-135.7125244140625,-19.736980438232425,-65.93649291992188,16.42685890197754,-0.8779256343841553,0.202184110879898,-0.1256185919046402,121.6819839477539,79.3067855834961,21.86914825439453,168.3038741267077,0.6867304781031663,70.76023734261747,0.909621825174188,107.66742515563963,119.99985122680664,157.58167266845703
4596.969,25.409570693969727,185.5050506591797,-11.213557243347168,0.4909865260124206,0.1914220303297042,0.3456061482429504,13.988182067871094,-37.046974182128906,-134.84860229492188,-18.059860229492188,-78.32109832763672,25.43545913696289,-1.07971453666687,0.15620918571949,0.0501136854290962,112.5867691040039,79.58020782470703,13.033288955688477,187.5726898270814,0.630201374264306,84.30489651416602,1.0921063006228773,98.5985870361328,116.62718200683594,147.88189125061035
4619.156,20.14082908630371,195.7530670166016,-12.195415496826172,0.3773641586303711,0.1609701514244079,0.573428750038147,13.909956932067873,-33.161190032958984,-133.9927520751953,9.313077926635742,-41.53721618652344,19.626850128173828,-0.827462375164032,0.1143321245908737,-0.108284555375576,108.0726318359375,79.5049819946289,8.293482780456543,197.16400381872447,0.7050784560874884,46.87522794555107,0.8423131020935448,94.16267490386964,112.66617202758788,142.28623485565186
4640.5380000000005,-0.7062317728996277,210.8921356201172,-19.34724807739257,0.4170345067977905,0.2841654121875763,0.2935739457607269,13.520333290100098,-28.9736270904541,-133.26417541503906,-18.86701393127441,-58.7786865234375,50.47313690185547,-0.9159029722213744,0.1128342077136039,-0.0538981892168521,100.54149627685548,78.84088897705078,1.0608882904052734,211.77891216525572,0.5838265350027642,79.73980030585028,0.9243997121133044,87.02116298675537,107.81451606750488,134.32506370544434
4650.561,12.412653923034668,233.2258758544922,-9.190919876098633,0.3562031090259552,0.0639123693108558,0.4150776267051697,13.317191123962402,-24.394874572753903,-132.258056640625,-9.22229290008545,-44.74702835083008,56.96030044555664,-1.1055134534835815,0.2211174219846725,0.050108928233385,95.15091705322266,77.83421325683594,-4.223907947540283,233.73672401588263,0.55068582878251,73.0193334632208,1.1285228463912644,81.83372592926025,102.22908782958984,128.03414869308472
4673.151,33.736656188964844,240.886947631836,-14.190760612487791,0.1767944544553756,0.0079674758017063,0.6971952319145203,13.649521827697754,-19.64530563354492,-131.34786987304688,28.230457305908203,-6.080199718475342,35.97506332397461,-1.0970474481582642,0.1611168682575225,0.1216644048690795,94.62925720214844,77.16189575195312,-5.285724639892578,243.6515158929988,0.7193058815282733,46.131688994456255,1.115470293714637,80.97973537445068,96.80720138549805,126.0621452331543
4695.66,30.518903732299805,246.7561187744141,-21.168216705322266,0.0303162094205617,0.3407583832740783,0.7475613355636597,14.01845359802246,-14.755267143249512,-130.53671264648438,35.700592041015625,-15.184019088745115,-11.666463851928713,-0.8624598979949951,0.1480478197336197,0.1102427244186401,93.88092803955078,77.4366455078125,-6.7731804847717285,249.53572697334863,0.8221212190151265,40.51164137102771,0.8819913213091498,79.86247444152832,92.191912651062,123.76353216171265
4718.101,-16.787473678588867,264.8323059082031,-24.887210845947266,0.0941468626260757,0.2145805656909942,0.5059640407562256,13.517011642456056,-9.500043869018556,-129.73956298828125,6.211546897888184,-32.5604248046875,-15.70181941986084,-0.944605827331543,0.2574166059494018,0.1221112608909607,90.97419738769533,77.78555297851562,-9.88250732421875,266.5283151728087,0.5575913032436641,36.678491127911634,0.986638048163357,77.45718574523926,87.28559684753418,119.8570556640625
4740.534000000001,17.858198165893555,273.6431884765625,-15.542407035827637,-0.0345010720193386,-0.1279325783252716,0.6730661988258362,13.759688377380373,-4.108158588409424,-128.76031494140625,-0.7175345420837402,24.07894897460937,11.245163917541504,-0.9852408170700072,0.2586621642112732,0.062652513384819,93.02452850341795,77.56049346923828,-7.763432502746582,274.6653896249383,0.6859848224044722,26.58503998630249,1.0205542221012416,79.2648401260376,81.6686520576477,120.99688243865968
4750.505999999999,60.870635986328125,259.22076416015625,-21.54546165466309,-0.3682335913181305,0.2009907066822052,1.09087336063385,14.951408386230469,1.0188544988632202,-127.89022064208984,12.187429428100586,10.80335807800293,-35.763511657714844,-0.9727555513381958,0.1149728670716285,0.0503306575119495,94.35135650634766,78.29463195800781,-6.661367893218994,267.141995603589,1.16875914152072,39.29726132846905,0.980818687580703,79.39994812011719,77.27577745914459,121.22885274887084
4774.849999999999,-5.666364669799805,260.4071960449219,-31.86197090148925,-0.4324104785919189,0.4395357966423034,0.8109082579612732,14.883268356323242,6.211001396179199,-127.15147399902344,-6.627233505249023,0.3837474584579468,-24.839513778686523,-0.8304504752159119,0.2285139858722686,0.1247334703803062,94.31995391845705,78.78530883789062,-6.567463397979736,262.41036684985767,1.0186965894494118,25.711260778237342,0.8703017132918215,79.43668556213379,72.57430744171143,120.5840106010437
4799.414,-25.325098037719727,272.0927429199219,-31.55871963500977,-0.3514829874038696,0.1023900732398033,0.6516011953353882,14.49824047088623,11.634082794189451,-126.38421630859376,-6.127889156341553,55.473419189453125,0.9626046419143676,-1.049542784690857,0.1372907608747482,-0.0079329097643494,99.66708374023438,78.66988372802734,-1.0084352493286133,275.08503071833616,0.7474009200522218,55.819153252067785,1.0585139304588933,85.16884326934814,67.03580093383789,125.37578105926514
4818.139999999999,30.628559112548828,262.6025390625,-31.989234924316406,-0.6706037521362305,-0.0496552884578704,1.0097720623016355,15.293517112731934,16.87270164489746,-125.6368179321289,20.926700592041016,67.26585388183594,5.1656036376953125,-1.1971378326416016,0.0258321166038513,-0.0674390271306037,106.42628479003906,78.30457305908203,5.423287868499756,266.3109335089828,1.213183686774564,70.63501509211422,1.1993141002132797,91.13276767730711,61.43187141418457,131.06010580062866
4841.818,46.69330596923828,256.82586669921875,-29.39617156982422,-0.8051696419715881,0.3032633662223816,1.0372703075408936,16.526803970336914,21.97045516967773,-124.74089813232422,31.885215759277344,54.12620162963867,-24.390012741088867,-0.9448835849761964,0.2410561144351959,0.0288597233593463,112.66041564941406,78.39779663085938,11.106070518493652,262.6859827457573,1.3476633528263524,67.38831804087742,0.97557466300455,96.13361167907716,56.42734146118164,135.84696865081787
4850.526000000001,-4.803681373596191,259.906005859375,-33.230308532714844,-0.7160525918006897,0.4330706298351288,0.7340330481529236,16.82321548461914,27.13738441467285,-123.79532623291016,-22.571168899536133,60.46271514892578,-4.353489398956299,-1.129166841506958,0.2940192222595215,0.0863865539431572,117.45403289794922,77.97351837158203,16.46971893310547,262.06575633167324,1.1131423989907816,64.68500953558213,1.1700118357175142,100.63081741333008,50.83613395690918,140.26504516601562
4880.857,1.9036171436309808,266.8236083984375,-31.51370429992676,-0.7605857253074646,0.161832109093666,0.7304388284683228,17.413753509521484,32.42227554321289,-122.69071197509766,-39.84873580932617,56.64109420776367,-1.0370930433273315,-1.3528625965118408,0.0438714697957038,0.1461889892816543,121.17864227294922,77.44441986083984,21.075485229492188,268.68489967933715,1.0668744814688194,69.26190049828803,1.3614452363169025,103.76488876342772,45.02214431762695,143.76619720458984
4900.436,52.482521057128906,274.99713134765625,-20.84545135498047,-0.8959100842475891,0.1177623867988586,0.9137706160545348,19.4016056060791,37.7726936340332,-121.04468536376952,-6.046583652496338,46.31521987915039,-26.17348289489746,-1.1179417371749878,0.0993573814630508,-0.0508970059454441,125.77783203125,77.42418670654297,25.94558525085449,280.7354094305614,1.2851068428600676,53.54168444464717,1.1235017232666955,106.3762264251709,39.651493072509766,146.99027061462402
4910.453,36.4343147277832,270.3353271484375,-19.995664596557617,-1.0550332069396973,0.3715210556983948,1.0406979322433472,21.41546630859375,42.99374771118164,-119.04183197021484,-28.95736122131348,32.306888580322266,-51.26249313354492,-0.7340653538703918,0.06662268191576,-0.0669943392276763,130.47024536132812,77.86211395263672,31.36528205871582,273.5113800133258,1.5278007555791724,67.15733035871607,0.740120778648367,109.05477905273438,34.86836624145508,150.40711402893066
4933.926,1.4071002006530762,265.7922668457031,-11.340880393981934,-1.1102101802825928,0.36553955078125,0.5267978310585022,23.28864288330078,47.99943923950195,-116.42586517333984,-18.61922836303711,11.674524307250977,-24.40654945373535,-0.9469448328018188,0.1563017815351486,-0.2372512221336364,132.62185668945312,78.03339385986328,33.95701217651367,266.0378255325034,1.2820693282332307,32.84280497876436,0.9886470076245768,109.33321380615234,30.033954620361328,150.38287734985352
4960.489,31.105043411254883,254.6739196777344,-4.661779880523682,-1.2171622514724731,0.2560863792896271,0.4514860212802887,26.38101577758789,52.661712646484375,-113.22708892822266,-0.8624795079231262,-2.346078872680664,-20.409412384033203,-1.073307752609253,0.1587405353784561,-0.3969157934188843,133.91802978515625,78.35498046875,35.324951171875,256.60877085807414,1.323217218554352,20.56190824899172,1.155305256825531,107.53701400756836,25.693267822265625,148.55204010009766
