Timestamp (ms),Wrist Gyroscope X (deg/s),Wrist Gyroscope Y (deg/s),Wrist Gyroscope Z (deg/s),Wrist Accelerometer X (g),Wrist Accelerometer Y (g),Wrist Accelerometer Z (g),Wrist Roll (deg),Wrist Pitch (deg),Wrist Yaw (deg),Arm Gyroscope X (deg/s),Arm Gyroscope Y (deg/s),Arm Gyroscope Z (deg/s),Arm Accelerometer X (g),Arm Accelerometer Y (g),Arm Accelerometer Z (g),Arm Roll (deg),Arm Pitch (deg),Arm Yaw (deg),Wrist Gyroscope Magnitude (deg/s),Wrist Accelerometer Magnitude (g),Arm Gyroscope Magnitude (deg/s),Arm Accelerometer Magnitude (g),Difference Roll (deg),Difference Pitch (deg),Difference Yaw (deg)
0.0,-8.889637,-52.759796,-16.911087,-0.940408,-0.35829,0.377422,-50.850285,63.73325,140.617981,-12.041625,-7.016838,-1.019089,-1.018299,-0.035136,0.039344,-29.989563,88.366249,96.870201,56.11244588747629,1.0747959325602232,13.974093550165962,1.0196643282144375,20.860722,24.632999,-43.74777999999999
19.984,-7.7718165,-55.197014,-16.859637999999997,-0.948198,-0.357202,0.3858375,-50.209492,63.2245315,141.39904,-11.5153005,-6.9914815,-0.982926,-1.0136085,-0.030644,0.0258955,-29.5220805,88.28992099999999,97.4290315,58.23537481391282,1.0842247425761182,13.507372160846774,1.0144021997849275,20.687411500000003,25.06538950000001,-43.9700085
39.968,-7.983072333333333,-57.999583,-17.096076333333333,-0.9464706666666666,-0.3519626666666666,0.397624,-49.55843000000001,62.681952333333335,142.207977,-10.701454333333333,-7.013204999999999,-0.9097123333333332,-1.0136663333333331,-0.0307193333333333,0.0324963333333333,-28.994969666666663,88.208064,98.03425866666667,60.991449384715246,1.0852600089211597,12.82707081721554,1.0146522184738966,20.56346033333333,25.52611166666667,-44.17371833333333
59.952,-11.5502735,-60.75001725,-17.82905575,-0.9421225,-0.36878225,0.4060877499999999,-48.995764,62.0947085,143.007553,-11.4595845,-7.30283275,-1.07559,-1.01603025,-0.0311755,0.0309445,-28.57057575,88.121113,98.5579205,64.35719573394033,1.0901845777763393,13.631226538181105,1.0169793226981374,20.42518825,26.0264045,-44.4496325
79.937,-12.4484448,-62.9766388,-18.4759678,-0.9388196,-0.3739507999999999,0.4109,-48.4536538,61.4802728,143.7953734,-11.6842268,-7.918867799999999,-1.0644948,-1.015415,-0.031415,0.030845,-28.0706174,88.02465839999999,99.1599686,66.80106435253072,1.0908988276484672,14.154955751500676,1.0163689972027876,20.3830364,26.5443856,-44.6354048
99.921,-12.7451134,-67.60942539999999,-19.372871,-0.9345958,-0.3771335999999999,0.4337693999999999,-47.3090966,60.2606622,145.375662,-11.475031,-8.8002132,-1.1655766,-1.0065988,-0.0258342,0.0359632,-26.9907484,87.82800160000001,100.4317276,71.47573328955544,1.0972032418850028,14.50788260315346,1.0075722811815142,20.318348200000003,27.5673394,-44.9439344
119.905,-11.8298968,-72.1075774,-20.7406022,-0.9274864,-0.3878473999999999,0.4495998,-46.1804002,58.9474572,146.93739,-12.0093166,-9.3362826,-1.2070564,-0.9999036,-0.0146219999999999,0.0410058,-25.836749399999995,87.624608,101.7903534,75.9580262804023,1.1012704518108891,15.25931987799192,1.0008508819052917,20.3436508,28.6771508,-45.14703659999999
139.889,-10.0334876,-76.440216,-22.566351,-0.9236016,-0.3972876,0.4573614,-45.07988279999999,57.5395882,148.449182,-13.0768538,-9.5694194,0.037784,-0.9931344,-0.0064535999999999,0.041178,-24.3093642,87.4321916,103.54662779999998,80.33067716010622,1.104561814859757,16.204299447687543,0.9940086584634562,20.770518600000003,29.8926034,-44.9025542
159.873,-5.5915862,-80.265193,-23.8995134,-0.9137056,-0.400699,0.4695226,-43.9530952,56.0504632,149.912039,-13.657117199999998,-8.849359,1.24781,-0.9870806,-0.0145783999999999,0.0472102,-22.6684916,87.2616486,105.4327972,83.9342229624845,1.1026645382813034,16.321306158562088,0.9883164693694828,21.2846036,31.2111854,-44.4792418
179.858,-1.0830392000000002,-83.90226279999999,-24.9381528,-0.903341,-0.4094772,0.4934466,-42.7977784,54.4810638,151.32657160000002,-13.2516514,-7.5468298,2.509904,-0.9867192,-0.0139059999999999,0.0561962,-20.8860742,87.12380519999999,107.4577926,87.53670168532251,1.1077843141389934,15.45511316511484,0.9884159900462356,21.911704200000003,32.6427414,-43.868779
199.841,2.1333868,-87.766519,-26.3324548,-0.8912701999999999,-0.421706,0.510073,-41.6559922,52.8235458,152.67696540000003,-14.050766200000002,-6.295930199999999,3.4316422,-0.992388,-0.011996,0.0555053999999999,-19.117405400000003,87.0195236,109.490384,91.65648570837648,1.110122959483786,15.77462950687449,0.9940114164279804,22.5385868,34.195977799999994,-43.1865814
219.826,2.407315,-91.4067092,-28.1873158,-0.8754854,-0.4314722,0.5286426,-40.5940774,51.0759224,153.95172119999998,-14.3627318,-5.304286200000001,4.3339432,-0.9919946,-0.0250735999999999,0.0583664,-17.4115662,86.9366912,111.4699708,95.68441056040174,1.1100026772583749,15.912466198269454,0.994026462673444,23.1825112,35.8607688,-42.4817504
239.81,2.6307073999999995,-94.6295592,-29.9201512,-0.8566708000000001,-0.4464938,0.5471467999999999,-39.616074600000005,49.2457734,155.147406,-13.398931,-4.118143,4.1910344,-0.9897471999999998,-0.038404,0.0630271999999999,-16.073218400000002,86.8692886,113.0664674,99.28186915868164,1.1102302435807267,14.630626201676854,0.9924952468720843,23.542856200000003,37.6235152,-42.0809386
259.794,3.114457,-97.7485748,-32.2520184,-0.8405244,-0.4565008,0.581433,-38.7141322,47.3266892,156.26036979999998,-11.568555800000002,-3.5105216,4.1371284,-0.9925272,-0.0184382,0.0671973999999999,-14.6347846,86.813472,114.7265994,102.97900955393764,1.119347390618748,12.77775710364956,0.9949702008230396,24.0793476,39.4867828,-41.5337704
279.778,1.5594831999999998,-101.2938858,-34.9960148,-0.819729,-0.4597552,0.6048203999999999,-37.926945,45.3118746,157.2929136,-11.149699,-3.1159778,3.7817036,-0.9909616,-0.012563,0.0700682,-13.335651,86.7609848,116.2398272,107.18024230331046,1.1176485107690164,12.178932118989202,0.9935151102498644,24.591294,41.4491102,-41.0530864
299.762,-1.117287,-104.26732339999998,-37.8397698,-0.8005228000000001,-0.4766524,0.6155307999999999,-37.2903772,43.21323099999999,158.23299219999998,-10.4419574,-2.100383,4.0267432,-0.9916758,-0.0211184,0.0741482,-12.135496,86.7259704,117.6419832,110.92687337952668,1.1166523315223231,11.386867167436792,0.9946682033157792,25.1548812,43.5127394,-40.591009
319.746,0.1492741999999999,-106.9509644,-40.0902574,-0.7776772000000001,-0.492394,0.637599,-36.7042648,41.0409798,159.1028042,-8.8222184,-1.0271448,4.2565686,-0.9970036,-0.0250714,0.0782262,-10.9598952,86.7105666,118.988823,114.21803626080737,1.1197170014949491,9.849108598445424,1.0003819729869985,25.7443696,45.6695868,-40.113981200000005
339.73,0.8275874,-109.4171678,-42.253898,-0.7495890000000001,-0.501129,0.6690776,-36.1682036,38.797786,159.9107542,-7.7382576,-0.1721422,4.2290366,-1.0028832,-0.011002,0.0795574,-9.702931,86.71225419999999,120.3955476,117.29532559515062,1.122799527245964,8.820148195190269,1.0060939999527876,26.4652726,47.9144682,-39.515206600000006
359.714,0.6395008000000001,-111.9102404,-43.9902756,-0.7182982,-0.5087298,0.6787408,-35.6961394,36.4948442,160.6664274,-8.1065692,0.7282506,4.204693000000001,-1.0030484,-0.021407,0.082282,-8.606860999999999,86.72817380000001,121.6505158,120.24747488002792,1.111506809298045,9.161127460909928,1.00664526021611,27.0892784,50.233329600000005,-39.0159116
379.699,0.4252306,-113.7408556,-45.8084436,-0.6859770000000001,-0.5309858000000001,0.6904068000000001,-35.2962744,34.1394974,161.3609892,-8.728876600000001,2.0537476,3.8013,-1.0070609999999998,-0.0276992,0.0792184,-7.7827921999999985,86.7713624,122.6489778,122.61964181458698,1.108680257701417,9.739663628305308,1.0105516603816944,27.5134822,52.631865000000005,-38.7120114
399.683,2.7260642000000006,-115.2869264,-47.3916558,-0.6466928,-0.5365748,0.716085,-34.89808420000001,31.736791600000004,162.0091888,-8.6619594,2.923735,3.4539412,-1.00914,-0.0192222,0.0806322,-7.0186042,86.8306886,123.5870256,124.67748739947886,1.104038867428081,9.77279268226492,1.012538682841145,27.87948,55.093897000000005,-38.42216319999999
419.667,2.7454552,-116.5850954,-49.1930794,-0.6092154,-0.5341058000000001,0.7364564,-34.544503799999994,29.292526599999995,162.6076142,-9.280927,4.0347604,2.5410904,-1.0090872,-0.0047494,0.08221,-6.4683312,86.91053939999999,124.3253222,126.5684836542534,1.0948883222921688,10.434176435431276,1.0124416121950934,28.0761726,57.61801280000001,-38.282292
439.651,2.0040778,-117.3223786,-51.1270278,-0.5713566,-0.5401360000000001,0.7433502,-34.2572472,26.8166992,163.1485566,-11.007610799999998,5.5411266,1.3749232,-1.0096336,-0.0104228,0.0851952,-6.4625018,87.0167756,124.5584658,127.9942569799605,1.082018845815358,12.40008037584444,1.013275314567487,27.7947454,60.2000764,-38.5900908
459.635,2.6247022,-117.4519286,-53.1885758,-0.536062,-0.5464589999999999,0.7525334,-34.0072426,24.3190268,163.62810380000002,-10.8371612,7.253354199999999,0.2174033999999999,-1.0091452,-0.0062588,0.0759404,-6.931401800000001,87.1627564,124.3195422,128.96072731312634,1.0734460511085595,13.042333927015312,1.012017861311074,27.0758408,62.8437296,-39.3085616
479.619,4.3049284,-117.248593,-55.0234252,-0.4964139999999999,-0.5365878,0.7632426,-33.759478,21.8078124,164.0535586,-10.8442902,9.2614104,-0.920231,-1.0026578000000002,-0.007698,0.0716454,-8.092505,87.35086820000001,123.3986224,129.58912874832043,1.0568313928719189,14.29052754912866,1.0052437447932716,25.666972999999995,65.5430558,-40.6549362
499.603,4.1262296,-116.8332992,-56.4202164,-0.4564747999999999,-0.5292704,0.7688672000000001,-33.54828260000001,19.2917172,164.431235,-10.5625016,12.0871204,-2.2025854,-1.0021856,-0.0104764,0.0630796,-10.2406214,87.60254979999999,121.5024676,129.80865299082134,1.0390636027631033,16.202354830653224,1.0042234650417603,23.3076612,68.3108326,-42.928767400000005
519.588,3.1602354000000004,-115.8490906,-57.472094000000006,-0.4177264,-0.5321832,0.7653625999999999,-33.3910728,16.785293799999998,164.76335479999997,-8.3933194,14.357766799999998,-2.8379894,-1.0061926,-0.0187576,0.0472394,-13.446329600000002,87.91434480000001,118.5296572,129.36011931571204,1.0215156450578522,16.871498506893538,1.0074755365590171,19.9447432,71.129051,-46.2336976
539.572,2.8770442000000003,-114.9567018,-58.2481476,-0.3731822,-0.525661,0.771385,-33.2594184,14.2856062,165.0618808,-6.488141000000001,15.449572999999996,-3.875922,-1.0066684,-0.0162654,0.0366205999999999,-18.0242874,88.25204919999999,114.1728426,128.90371356518114,1.0052956080391675,17.199071221094872,1.0074655821119054,15.235131,73.966443,-50.8890382
559.556,2.6383370000000004,-113.3935626,-58.6943764,-0.3309787999999999,-0.5169587999999999,0.766417,-33.1503654,11.8081894,165.3277804,-5.9086762,16.366276399999997,-5.9681998,-1.0087161999999998,-0.0086633999999999,0.0282028,-25.0983502,88.5869888,107.338019,127.71096539542155,0.9819309470812496,18.39529468343368,1.009147573236858,8.052015200000001,76.7787994,-57.9897614
579.54,3.6867092,-111.4829578,-58.8276346,-0.2821834,-0.5068266,0.7599954,-33.03497,9.3594988,165.56286640000002,-6.231358,16.7325444,-6.8460718,-1.0124738,-0.0095064,0.016437,-34.57388519999999,88.8895568,98.1191636,126.106035926886,0.9560824659642492,19.122671458582623,1.0126518366627295,-1.5389151999999997,79.530058,-67.44370280000001
599.524,4.7828206,-109.0612476,-58.3579598,-0.2367924,-0.5131332000000001,0.7592334000000001,-32.9169006,6.954199,165.77210399999998,-6.196330000000001,15.285443600000002,-7.8636342,-1.0095738,-0.0151484,0.012829,-45.3772848,89.08063339999998,87.54361279999999,123.78563152877923,0.9464732839946196,18.272275018428623,1.0097689413474749,-12.460384199999998,82.12643440000001,-78.2284912
619.508,6.2931402,-106.7533756,-57.398430000000005,-0.1898572,-0.5071812,0.7675745999999999,-32.7757226,4.5940622,165.9665222,-7.922762400000001,14.8638562,-8.954241399999999,-1.0022024,-0.0138188,0.0084358,-57.7587348,89.155284,75.3784966,121.36913356383668,0.9393877221842108,19.07571294160735,1.002333164432286,-24.9830122,84.5612218,-90.5880256
639.492,9.9553926,-104.2241504,-55.727034200000006,-0.1516966,-0.503973,0.7635143999999999,-32.5720904,2.2947394,166.154013,-8.4572426,15.5676964,-9.0854752,-0.9947648,-0.0224936,-0.006292,-71.23739079999999,89.12010039999998,62.06373900000001,118.60558886135983,0.927337523336525,19.910398871133715,0.9950389734196344,-38.6653004,86.825361,-104.090274
659.477,12.4246314,-101.9775134,-53.82850880000001,-0.1099244,-0.4941920000000001,0.7663697999999999,-32.323733,0.0521733999999998,166.3399872,-7.648619999999999,16.0265366,-7.8295748,-0.9925778,-0.0233346,-0.0134874,-84.1551666,88.99088739999999,49.22654300000001,115.97970970952083,0.9184942988017945,19.40756308361085,0.9929436552840044,-51.83143359999999,88.93871399999999,-117.1134442
679.461,12.024062,-99.6066118,-51.9256394,-0.0761088,-0.4949025999999999,0.7651604,-32.0927626,-2.1303178000000003,166.5232666,-6.360516199999999,16.3660672,-7.398875200000001,-0.9921102000000002,-0.034019,-0.0187402,-95.5592102,88.75772699999999,37.8251652,112.97047051488532,0.9144351101375974,19.05381001664899,0.9928701508259176,-63.4664476,90.8880448,-128.69810139999998
699.445,11.799865,-97.3696152,-50.4539552,-0.0368884,-0.4867134,0.7664389999999999,-31.8703828,-4.2618838000000006,166.69963380000002,-4.957238800000001,17.646418399999998,-6.9835446,-0.9860756,-0.0291796,-0.031474,-106.0007858,88.48848100000001,27.347703000000003,110.2981431101082,0.908669042344417,19.614795284383497,0.9870091948140708,-74.13040299999999,92.7503648,-139.3519308
719.429,11.2527438,-95.279988,-49.0130052,0.002304,-0.4814618,0.7655538,-31.664811,-6.3461436,166.8705232,-4.941941,19.317104800000003,-5.8147532,-0.9918092,-0.0273706,-0.039738,-115.4005904,88.1762512,17.909911799999996,107.73660025749749,0.9043690584986196,20.76980196050445,0.9929822493846504,-83.73577939999998,94.5223948,-148.96061139999998
739.413,7.900485999999999,-92.9913756,-47.704709,0.039201,-0.4789608,0.7643164,-31.5328568,-8.381146000000001,167.0342652,-4.6282702,19.863399200000003,-5.155096,-0.9967239999999998,-0.0335762,-0.0407779999999999,-123.0440216,87.8316162,10.2416848,104.811988225542,0.9028398117310734,21.03688493080629,0.9981227072191272,-91.5111648,96.2127622,-156.7925804
759.397,5.4804024,-90.6073516,-47.0455148,0.080105,-0.480064,0.760173,-31.4547814,-10.3755062,167.1817292,-4.9595086,20.7495334,-4.1630718,-0.9917914,-0.0445384,-0.0539496,-129.541838,87.45246879999999,3.7447506000000006,102.23995029942536,0.9026301817743522,21.7363987054697,0.9942557063093376,-98.0870566,97.827975,-163.4369786
779.381,5.785279,-88.31883380000001,-46.0957962,0.121049,-0.4800376,0.7659014,-31.3719362,-12.3270004,167.3193146,-2.038937,21.8465656,-2.6768274,-0.9827558,-0.0373369999999999,-0.0670501999999999,-135.33201119999998,87.063417,-2.0831932,99.79232577814687,0.9119725392448612,22.104187330333207,0.985747809189896,-103.960075,99.3904174,-169.4025078
799.365,6.729530800000001,-86.2855086,-45.0846984,0.1558502,-0.47574,0.7662892,-31.2720876,-14.2354178,167.4505798,-1.0399618,23.119698,-1.3969182,-0.9932104,-0.0370068,-0.0699122,-140.5924254,86.6595582,-7.3875686,97.5864007378476,0.9153234239746516,23.18519649720818,0.9963554173201647,-109.32033780000002,100.894976,-174.8381484
819.35,6.838768,-84.089215,-44.2849142,0.1916134,-0.4662430000000001,0.7571968,-31.1700432,-16.1025658,167.5696196,-0.2690782,23.5042756,-0.9676178,-0.9884526,-0.0396682,-0.0726062,-144.8569884,86.2358598,-11.6956212,95.28335873999934,0.9096401618435722,23.52572334202176,0.9919091535097556,-113.6869452,102.3384256,-179.26524080000002
839.334,8.5555482,-81.9865386,-43.5641736,0.231504,-0.4636132,0.7484234,-31.0374458,-17.9344894,167.67763359999998,1.0942078,23.9073586,0.0802119999999999,-0.9852194,-0.0328834,-0.0847675999999999,-148.70110459999998,85.80605940000001,-15.602002800000005,93.23533202634476,0.9103125215538892,23.93252013272983,0.9894059481030424,-117.6636588,103.7405488,-183.2796364
859.318,11.256738,-80.12035360000002,-42.0572034,0.270104,-0.4523638,0.7376434000000001,-30.853846999999995,-19.7283442,167.7884062,1.6069623999999998,24.845640000000003,0.3487588,-0.987992,-0.0435198,-0.0865208,-151.9097838,85.3499072,-18.875314,91.1854899050208,0.9064805369835582,24.89999574026453,0.9927275627727276,-121.0559368,105.0782514,-186.6637202
879.302,11.0605372,-78.4896774,-40.7220662,0.2982786,-0.4458415999999999,0.7506862,-30.6721468,-21.4779852,167.89839460000002,-0.8841436000000001,25.1731554,-0.355053,-0.9993196,-0.035637,-0.0873123999999999,-154.5339844,84.87896,-21.5069546,89.11370050169523,0.9226454499855076,25.19117951448045,1.0037594900706643,-123.8618376,106.3569452,-189.4053492
899.286,9.7162448,-76.977649,-39.8438596,0.3252084,-0.4428126,0.745686,-30.5205954,-23.192101800000003,168.00485220000002,-2.0611174,25.6659398,-0.7205474000000001,-0.9926458,-0.0390986,-0.101504,-156.7347474,84.3852908,-23.6869174,87.22096655280335,0.9262241158301376,25.758646301959534,0.9985877261390708,-126.214152,107.5773926,-191.6917696
919.27,9.615849,-75.84533859999999,-39.0490422,0.3591338,-0.4313466,0.7261056,-30.3746924,-24.8877626,168.1104308,-1.6475404000000005,24.8803684,-0.7617518,-0.9960372,-0.0392998,-0.110164,-158.5290834,83.90165420000001,-25.4648094,85.84758375211752,0.9177506840015756,24.9464904724924,1.002881191846711,-128.15439099999998,108.7894168,-193.5752402
939.254,9.057318,-74.29112719999999,-38.2687902,0.3935162,-0.4216376,0.7152413999999999,-30.239253,-26.5557996,168.21053139999998,-2.5089870000000003,23.342861,-0.8174225999999999,-0.9990974,-0.0415346,-0.1203973999999999,-159.9867738,83.441861,-26.8859154,84.05775926927458,0.9188054884850002,23.491537947492517,1.0071823427814253,-129.7475208,109.9976606,-195.0964468
959.239,6.9896954,-72.8930176,-37.6292456,0.4206738,-0.4260848,0.7353508,-30.1418566,-28.1864034,168.3033934,-2.3352168000000004,21.1268376,-0.6054822,-1.0042064,-0.0357016,-0.1235091999999999,-161.17461880000002,83.0275084,-28.038355000000003,82.32987295656304,0.9482908318960592,21.26412737862273,1.012402894369707,-131.0327622,111.2139118,-196.3417484
979.224,6.961028399999999,-71.791237,-37.124242200000005,0.4541148,-0.4209228,0.7085066,-30.0522174,-29.8008844,168.3952362,-2.2012718,19.3175354,-0.1603525999999999,-1.0032894,-0.0360186,-0.1323007999999999,-162.206769,82.6484418,-29.0365652,81.1211870308863,0.9409451936124866,19.44321178262622,1.0126156533349464,-132.15455160000002,112.4493262,-197.4318014
999.207,9.220641,-70.41325379999999,-36.3402724,0.4864621999999999,-0.4099268,0.6885668,-29.920338,-31.3913436,168.48604419999998,-3.1639622000000003,18.0796566,0.2708786000000001,-1.0041862,-0.032096,-0.1336336,-163.1593416,82.2980756,-29.9352084,79.77256376261388,0.9374485006918086,18.35641617508413,1.013547244352921,-133.2390036,113.6894192,-198.4212526
1019.191,12.1889484,-68.7600508,-35.4315826,0.5074962,-0.4134095999999999,0.6880605999999999,-29.7330174,-32.939545,168.574713,-4.3767602,17.844638,0.0764534000000001,-0.9978922,-0.0386964,-0.1460729999999999,-163.9962526,81.9449658,-30.693006,78.30652651380385,0.9496774608565582,18.373703500430164,1.0092688321368095,-134.2632352,114.8845108,-199.267719
1039.175,15.537383600000002,-67.75309580000001,-34.655709,0.5253347999999999,-0.4017518,0.6921036,-29.4728032,-34.457509800000004,168.65824579999995,-4.129303999999999,19.796434600000005,-0.2548301999999999,-0.9952032,-0.0386804,-0.152004,-164.78133859999997,81.5509976,-31.4038854,77.67181242838491,0.957281857149314,20.22411710872258,1.007487368978093,-135.3085354,116.0085074,-200.0621312
1059.159,17.086507599999997,-66.90064079999999,-34.4488494,0.5456721999999999,-0.3915267999999999,0.676678,-29.1765938,-35.9592492,168.72890619999998,-3.988531800000001,22.2388542,-0.2193179999999999,-0.9945448,-0.0343167999999999,-0.1629536,-165.58574520000002,81.1068174,-32.1375768,77.1645495444596,0.9533858089226416,22.594758738114304,1.0083902407908558,-136.40915139999998,117.0660666,-200.866483
1079.143,19.771722200000003,-65.97404780000001,-34.063653599999995,0.5644513999999999,-0.3824172,0.6623806,-28.8234908,-37.4416306,168.7891052,-3.2821738000000003,25.4054764,-0.2261375999999998,-0.9936974,-0.0335909999999999,-0.174062,-166.3960082,80.598123,-32.8920938,76.8363747091926,0.9505768549013592,25.617611796935662,1.0093861787699296,-137.57251739999998,118.0397536,-201.681199
1099.128,21.7094998,-64.97973640000001,-33.4916492,0.5894484,-0.3633028,0.6475725999999999,-28.4231368,-38.907003,168.8370668,-1.6763338000000003,27.8945016,0.0426840000000001,-0.9833478,-0.0415348,-0.189015,-167.16476120000002,80.0351942,-33.638677,76.25850175761092,0.9480446260705032,27.94485885534728,1.0022099109472429,-138.7416244,118.9421972,-202.4757438
1119.112,23.2615678,-64.064496,-32.98193500000001,0.6108528,-0.3521733999999999,0.6408126000000001,-27.9841062,-40.351483,168.8725894,0.8372931999999997,30.8745702,1.1483098000000005,-0.989744,-0.0450396,-0.1962874,-167.9813382,79.419467,-34.4867654,75.71768763368463,0.952789607024636,30.90726064105764,1.0100249969693424,-139.997232,119.77095,-203.3593548
1159.08,22.565002600000003,-63.6429232,-32.5372772,0.6349206,-0.3391992,0.6334924,-27.45026,-42.0608702,168.89601779999998,1.8648384,33.736891199999995,1.1803128,-0.9954676,-0.0357834,-0.207199,-168.78013900000002,78.7482588,-35.337991599999995,74.95515608261212,0.9589019170085956,33.80900158840239,1.0174318748527194,-141.329879,120.809129,-204.2340094
1179.07,25.489866400000004,-63.2295832,-31.391832,0.658054,-0.3173416,0.601525,-26.863233,-43.76152020000001,168.9250888,2.3400241999999998,36.0516532,0.3395308000000002,-0.9828938,-0.0378114,-0.2152482,-169.51896359999998,77.8835768,-36.1609956,75.05438426269178,0.94634723206208,36.12911143210976,1.0068970710314138,-142.65573060000003,121.645097,-205.0860844
1199.048,26.9936326,-62.65666980000001,-30.3354652,0.6794659999999999,-0.3028126,0.583658,-26.248918000000003,-45.4445974,168.9557436,2.3120872,37.341851,0.2012486000000001,-0.9786358,-0.0479928,-0.2252052,-170.1607942,76.9938398,-36.8870972,74.66428142204563,0.9455295748091436,37.41390228679183,1.0053599952258494,-143.9118762,122.4384372,-205.84284080000003
1219.032,27.502442,-62.567161,-29.4422272,0.6970498,-0.2818424,0.581975,-25.616197,-47.11368,168.980182,1.2034922,38.9065558,-0.3905267999999998,-0.977816,-0.0388417999999999,-0.2382353999999999,-170.747696,76.072595,-37.5346314,74.416924782335,0.9507935962882798,38.92712407660618,1.0071687649527263,-145.13149900000002,123.186275,-206.5148134
1239.016,26.4790944,-62.316891,-28.6009396,0.7172986,-0.2606446,0.5710354,-24.9959338,-48.7710074,168.9975618,-0.8483122000000003,39.8445708,-1.1209228,-0.9700514,-0.0235518,-0.2560558,-171.2885348,75.1292646,-38.0928826,73.50204820379389,0.9531706652663416,39.86936071406765,1.003553176786781,-146.29260100000002,123.900272,-207.0904444
1259.0,26.9640212,-61.3108844,-28.1295432,0.7368698,-0.2477007999999999,0.5532422,-24.4513048,-50.131578000000005,168.994281,-3.334789600000001,39.703211,-1.2430274,-0.9595472,-0.0342816,-0.2721508,-171.7870242,74.18607159999999,-38.5593872,72.64540030741712,0.9541539290562712,39.86239960795059,0.9979840254568408,-147.3357194,124.3176496,-207.5536682
1278.985,26.9254312,-60.1736148,-27.1669814,0.7514526,-0.2428178,0.5471478,-23.9067984,-51.4593154,168.9879212,-5.5622974,40.356938,-0.9165281999999998,-0.9605278,-0.0470824,-0.2934955999999999,-172.2129336,73.3715848,-38.8873466,71.30138597385508,0.960735244012855,40.74876220259072,1.0054700762240316,-148.30613519999997,124.8309002,-207.8752678
1298.969,27.1739492,-59.781347200000006,-25.7939174,0.7688322000000001,-0.22656,0.538053,-23.366395,-52.76956700000001,168.9948762,-6.4694756,41.068138600000005,-1.1891576,-0.9471942,-0.0452295999999999,-0.3094424,-172.617972,72.539456,-39.1754584,70.55181899149838,0.965366985226779,41.59158831308854,0.9974854225238382,-149.251577,125.309023,-208.1703346
1318.953,26.8478742,-59.1932552,-24.6522304,0.7809674,-0.221378,0.5180032,-22.8478746,-54.0614448,169.0161806,-6.2983194000000005,41.0934712,-1.0805231999999998,-0.947941,-0.0481338,-0.3211376,-172.9875156,71.70848679999999,-39.4317746,69.51533840762077,0.9629359345029138,41.587374681691365,1.0020171457201716,-150.13964099999998,125.7699316,-208.4479552
1338.937,27.1666362,-58.9774966,-23.3231472,0.795968,-0.2073922,0.496233,-22.3404008,-55.3441404,169.05794999999998,-6.3800516,40.8446646,-1.9567958,-0.9422518,-0.0537621999999999,-0.3272339999999999,-173.2674898,70.88363039999999,-39.594077,68.99522029053193,0.9606371697648598,41.38623846773289,0.9989048600883268,-150.92708899999997,126.2277708,-208.652027
1358.921,27.720302200000003,-58.8654138,-21.3984498,0.817861,-0.1939766,0.4632096,-21.8613264,-56.6218618,169.1458162,-6.089233,39.389807000000005,-2.6732808,-0.940499,-0.0512734,-0.335233,-173.4812288,70.0897644,-39.6925488,68.49412930863254,0.9597326034894929,39.94724125970637,0.9997742219309116,-151.6199024,126.7116262,-208.838365
1378.906,27.3229196,-58.2588974,-19.8896478,0.8393231999999999,-0.1724982,0.435095,-21.4084094,-57.8886878,169.25668960000002,-5.4594014,36.2300174,-3.5689936,-0.932184,-0.0376967999999999,-0.3433964,-173.62730720000002,69.3593248,-39.7301924,67.35160837975465,0.9610029771475632,36.81245631260519,0.9941373879495732,-152.2188978,127.2480126,-208.986882
1398.889,25.907138600000003,-56.318853,-18.8105088,0.860835,-0.1583196,0.4063062,-20.9847886,-59.1219864,169.36692520000005,-4.751159200000001,30.5885168,-3.3296673999999995,-0.9335034,-0.0345539999999999,-0.3519114,-173.73753960000002,68.7444536,-39.7444388,64.78293197278198,0.9649801661835335,31.133865143317003,0.9982305395936952,-152.752751,127.86644,-209.111364
1418.874,25.5973092,-53.8578712,-17.0069768,0.8825212,-0.1525462,0.3864396,-20.5926878,-60.301668600000006,169.5030426,-4.690248800000001,21.4298318,-3.9070128,-0.9310146,-0.0379734,-0.3615617999999999,-173.75740340000002,68.3102526,-39.6638694,62.00911052701798,0.9754227678458404,22.28229956269228,0.9994784138439208,-153.1647156,128.6119212,-209.166912
1438.858,26.3569684,-50.2765618,-15.1060702,0.9090308,-0.1482588,0.3626783999999999,-20.2047874,-61.40886020000001,169.6576384,-4.8515174000000005,11.9432568,-4.1114684,-0.931724,-0.0469428,-0.3705094,-173.7066374,68.062996,-39.5054886,58.74194248197063,0.9898753906187586,13.530808419213075,1.0037880523976166,-153.50185,129.4718562,-209.163127
1458.842,26.7797104,-45.5293924,-13.052741800000002,0.9294176,-0.1438902,0.3472318,-19.8166674,-62.4154086,169.81926879999995,-5.1969294,0.8977809999999998,-4.378340199999999,-0.9426644,-0.0564057999999999,-0.376345,-173.5764218,68.0351258,-39.255877,54.41004070866437,1.0025424618324354,6.854483847780327,1.0165792366195563,-153.75975440000002,130.45053439999998,-209.07514580000003
1478.826,22.2325422,-40.3228862,-11.4768738,0.9507754,-0.1381096,0.325573,-19.500812,-63.3059184,169.9592346,-5.319527,-11.528891000000002,-4.678875199999999,-0.960518,-0.0610002,-0.3765062,-173.35286539999998,68.2559524,-38.904422,47.45460690379869,1.014418996857965,13.53161366322528,1.0334760623074346,-153.8520534,131.5618708,-208.8636566
1498.81,14.326792,-33.7251872,-10.1934488,0.9575978,-0.13208,0.3090564,-19.29965,-64.059186,170.05,-4.8582996000000005,-20.1382814,-5.127843799999999,-0.9637842,-0.057995,-0.3731954,-173.0467376,68.646373,-38.4737282,38.03355911723921,1.0148667554638884,21.34123320677942,1.0351416380263136,-153.7470876,132.705559,-208.5237282
1518.794,7.096651799999999,-26.1205294,-9.5914682,0.9435262,-0.1313446,0.3035424,-19.1621198,-64.65761660000001,170.05012820000002,-3.5912314000000003,-22.668421200000004,-4.3622656,-0.9540132,-0.0534104,-0.37192,-172.7430176,69.0833632,-38.071885,28.71655942375964,0.9998155243010384,23.36201240976254,1.0253381603170733,-153.5808978,133.74097980000002,-208.12201320000003
1538.778,0.6038737999999995,-18.4036774,-8.987284200000001,0.9238342,-0.1259088,0.3030871999999999,-19.0631126,-65.0980332,169.9504732,-2.1880412,-23.5218836,-3.2217544,-0.940723,-0.0519169999999999,-0.3683055999999999,-172.4612366,69.534346,-37.72369,20.48978483784461,0.9804001763621424,23.842110514775445,1.0115849705335482,-153.398124,134.6323792,-207.6741632
1558.763,-7.3982484,-11.3132526,-8.169588399999999,0.8980884,-0.1244002,0.3076692,-19.0546254,-65.38799739999999,169.7748354,-0.0775168000000002,-20.953369,-2.0717403999999995,-0.9138664,-0.0544728,-0.3663657999999999,-172.19980479999998,69.9272888,-37.443665200000005,15.794490761177578,0.9574437427876584,21.055683071072178,0.9860745318678704,-153.14517940000002,135.3152862,-207.21850060000003
1578.747,-12.09449,-4.635373400000001,-6.238816999999999,0.8733869999999999,-0.1259376,0.3294962,-19.1229884,-65.534796,169.58083200000002,1.2816115999999995,-15.761331200000004,-0.7060383999999996,-0.8886268000000002,-0.0630274,-0.3662569999999999,-171.9979188,70.21089479999999,-37.2585266,14.37658556393056,0.9419303990620536,15.829105461510537,0.9632103783068372,-152.8749304,135.7456908,-206.83935860000005
1598.731,-12.0503076,0.1314492000000001,-3.108675,0.8548424000000001,-0.133035,0.3565736,-19.2452742,-65.5575758,169.4481782,0.8288471999999999,-11.214260200000002,-0.1511955999999996,-0.8795014,-0.0686891999999999,-0.3644706,-171.8560212,70.4017394,-37.1289658,12.44552338804694,0.935734242335782,11.24586500113314,0.9545049696376442,-152.610747,135.9593152,-206.577144
1618.715,-11.023334000000002,3.8772344,0.7672578000000001,0.8682488000000002,-0.1201146,0.3515659999999999,-19.4347602,-65.49209579999999,169.41516439999998,-0.6905004000000006,-9.0973402,-0.0384635999999996,-0.8890334,-0.0756962,-0.350981,-171.7507538,70.55802000000001,-37.0078796,11.7104877609671,0.9443951229176272,9.123588601283004,0.9588002729301864,-152.3159936,136.0501158,-206.423044
1638.699,-11.4423092,6.2292402,5.0203184,0.8798334000000001,-0.1132872,0.3544176,-19.758894,-65.3569182,169.5234528,-2.0589258000000004,-8.808333600000001,0.1188492000000003,-0.8974056000000001,-0.0694036,-0.3403332,-171.6918672,70.7156096,-36.9059532,13.961857689257515,0.9552762096007416,9.046548589994709,0.96227873177503,-151.93297320000002,136.07252780000002,-206.42940600000003
1658.683,-12.0734704,8.182695200000001,9.0409966,0.8903032,-0.1063626,0.3541704,-20.214894,-65.162564,169.7655364,-4.2480222,-10.230398400000002,0.8714480000000003,-0.9111556,-0.0581584,-0.3227512,-171.723517,70.9152816,-36.8517914,17.15997691598071,0.9640484753606324,11.1115330018463,0.9683776453447076,-151.508623,136.0778456,-206.6173278
1678.667,-10.0843944,9.9799938,12.5182204,0.8992218,-0.109351,0.3505134,-20.738739,-64.9149002,170.1264222,-7.072029000000001,-12.745846,1.2119954000000004,-0.9269228,-0.0465731999999999,-0.3125082,-171.8278382,71.1733932,-36.8130066,18.92091775379212,0.9712966232700492,14.626657761846284,0.9792937839000716,-151.08909920000002,136.08829340000003,-206.9394288
1698.651,-7.739865400000001,12.0278804,15.5756906,0.9099524,-0.106903,0.3398099999999999,-21.2922164,-64.6167168,170.5733062,-9.281391,-16.871388000000003,1.7485200000000003,-0.9349448,-0.0466703999999999,-0.3050188,-171.97027899999998,71.5178176,-36.7684692,21.1465732683513,0.977196222759155,19.33507884989935,0.9845488172948256,-150.6780626,136.13453440000004,-207.3417754
1718.636,-7.7889468,14.248738,18.502277,0.9103258,-0.1195773999999999,0.3313028,-21.9273574,-64.25878300000001,171.1076078,-10.1588396,-21.660515600000004,2.3422976000000006,-0.9404468,-0.0513902,-0.3020928,-172.11582040000002,71.9574446,-36.7100396,24.61764572477643,0.9760908574637096,24.03885014145513,0.9891113163330606,-150.188463,136.2162276,-207.8176474
1738.62,-8.1739914,17.686838400000003,21.193268600000003,0.8999354,-0.1415994,0.3360652,-22.619218,-63.808812,171.69415880000005,-10.728068,-24.345026,2.1917186,-0.9552724,-0.0510928,-0.2988309999999999,-172.23878180000003,72.4496412,-36.6164406,28.78876555093557,0.9710169580931942,26.694107296834,1.0022254232330172,-149.61956379999998,136.25845320000002,-208.3105994
1758.604,-5.2267022,21.3952738,23.893912,0.8918556000000001,-0.1538228,0.3366954,-23.2808792,-63.2669342,172.3131042,-10.761549,-25.8918466,1.1441804000000004,-0.9531896,-0.0504952,-0.2944415999999999,-172.279358,72.9669844,-36.4361526,32.49607957166826,0.9656250087028402,28.062569483656997,0.9989074204258168,-148.99847880000002,136.2339186,-208.7492568
1778.588,-4.3458526,25.216739800000003,26.3464118,0.8798016000000001,-0.1609504,0.3373453999999999,-23.9305026,-62.6336716,172.9406004,-9.309427,-27.698916200000003,0.7687674000000004,-0.9472894,-0.051941,-0.2861097999999999,-172.2386324,73.5173444,-36.2021972,36.72742593344938,0.9559067975089832,29.23159922136068,0.9909156838446952,-148.30812980000002,136.151016,-209.1427976
1798.572,-6.232737,29.2703854,28.246215,0.8684618000000001,-0.17835,0.3407494,-24.6041466,-61.906333200000006,173.5529784,-6.908485000000001,-28.591778999999995,0.5876816000000004,-0.9509838,-0.0516742,-0.2757393999999999,-172.1178194,74.085748,-35.935414800000004,41.15156295697561,0.9498130206306924,29.420441210883368,0.9915001903784184,-147.51367280000002,135.99208119999997,-209.4883932
1818.556,-6.4049256,33.492368,29.6716344,0.8551408,-0.1959326,0.3540926,-25.238715000000003,-61.0809882,174.1189208,-4.823684200000001,-27.9555424,0.4615948000000003,-0.951384,-0.045166,-0.2659749999999999,-171.95494100000002,74.641522,-35.667576399999994,45.20141230267283,0.9460639201143652,28.372404725347383,0.9888954361493434,-146.716226,135.72251020000002,-209.78649720000004
1838.54,-5.744082000000001,37.4256862,30.5723298,0.8499310000000001,-0.2003035999999999,0.3599313999999999,-25.7943172,-60.17782580000001,174.6144866,-2.5415938000000007,-28.6790986,0.4354048000000003,-0.9452352,-0.0463534,-0.255569,-171.71706559999998,75.2107084,-35.370272799999995,48.665632791155225,0.9444865534457968,28.79479072493119,0.9802722758354436,-145.9227484,135.3885342,-209.9847594
1858.525,-7.558293600000001,40.9646446,30.9789774,0.8368566000000002,-0.218748,0.3854962,-26.318355200000003,-59.1946502,175.0351408,-0.4386448000000006,-29.6621814,0.0339268000000003,-0.9543432,-0.0501892,-0.2457798,-171.18800059999998,75.917326,-34.832531,51.91268583013039,0.9469883719888014,29.665443965914807,0.98676117134336,-144.8696454,135.11197620000002,-209.8676718
1898.493,-10.8783802,44.5075616,31.3429784,0.8268738000000001,-0.2327592,0.3987181999999999,-26.9586156,-57.9256118,175.4323484,1.6195603999999992,-29.2813378,-0.0173709999999997,-0.9604362,-0.0507985999999999,-0.2340625999999999,-170.5725526,76.6158154,-34.249363,55.51256155444832,0.9470339641862482,29.326097950436537,0.9898502375365478,-143.613937,134.5414272,-209.6817114
1918.477,-12.0538324,47.9816934,31.7681084,0.809891,-0.2455872,0.4271964,-27.545135200000004,-56.5810462,175.7447844,3.2202615999999997,-28.569793,-0.6972399999999996,-0.9647268,-0.0473863999999999,-0.2220548,-169.8328004,77.297328,-33.571961,58.79413651354226,0.9480154370356002,28.75916028768718,0.9910860728242727,-142.2876652,133.8783742,-209.3167454
1938.461,-14.695187,50.7211892,32.2158114,0.7928948,-0.2557952,0.444561,-28.1239392,-55.1799804,175.989865,3.9115374,-28.0422032,-2.47984,-0.968157,-0.0503936,-0.2117768,-168.8600708,77.9592086,-32.671115,61.85827397355616,0.944324007388926,28.42208457462769,0.9923290304068506,-140.7361316,133.139189,-208.66098
1958.445,-19.1931428,52.9291238,32.954941000000005,0.7779714,-0.2666698,0.4436808,-28.7584878,-53.7367942,176.1947814,5.1367274,-27.6234818,-3.8847592,-0.9685148,-0.0557156,-0.2048811999999999,-167.64708860000002,78.6009918,-31.5511106,65.23723639985373,0.9344543508051316,28.364309777937954,0.9915147260710956,-138.8886008,132.337786,-207.745892
1978.429,-23.7244054,56.0845764,33.82525,0.7607528,-0.2799396,0.4621652,-29.4350648,-52.227175,176.34278260000002,7.500633599999999,-25.8194608,-4.1059664,-0.968434,-0.0552396,-0.203779,-166.4800232,79.07760320000001,-30.5140356,69.65970613714565,0.9331171815195776,27.198584898522103,0.9911819745158604,-137.04495839999998,131.30477820000002,-206.8568182
1998.413,-23.6235528,59.1984184,35.1470274,0.7422884,-0.2956328,0.4827684,-29.955571400000004,-50.8606382,176.39513259999998,9.2022134,-23.659387200000005,-4.6152736,-0.9760686,-0.0558522,-0.195563,-165.20908500000002,79.50739139999999,-29.4063054,72.7862522940438,0.93351815689303,25.802094576633127,0.9970327312178872,-135.2535136,130.3680296,-205.801438
2018.398,-23.815515,62.4532608,36.781079,0.7291224,-0.3005144,0.4692134,-30.463395400000003,-49.434577,176.4234712,11.128654,-21.1879526,-5.1712754,-0.9766624,-0.0616126,-0.1959448,-163.8228484,79.8772126,-28.2212834,76.29178403781289,0.9176543976512508,24.4850641104778,0.9980280159893108,-133.35945299999997,129.3117896,-204.6447546
2038.382,-24.5131286,66.53515540000001,38.5119942,0.7070272000000001,-0.3155854,0.4880652,-30.954335800000003,-47.915206,176.41181039999998,14.591206199999998,-18.609328800000004,-4.7508992,-0.978742,-0.0672544,-0.1833156,-162.3907378,80.1970382,-27.0614524,80.69073103599398,0.9152536510083094,24.120146350426413,0.9980298923813452,-131.436402,128.11224420000002,-203.4732628
2058.366,-21.6651236,70.69366520000001,40.7561266,0.6800336,-0.3396962,0.5143808,-31.370919800000003,-46.289733,176.37542119999998,16.575228,-14.4522022,-4.6980868000000005,-0.989773,-0.0615136,-0.1803808,-161.0293792,80.433165,-26.0138526,84.42768346607762,0.9178381190776728,22.487248636994323,1.0079542388038258,-129.6584594,126.722898,-202.3892738
2078.35,-16.2094206,74.4853378,43.4937922,0.6564862,-0.3389964,0.5125804,-31.674652400000003,-44.5786628,176.33455199999997,18.1488318,-11.526212400000002,-4.631557,-0.9922172,-0.0596038,-0.1778542,-159.7215788,80.60990139999998,-25.052581600000003,87.76400642236311,0.8992393210194715,21.99283947649448,1.0097919099536894,-128.04692640000002,125.1885642,-201.38713360000003
2098.334,-15.575105400000002,78.797641,45.6179682,0.6278764000000001,-0.3462632,0.5226588000000001,-31.9502746,-42.7721038,176.2701202,20.7814828,-9.812314600000002,-4.3892804,-0.9920112,-0.0731222,-0.1735486,-158.3785184,80.7505006,-24.110124000000003,92.37235061468448,0.887298821462443,23.396951245961368,1.0097287723048405,-126.4282438,123.5226044,-200.3802442
2118.318,-16.641459599999997,82.6856934,48.1731348,0.5949006,-0.3660442,0.5439268,-32.2425028,-40.8613784,176.1965148,22.4609434,-9.4138102,-3.2226304,-0.9973824,-0.076342,-0.1533184,-157.078549,80.8976898,-23.2464006,97.13142121433314,0.8852973760224526,24.56621964394668,1.0119813657238557,-124.8360462,121.7590682,-199.4429154
2138.302,-15.2377738,85.85430160000001,50.9797326,0.5573156,-0.3850708,0.5613496,-32.515735600000006,-38.858519,176.130902,22.505051,-7.871544600000002,-2.1933262,-0.9941106,-0.0617876,-0.1604142,-156.0131408,81.02019659999999,-22.6201586,101.0053661424542,0.8797690449408639,23.94262338846762,1.0088638699585588,-123.49740519999996,119.8787156,-198.7510606
2158.287,-13.5846098,89.4332964,53.5684212,0.5264751999999999,-0.3727883999999999,0.565852,-32.7435622,-36.774875,176.05459580000002,23.5431118,-7.858224000000002,-1.0619499999999995,-0.9975424,-0.0598379999999999,-0.1467061999999999,-155.038687,81.156305,-22.1076244,105.13054683701174,0.8581001184556496,24.842655563847742,1.010046600489403,-122.29512479999998,117.93118,-198.1622202
2178.271,-15.838518,93.468976,55.5086814,0.4850622,-0.3951482,0.597179,-33.0094208,-34.598943799999994,175.958148,22.9590082,-9.394935200000004,0.1376414000000003,-0.9983506,-0.058556,-0.1289384,-154.08804,81.3370682,-21.607941800000003,109.85682426545748,0.8648989512498441,24.807253175127236,1.0083441062707317,-121.0786192,115.93601199999998,-197.5660898
2198.255,-15.6546984,97.0182024,57.734857,0.4494212,-0.4095302,0.5909846,-33.2741586,-32.338494600000004,175.8531096,21.5431772,-9.805714000000002,1.1123140000000002,-0.9945084000000002,-0.036335,-0.1216176,-153.3007568,81.5398162,-21.243776,113.97769471143368,0.8479134373027946,23.69594381650564,1.0025756981521747,-120.0265982,113.8783108,-197.0968856
2218.239,-13.6191666,100.657274,59.7252966,0.4125566,-0.4144415999999999,0.609244,-33.49251339999999,-29.9942602,175.7302702,20.9609228,-9.190187000000002,1.6686172000000004,-0.9915882,-0.0392232,-0.1194012,-152.5865264,81.7336684,-20.9422024,117.83242152288818,0.8444779686588159,22.947856219757536,0.9995210174673268,-119.094013,111.7279286,-196.6724726
2238.223,-10.3717646,104.4416474,61.24639420000001,0.3789811999999999,-0.4153775999999999,0.6308598000000001,-33.6279122,-27.5698868,175.57756940000002,21.2365652,-11.447908000000002,2.646427,-0.9964002,-0.0493471999999999,-0.106048,-151.76341240000002,81.9794494,-20.5369664,121.51852539858083,0.8450735990381193,24.27034970775337,1.0032420859453015,-118.1355002,109.5493362,-196.11453580000003
2258.207,-11.07324,108.3508362,62.450493400000006,0.3367432,-0.4385802,0.6391832,-33.7800936,-25.0582324,175.3999022,20.0798612,-12.8282596,3.785475,-0.9955214,-0.0408884,-0.0909512,-150.99498599999998,82.26753679999999,-20.1636864,125.54913171838454,0.8451649174809138,24.12664276586949,1.0005032932949096,-117.21489239999998,107.3257692,-195.5635886
2278.191,-11.8494794,111.8745072,63.77729320000001,0.3034595999999999,-0.4404448,0.6426272,-33.94317100000001,-22.4668818,175.1989044,18.5647494,-13.3882966,4.173561,-0.9974798,-0.0474761999999999,-0.0756971999999999,-150.1494356,82.5710372,-19.6829072,129.32075877914048,0.8360915433485977,23.266177544992065,1.0014739173150342,-116.20626459999998,105.03791900000002,-194.8818116
2298.175,-9.9176166,114.7600678,65.1551886,0.2629232,-0.4553777999999999,0.6844534,-34.0679802,-19.804956,174.9831176,16.8444972,-16.092797800000003,4.644258,-0.9948766,-0.0539675999999999,-0.0616132,-149.05845960000002,82.9275832,-18.9200004,132.33831977921875,0.8631187673794609,23.754670263404137,0.9982425243855124,-114.9904794,102.7325392,-193.903118
2318.159,-7.086918399999999,117.62787640000002,65.576918,0.2133926,-0.4760136,0.7029918000000001,-34.1364616,-17.080565,174.7384156,14.925428399999998,-18.6736556,5.9407446,-0.996055,-0.0283885999999999,-0.0602287999999999,-147.9940584,83.346997,-18.1433692,134.8587182690117,0.8753986634596606,24.63262618547537,0.9982780093663288,-113.8575968,100.427562,-192.8817848
2338.144,-9.2885422,120.7384202,65.4464066,0.1716331999999999,-0.4707838,0.68953,-34.2514252,-14.3083874,174.45544439999998,11.809795599999998,-22.043402000000004,6.5004116,-1.0039365999999998,-0.025338,-0.0392014,-146.5184206,83.83507519999999,-16.8885436,137.64910194202312,0.8523772419443635,25.838695687220707,1.005021124566802,-112.2669954,98.1434626,-191.343988
2358.128,-11.2291356,123.1001588,65.09628160000001,0.1223626,-0.4996926,0.7724522,-34.4025954,-11.4973294,174.133191,7.513303599999999,-25.6832314,6.8140162,-0.9906588,-0.0602332,-0.0411365999999999,-144.3747286,84.366162,-14.873434800000002,139.7042177640135,0.9280881971334192,27.61356411087821,0.9933403828795244,-109.9721332,95.8634914,-189.0066258
2378.112,-5.1004622,123.255687,65.6384386,0.0642132,-0.5275782,0.7833478,-34.45132600000001,-8.680315,173.81773379999998,6.369773599999999,-26.338886,7.847310000000002,-0.9916108,-0.0571779999999999,-0.0361162,-142.0467164,84.9146758,-12.6480378,139.7368373563019,0.9466234034368262,28.21154383709536,0.9939143234017104,-107.5953904,93.5949908,-186.4657716
2398.096,-3.285670800000001,123.2965682,65.315201,0.0045617999999999,-0.5320476,0.7881258,-34.476112400000005,-5.8576786,173.49716800000002,5.039718,-24.0830046,8.543313200000002,-0.9979754,-0.0429876,-0.0353048,-139.9852784,85.4344696,-10.6632408,139.56688304957456,0.9509141576980752,26.045691937755077,0.9995245177893136,-105.509166,91.2921482,-184.1604088
2418.08,-5.1723076,123.0139784,64.90165879999999,-0.0515996,-0.5409184,0.8121516,-34.5485924,-3.0403188,173.17124619999998,3.3366378,-22.963800600000003,8.6565492,-0.9967354,-0.0607809999999999,-0.0361206,-137.78388360000002,85.926474,-8.5017576,139.18123782570802,0.9771619392717258,24.7670170560964,0.9992399538241654,-103.2352912,88.9667928,-181.6730038
2438.065,-3.4688668,120.8798292,65.160425,-0.1070308,-0.568375,0.8669338,-34.599025,-0.2517078000000001,172.8720306,2.7024846,-21.3514284,9.4467596,-0.98868,-0.0819476,-0.03973,-135.261746,86.3845002,-6.000281200000001,137.3675621479756,1.0421515947097524,23.503790857513938,0.9928655621209552,-100.662721,86.63620799999998,-178.87231179999998
2458.049,0.4889402,117.8820814,65.4558046,-0.1583418,-0.5545585999999999,0.8259852000000001,-34.586741,2.4941384,172.61188959999998,5.240734999999999,-17.977625,9.551964000000002,-1.0029446,-0.0448307999999999,-0.0362172,-133.0812848,86.8034958,-3.889961200000001,134.8365178041497,1.007402063269795,21.021425266573768,1.00459910256462,-98.4945438,84.3093574,-176.5018508
2478.033,-4.3639086,116.3060682,64.39174820000001,-0.1980662,-0.5637998,0.8277082,-34.6904884,5.2087932,172.33804,5.296112399999999,-17.8510366,8.8840702,-1.0064392,-0.0325948,-0.0425496,-130.22111639999997,87.2067734,-1.0878846000000002,133.01294085413045,1.0208826075556974,20.63092381757301,1.0078654437690775,-95.530628,81.9979802,-173.4259246
2498.017,-4.6475898,114.2891752,63.82302259999999,-0.241101,-0.5898666,0.8580856000000001,-34.812569399999994,7.874806000000001,171.989334,6.829234599999998,-18.2724038,8.6217234,-0.9973332,-0.0751913999999999,-0.029624,-126.2568632,87.5983428,2.8044616,130.9847085451026,1.068823275815006,21.327290035027872,1.000602238570452,-91.4442938,79.7235368,-169.1848724
2518.001,1.237553,110.5072936,64.010103,-0.26652,-0.5751794,0.8722344,-34.810067000000004,10.4671658,171.6089234,9.382354,-16.688563,7.376152800000002,-1.0074406,-0.062915,-0.0176331999999999,-121.7793624,87.95369860000001,7.1694974,127.7132990815562,1.078265784084666,20.516927930741307,1.0095572244779392,-86.9692954,77.48653279999999,-164.43942599999997
2537.985,0.2238330000000003,107.715564,63.408973,-0.3014962,-0.559028,0.8505560000000001,-34.8320396,13.0029046,171.16857599999997,9.5178944,-15.3535526,5.1178556,-1.0267638,-0.0145388,-0.0077481999999999,-116.159439,88.2483106,12.6920246,124.99356257809724,1.0615355729010876,18.775365168032536,1.0268959598221816,-81.32739939999999,75.24540599999999,-158.4765514
2557.969,-2.812456,105.696817,62.7653114,-0.3349816,-0.5756300000000001,0.8243532,-34.9266418,15.492867,170.6552734,6.645883399999998,-16.8810906,4.150918000000001,-1.0100824000000002,-0.0406162,0.0010749999999999,-108.1920058,88.4843794,20.635324,122.96020229254016,1.0597739228669485,18.610994230683325,1.0108992462739304,-73.265364,72.9915124,-150.01994940000003
2577.953,0.8038712000000006,103.1730362,62.93306799999999,-0.3771964,-0.5718629999999999,0.8280571999999999,-34.9463096,17.939818199999998,170.1002412,5.639778199999999,-15.3407054,3.1810780000000003,-0.9992094,-0.0705668,0.0158606,-99.7303848,88.6187118,29.0750876,120.85484125811976,1.074701419657479,16.651234115129977,1.0018236655933817,-64.7840752,70.67889360000001,-141.0251536
2597.937,2.2492726000000003,100.2716676,63.0803946,-0.4158379999999999,-0.5457226000000001,0.8339508,-34.9196242,20.3360434,169.5878204,5.2879746,-13.928163800000002,1.204938400000001,-1.0163391999999998,-0.028031,0.0174698,-91.3748946,88.6771836,37.3949304,118.48460969005936,1.0799112626579093,14.946849124737636,1.0168757546178784,-56.4552704,68.34114020000001,-132.19289
2617.921,-2.5318023999999992,98.4207246,62.52865799999999,-0.4501895999999999,-0.534412,0.7859171999999999,-34.9967978,22.6998696,169.08535139999998,0.8306999999999995,-14.5794992,-0.1570395999999992,-1.022324,-0.0110182,0.0231994,-82.362631,88.6719698,46.4423374,116.63139425327408,1.05163335195685,14.603989894846162,1.022646553735747,-47.3658332,65.9721002,-122.64301400000002
2637.906,-4.904016,97.6821366,61.7408262,-0.4862762,-0.5365513999999999,0.744924,-35.1474616,25.0460744,168.56669,-1.8138426000000003,-15.834794,-0.4363393999999992,-1.0030466,-0.0267005999999999,0.0290444,-72.84655599999999,88.5605288,55.999604,115.66234825356057,1.0388761780426,15.944313032300988,1.003822185938964,-37.69909439999999,63.51445440000001,-112.567086
2657.89,-5.734560199999999,97.1925324,60.946270600000005,-0.5218866,-0.5349434000000001,0.7599448000000001,-35.3307638,27.3702202,168.0295134,-1.3347080000000004,-14.279374600000002,-0.6494855999999993,-0.9960872,-0.0416678,0.0392918,-65.1129958,88.3956988,63.7291992,114.86392573415247,1.065854663408741,14.356316239098266,0.9977323093435032,-29.782232,61.02547860000001,-104.3003142
2677.874,-5.816524799999998,95.93778840000002,60.201503,-0.5523806,-0.5197488000000001,0.7440108000000001,-35.5216956,29.6615732,167.4865384,-1.3347692000000004,-13.350370600000002,-1.3608169999999995,-1.0004826,-0.0235313999999999,0.033279,-58.7790662,88.2218508,70.05129000000001,113.41125238392884,1.062457158136007,13.485763859793114,1.00131246448335,-23.2573706,58.56027759999999,-97.4352484
2697.858,-5.995744799999999,96.0195418,58.8646478,-0.5728506,-0.5130281999999999,0.687006,-35.754297599999994,31.9382478,166.89996620000002,-3.101345200000001,-14.6565354,-1.4229461999999993,-1.0084304,-0.0146161999999999,0.0453356,-52.5570532,88.011812,76.28669640000001,112.78629404234682,1.0311803857480997,15.04849320925888,1.0095547640291536,-16.8027556,56.0735642,-90.6132698
2717.842,-4.0765954,97.9362364,57.364748600000006,-0.6071112,-0.5237724,0.6744798,-36.004044400000005,34.2229298,166.23725559999997,-3.3805282000000005,-14.795500400000003,-1.5295469999999995,-1.0022024,-0.0297309999999999,0.06659,-47.1500496,87.764348,81.705583,113.57305759815218,1.0477807675154378,15.253665691321691,1.004852133911632,-11.1460052,53.5414182,-84.53167260000001
2737.827,3.0069846000000005,99.1780592,56.4460558,-0.6318956,-0.516684,0.6854666,-36.144199400000005,36.5026528,165.52680019999997,-2.4886982000000004,-12.854381400000005,-1.6763265999999994,-0.9959282,-0.0429687999999999,0.0608415999999999,-43.7174362,87.5227602,85.1410506,114.15553687158612,1.065888767588307,13.199954953605594,0.998709666329129,-7.573236799999999,51.02010739999999,-80.38574960000001
2757.811,10.0281732,99.6954924,54.952341,-0.6634982,-0.4763922,0.6706557999999999,-36.1714502,38.7748726,164.7770262,-1.5899776000000003,-13.250676000000002,-1.4283907999999994,-1.0079952,-0.0001823999999999,0.0689868,-40.372496,87.27612919999999,88.47460480000001,114.2782360906395,1.0568626172297515,13.421950063347817,1.0103531734334483,-4.2010458,48.5012566,-76.3024214
2777.795,11.1442556,101.6115584,52.568587,-0.6988316,-0.4536824,0.6433282,-36.245331,41.0535186,163.9393036,-5.4707004,-14.995571000000002,-0.8882421999999993,-1.0164358,0.0325396,0.0804906,-36.6556938,87.0107758,92.2585908,114.9458984589329,1.0526464259871686,15.987016190911362,1.0201369014883053,-0.4103627999999986,45.9572572,-71.6807128
2797.779,12.2729776,102.865155,50.300049,-0.745306,-0.4437559999999999,0.625413,-36.370611,43.327195,163.01584780000002,-11.5242988,-15.012977800000002,0.1936484000000006,-0.9941712,-0.0065069999999999,0.0601532,-33.5829822,86.7475678,95.527266,115.16058797065308,1.069365158278967,18.92713567758727,0.9960106040744144,2.787628800000001,43.4203728,-67.48858179999999
2817.763,14.195832200000002,101.5487944,48.206743,-0.7997832,-0.424859,0.6050374,-36.5048136,45.5620408,162.047751,-12.160109600000002,-13.2553096,1.0458596000000009,-0.9708068,-0.0384753999999999,0.0276881999999999,-31.1189352,86.5271972,98.2094408,113.30299804776604,1.089141217786748,18.018471643809765,0.9719633921864752,5.385878399999999,40.9651564,-63.83831019999999
2837.747,13.79643,98.4525114,45.729397,-0.8539888000000001,-0.3985652,0.5879291999999999,-36.6756608,47.7248734,161.05769979999997,-11.0012618,-10.619932000000002,1.4009000000000005,-0.9808118,-0.0375853999999999,0.016064,-29.2242402,86.36471859999999,100.3073916,109.42767580322466,1.1107708284741369,15.354909237333944,0.9816631303091709,7.451420599999999,38.6398452,-60.75030819999999
2857.731,11.631864,94.8764784,43.2669572,-0.8864628,-0.3894107999999999,0.5479242,-36.9373772,49.8047304,160.032895,-10.975839,-8.272744400000002,1.5400906000000003,-1.0003346,-0.0434185999999999,0.008802,-27.9278704,86.2460648,101.8128146,104.92319094960273,1.112509773389034,13.830373122872022,1.0013151162282132,9.0095068,36.4413344,-58.22008039999999
2877.715,9.9414572,90.9961058,41.020195,-0.9149188,-0.3860596,0.5322666,-37.273816,51.7881112,158.9794892,-7.443718200000001,-5.981189400000002,2.0319508000000006,-0.9970132,-0.0722933999999999,-0.0105066,-27.1124698,86.17672719999999,102.7729494,100.30842556765734,1.126688137339326,9.762806529543862,0.9996859733443098,10.1613462,34.388616,-56.2065398
2897.699,8.3183594,86.6545728,38.9332208,-0.9251856,-0.3717009999999999,0.5060524,-37.6756974,53.6704338,157.90667739999998,-0.7402326000000009,-3.5547220000000017,2.191573800000001,-0.9999296,-0.0657761999999999,-0.0023285999999999,-26.4768256,86.15289299999999,103.4227648,95.36249667515852,1.118131950797454,4.241106992311467,1.0020933767970728,11.1988718,32.4824592,-54.48391260000001
2917.684,6.0837572,83.2002272,36.5330804,-0.9218334,-0.3630004,0.5026794000000001,-38.1699066,55.44900199999999,156.7911378,1.801299999999999,-3.2738592000000017,2.4513570000000007,-1.0162188,-0.0326326,0.0286914,-25.5645102,86.1317962,104.2970796,91.07115828467887,1.1109602544376105,4.469002896941738,1.0171473504316668,12.6053964,30.6827942,-52.4940582
2937.668,5.1916226000000005,81.1277816,34.3747436,-0.9138994,-0.370496,0.4779327999999999,-38.7747536,57.1504836,155.5885254,1.040179799999999,-4.327562200000001,2.6283058000000006,-1.0172704,-0.0175497999999999,0.0479003999999999,-24.352616,86.08485859999999,105.4834718,88.26263586662179,1.0958554469692614,5.1689225172670685,1.0185487276102014,14.4221376,28.934375,-50.105053600000005
2957.652,5.4162506,79.9323134,32.5186152,-0.910918,-0.3652579999999999,0.4543196,-39.4810624,58.7970282,154.281488,-0.1944032000000009,-5.487972000000001,2.113638000000001,-1.0009254,-0.0321351999999999,0.055389,-23.2989938,86.0021452,106.5351806,86.46369660478027,1.0814764483021162,5.884139263477561,1.002971718826209,16.1820686,27.205116999999998,-47.7463074
2977.636,5.7698116,78.5930174,31.0816578,-0.9091262,-0.3555164,0.4297484,-40.2818398,60.3921928,152.87628479999998,-0.3289270000000008,-6.187422000000001,1.9906700000000008,-0.99511,-0.0295761999999999,0.0755626,-22.1760148,85.8942366,107.6574188,84.71258797565152,1.066576788373889,6.508083514085619,0.9984129257101994,18.105825000000003,25.5020438,-45.218866
2997.62,7.423018200000001,77.14685039999999,29.548118800000005,-0.9216498,-0.3536046,0.4203135999999999,-41.1541122,61.9294136,151.370764,-1.678526200000001,-7.137007800000002,1.8887366000000008,-0.9958856,-0.0134319999999999,0.0829375999999999,-20.9289008,85.76627640000001,108.929393,82.94473491703029,1.0729110351404538,7.571106688293784,0.9994234299860696,20.2252114,23.8368628,-42.44137099999999
3017.605,10.482369600000002,75.0698988,27.6700964,-0.9408804,-0.3476314,0.3899173999999999,-42.0837646,63.4041168,149.75299660000002,-2.4089438000000007,-7.540711400000002,2.1268626000000004,-0.9973058,-0.0164537999999999,0.0696322,-19.7243748,85.6379394,110.1742492,80.69079261637314,1.0761687117700829,8.196882527456838,0.9998691061958662,22.3593898,22.233822600000003,-39.5787474
3037.588,12.502195,72.5242354,25.2640612,-0.956062,-0.3376496,0.3533814,-43.1095336,64.80393899999999,148.0056456,-2.290530200000001,-7.050759000000002,2.3002460000000005,-0.9961488,-0.0340119999999999,0.0669714,-18.707618000000004,85.5181366,111.2309492,77.8096548539446,1.0737505362467206,7.762142921494623,0.9989766845644598,24.4019156,20.7141976,-36.7746964
3057.573,16.6564718,70.1451706,23.7050006,-0.9614844,-0.315191,0.3251355999999999,-44.1614432,66.1433356,146.15678400000002,-0.6709376000000008,-5.922483200000001,2.5254422000000005,-0.985063,-0.0335531999999999,0.0599222,-17.762440599999998,85.42633359999999,112.1856384,75.89275370398217,1.062784444895445,6.473316215273039,0.9874541008330868,26.3990026,19.282998000000003,-33.97114559999999
3077.557,21.3253368,66.91739199999999,21.7020972,-0.9782012,-0.2996614,0.3136192,-45.2063254,67.3975462,144.23070360000003,0.9746867999999992,-3.453134600000001,2.8169178000000006,-0.979728,-0.0195033999999999,0.0469147999999999,-16.857671599999996,85.3949326,113.0692366,73.50978414193138,1.0700614678325913,4.561707883651501,0.9810445122697544,28.3486538,17.997386400000003,-31.161467000000005
3097.541,23.9827166,62.90371640000001,19.1029314,-0.9901776,-0.2849446,0.2898411999999999,-46.2823256,68.5507826,142.2315398,1.2221839999999993,-0.3103244000000018,2.430842600000001,-0.9797014,-0.0242657999999999,0.0361984,-16.3294354,85.4283448,113.5747556,69.97835537164796,1.0703518233872262,2.738435814304605,0.980670172063044,29.9528902,16.877562200000003,-28.656784200000004
3117.525,24.7323934,58.078938400000006,16.2250336,-0.9924732,-0.2942996,0.269027,-47.419041400000005,69.5771834,140.1698364,2.589945599999999,3.4902255999999987,1.7913458000000009,-0.9769006,-0.0465436,0.034443,-16.3668198,85.5298752,113.4919204,65.177496762951,1.0695750717024963,4.700894885554489,0.9786150464969974,31.052221600000003,15.952691799999997,-26.677916000000003
3137.509,26.06692,54.2073478,13.9664614,-0.9843632,-0.2814767999999999,0.228178,-48.6270408,70.5121826,138.0206176,5.963864399999999,7.1071969999999975,1.1015242000000005,-0.9796272,-0.0496493999999999,0.0411472,-16.807612999999996,85.6938294,112.9418442,61.74935560663168,1.0489353164692663,9.343087463016817,0.981747221013658,31.8194278,15.181646799999996,-25.078773400000006
3157.493,24.7873218,50.5007674,11.9603678,-0.99504,-0.2686624,0.237704,-49.8835602,71.3500764,135.8546996,8.0520496,11.009040999999998,0.6597770000000006,-0.9881008,-0.0293595999999999,0.039925,-17.516264,85.9358888,112.0864196,57.51338303314225,1.0577274121387608,13.655394252465584,0.9893428034295292,32.367296200000006,14.585812399999998,-23.768280000000004
3177.477,21.5754366,45.940602,9.9167298,-0.9930484,-0.2640652,0.2441912,-51.172573,72.0777238,133.72761219999998,7.699522399999999,13.786412,-0.1379815999999993,-0.9953494,-0.0217838,0.0534221999999999,-18.6577964,86.22068959999999,110.810144,51.71440714664755,1.0561746525793163,15.791353328444789,0.9970200065573608,32.5147766,14.1429658,-22.9174682
3197.463,15.0430448,41.33561,7.8840034,-0.9885122,-0.2688863999999999,0.2561426,-52.5455062,72.69825920000001,131.65316460000005,6.7152412,15.4203342,-0.9062495999999992,-1.0056608,-0.0175733999999999,0.0643926,-20.320918,86.52444019999999,109.037674,44.68873863221157,1.055966522759391,16.84346934427012,1.00787344244154,32.2245882,13.826181,-22.6154906
3217.446,6.0758052000000005,37.02718599999999,6.0506718,-0.9816368,-0.2575712,0.2773312,-54.018875,73.2349612,129.6612838,4.302931999999999,14.680993399999997,-1.6103213999999997,-1.0130848,-0.0091219999999999,0.068292,-22.3225788,86.8024996,106.9772156,38.00708540704296,1.0520771476831532,15.38310521379755,1.0154249455961972,31.6962962,13.5675384,-22.6840682
3237.43,2.7256592000000004,31.2106342,4.767216599999999,-0.9881714,-0.2579818,0.3161342,-55.310897,73.657033,127.9278854,1.2210285999999992,13.176357399999995,-1.4918625999999993,-1.0083152,0.0015412,0.0502296,-24.3225346,87.0598374,104.9812332,31.69004984773722,1.0691015654832987,13.31664218907422,1.0095667043661056,30.9883624,13.402804400000004,-22.9466522
3257.414,2.7296718000000006,24.4893078,2.8128822,-0.9922452,-0.2725992,0.3125448,-56.37945,73.95340139999999,126.430774,-2.087002600000001,11.134378399999996,-0.9622757999999992,-1.0111754,0.0038872,0.0376108,-26.1183296,87.287993,103.2560196,24.801000200192185,1.0754278742764294,11.369078103437364,1.0118820940038618,30.2611204,13.3345916,-23.1747544
3277.398,5.6764384,18.4601298,0.5516426000000001,-0.9933164,-0.280852,0.2854898,-57.2086692,74.1409106,125.1273682,-4.7919532,8.700573799999997,-0.5433453999999992,-1.0191122,-0.0135503999999999,0.0243022,-27.8651092,87.47328200000001,101.6339372,19.321041760215135,1.0710087498788232,9.947764781293222,1.019491974688295,29.343560000000004,13.3323714,-23.493431
3297.382,12.1929382,13.290591600000004,-1.2273066,-0.9946948,-0.2729894,0.2593379999999999,-57.7019814,74.2402834,124.0416688,-5.390511400000001,6.309955399999998,-0.1465659999999993,-1.0202854,-0.0298239999999999,0.0124028,-29.4870096,87.6129732,100.1459764,18.077993487038697,1.0635775269830592,8.300279025181931,1.0207965506784396,28.2149718,13.372689799999998,-23.8956924
3317.366,20.7208652,8.871887399999999,-2.4356622000000003,-0.9973794,-0.2656284,0.2289266,-57.811528,74.26251540000001,123.180655,-4.713164400000001,4.951082399999999,0.2703476000000007,-1.0189566,-0.0273775999999999,0.0074385999999999,-30.793865,87.73038799999999,98.9564714,22.67150394277712,1.0572282169042218,6.841068879776236,1.0193514695311323,27.017663,13.467872599999998,-24.224183600000003
3337.35,23.3154794,5.5199662,-4.2254496,-0.9963888,-0.2711946,0.2058524,-57.77725840000001,74.219899,122.422629,-4.17882,3.610786599999999,-0.0784401999999992,-1.0243996,-0.0244767999999999,0.01791,-31.8582902,87.8113374,97.9925722,24.329735527191964,1.052954112210195,5.523266182985896,1.0248484874938342,25.9189682,13.591438399999998,-24.430056800000006
3357.334,23.9426958,3.0567884,-6.2478348,-0.98546,-0.2747016,0.1946936,-57.680472,74.1172318,121.72207039999998,-2.710112600000001,1.7375825999999983,-1.0014931999999992,-1.024743,-0.037783,0.0348932,-32.8390246,87.8307008,97.073639,24.932550555083672,1.041392326898715,3.3714822001825486,1.0260327999358694,24.8414474,13.713468999999998,-24.648431400000003
3377.319,22.857522,1.9152402,-7.631419600000001,-0.9707742,-0.2602196,0.1933822,-57.572593,73.98457640000001,121.0567994,0.1891655999999997,-0.4301850000000014,-1.7558749999999992,-1.0183176,-0.0323547999999999,0.0509022,-33.3839956,87.79156040000001,96.5212036,24.17380859764229,1.0234810515523185,1.8176742761213731,1.0201022505208193,24.1885974,13.806984,-24.535595800000003
3397.303,20.078324,1.4129842,-8.3412798,-0.9590728,-0.2401766,0.1951792,-57.489418,73.842633,120.422873,2.8301718,-2.5269640000000018,-2.1560205999999997,-1.012168,-0.0079319999999999,0.0673892,-33.174681400000004,87.7066176,96.6595032,21.78789957064044,1.0077699911190252,4.363925331904248,1.0144398854168934,24.3147366,13.8639846,-23.763369800000003
3417.287,16.5691256,1.4651054,-8.236885000000001,-0.952016,-0.2221289999999999,0.1977144,-57.450048800000005,73.71064900000002,119.8157182,2.6343008,-4.311067000000001,-2.6807993999999997,-1.005167,-0.0053207999999999,0.0738882,-32.66978039999999,87.58002000000002,97.0901992,18.5614851637715,0.9973799380699212,5.719398989964768,1.0078930870389378,24.7802684,13.869371,-22.725519
3437.271,12.3514794,1.3539394000000002,-7.5680942,-0.9524274,-0.2080404,0.1913676,-57.457927600000005,73.598404,119.2493576,1.1765633999999998,-4.908084200000002,-2.9361075999999997,-0.9999802,-0.0105893999999999,0.0673944,-32.242897600000006,87.44274440000001,97.4717178,14.548822807621598,0.9934889625117532,5.839034148494678,1.0023046148430923,25.21503,13.844340400000002,-21.777639800000003
3457.255,8.6939238,1.0470526000000002,-6.5238866,-0.9578816,-0.1966574,0.183338,-57.4830558,73.51010740000001,118.7434098,0.1341923999999997,-4.626869000000001,-2.8951555999999994,-0.9996718,-0.0138171999999999,0.0598734,-31.9796918,87.31660600000001,97.7137924,10.91978601241951,0.9948990475607664,5.459656609310711,1.0015585089043175,25.503364,13.806498600000005,-21.0296174
3477.239,5.607017400000001,0.1805488,-4.9761452,-0.962522,-0.1852258,0.1815573999999999,-57.45456840000001,73.4459808,118.3596132,-0.7764494000000004,-3.705817000000002,-2.6977649999999995,-0.9989056,-0.0250203999999999,0.0551455999999999,-32.0158598,87.2107298,97.6796296,7.498884119958599,0.9968551985942592,4.649074026456707,1.0007394542671335,25.4387086,13.764749000000004,-20.679983600000003
3497.223,2.6186632000000003,-1.014582,-3.363105000000001,-0.9651942,-0.18865,0.1745696,-57.3762482,73.3975296,118.0944444,-1.4200892000000005,-2.451557800000001,-2.252917599999999,-0.997148,-0.0360234,0.0473702,-32.3337052,87.1353926,97.3822694,4.381466515994759,0.998830922357633,3.619727433811452,0.998922296827736,25.042543,13.737863,-20.712175
3517.207,1.3328904000000008,-2.2163394,-1.9830142,-0.9671716,-0.1887445999999999,0.1684709999999999,-57.21819459999999,73.3616792,117.9432648,-0.3957606000000003,-0.9600618000000012,-1.4361231999999995,-0.997317,-0.0335509999999999,0.0438756,-32.656048600000005,87.1007994,97.0649034,3.25900329423064,0.9997139119351696,1.7722288108226436,0.9988453015183882,24.562146,13.739120200000002,-20.8783614
3537.192,0.7907830000000009,-3.3789878,-0.5899728000000003,-0.9614112,-0.1817196,0.1748774,-56.9394058,73.33717959999998,117.9319612,1.5333251999999995,-0.0147754000000013,-0.4940863999999993,-0.9939538,-0.0326221999999999,0.0455286,-32.809172800000006,87.09430979999999,96.8808792,3.520080142607222,0.9939394415860354,1.6110325422117204,0.9955306212695016,24.130233,13.7571302,-21.051082
3557.176,-1.1146019999999992,-4.508055,0.9426979999999996,-0.9546342,-0.1833351999999999,0.1756248,-56.583541,73.3239014,118.0449326,3.0818495999999995,0.5832285999999987,0.4375570000000007,-0.9903864,-0.0336773999999999,0.04972,-32.7433624,87.1069334,96.886229,4.738520551884627,0.9878169474876002,3.1669241678838973,0.9922053552444272,23.840178599999994,13.783032,-21.158703600000003
3577.16,-2.826076799999999,-5.2849814,2.0958686,-0.9514704,-0.2005562,0.1755584,-56.199684000000005,73.3122774,118.2279618,3.976469,0.8249841999999987,1.2656560000000008,-0.9888464,-0.0262105999999999,0.0487158,-32.387598,87.13636,97.1645492,6.349047461337027,0.98809891369496,4.253797097717125,0.9903925623281707,23.812086,13.8240826,-21.0634126
3597.144,-3.333912799999999,-5.9073012,2.9615521999999994,-0.946716,-0.2104849999999999,0.1793794,-55.7690588,73.30072179999999,118.47395179999998,4.0351318,0.6804655999999987,1.814865600000001,-0.9884002,-0.0221097999999999,0.0522248,-31.7743954,87.1682998,97.6984664,7.401484544255301,0.9862819520934974,4.476500778757663,0.9900258725665304,23.9946634,13.867578,-20.7754854
3617.128,-3.9325682,-6.4173462,3.6957612,-0.9416126,-0.216715,0.1843896,-55.29921019999999,73.2892258,118.776619,3.2176232,0.0059239999999986,2.2690934000000005,-0.9869354,-0.0184875999999999,0.0611852,-30.8235944,87.18815620000001,98.5836882,8.384871838360507,0.983666205728305,3.93724764383418,0.9890029847406728,24.4756158,13.8989304,-20.1929308
3637.112,-4.894139599999999,-6.534285799999999,4.249666199999999,-0.9409132,-0.2273061999999999,0.1886078,-54.8319534,73.2780044,119.1010528,1.1660755999999997,-0.9037042000000014,2.562342600000001,-0.9891142,-0.0116757999999999,0.0690042,-29.555097,87.190503,99.824243,9.203757719094536,0.9861838878796996,2.956689565339548,0.9915870131082396,25.2768564,13.912498600000005,-19.2768098
3657.096,-5.204064399999999,-6.6418218,4.3929862,-0.9452862,-0.2387814,0.199052,-54.3611106,73.25884699999999,119.4391602,-1.848081,-1.8452662000000013,2.8087338000000006,-0.9934292,-0.0043971999999999,0.070299,-28.0478968,87.1772446,101.3611128,9.512855031781628,0.9950900741140974,3.8352830782989,0.9959231196138988,26.3132138,13.918397600000002,-18.0780474
3677.08,-5.621013399999999,-6.976864599999999,4.3754954,-0.9469224,-0.2384618,0.2013802,-53.8833282,73.2339796,119.7958252,-5.0025432,-2.943503800000001,2.955678600000001,-0.9971262,-0.0073257999999999,0.0745812,-26.4110812,87.139003,103.0875854,9.970827011092604,0.9970356295704984,6.513500523910215,0.99993833883171,27.472247,13.9050234,-16.7082398
3697.074,-6.528010999999999,-6.9358174,4.3422584,-0.94622,-0.2415666,0.1928243999999999,-53.4508522,73.2092818,120.128212,-7.374679,-3.9540932000000018,3.104480600000001,-0.994798,-0.0119557999999999,0.0748582,-24.7105448,87.0789566,104.9231262,10.467841163995292,0.9954235077950088,8.925163482149983,0.9976821899106348,28.7403074,13.869674800000004,-15.2050858
3717.049,-6.526608999999999,-6.6706694,4.426430399999999,-0.9501292,-0.2400676,0.1881921999999999,-53.0402596,73.190866,120.4398224,-8.400789399999999,-4.186587000000001,3.0839074000000006,-0.9955312,-0.0102067999999999,0.0721344,-23.0582014,87.0141402,106.7308106,10.32897581413673,0.9978949110017746,9.879840995861022,0.9981933282701504,29.9820582,13.823274200000004,-13.7090118
3737.033,-6.695789199999998,-7.0522404,4.266436399999999,-0.9597134,-0.238912,0.202158,-52.6030356,73.1618102,120.7797746,-9.3524412,-3.704747400000002,3.0286978000000007,-0.9934518,-0.0196755999999999,0.0631488,-21.6855252,86.95982799999999,108.28044300000002,10.619329885895516,1.009453619958619,10.50553759028966,0.995651233665705,30.917510400000005,13.7980178,-12.499331599999996
3757.017,-6.9379504,-8.6452554,3.9433278,-0.9662354,-0.2374978,0.199264,-52.1116546,73.109529,121.1803162,-8.7836988,-2.3169238000000014,3.030926200000001,-0.987704,-0.0296907999999999,0.0469478,-20.6661706,86.9393218,109.4702242,11.765433728611203,1.0147522825369748,9.576430135179514,0.9892647932406572,31.445484000000004,13.829792799999998,-11.710091999999994
3777.001,-5.949389599999999,-12.0120248,3.3722476,-0.9850596,-0.2435116,0.2080044,-51.4619522,73.00244599999999,121.7270172,-6.3032906,1.1606775999999988,3.243888400000001,-0.9683818,-0.0271951999999999,0.0120534,-20.0086232,86.9980086,110.2576112,13.822301916978551,1.0358118291012517,7.183415401523477,0.9688385695903318,31.453329000000004,13.9955626,-11.469405999999996
3796.985,-2.337280599999999,-18.8945766,1.5358391999999996,-1.0076654,-0.2482348,0.1904248,-50.509698400000005,72.7793884,122.5180222,-0.924873800000001,8.299742799999999,3.692454200000001,-0.9494402,-0.0344107999999999,-0.0447138,-20.0762616,87.2138366,110.2352204,19.100437365271524,1.0551169028800742,9.131009807856737,0.9511151983030868,30.433436800000003,14.434448199999997,-12.282801799999998
3816.969,3.7382424000000007,-28.1407954,-2.0131506000000003,-1.029478,-0.2464748,0.1938662,-49.1908218,72.38023360000001,123.5684998,6.350925599999998,17.4863032,5.0512522,-0.9519468,-0.0425045999999999,-0.0772125999999999,-21.549934800000003,87.6878112,108.7296234,28.45929720362222,1.0761779049123243,19.27745326455417,0.956018376732456,27.640887000000003,15.307577599999997,-14.8388764
3836.954,6.937827200000001,-38.2707408,-6.570374000000001,-1.041376,-0.2625906,0.2149408,-47.6202034,71.762207,124.8192932,13.9148642,25.647977,6.099551000000001,-0.9817476,-0.0462229999999999,-0.0746988,-26.7592998,88.31126859999999,103.5443634,39.44556834598433,1.0952704433558864,29.810177662982344,0.98566973503106,20.8609036,16.549061599999998,-21.2749298
3856.938,7.0021076,-47.47306,-11.158291,-1.0371346,-0.2796186,0.2593278,-45.9210388,70.9244934,126.2042924,18.3969258,30.22364,6.724620400000001,-1.0136054,-0.0244755999999999,-0.0555358,-39.3941394,88.9118484,91.2368248,49.26690973306788,1.105027442118955,36.01577172940213,1.0154206945823785,6.5268994000000005,17.987355,-34.967467600000006
3876.922,5.4383988,-53.97085179999999,-15.6205654,-1.0064068000000002,-0.2982292,0.2897108,-44.2886406,69.91025540000001,127.5542634,19.5557686,30.2169332,7.031833000000001,-1.0461944,-0.0144949999999999,-0.0180252,-60.527798,89.4492798,70.19905379999999,56.44848172396739,1.0889112224858004,36.67339380109097,1.0464500635249634,-16.2391574,19.5390244,-57.3552096
3896.906,3.8489348000000008,-56.2159674,-18.9160862,-0.9669392,-0.3144327999999999,0.3615628,-42.8400498,68.79500279999999,128.7418442,17.034129200000002,24.157093,7.2459512,-1.0735178,0.0067526,0.0415284,-85.4039676,89.84923699999999,45.2766718,59.437930708751495,1.079151083285524,30.43403536512572,1.074341971874021,-42.5639178,21.054234200000003,-83.4651724
3916.89,-1.0136575999999995,-55.9527762,-20.8362274,-0.9222094,-0.3460274,0.4095016,-41.6996528,67.6362534,129.7080872,10.986574199999998,13.413809399999996,6.234268,-1.0725748000000002,0.0223252,0.0730659999999999,-76.946828,90.0,53.6695414,59.71506542307255,1.0667224097213297,18.425558139916895,1.075292405118757,-35.2471752,22.3637466,-76.0385458
3936.874,-1.8931112,-54.3130356,-21.6842906,-0.8848001999999999,-0.3553434,0.4223686,-40.7825248,66.4777924,130.4625672,4.067635,1.762701199999998,4.927864600000001,-1.0453468,0.0377628,0.0783368,-66.29803580000001,90.0,64.02670379999999,58.51237616887286,1.0428497303588662,6.628470376311537,1.0489578712075716,-25.515511,23.5222076,-66.43586339999999
3956.858,0.7859992000000003,-52.8878708,-22.288193,-0.8724478000000001,-0.3517976,0.434985,-39.9689094,65.33143,131.05401920000003,-1.3376920000000003,-7.782061200000001,3.8653384,-1.0178866000000002,0.0358302,0.0640872,-48.3668784,90.0,81.31474779999999,57.39780674995467,1.0364066119605762,8.791515077273315,1.020531284623573,-8.397969,24.668570000000003,-49.73927139999999
3976.842,4.742718600000001,-52.9586982,-22.7986632,-0.8813148,-0.3336426,0.443523,-39.1592254,64.18292919999999,131.5615846,-6.141496600000001,-14.863932600000002,2.8762272,-1.0061688,0.0304102,0.0550022,-22.218042399999995,89.8433304,107.0949092,57.85236502049423,1.0415113118746238,16.33790548788841,1.008129791426838,16.941183000000002,25.660401200000003,-24.4666754
3996.828,5.230877600000001,-54.65766599999999,-23.3932148,-0.9065962,-0.3243546,0.4483588,-38.381932,63.0014914,132.0313752,-10.2680104,-19.106725000000004,1.629015600000001,-1.0066270000000002,0.0185802,0.0430948,7.734798000000003,89.5574142,136.923526,59.68303805699468,1.0621432059440197,21.752072766179705,1.0077203494760243,46.11673,26.5559228,4.892150799999999
4016.811,5.5190682,-57.7636788,-24.3283016,-0.9414528,-0.3166438,0.4610898,-37.6119286,61.7590316,132.4942568,-12.4045852,-20.591095400000004,0.7491112000000008,-1.0109598,0.0069926,0.0262071999999999,5.281405200000003,89.1876006,134.4549714,62.92033821465348,1.095080122351931,24.050532454520123,1.0113236035031714,42.89333380000001,27.428569000000003,1.960714599999997
4036.795,5.1358652000000005,-62.8130508,-25.6281068,-0.9775572,-0.306492,0.476268,-36.8319398,60.4357002,132.9842104,-11.9546148,-19.2710736,0.7654802000000007,-1.0046316,0.011586,0.0007925999999999,4.459099600000004,88.7739226,133.7613618,68.03422903442177,1.1297728236950295,22.690814279121582,1.0046987186860148,41.2910394,28.3382224,0.7771513999999997
4056.779,2.5023036000000003,-69.6518188,-27.857881,-1.003072,-0.3069083999999999,0.4786011999999999,-36.1030084,58.990445,133.4877718,-9.6774226,-15.224221000000004,0.8281064000000006,-0.99549,-0.0183751999999999,-0.0121594,3.655004800000003,88.3631498,133.1064302,75.05797039132331,1.152998400612941,18.058659237206754,0.995733819393215,39.75801320000001,29.3727048,-0.3813415999999988
4076.763,-2.4459887999999994,-77.710633,-31.1549772,-1.0137628,-0.3216246,0.5012936,-35.48163,57.377707,133.9956056,-4.187271399999999,-9.5161232,0.8429254000000007,-0.9906538,-0.0368781999999999,-0.0272526,3.112961600000003,88.1464658,132.631479,83.75892756478521,1.1757774752860168,10.430741381359304,0.9917145039256208,38.5945916,30.7687588,-1.3641266
4096.747,-6.651060599999999,-86.4756484,-34.8296708,-1.0017174,-0.3357081999999999,0.5218336,-34.95224,55.5786936,134.50820019999998,2.8375007999999995,-3.664874000000001,0.9784214000000008,-0.9872276,-0.0389839999999999,-0.0282672,3.046708400000002,88.1009214,132.50553599999998,93.46325663779146,1.178324255499716,4.737089893790766,0.9884012955543916,37.9989484,32.5222278,-2.002664200000001
4116.731,-10.7962556,-94.9633224,-38.6024468,-0.9750688,-0.3483858,0.536496,-34.5235374,53.597545,135.01451419999998,9.5518412,1.9403719999999989,1.1623172000000008,-0.9791166,-0.0405485999999999,-0.0229214,3.3693906000000027,88.194226,132.6446442,103.0763825285584,1.1661731382565284,9.815991803267629,0.9802239009203356,37.892928,34.596681000000004,-2.3698699999999944
4136.715,-15.4243456,-101.8796218,-42.8879692,-0.9330262,-0.3785257999999999,0.5733234,-34.2404068,51.4413544,135.4724884,14.885442,5.974989199999999,1.0753472000000006,-0.986311,-0.0444657999999999,0.0049419999999999,3.864607000000002,88.3687042,132.8552674,111.60979203187964,1.1586713909213604,16.07585926400292,0.987325184250174,38.1050138,36.9273498,-2.617220999999992
4156.7,-17.276446,-107.0663466,-46.8879128,-0.8839878000000001,-0.4018277999999999,0.614441,-34.0547074,49.141565,135.8671722,18.524454,7.766416599999999,0.8090078000000007,-0.9955198,-0.0190673999999999,0.0309139999999999,4.7442800000000025,88.57434700000002,133.37622979999998,118.15309783244216,1.1491030214400622,20.102913132760943,0.9961821687476644,38.7989874,39.432782,-2.490942399999997
4176.684,-15.876027799999996,-110.4972702,-50.3844208,-0.834348,-0.4310082,0.6331958,-33.919822,46.740097000000006,136.1823668,18.994994,7.6069468,1.3538516000000007,-1.0008442,0.0030336,0.059071,6.425255800000002,88.75484320000001,134.67562859999998,122.47564998688374,1.132625964168613,20.506300271694275,1.0025904938924963,40.3450778,42.014746200000005,-1.5067381999999978
4196.668,-12.8676872,-112.6596268,-53.628553,-0.7940384,-0.4499039999999999,0.6581018000000001,-33.8000794,44.2644974,136.4155182,16.1168482,6.650388,1.2175036000000008,-0.9969364,0.0067604,0.0724548,7.999112200000002,88.9036606,135.9232878,125.43440748640754,1.1251704622206362,17.47749328331727,0.9995887087678412,41.7991916,44.639163200000006,-0.4922303999999967
4216.652,-9.2694528,-114.0878142,-55.9528404,-0.7539811999999999,-0.4593625999999999,0.6888286000000001,-33.6645806,41.7376932,136.586792,12.370694,5.573600399999998,0.9810134000000008,-1.0056796,0.0181494,0.0869609999999999,9.560174600000002,89.0174698,137.2281248,127.4075054813217,1.1198153813955942,13.603730324859267,1.0095955002363668,43.2247552,47.279776600000005,0.6413328000000009
4236.636,-4.5695618,-115.0099426,-57.207211400000006,-0.7174048,-0.4647624,0.6972294,-33.480496200000005,39.1888086,136.7149018,7.714189799999998,4.258683999999998,0.6704784000000007,-1.0140484,0.0206506,0.0934448,10.765740400000002,89.08866880000001,138.27004979999998,128.53339187955635,1.1030877443527147,8.837118023832575,1.01855413968525,44.2462366,49.899860200000006,1.5551479999999944
4256.62,-1.0166181999999993,-115.5789444,-57.9075836,-0.6904508,-0.4800343999999999,0.7150544000000001,-33.2663086,36.6291386,136.8060792,1.3419793999999992,2.9299397999999988,0.4566254000000008,-1.0160218,0.0200152,0.0890396,11.565040200000004,89.1237136,139.034271,129.27804972064612,1.1038379081021634,3.2548368158132828,1.020112227489917,44.83134880000001,52.49457500000001,2.2281917999999994
4276.604,2.442578400000001,-116.1977722,-57.8889938,-0.6615474,-0.4752244,0.7310146,-33.000896600000004,34.068217999999995,136.886783,-3.1291214000000007,2.5997877999999988,-0.7115723999999992,-1.0132848,0.0119638,0.0768485999999999,11.271500400000004,89.169487,138.8117094,129.842304572353,1.094470437341859,4.129967629583621,1.0162651847541762,44.272397,55.101269,1.924926400000001
4296.589,6.332680800000001,-116.9105834,-57.38526,-0.6360594,-0.4809882,0.7563408,-32.673055,31.5069146,136.96468199999998,-5.222946600000001,2.5544619999999987,-1.4753269999999992,-1.0169545999999998,0.0107904,0.0720095999999999,10.304421400000004,89.2262024,137.969348,130.38886233996615,1.0990780748482976,5.998419546249209,1.0195579795604954,42.9774764,57.7192878,1.0046660000000005
4316.573,8.258382200000002,-118.340271,-57.1828316,-0.6067745999999999,-0.4807956,0.7663728000000001,-32.325070600000004,28.9320274,137.038861,-9.1201552,2.7498369999999985,-2.624916999999999,-1.0136059999999998,0.005594,0.0637745999999999,8.150506800000002,89.32376860000001,136.041748,131.69091406284898,1.0893425048001937,9.880740035824497,1.0156257261792652,40.4755774,60.3917412,-0.9971130000000044
4336.557,6.097338400000001,-120.0325286,-57.2969894,-0.5778868,-0.4798258000000001,0.7804019999999999,-32.0356842,26.335265,137.1076812,-12.180219,3.9135277999999984,-4.082056,-1.0066844,-0.0022633999999999,0.0541018,4.382675200000003,89.4917694,132.5999802,133.14627464551026,1.083149681975617,13.428946939967776,1.0081396772998077,36.4183594,63.1565044,-4.507701000000003
4356.541,4.416858400000001,-121.849527,-57.3596032,-0.5391872,-0.4744138,0.7876998,-31.7916644,23.7133096,137.1765166,-12.318482800000002,5.960775999999998,-5.178353199999999,-1.0059186,-0.0033051999999999,0.0479629999999999,-0.9464703999999968,89.6618546,127.6554368,134.74768995241007,1.065956033424606,14.631856029910288,1.0070668317157507,30.845194,65.948545,-9.521079800000004
4376.525,2.5565166000000006,-123.3260956,-57.588502600000005,-0.5035692,-0.4735858,0.7963964,-31.599832,21.0698766,137.24244979999995,-13.2498414,7.968108799999999,-5.824439,-1.0035634,-0.0033125999999999,0.0451589999999999,-8.513135799999997,89.8089386,120.585663,136.13338042073525,1.0545675298828616,16.52189894166262,1.0045843948714912,23.0866962,68.739062,-16.656786800000003
4396.509,-1.5208571999999996,-124.4051102,-57.8955248,-0.4542086,-0.4632108,0.7937366,-31.503241600000003,18.4082696,137.30184920000002,-15.2123434,10.322628399999996,-6.223374999999999,-1.002853,-0.0090969999999999,0.0345105999999999,-20.201540599999998,89.9348664,109.5620256,137.22549414144717,1.0251280347986589,19.40882390034582,1.0034878556965,11.301701,71.52659680000001,-27.7398236
4416.493,-5.9744574,-124.6203964,-58.4096994,-0.4063234,-0.4779992,0.80231,-31.5197624,15.7363024,137.34628279999998,-15.6499662,11.951526599999998,-6.829582399999998,-1.0028296,-0.0132267999999999,0.0368538,-36.0387424,90.0,94.3417664,137.75932028039304,1.018471048527252,20.84235173606951,1.0035937213080004,-4.518979999999999,74.2636976,-43.0045164
4436.478,-5.624380799999999,-124.5900192,-58.1834032,-0.3477662,-0.4754598,0.8030936000000001,-31.542511,13.0627454,137.393173,-16.3708016,13.539488,-7.314948999999999,-1.003699,-0.0094867999999999,0.0319565999999999,-54.48677839999999,90.0,76.3598518,137.62127361557714,0.9959732333950748,22.46840802552125,1.004252411627077,-22.9442674,76.9372546,-61.03332119999999
4456.462,-3.3981708,-123.9542938,-57.6776384,-0.297669,-0.4763478,0.800357,-31.5375676,10.405237799999998,137.4398618,-17.235834,14.3394724,-7.6910067999999985,-1.0010872000000002,-0.0031771999999999,0.0264225999999999,-74.15485919999999,90.0,57.0245364,136.7586358795811,0.9777961891799538,23.703291501046092,1.0014408771337628,-42.6172916,79.59476219999999,-80.4153254
4476.446,-3.6671055999999993,-122.6535888,-56.991173,-0.2377166,-0.471419,0.7907230000000001,-31.5532032,7.7700862,137.48755780000002,-18.739541600000003,15.7172586,-8.422310999999999,-1.002827,-0.0097373999999999,0.0210871999999999,-93.5507286,89.853395,37.81429659999999,135.29724427687714,0.9507827923377452,25.86770109341233,1.003095947001881,-61.9975254,82.0833088,-99.6732612
4496.43,-2.149414599999999,-120.71911459999998,-56.23226939999999,-0.1902212,-0.4880586,0.8033150000000001,-31.557385,5.1730016,137.53194879999998,-18.5744582,15.6901774,-8.786923199999999,-1.0003474,-0.0088541999999999,0.0218899999999999,-109.0612366,89.609433,22.3157322,133.19081325228402,0.9590100579182682,25.85347527102916,1.0006260488536165,-77.50385159999999,84.43643139999999,-115.2162166
4516.414,3.83147,-119.11448520000002,-54.7957636,-0.1480507999999999,-0.4833882,0.8021474,-31.4538388,2.6201968,137.5867218,-18.3716362,16.507273599999998,-9.1285848,-0.9951926,-0.0131729999999999,0.0033047999999999,-120.1949114,89.2577378,11.201194,131.16980008877428,0.9481685728849276,26.33131517454452,0.9952852660050786,-88.7410726,86.637541,-126.3855278
4536.398,7.392782600000001,-117.5674226,-53.8924142,-0.1150826,-0.4767006,0.797587,-31.2923986,0.1080382,137.639331,-17.745882,17.2162406,-9.4290028,-0.9918044,-0.0062469999999999,-0.020437,-127.8789552,88.80559539999999,3.635582,129.5420564900921,0.9362865423747796,26.46169613152982,0.9920346081852992,-96.5865566,88.6975572,-134.003749
4556.382,6.510481400000001,-115.606041,-53.0821656,-0.0718222,-0.481076,0.7787442,-31.1724092,-2.364299,137.6861968,-19.0040268,19.6335326,-9.8940606,-0.994174,-0.0400385999999999,-0.0226716,-133.3373324,88.2273194,-1.5979216,127.37684007911034,0.9181694153164108,29.060644730061536,0.9952381791372956,-102.1649232,90.5916184,-139.28411839999998
4576.367,6.580544400000001,-114.0065476,-51.8427262,-0.0312216,-0.4869218,0.7876580000000001,-31.0652762,-4.7991356,137.73513480000005,-17.4134322,21.4539426,-10.0854428,-0.998172,-0.0460525999999999,-0.0404338,-137.1837954,87.6638918,-5.1845588,125.41317602277525,0.9265380470254851,29.41454454075676,1.0000515365385925,-106.1185192,92.4630274,-142.9196936
4596.351,6.7759860000000005,-112.670186,-50.6292496,0.0063401999999999,-0.4799094,0.7832596,-30.9654414,-7.1967494,137.7897216,-15.835255,23.603162399999995,-10.1118856,-0.9910676,-0.0382881999999999,-0.0561794,-140.6589754,87.0927064,-8.4086704,123.70855150152671,0.9186124489340214,30.16810909857106,0.9933967480384462,-109.693534,94.2894558,-146.19839199999998
4616.335,5.1258442,-110.8317718,-49.8255112,0.0506362,-0.4695296,0.7805,-30.906123200000003,-9.558317,137.8393402,-15.4891452,26.253656,-9.2141032,-0.993454,-0.0222117999999999,-0.0677994,-144.060492,86.50740060000001,-11.5498992,121.62457599281188,0.9122512373390348,31.84443075599357,0.996012536475119,-113.1543688,96.0657176,-149.3892394
4636.319,2.873833200000001,-108.7229202,-49.1925446,0.0962554,-0.477194,0.7682494,-30.910058000000003,-11.8838438,137.88516239999998,-14.6792114,28.5077468,-7.669471399999999,-0.9903272,-0.0517597999999999,-0.0687444,-147.14944780000002,85.90085619999999,-14.3843616,119.368499774019,0.9094978594067828,32.969556662081736,0.99405876711955,-116.2393898,97.7847,-152.269524
4656.303,2.026067200000001,-107.1562316,-48.6436622,0.1469186,-0.4678816,0.7695442,-30.9340906,-14.186887000000002,137.9315736,-12.3996532,27.979356,-6.518646599999999,-0.9939828,-0.0394257999999999,-0.0862605999999999,-149.8660066,85.32096879999999,-16.8823856,117.6977858383048,0.9125220777593056,31.290390140595843,0.998497416878902,-118.931916,99.5078558,-154.8139592
4676.287,3.3047004000000006,-105.4666792,-48.243103,0.1861938,-0.4671655999999999,0.7695491999999999,-30.9412336,-16.4577116,137.975937,-11.4931756,26.2276574,-5.3888816,-0.989517,-0.0299657999999999,-0.0932146,-152.1314728,84.7881288,-18.9397402,116.02387018746651,0.919302888172576,29.13800169817808,0.994349437628342,-121.1902392,101.2458404,-156.9156772
4696.271,4.0580926,-103.9037734,-47.7931428,0.2373938,-0.4540864,0.7400162,-30.944942200000003,-18.709546,138.02162779999998,-12.9186394,27.5152538,-4.715462999999999,-0.9974062,-0.0396853999999999,-0.1021841999999999,-154.2096404,84.23394019999999,-20.7786296,114.44058170513604,0.900096801019668,30.76062461865844,1.003412013831427,-123.2646982,102.9434862,-158.8002574
4716.255,5.2957108,-101.8104858,-47.2024064,0.2850752,-0.4581616,0.7262047999999999,-30.9377,-20.926878,138.06558220000002,-12.063399600000002,25.4460396,-4.513555199999999,-1.0056358,-0.0512412,-0.1087362,-155.734909,83.716301,-22.0764662,112.34539038901416,0.9047393729205332,28.5201458933417,1.0127944431174174,-124.797209,104.643179,-160.1420484
4736.24,9.111591,-99.281108,-45.885103,0.334289,-0.4415144,0.7107508,-30.858495800000004,-23.1010226,138.11098320000002,-12.51783,22.8600602,-4.48108,-1.0172178,-0.0352727999999999,-0.1165808,-156.960031,83.2510132,-23.0611136,109.75063632425808,0.9010276358852708,26.445387087787616,1.0244839217798003,-126.1015352,106.3520358,-161.17209680000002
4756.224,12.3461006,-96.2951614,-44.5285724,0.3695958,-0.4306044,0.7025256000000001,-30.7167824,-25.2132296,138.15319200000002,-12.851954600000004,19.8676352,-4.788257,-1.0188634,-0.0248781999999999,-0.125924,-157.9043394,82.8411712,-23.7543388,106.80813671747772,0.9030855016732136,24.14172882332144,1.0269169423428557,-127.187557,108.05440079999998,-161.9075308
4776.208,13.963977,-92.8718354,-43.537743600000006,0.4070128,-0.4127131999999999,0.6811954,-30.538166,-27.2643064,138.1759062,-14.634826600000002,17.7583404,-5.264881999999999,-1.0186506,-0.0291457999999999,-0.1310582,-158.6082702,82.4675826,-24.1686512,103.51669228680252,0.894437688047211,23.606265817538016,1.0274603517047458,-128.0701042,109.731889,-162.3445574
4796.192,15.8752972,-88.8319702,-42.4277642,0.4320922,-0.4077081999999999,0.6788424,-30.3140914,-29.230595600000004,138.17481379999998,-14.8956372,13.5676202,-5.482604199999999,-1.0211742,-0.0216869999999999,-0.1422296,-159.02431339999998,82.1702744,-24.2858666,99.71589224297608,0.9020846133738452,20.8810745484836,1.0312595850855395,-128.710222,111.40087,-162.4606804
4816.176,17.632862199999998,-84.9385804,-41.0481704,0.4532817999999999,-0.3901759999999999,0.6510026,-30.051129000000003,-31.1192138,138.1588806,-15.7753196,11.2681774,-6.045366799999999,-1.0016862,-0.0284245999999999,-0.1517688,-159.2324098,81.90692299999999,-24.174877,95.97099855122322,0.8840283289544515,20.307116736419207,1.0135171285227695,-129.1812808,113.0261368,-162.3337576
4836.16,18.177083,-81.270366,-39.8172118,0.4667234,-0.3823488,0.6439374,-29.7697756,-32.925434200000005,138.1244232,-14.821651800000003,9.934337199999998,-6.436503399999999,-0.9843834,-0.0371271999999999,-0.1712786,-159.288614,81.65495000000001,-23.929421400000003,92.30757873375784,0.8824266043630824,18.96842095963601,0.9998627235742714,-129.5188384,114.5803842,-162.0538446
4856.145,18.8734912,-77.4230546,-38.255935400000006,0.4823912,-0.3775666,0.6343734,-29.4706954,-34.644384200000005,138.0776124,-13.497363200000004,10.621204799999996,-5.889597799999999,-0.972383,-0.0525603999999999,-0.1822284,-159.3780946,81.38650679999999,-23.745361,88.39714162233999,0.8818658729651353,18.156986726933027,0.990706053329503,-129.9073992,116.030891,-161.8229734
4876.128,19.8428246,-74.0995988,-35.987643199999994,0.4942316,-0.379533,0.6234582,-29.164999,-36.2764498,138.0391602,-10.5117368,12.2599864,-5.966968799999999,-0.96883,-0.0644013999999999,-0.1910698,-159.44819040000002,81.0821458,-23.602723,84.73251261185302,0.8814818771108116,17.216520953457252,0.9895891964315292,-130.28319140000002,117.35859560000002,-161.6418832
4896.113,20.4469606,-71.409404,-33.5728114,0.5104122,-0.3702265999999999,0.6114426,-28.8593068,-37.836558,138.0175354,-7.182045200000002,15.272069799999995,-5.736411799999999,-0.9610712,-0.0642515999999999,-0.2075768,-159.6099244,80.7163574,-23.6203666,81.5138935563327,0.878322493365142,17.8248228482107,0.9853295121279174,-130.7506176,118.5529154,-161.637902
4916.097,20.318992,-68.4859366,-31.4807884,0.5318218,-0.3615344,0.6148264,-28.5560174,-39.3222032,137.99878840000002,-3.4159012000000017,18.800595,-4.647816199999999,-0.9616646,-0.0633885999999999,-0.2118096,-159.9515564,80.293196,-23.8973556,78.06551726697812,0.8896926724861569,19.66552691364177,0.9867523621229796,-131.395539,119.6153992,-161.896144
4936.081,19.869872,-65.8304892,-29.7176948,0.5554872,-0.3575256,0.6078916,-28.2666646,-40.7456238,137.984079,0.1991129999999986,23.1350346,-4.3715274,-0.9548656,-0.0762779999999999,-0.2101102,-160.344223,79.79179380000001,-24.3016094,74.91065682420391,0.8977320209114521,23.545269668001616,0.9806798374043388,-132.0775584,120.5374176,-162.28568839999997
4956.065,20.7431408,-63.9978034,-28.0677188,0.5799513999999999,-0.3570719999999999,0.6053073999999999,-27.971534,-42.1206298,137.98322760000002,3.5080881999999987,28.7540776,-3.932210199999999,-0.9631092,-0.0801931999999999,-0.2187498,-160.8555084,79.1873122,-24.8954774,72.89577195496011,0.9111756625594868,29.232959797167048,0.9908893759905392,-132.8839744,121.307942,-162.87870500000002
4976.049,22.2149604,-62.6965354,-26.7038714,0.6109894,-0.3457312,0.6072756,-27.6508076,-43.4631226,137.9889802,6.918138999999999,34.1155122,-3.1090279999999995,-0.965807,-0.0760193999999999,-0.2272342,-161.51224659999997,78.48884419999999,-25.7080202,71.67605433116948,0.9282358342151849,34.94846026646172,0.9950866756594624,-133.86143899999996,121.9519668,-163.69700039999998
4996.033,23.253688,-61.9240952,-25.6129782,0.646481,-0.3310112,0.6003272,-27.3149512,-44.79067619999999,138.0022066,9.170638999999998,38.4559148,-2.9268855999999994,-0.9706772,-0.0844462,-0.227627,-162.14874559999998,77.713359,-26.5489756,70.93202537791855,0.942283845211346,39.64246034353402,1.0005795512718016,-134.8337944,122.5040352,-164.5511822
5016.018,23.1695724,-61.8442506,-24.7459262,0.6746596,-0.3266054,0.5924392,-26.9963768,-46.1125542,138.03229699999997,10.051736,42.966395,-3.9845175999999993,-0.9826282,-0.0878784,-0.233038,-162.71369,76.85024419999999,-27.3367822,70.52589085555948,0.9554165944120712,44.30603656855836,1.0136999073028463,-135.71731319999998,122.9627984,-165.36907920000002
5036.002,24.093983,-62.2319352,-24.1316302,0.7077186,-0.311488,0.5836666,-26.666134,-47.44335099999999,138.07293420000002,9.557839599999998,45.6223862,-4.722471799999999,-0.9860604,-0.0757572,-0.2413882,-163.2667936,75.93811960000001,-28.1022634,70.96245029345336,0.9687915621461204,46.85142644896817,1.017999277455166,-136.6006596,123.3814706,-166.1751976
5055.986,24.5343746,-62.4541444,-23.9295634,0.7419106,-0.2834869999999999,0.5737840000000001,-26.3152658,-48.7861314,138.10320459999997,8.898074199999998,46.51761319999999,-5.671292999999999,-0.9766352,-0.06964,-0.2364172,-163.70968620000002,75.013646,-28.7429302,71.23959358575675,0.9798082956463268,47.69934618614146,1.0072532630549675,-137.3944204,123.7997774,-166.8461348
5075.97,25.6021614,-62.6334786,-24.0986048,0.7572984,-0.2722719999999999,0.5501812,-25.942591200000003,-50.13843920000001,138.123566,7.035718799999998,47.549112,-5.358666599999999,-0.9519816,-0.0665027999999999,-0.2544926,-164.1645782,74.065381,-29.3602092,71.82733506956033,0.9748498661127262,48.36460171190468,0.9876528097470084,-138.22198699999998,124.2038202,-167.4837752
5095.954,27.2444766,-62.2780968,-24.644172,0.7833,-0.257071,0.5252095999999999,-25.5175368,-51.49894479999999,138.1110994,5.358730199999998,47.3141364,-3.0179795999999994,-0.936143,-0.0758498,-0.2645074,-164.69710999999998,73.1322558,-30.0300034,72.30600293062604,0.977491438823461,47.71217552680042,0.9757464185247108,-139.1795732,124.6312006,-168.1411028
5115.938,31.2762938,-60.8154816,-24.446894,0.804063,-0.2424446,0.4990683999999999,-24.9961394,-52.8401032,138.0698,4.196629799999998,46.8656012,0.7534798000000006,-0.9247708,-0.0793009999999999,-0.2875122,-165.4008912,72.2193758,-30.859378000000003,72.6249267287141,0.976916557294798,47.05915436261788,0.9716753296664888,-140.4047518,125.05947899999998,-168.929178
5135.922,33.515784800000006,-58.99022,-24.1366414,0.8101452,-0.236787,0.4838981999999999,-24.4116624,-54.1430726,137.9954194,2.975871999999999,45.0095382,3.7943634,-0.9316774,-0.0804707999999999,-0.3139216,-166.2221376,71.3513398,-31.7895606,72.01202222185199,0.9729135606081766,45.26711319212772,0.9864304832424634,-141.81047519999998,125.49441240000002,-169.78498
5155.906,33.313018799999995,-56.7723634,-23.5468816,0.8280911999999999,-0.2201838,0.4432243999999999,-23.8106656,-55.406871,137.88736260000002,1.5953389999999987,39.196613,5.9933250000000005,-0.9330348,-0.0798314,-0.3363868,-167.0735992,70.6017244,-32.724326,69.90932770864866,0.9647091841872554,39.68424777858735,0.995029180301382,-143.2629336,126.00859540000002,-170.61168859999998
5175.891,30.847406800000005,-52.8571954,-22.5245592,0.8443178,-0.2016926,0.4223505999999999,-23.2221878,-56.5978524,137.7311796,0.3305707999999985,31.893712199999992,6.667802400000001,-0.9391996,-0.0858729999999999,-0.3476634,-167.83196400000003,69.99695899999999,-33.5375252,65.21350610872545,0.9653665011859278,32.5849312381611,1.005156654690561,-144.6097762,126.5948114,-171.26870479999997
5195.875,28.7080578,-48.6793412,-20.4748406,0.8404384,-0.1954166,0.4087253999999999,-22.6740646,-57.691584,137.566754,-1.2068350000000012,23.945242,4.7877484,-0.9362268,-0.0858768,-0.3667534,-168.3877806,69.53192899999999,-34.1047226,60.10865112369073,0.9547674085112458,24.448999977452893,1.0091598001446749,-145.713716,127.223513,-171.67147659999998
5215.859,25.7835652,-44.5584618,-17.915009599999998,0.8531335999999999,-0.1804146,0.3990802,-22.1924006,-58.6906974,137.4093932,-2.4216112000000014,13.39461,1.3325288000000008,-0.9380584,-0.0901168,-0.3732486,-168.6367186,69.25845179999999,-34.3210786,54.50868115605809,0.9589845532510728,13.6768202027699,1.0136020505379617,-146.444318,127.9491492,-171.73047179999998
5235.843,22.1986702,-39.6724514,-14.2555688,0.8840671999999999,-0.1643826,0.373209,-21.8240806,-59.583313,137.2957518,-3.292822200000001,0.6104859999999981,-1.783845199999999,-0.9481468,-0.0909252,-0.3659584,-168.5904204,69.229718,-34.2043122,47.64352632357584,0.9735920146445326,3.794400465761605,1.0203799767125186,-146.76633980000005,128.813031,-171.500064
5255.827,16.81802,-33.678986599999995,-10.5516718,0.8962223999999999,-0.1568718,0.3578862,-21.6007896,-60.33098,137.2219298,-3.641913800000001,-7.275970800000001,-3.611757,-0.9477562,-0.0805197999999999,-0.365038,-168.38396600000002,69.349202,-33.90689999999999,39.09549479029897,0.9777043950230764,8.902138834916702,1.0188120505149516,-146.7831764,129.680182,-171.1288298
5275.811,11.1482218,-26.873895600000004,-7.629645599999999,0.8954272,-0.151418,0.3500588,-21.4915734,-60.9285652,137.1509368,-3.705033400000002,-12.051123800000004,-3.521322999999999,-0.9498668,-0.0630169999999999,-0.359332,-168.16202400000003,69.5668228,-33.5877228,30.078241404764576,0.973272030154612,13.090323640321923,1.017515388706844,-146.6704506,130.495388,-170.7386596
5295.795,4.9720558,-18.8423664,-5.7784304,0.8951969999999999,-0.1438528,0.3428816,-21.4537964,-61.363131,137.0259948,-2.697534400000001,-13.842432400000003,-2.763527599999999,-0.9453382,-0.0565483999999999,-0.3510024,-167.951532,69.8245132,-33.300911,20.3260022709289,0.9693498277172178,14.3710372410524,1.009982533872522,-146.4977356,131.18764420000002,-170.3269058
5315.779,-2.7113278000000003,-10.644729,-4.7611748,0.8846024,-0.1443258,0.3397826,-21.496642,-61.6328346,136.8217376,-2.0446694000000014,-12.7938158,-1.1483965999999992,-0.934191,-0.0614707999999999,-0.3414988,-167.8112212,70.0674072,-33.1045602,11.972064959673784,0.958542413195243,13.006967764645132,0.9965505075685224,-146.3145792,131.7002418,-169.9262978
5335.764,-9.084035,-3.2076264,-4.0359026,0.8633908,-0.1535679999999999,0.3520082,-21.598665,-61.7468932,136.5450836,-1.0694526000000013,-7.383102600000001,0.5110594000000008,-0.9166216,-0.0741671999999999,-0.33698,-167.7729582,70.2065354,-33.0411218,10.4449542267972,0.9449532141941632,7.477640976678534,0.9794138305856211,-146.17429320000002,131.9534286,-169.5862054
5355.748,-12.5525124,2.449918,-2.921649,0.8537182,-0.1674616,0.3690088,-21.738915400000003,-61.75171280000001,136.2392518,-0.6079012000000014,-3.9156390000000014,1.386062200000001,-0.9142746,-0.0872561999999999,-0.3355454,-167.78976419999998,70.2792694,-33.0490418,13.118829926410312,0.9450109242560322,4.197968683726844,0.9778048906120076,-146.05084879999998,132.03098219999998,-169.2882936
5375.732,-15.247022,5.9963906,-1.2165112,0.867498,-0.1651992,0.3896714,-21.929326,-61.6724076,135.9382204,-1.1880124000000012,-3.481228600000001,1.1066834000000008,-0.9190468,-0.1019191999999999,-0.3282338,-167.78046539999997,70.34479080000001,-33.020236999999995,16.428885525073753,0.9652395327910064,3.841233418558067,0.981209443177816,-145.8511394,132.01719839999998,-168.9584574
5395.716,-16.246036800000002,6.973398399999999,1.1015772,0.8746872,-0.1804798,0.4066843999999999,-22.2121808,-61.548983,135.7241792,-2.297591000000001,-4.679336600000001,0.5431108000000007,-0.9329428,-0.1054768,-0.3150643999999999,-167.73753019999998,70.44008799999999,-32.9333724,17.713708512890143,0.9813474701935292,5.241191158549477,0.9903399414127656,-145.5253494,131.989071,-168.65755159999998
5415.7,-15.317552,6.367754,3.0179176,0.8919615999999999,-0.1814848,0.4132458,-22.5448732,-61.424691,135.5934174,-2.979071000000001,-6.444360800000001,-0.1242263999999992,-0.9482362,-0.0916763999999999,-0.3046412,-167.6698056,70.5760438,-32.803353800000004,16.86070926496302,0.9996520993441868,7.100709988590903,1.000181340580217,-145.12493239999998,132.0007348,-168.3967712
5435.684,-15.2368954,5.633198,3.887397600000001,0.9048178,-0.178281,0.414471,-22.9068822,-61.311837,135.5029938,-4.047829200000001,-9.253331400000002,-0.1273445999999993,-0.9511332,-0.0793899999999999,-0.2968003999999999,-167.6056028,70.77149039999999,-32.652365,16.703525413463797,1.011071498954866,10.10075640126757,0.9995236934072148,-144.6987206,132.08332739999997,-168.1553588
5455.669,-13.5713172,4.8394176,4.143052,0.9000695999999999,-0.17851,0.4251792,-23.2460588,-61.2063322,135.4299438,-5.418581600000001,-11.828068000000002,0.0416306000000007,-0.9444796,-0.0830105999999999,-0.2958042,-167.537454,71.01466660000001,-32.469059,14.992181066306182,1.0113201555673652,13.010224912557776,0.993193132913312,-144.2913952,132.22099880000002,-167.8990028
5475.653,-11.4937516,3.5323702000000003,4.5895804,0.8947068,-0.1875009999999999,0.4141732,-23.5871594,-61.124027,135.40770260000002,-5.833829800000001,-14.5677476,0.7189708000000007,-0.9357604,-0.0851314,-0.299541,-167.4780088,71.3077146,-32.2864586,12.870439515432826,1.0035917110884685,15.708907004751364,0.986214830630284,-143.8908494,132.4317416,-167.6941612
5495.637,-10.9784724,3.5561342,5.2314224000000005,0.8933989999999999,-0.1812884,0.4071124,-23.9300988,-61.040644,135.4048126,-6.557082600000001,-17.0112466,2.528672000000001,-0.9216634,-0.0838186,-0.3087282,-167.5137052,71.6457,-32.1883462,12.670466724363123,0.9983825736706946,18.40576065238322,0.9756034450947578,-143.58360639999998,132.68634400000002,-167.59315880000003
5515.621,-10.557253200000002,5.094477599999999,6.5731362,0.8805616,-0.1870571999999999,0.3968952,-24.2915066,-60.9190316,135.4314788,-7.380191200000001,-19.769390800000004,5.250936600000001,-0.9043182,-0.0891533999999999,-0.3181656,-167.6888242,72.0366806,-32.2204728,13.439323519045235,0.9838215932014504,21.74553678180656,0.9627923372182394,-143.3973176,132.95571220000002,-167.65195160000002
5535.605,-7.510511800000001,7.998685800000001,9.0235998,0.8641061999999999,-0.1869637999999999,0.3955753999999999,-24.6227604,-60.721843,135.4945954,-7.574636600000002,-22.1563102,7.843170800000001,-0.8998352000000001,-0.0865209999999999,-0.3241228,-168.007742,72.4772538,-32.3991082,14.206059107846231,0.9685633094816466,24.69397759573488,0.9603358058928554,-143.3849816,133.1990968,-167.8937036
5555.589,-4.823521600000001,11.950443000000002,12.1784602,0.8512802,-0.1903036,0.3832238,-24.9457064,-60.4301118,135.6091156,-7.3102208000000015,-23.581219000000004,10.12759,-0.9059434000000002,-0.0790503999999999,-0.3196186,-168.46711399999998,72.9547624,-32.7296608,17.731168640698776,0.9527612082633508,26.684851449442508,0.963918284508433,-143.5214076,133.38487419999998,-168.33877639999997
5575.574,-2.1037708000000004,17.480656399999997,15.5291228,0.8439816,-0.1892104,0.3719325999999999,-25.2342238,-60.0163866,135.748535,-7.180739800000002,-24.493638800000003,11.6713704,-0.9207712,-0.065908,-0.3144732,-169.051486,73.4579652,-33.1917244,23.47664487722369,0.941509094777889,28.0663900912491,0.9752214418949576,-143.81726220000002,133.4743518,-168.94025939999997
5595.558,0.3229297999999994,24.1950976,18.9757978,0.834357,-0.188382,0.3646299999999999,-25.4753836,-59.4569696,135.8930786,-6.360262200000001,-25.4025242,11.879329200000004,-0.9362402,-0.0547634,-0.3104798,-169.6641936,73.9800872,-33.698513000000005,30.75041355292216,0.9298356942347396,28.755167070046856,0.9878979948778316,-144.18881000000002,133.4370568,-169.5915916
5615.542,1.1463997999999995,31.394457,22.3126208,0.8227218000000001,-0.191465,0.3708072,-25.6862834,-58.7377084,136.028415,-5.438028600000001,-25.3839468,10.817325,-0.9539388,-0.0456045999999999,-0.3007444,-170.2237518,74.5012816,-34.167530000000006,38.53283288042656,0.9225117809502924,28.12350316648467,1.0012623071992477,-144.53746840000002,133.23899,-170.195945
5635.526,1.1375377999999992,38.6518804,25.6217082,0.8079088000000001,-0.2043626,0.3767456,-25.890153,-57.855996000000005,136.16156619999998,-4.7632660000000016,-23.7250274,9.0043464,-0.9572246,-0.0417439999999999,-0.3008928,-170.6888152,74.97867120000001,-34.5514358,46.386784559702775,0.9145588819291846,25.819447751814906,1.0042698708380131,-144.79866220000002,132.83466719999998,-170.71300200000002
5655.51,1.9688203999999991,46.3334546,28.299683,0.7997650000000001,-0.209406,0.3795293999999999,-26.0395942,-56.81300220000001,136.2578462,-2.6906942000000016,-23.1833088,7.469031200000001,-0.9588852,-0.0435453999999999,-0.2938714,-171.01794420000002,75.4389816,-34.83739920000001,54.3280528533667,0.9096798851933356,24.50493969102239,1.003851297941164,-144.97835,132.2519838,-171.0952454
5675.494,1.6377607999999992,54.14068460000001,31.1111224,0.7860896,-0.2206808,0.3927006,-26.159565,-55.5956398,136.3177828,-0.5656278000000015,-22.9108282,5.4863762000000005,-0.9681292,-0.0470225999999999,-0.2790846,-171.1577116,75.8915954,-34.9719626,62.46437325694124,0.9060080772030458,23.56536245055388,1.0086493378575925,-144.99814659999998,131.4872352,-171.2897454
5695.478,0.2267807999999989,61.0497834,33.6640934,0.7751922,-0.2358902,0.4002734,-26.285290600000003,-54.23348,136.3556824,1.4764485999999986,-22.7161276,2.378402600000001,-0.9686672,-0.0582175999999999,-0.2707964,-170.97987659999998,76.329364,-34.8227148,69.71655949028242,0.9037620970943848,22.88796960273257,1.0074900116420806,-144.694586,130.56284399999998,-171.1783972
5715.463,-0.200273600000001,67.383339,36.1753578,0.7596536,-0.2441186,0.414014,-26.3954734,-52.7358138,136.36998899999998,4.861687999999999,-22.2894742,0.5597896000000012,-0.9669382,-0.0558267999999999,-0.2632995999999999,-170.5859038,76.7522582,-34.5202482,76.48013465117461,0.8989299611509898,22.82038638406629,1.0036995534409887,-144.19043040000005,129.488072,-170.8902372
5735.447,-1.8012018000000012,73.1288086,38.0628686,0.7436006000000001,-0.249472,0.4335432,-26.501789,-51.1176216,136.3483734,8.743941399999999,-23.2455444,-0.9565845999999988,-0.9784152,-0.0452135999999999,-0.2427382,-169.9717712,77.19788960000001,-34.070407,82.46119657900086,0.8961795787511564,24.854112330879214,1.009089890423663,-143.4699822,128.3155112,-170.4187804
5755.431,-6.702578000000001,77.694223,39.5473398,0.7244987999999999,-0.261583,0.4461118,-26.6804778,-49.4017928,136.2987,10.333220399999998,-23.3217182,-3.734988599999999,-0.9877906,-0.0421555999999999,-0.2246834,-169.04204399999998,77.6399092,-33.329497200000006,87.43745721758197,0.8901347736099741,25.7803825316328,1.0138984141891534,-142.3615662,127.041702,-169.6281972
5775.415,-12.240833400000003,81.1660232,40.3131976,0.7025242,-0.2671582,0.4658258,-26.938412,-47.6229966,136.2098572,12.0655726,-22.0847002,-5.6964846,-0.9821858,-0.0418723999999999,-0.216319,-167.8749878,78.0469726,-32.381162,91.44897607500118,0.8842552976140544,25.802363494218664,1.0065963209571154,-140.9365758,125.6699692,-168.5910192
5795.399,-16.9944368,84.88004,41.4412134,0.6803817999999999,-0.2714208,0.4689521999999999,-27.2609546,-45.7677408,136.0836122,15.024883399999998,-20.956349800000005,-5.348250799999999,-0.990481,-0.0340223999999999,-0.1952876,-166.65668639999998,78.4389816,-31.4410814,95.97294535761176,0.8697728498457054,26.33475849031573,1.0101224588021591,-139.39573180000002,124.2067224,-167.5246936
5815.383,-21.2257824,89.8987306,43.012343,0.6564276,-0.2758026,0.4539959999999999,-27.6360126,-43.80543,135.9154756,15.3800852,-20.125604600000003,-4.836294799999998,-0.99537,-0.0387933999999999,-0.1725418,-165.4270752,78.8237534,-30.497992,101.89395100953332,0.8444386515458183,25.787142700720207,1.010958474681725,-137.79106259999998,122.62918340000002,-166.4134676
5835.367,-27.080138400000003,95.8628266,44.9650262,0.6222624,-0.2768598,0.4725962,-28.088905,-41.716382800000005,135.6986116,15.7408746,-18.5506774,-4.850337399999999,-1.0011632,-0.0573063999999999,-0.166532,-164.1200164,79.17191779999999,-29.485674,109.29258438097028,0.8289807063884177,24.80783219198394,1.0165356282684832,-136.0311114,120.8883006,-165.1842856
5855.351,-30.883475800000003,102.8089524,48.4692734,0.5785870000000001,-0.2965864,0.5003708,-28.6081872,-39.4642,135.4628816,17.6062954,-17.009313600000002,-3.823979799999999,-1.0034056,-0.0548431999999999,-0.1582056,-162.85430000000002,79.49227920000001,-28.554374000000003,117.78259733508426,0.820425101228991,24.77743344993614,1.0172804856916111,-134.2461128,118.9564792,-164.0172556
5875.336,-29.460953,110.3786088,52.8783096,0.536007,-0.3029088,0.5097682,-29.0898426,-37.03416800000001,135.2172242,19.0596714,-16.040129,-2.803041399999999,-1.0039922,-0.0571855999999999,-0.1416888,-161.618094,79.801439,-27.684103,125.8868565754388,0.7993252547603384,25.068184084666623,1.0155521880010103,-132.5282514,116.83560699999998,-162.9013272
5895.32,-27.506970400000007,117.7262894,57.4175698,0.4755784,-0.3169362,0.5512050000000001,-29.5271468,-34.4187206,134.96771540000003,18.9970722,-16.3888572,-2.615734599999999,-0.9987754,-0.0596473999999999,-0.1265552,-160.30187999999998,80.1185288,-26.7323722,133.8390449690108,0.794009018489085,25.225492264604902,1.0085268120476325,-130.7747332,114.5372494,-161.7000876
5915.304,-26.250168800000004,122.5471862,61.67557839999999,0.4060750000000001,-0.3594386,0.6211621999999999,-29.9540886,-31.671911600000005,134.7332518,18.5624072,-14.820011800000003,-3.736169399999999,-0.9906208,-0.0691219999999999,-0.1339362,-158.8719758,80.384874,-25.6568626,139.68092632331914,0.8245820101747308,24.04484711110153,1.002021120509483,-128.9178872,112.0567856,-160.3901144
5935.288,-19.624897000000004,125.555162,65.72078640000001,0.354064,-0.390464,0.6579788,-30.279744,-28.825296400000003,134.53583039999998,19.185865,-12.8686224,-2.956639599999999,-0.9840006,-0.0672155999999999,-0.1336008,-157.5747102,80.6146666,-24.7286944,143.06801547565158,0.8430655684117577,23.290353711274864,0.9953011059193896,-127.2949662,109.439963,-159.2645248
5955.272,-11.433131000000005,127.9960266,68.6202378,0.308575,-0.392539,0.6774564,-30.448904,-25.902757,134.354974,20.8027134,-12.3491836,-1.281721199999999,-0.9892444,-0.0556337999999999,-0.1337016,-156.4494842,80.846092,-24.0073676,145.6792241384461,0.8415774302148079,24.22597840384528,0.9997878377317662,-126.0005802,106.748849,-158.36234159999998
5975.256,-9.763080200000005,130.3065368,70.12108620000001,0.2596492,-0.415844,0.725598,-30.5909076,-22.9135716,134.1759458,19.7516566,-14.4185452,-0.0585995999999989,-0.9940871999999998,-0.0587283999999999,-0.1133202,-155.2984526,81.12234779999999,-23.2393402,148.29726227300765,0.8756919532579022,24.454566404700092,1.0022474015423737,-124.70754499999998,104.0359194,-157.415286
5995.24,-5.658884600000002,130.69642639999998,71.2190568,0.2131564,-0.4570216,0.7777787999999999,-30.663482,-19.899261000000003,134.0119872,16.517654799999995,-14.416079000000002,0.340401200000001,-0.9845476,-0.0548205999999999,-0.1211926,-154.2118436,81.3915206,-22.4709714,148.9487593104701,0.9269542898422553,21.92651652231073,0.993492285397768,-123.5483616,101.2907816,-156.48295860000002
6015.224,1.1282781999999976,130.0861572,71.4782898,0.1824132,-0.4520189999999999,0.7902004,-30.6055436,-16.8908108,133.866684,18.1935474,-14.7390558,1.7477928000000014,-0.9976394,-0.0449751999999999,-0.1060114,-153.2148648,81.68540340000001,-21.827414,148.43458902658938,0.9284462418769328,23.47977241251056,1.004263689464754,-122.6093212,98.5762142,-155.694098
6035.208,0.7857779999999976,130.3569092,70.770877,0.1486828,-0.4235214,0.7667648,-30.5513638,-13.8922302,133.7180116,17.262926,-18.854082,2.4257456000000013,-1.010986,-0.0302371999999999,-0.0642068,-151.985925,82.06826020000001,-20.9302616,148.3309079544498,0.8884847830958278,25.67818653760657,1.01347397284098,-121.4345612,95.9604904,-154.6482732
6055.193,-6.463746400000002,131.04834599999998,69.53280480000001,0.0914416,-0.4564307999999999,0.8244524,-30.6435174,-10.8959962,133.5447176,11.4865394,-23.7303306,2.2529046000000013,-0.9892742,-0.0394823999999999,-0.0586758,-150.3292356,82.5274658,-19.484215,148.4932993444961,0.9467905794128708,26.460248617685927,0.9917989474692136,-119.6857182,93.423462,-153.0289326
6075.177,-4.968695000000004,128.79286040000002,69.520587,0.0369986,-0.4721039999999999,0.8285879999999999,-30.7214662,-7.932125600000001,133.39493720000002,8.8416562,-22.815599,2.484825400000001,-0.9794634,-0.0402955999999999,-0.0777898,-148.6862028,82.96216740000001,-17.9985858,146.44248303290098,0.954363220667037,24.59473112998564,0.9833735507440496,-117.9647366,90.894293,-151.39352300000002
6095.161,-6.700066800000004,127.86886599999998,68.5136442,-0.0076855999999999,-0.4607622,0.8218576000000001,-30.8331036,-4.993355599999999,133.2339082,8.7194528,-22.097163,2.931756000000001,-1.0094366,-0.0536489999999999,-0.0563448,-146.9063322,83.38778540000001,-16.374153,145.22209621409067,0.9422371188156196,23.93551050267224,1.012430343829935,-116.0732286,88.381141,-149.6080612
6115.157,-13.219095400000004,128.7793062,67.46846459999999,-0.0604822,-0.4661212,0.7977626000000001,-31.079938200000004,-2.0486356,133.03396,5.286280999999999,-25.5739764,3.3424234000000013,-1.0076828,-0.0550785999999999,-0.058801,-144.7360442,83.8661422,-14.2856364,145.98235476943478,0.9259331701397462,26.32764383501846,1.0108985286342047,-113.656106,85.9147778,-147.3195964
6135.129,-17.245105800000005,128.3483706,67.63522040000001,-0.1178588,-0.5100936,0.8594096,-31.411922000000004,0.8979099999999999,132.8256836,2.3985735999999984,-25.831913000000004,3.124707000000001,-0.9903312,-0.0844487999999999,-0.0710564,-142.139331,84.3268874,-11.7092054,146.1000374684576,1.0063155757865223,26.130531536691617,0.9964619899905064,-110.727409,83.4289774,-144.53488899999996
6155.113,-10.761779400000004,124.9207842,69.6112306,-0.159226,-0.5083264,0.8354593999999999,-31.6219914,3.811189,132.672467,3.3784629999999987,-22.0672658,1.891824600000001,-1.0067674,-0.0979746,-0.0588494,-139.2859924,84.6936264,-8.895460799999999,143.41109317846932,0.9908284700498466,22.404402077435225,1.0132338682793227,-107.664001,80.8824374,-141.56792779999998
6175.098,-11.510842400000003,124.3371722,70.40575279999999,-0.199798,-0.5014744,0.8239036000000001,-31.8458234,6.715105800000001,132.52995,3.010774399999999,-24.488812000000003,0.6418162000000012,-1.0347836,-0.0715457999999999,-0.0399422,-135.4649582,85.0773696,-5.096479599999999,143.3499281854888,0.9849938866573336,24.68154378667635,1.038022774156444,-103.6191348,78.36226380000001,-137.6264296
6195.082,-14.739083800000005,124.7277926,71.3513002,-0.2455882,-0.5030438,0.7997114,-32.145891,9.63257,132.3849548,0.7972749999999985,-27.699014,0.6035830000000011,-1.0036846,-0.0616397999999999,-0.031603,-130.5191346,85.4800092,-0.1167069999999999,144.4481598303092,0.976168505939236,27.71705858195833,1.0060720604560094,-98.3732436,75.84743920000001,-132.50166180000002
6215.066,-14.270651400000002,123.6207598,73.09783480000002,-0.2831138,-0.5054048,0.8492495999999999,-32.42985779999999,12.545561799999998,132.2689362,-0.9733112000000016,-26.977977,0.3277070000000012,-0.987357,-0.0691318,-0.0042876,-124.8545442,85.8359342,5.623187,144.32268427852122,1.028013773601132,26.997517841135384,0.9897835292294976,-92.4246864,73.2903724,-126.6457492
6235.05,-8.384660400000005,121.6955506,74.5044846,-0.3270764,-0.507598,0.8293768,-32.598134800000004,15.4364304,132.18820499999998,-2.4867744000000016,-27.0128392,-0.2210207999999987,-0.9994876,-0.0274693999999999,-0.0031116,-118.41757679999998,86.1515746,12.172639,142.93714629644782,1.0259145078510197,27.127963041031755,0.9998698478025426,-85.81944200000001,70.71514420000001,-120.015566
6255.034,-7.098656800000003,122.1930284,74.073143,-0.367019,-0.4777334,0.7950608,-32.7458948,18.3249018,132.0885072,-5.514529400000002,-29.8086366,0.5620756000000012,-1.0162748,-0.0154607999999999,0.0210353999999999,-110.50210280000002,86.4517196,20.2697064,143.06766801701158,0.9975238460975256,30.319643458234125,1.0166100498740116,-77.75620799999999,68.1268178,-111.8188008
6275.018,-7.935468200000002,123.212079,73.8596862,-0.4146866,-0.4832872,0.7875438,-32.928550800000004,21.2298946,131.9647402,-9.2030572,-30.2052316,1.5881892000000013,-0.9847748,-0.0393471999999999,0.0398181999999999,-101.3869524,86.663266,29.6378964,143.87300411341218,1.0127964903285556,31.616050081740244,0.9863645867092552,-68.4584016,65.4333714,-102.3268438
6295.002,-3.778800400000003,122.6406694,74.6945602,-0.4715225999999999,-0.4895507999999999,0.8090590000000001,-33.0269082,24.1316534,131.8551516,-11.1403816,-28.647857800000004,2.1991866000000013,-0.978539,-0.0549105999999999,0.0340261999999999,-92.2553164,86.7764848,39.0494286,143.6464077059171,1.056678765553846,30.81629894105162,0.980668920074354,-59.22840819999999,62.64483140000001,-92.805723
6314.987,-0.2006312000000027,121.3340714,75.0489106,-0.53115,-0.4647206,0.763134,-33.0524048,27.0209612,131.7635806,-11.982617800000002,-27.7835366,1.8426848000000011,-0.9943644,-0.0377623999999999,0.0303707999999999,-83.178792,86.8158526,48.4106354,142.668623451779,1.0394513266720862,30.313421493070813,0.995544546634534,-50.1263872,59.7948914,-83.3529452
6334.971,-2.630071600000003,121.6847444,74.5405532,-0.5928443999999999,-0.4560966000000001,0.7177551999999999,-33.1403244,29.910974,131.6518496,-14.157466,-25.8576648,1.945704200000001,-0.9929308,-0.0526271999999999,0.0430619999999999,-74.68080979999999,86.77890339999999,57.2208306,142.72486947857576,1.0366586315031383,29.543839244150597,0.995256515483561,-41.54048540000001,56.8679294,-74.43101899999999
6354.955,-4.952233200000003,121.4171846,73.89815819999998,-0.6726012000000001,-0.4801352,0.7343986,-33.2912276,32.7951576,131.5184756,-13.4741442,-21.0083412,3.0577196000000013,-0.9508154,-0.0616441999999999,0.0090645999999999,-67.9760148,86.72006239999999,64.210566,142.2237501798131,1.105560259869375,25.144633842039443,0.9528547104590288,-34.6847872,53.92490479999999,-67.30790959999999
6374.939,-1.884402400000003,117.9423952,72.5114776,-0.7425068,-0.4655316,0.7214845999999999,-33.3840828,35.607868200000006,131.3887788,-9.436015,-14.1089264,3.941889600000001,-0.952704,-0.0726203999999999,-0.0114214,-63.6110748,86.6836458,68.77214519999998,138.46253623870038,1.1351546355814084,17.425231041780485,0.9555360184159046,-30.226992000000003,51.0757776,-62.6166336
6394.923,-4.706070000000002,113.5664018,69.07224959999999,-0.7964304,-0.4409512,0.7123965999999999,-33.542459,38.3078408,131.2415834,-6.181948000000001,-8.4033072,3.997433200000001,-0.9935113999999998,-0.0461631999999999,-0.0093164,-60.8539572,86.69744879999999,71.6612076,133.00545243503606,1.1559620489086828,11.171907856795906,0.9946269342186344,-27.3114982,48.389608,-59.5803758
6414.907,-8.887250200000002,109.8038302,65.2560112,-0.8445572,-0.4563872,0.6855374,-33.82663720000001,40.8995446,131.0440216,-4.387786200000001,-3.102507400000001,5.079367800000002,-0.9937466,-0.0570117999999999,-0.026375,-59.594289200000006,86.7726182,73.0214448,128.03988183547483,1.1796303095438163,7.394470714773442,0.9957300291624231,-25.767652,45.873073600000005,-58.0225768
6434.893,-9.907252000000002,104.2526766,61.11336,-0.8924546,-0.452683,0.67547,-34.165139800000006,43.3571038,130.8084412,0.1846347999999986,2.168590599999999,6.736310000000001,-0.9759918,-0.0665635999999999,-0.0516322,-59.6610542,86.92856300000001,72.97245799999999,121.25022470472082,1.207334598381973,7.079177043688017,0.9796206360571624,-25.4959144,43.57145920000001,-57.8359832
6454.875,-10.814812000000002,97.2190294,56.3024492,-0.8997095999999999,-0.436256,0.6523274,-34.5453386,45.631482600000005,130.5442444,4.019043599999998,5.7730684,6.876374600000001,-1.009967,-0.0671607999999999,-0.0309122,-60.624224000000005,87.1223252,71.95516359999999,112.86481126547808,1.193870888605179,9.836948604587944,1.0126694812496722,-26.0788854,41.4908426,-58.5890808
6474.86,-13.785768600000004,91.5105454,50.8433496,-0.8959302000000001,-0.4498314,0.6461748,-35.0463846,47.728273,130.2043762,5.849089599999998,4.993781399999999,6.657557400000002,-1.0562394,-0.0362807999999999,0.0008591999999999,-60.9398674,87.3122116,71.5491974,105.59012043674365,1.1927200358227577,10.172156720878268,1.0568626707314626,-25.8934828,39.5839386,-58.6551788
6494.844,-12.445145200000002,88.32953499999999,46.187526000000005,-0.8623765999999999,-0.4748312,0.6196576,-35.624026,49.7067802,129.7433348,4.784945999999998,0.1558531999999992,6.598139400000001,-1.0644648,-0.0288781999999999,0.0548555999999999,-59.50499119999999,87.4331056,72.90393839999999,100.45036560593488,1.1632427132626966,8.152020730144066,1.066268445432781,-23.8809652,37.7263254,-56.8393964
