Timestamp (ms),Wrist Gyroscope X (deg/s),Wrist Gyroscope Y (deg/s),Wrist Gyroscope Z (deg/s),Wrist Accelerometer X (g),Wrist Accelerometer Y (g),Wrist Accelerometer Z (g),Wrist Roll (deg),Wrist Pitch (deg),Wrist Yaw (deg),Arm Gyroscope X (deg/s),Arm Gyroscope Y (deg/s),Arm Gyroscope Z (deg/s),Arm Accelerometer X (g),Arm Accelerometer Y (g),Arm Accelerometer Z (g),Arm Roll (deg),Arm Pitch (deg),Arm Yaw (deg),Wrist Gyroscope Magnitude (deg/s),Wrist Accelerometer Magnitude (g),Arm Gyroscope Magnitude (deg/s),Arm Accelerometer Magnitude (g),Difference Roll (deg),Difference Pitch (deg),Difference Yaw (deg)
0.0,-1.4382758140563965,-14.33080005645752,10.332079887390137,-0.8861006498336792,0.055012322962284,0.406278133392334,-0.3389139473438263,65.71705627441406,-129.7276611328125,1.2625861167907717,12.46388339996338,-2.2959117889404297,-0.9969991445541382,-0.0393191836774349,-0.0348920486867427,-109.03034973144533,85.26251983642578,115.3313980102539,17.725471569887056,0.9763516984089976,12.7363151677709,0.9983840681362564,-108.69143578410149,19.54546356201172,245.0590591430664
23.45,-12.592185974121094,-9.618578910827637,8.041131973266602,-0.9160916209220886,-0.0181496515870094,0.4077332615852356,-0.2563839554786682,65.52955627441406,-129.35655212402344,1.520169019699097,11.737940788269045,-3.30461049079895,-1.0454858541488647,-0.0734509527683258,-0.0077133812010288,-111.16334533691406,85.1261978149414,113.15486907958984,17.769074575851175,1.0028956478015665,12.288637772074717,1.0480912221450518,-110.9069613814354,19.596641540527344,242.51142120361328
35.19,-12.39752960205078,-7.957518577575684,8.043183326721191,-0.9146515130996704,-0.064684085547924,0.4380063414573669,-0.236238494515419,65.36089324951172,-129.04571533203125,-0.8163908123970032,8.921249389648438,-3.816339731216431,-1.0148192644119265,-0.1201273575425148,0.0021862378343939,-112.42511749267578,84.97328186035156,111.89449310302734,16.784327218373495,1.016179598543267,9.737537346522988,1.0219067966735416,-112.18887899816036,19.612388610839844,240.9402084350586
57.904,-2.4309792518615723,-9.127436637878418,7.568240642547607,-0.890873908996582,-0.030093889683485,0.3949091732501983,0.0042404779233038,65.18704986572266,-128.7198028564453,-0.4486982226371765,7.211767196655273,-2.3055853843688965,-0.9807049036026,-0.0992465987801551,-0.0443305447697639,-113.69937896728516,84.86038208007812,110.6400146484375,12.103636896609885,0.9749437004485372,7.584631840660843,0.986710288037577,-113.70361944520846,19.67333221435547,239.3598175048828
79.96300000000001,-3.1898436546325684,-7.073621273040772,7.522853374481201,-0.8426041603088379,0.0514543950557708,0.3642740547657013,0.3381316661834717,65.06036376953125,-128.2961883544922,6.20680046081543,5.118589878082275,-0.13223497569561,-0.9901381731033324,-0.0456321500241756,-0.0472194254398345,-114.7223892211914,84.8333511352539,109.51175689697266,10.807615062971006,0.919415527776077,8.04623019737704,0.9923132414167928,-115.06052088737488,19.772987365722656,237.80794525146484
102.514,-14.642580032348633,-1.5474461317062378,5.239495754241943,-0.8714112043380737,0.021613735705614,0.4133488535881042,0.2966677844524383,65.02501678466797,-128.02442932128906,5.9233174324035645,4.030782699584961,-1.2600113153457642,-0.988694667816162,-0.0528894923627376,0.0111240996047854,-115.0745849609375,84.80403900146484,109.04735565185548,15.628565362597644,0.9647185679666812,7.274649619815977,0.99017078838073,-115.37125274538994,19.779022216796875,237.07178497314453
125.87,-15.590377807617188,3.017419576644897,3.545142412185669,-0.8631982803344727,-0.054993987083435,0.4149675965309143,0.0575864352285862,65.07849884033203,-127.92869567871094,-6.653929710388184,1.841264009475708,-0.6542564630508423,-1.0206120014190674,-0.0730186477303505,0.002582601737231,-115.30514526367188,84.79352569580078,108.93611145019533,16.270609570893157,0.9593402503587388,6.934917826681217,1.0232239491864603,-115.36273169890046,19.71502685546875,236.86480712890625
134.993,-11.006059646606444,8.037114143371582,3.569046258926392,-0.8583478927612305,-0.0227358490228652,0.4050563275814056,-0.0409311242401599,65.23593139648438,-127.78870391845705,-5.576594352722168,-1.7141481637954712,1.9036014080047607,-1.0048657655715942,-0.0633507445454597,-0.0014714914141222,-115.10242462158205,84.8648452758789,109.24200439453124,14.08781899005658,0.9493938341658694,6.136807543243789,1.006861802304185,-115.06149349734189,19.62891387939453,237.03070831298828
157.576,-11.071175575256348,12.17199420928955,2.9530229568481445,-0.8607699871063232,0.0116489678621292,0.416732907295227,-0.1170968487858772,65.46829223632812,-127.63258361816406,-6.454128742218018,-4.888917922973633,4.0349602699279785,-0.9868255853652954,-0.0958581119775772,0.0203229244798421,-114.26029205322266,84.9894027709961,110.24351501464844,16.716719661249428,0.9564136057051912,9.046446852692764,0.9916786449363912,-114.14319520443678,19.52111053466797,237.8760986328125
180.253,-11.9993314743042,10.149883270263672,2.411485433578491,-0.9397039413452148,-0.0051279719918966,0.4045063257217407,-0.2576504051685333,65.68343353271484,-127.52273559570312,-7.3185133934021,-5.518826484680176,5.085505962371826,-0.9608971476554872,-0.0900294333696365,-0.0728015303611755,-113.9447784423828,85.1158447265625,110.73854064941406,15.900293966671402,1.023081209399031,10.482387845845652,0.9678474518581108,-113.68712803721428,19.432411193847656,238.2612762451172
201.101,-6.611156463623047,8.80612564086914,3.55950140953064,-0.9350088834762572,0.0273485668003559,0.3331066966056824,-0.1926566809415817,65.9067611694336,-127.31446075439452,-1.567025661468506,-2.237682580947876,3.120041847229004,-1.0041007995605469,-0.0786545127630233,-0.0694209113717079,-114.00824737548828,85.18670654296875,110.7364501953125,11.572609423709432,0.992949962288685,4.1469812979128,1.0095663479889752,-113.8155906945467,19.27994537353516,238.05091094970703
221.728,-8.139237403869629,11.268861770629885,3.7532453536987305,-0.9378743171691896,0.035255316644907,0.3812080919742584,-0.1375673115253448,66.15188598632812,-127.0856475830078,0.5931373238563538,0.5378260612487793,1.0912353992462158,-1.0238943099975586,-0.0792259275913238,-0.0224656499922275,-114.13888549804688,85.20718383789062,110.62030792236328,14.398655555543204,1.0130008793401717,1.3534635028983606,1.0272005700337474,-114.00131818652152,19.0552978515625,237.7059555053711
242.344,-13.583420753479004,11.705122947692873,1.7139546871185305,-0.949752926826477,0.0054981806315481,0.4452707171440124,-0.3237237334251404,66.37303161621094,-126.99433135986328,-5.0783281326293945,1.8112813234329224,0.6225760579109192,-1.021490454673767,-0.0131676439195871,-0.0287065804004669,-114.81815338134766,85.24081420898438,110.06614685058594,18.012686175474936,1.04896466268014,5.427500124657389,1.0219785729624182,-114.49442964792252,18.86778259277344,237.0604782104492
264.754,-7.498703002929687,7.110746383666992,2.153219223022461,-0.923843264579773,-0.0135500617325305,0.4624825417995453,-0.3920482397079468,66.4858627319336,-126.90288543701172,-4.459116458892822,0.3476766347885132,2.2535240650177,-0.9766273498535156,-0.0906111225485801,-0.0156787149608135,-115.04234313964844,85.27667999267578,109.9342269897461,10.556022635508764,1.0332279918545255,5.008290062282797,0.9809470822191364,-114.65029489994048,18.790817260742188,236.8371124267578
274.842,-10.632975578308104,3.757589817047119,3.259058952331543,-0.9052079916000366,-0.0319947674870491,0.3538918197154999,-0.4994513690471649,66.583251953125,-126.78081512451172,-1.9739536046981807,1.550065517425537,0.4989671111106872,-0.955855667591095,-0.1163703650236129,-0.1058641970157623,-115.77503204345705,85.23057556152344,109.23987579345705,11.738872012968075,0.9724528745726808,2.5589380843980547,0.9687153076789584,-115.27558067440988,18.64732360839844,236.02069091796875
304.724,-17.348468780517578,4.26595401763916,1.4783635139465332,-0.9104329347610474,-0.0124049037694931,0.2894037067890167,-0.794441819190979,66.7265396118164,-126.7220230102539,4.4635419845581055,1.3614438772201538,-3.989822626113892,-0.9848527908325196,-0.1166116893291473,-0.07353176176548,-115.67561340332033,85.11380004882812,109.25856018066406,17.926329557066975,0.9554038496041174,6.139659686544809,0.9944547378775644,-114.88117158412932,18.38726043701172,235.980583190918
324.727,-15.786478996276855,6.7429680824279785,-1.9856456518173216,-0.893036961555481,-0.016386879608035,0.379533439874649,-1.2228682041168213,66.86316680908203,-126.84227752685548,7.268330097198486,1.2130762338638306,-4.658770561218262,-0.9742047786712646,-0.0589050203561782,-0.0670020058751106,-115.5566864013672,85.01905059814453,109.25025939941406,17.280721232492404,0.970478838775281,8.7180456234801,0.9782811564168952,-114.33381819725037,18.1558837890625,236.0925369262696
334.951,-0.3148447275161743,4.623303413391113,-3.617417335510254,-0.8799278140068054,0.0254395473748445,0.491544097661972,-1.350217580795288,66.89420318603516,-126.98274230957033,7.649546146392822,-0.9232430458068848,-1.721362829208374,-0.9773375988006592,-0.009321616962552,-0.0246484149247407,-115.17512512207033,85.03666687011719,109.5026397705078,5.878755806628538,1.0082339650992491,7.894999933958474,0.9776928039678604,-113.82490754127502,18.14246368408203,236.48538208007807
357.598,12.673384666442873,3.3639464378356934,-4.779664039611816,-0.8545243740081787,0.0704611092805862,0.4440230429172516,-1.202551245689392,66.91749572753906,-127.11803436279295,9.288251876831056,-2.2949137687683105,3.6913161277771,-0.9934971928596495,0.0151542369276285,-0.0078313462436199,-114.96378326416016,85.18418884277344,109.55050659179688,13.956217355423176,0.965573993196076,10.254953285545737,0.993643624797568,-113.76123201847076,18.26669311523437,236.66854095458984
380.819,8.375434875488281,8.868796348571777,-7.089627265930176,-0.8803364038467407,0.0088624749332666,0.3913536369800567,-1.351040244102478,67.08303833007812,-127.46565246582033,3.16066837310791,-5.018065929412842,7.576376914978027,-1.0350278615951538,0.0222636740654706,0.0317130051553249,-114.44574737548828,85.4399185180664,110.03880310058594,14.10908476109652,0.9634461046562348,9.621449859273318,1.0357528953167894,-113.0947071313858,18.35688018798828,237.50445556640625
394.701,2.909254550933838,11.973662376403809,-6.385464668273926,-0.9124500155448914,-0.0493894591927528,0.3735842406749725,-1.6704176664352417,67.32474517822266,-127.86549377441406,-7.674477577209473,-8.728743553161621,8.049616813659668,-0.9896737337112428,-0.082222893834114,0.0240036342293024,-113.03006744384766,85.67427825927734,111.64168548583984,13.878274812670773,0.987202884126622,14.138065672032509,0.993373483602528,-111.3596497774124,18.349533081054688,239.5071792602539
417.159,3.2713823318481445,13.12027072906494,-3.648407697677612,-0.93297278881073,-0.0447895377874374,0.3664174079895019,-1.8501291275024407,67.59614562988281,-128.12295532226562,-14.730406761169434,-7.466352939605713,1.9570118188858032,-0.993148684501648,-0.1205936968326568,-0.0149501590058207,-111.5152587890625,85.74705505371094,113.4738540649414,14.005510525987969,1.0033474195084315,16.630129429067104,1.0005551741395473,-109.66512966156006,18.150909423828125,241.59680938720703
440.378,2.21948790550232,10.178525924682615,-1.9443371295928955,-0.9686861038208008,-0.0175952967256307,0.3722222149372101,-1.9243971109390257,67.8117904663086,-128.25018310546875,-16.063629150390625,-6.710893630981445,-1.5366406440734863,-0.9862156510353088,-0.0875753983855247,-0.0269949007779359,-110.03629302978516,85.7572021484375,115.28353118896484,10.59759234145288,1.037888115114124,17.476771420277984,0.9904642777088896,-108.11189591884612,17.945411682128906,243.5337142944336
454.759,4.1329026222229,6.46835994720459,-1.796689510345459,-0.9799156785011292,-0.0131167778745293,0.3711937963962555,-1.941880345344544,67.9542007446289,-128.358154296875,-18.72973251342773,-3.605055093765259,-2.867361068725586,-1.0022783279418943,-0.0917852222919464,-0.0711249858140945,-109.5546875,85.70681762695312,116.1171417236328,7.883441994964058,1.0479463828446582,19.2878475147456,1.0089822284362775,-107.61280715465546,17.75261688232422,244.4752960205078
477.173,7.687793731689453,1.3319483995437622,-1.5961756706237793,-0.9755806922912598,0.0641308650374412,0.4264614880084991,-1.757247805595398,67.96556854248047,-128.3418731689453,-12.931660652160645,-1.2242203950881958,-2.988400220870972,-1.012371063232422,-0.0993290692567825,-0.058379478752613,-109.42713165283205,85.63726043701172,116.47443389892578,7.963920879286918,1.0666488905803857,13.32880709885515,1.018906078698714,-107.66988384723663,17.67169189453125,244.8163070678711
500.77400000000006,8.149994850158691,1.0754929780960083,-0.7199267148971558,-0.9331601858139038,0.0327788591384887,0.3808480203151703,-1.565044641494751,67.98607635498047,-128.3204803466797,-4.681179523468018,-0.2367888838052749,-0.6350264549255371,-1.0328655242919922,-0.0736234560608863,-0.0235382597893476,-109.3986358642578,85.62918853759766,116.58197784423828,8.252114618591383,1.0084183658445758,4.729986184428586,1.0357536648389094,-107.83359122276306,17.643112182617188,244.902458190918
522.06,2.037731170654297,3.46064567565918,-1.4867759943008425,-0.9492937922477722,-0.0207577105611562,0.3942223489284515,-1.6171058416366575,68.0490951538086,-128.4183349609375,-3.863219022750856,-3.854588747024536,1.863087177276612,-1.0445284843444824,-0.0558599680662155,-0.0130683071911335,-108.66734313964844,85.70645141601562,117.38826751708984,4.282396487195455,1.0281054648928596,5.766576927134917,1.0461027059004206,-107.05023729801178,17.65735626220703,245.8066024780273
544.175,2.6209990978240967,2.312912940979004,-1.1394257545471191,-0.9901726245880128,-0.0535509139299392,0.3732242882251739,-1.6864361763000488,68.10716247558594,-128.54022216796875,-12.195000648498535,-4.742305278778076,0.3366680741310119,-1.0239078998565674,-0.1396357268095016,-0.0275018475949764,-107.66676330566406,85.70832061767578,118.63191223144533,3.676614420015804,1.059530979342951,13.088958918345844,1.033751360439947,-105.980327129364,17.601158142089844,247.1721343994141
555.6640000000001,16.787456512451172,-0.9378124475479126,-2.176003932952881,-0.9371861219406128,0.0086578484624624,0.3738626837730407,-1.4280588626861572,68.08919525146484,-128.6278839111328,-10.96718692779541,-2.137888193130493,-0.1262009441852569,-0.9792324304580688,-0.0775052309036254,-0.0375643596053123,-107.45067596435548,85.71430969238281,119.0748062133789,16.953854472079247,1.0090421655293027,11.174331376590125,0.9830128660352304,-106.02261710166933,17.62511444091797,247.7026901245117
577.062,22.1461181640625,-6.419013023376465,-2.5249552726745605,-0.9221746921539308,0.0093045532703399,0.4000383019447326,-1.0761431455612185,67.94556427001953,-128.72984313964844,-5.182188987731934,-1.5255346298217771,5.846545219421387,-0.931463360786438,-0.0845295488834381,-0.0657262429594993,-107.9375228881836,85.82237243652344,118.70496368408205,23.195466735116643,1.0052479199598388,7.960177737594472,0.937597555529863,-106.86137974262238,17.876808166503906,247.43480682373047
599.4639999999999,8.843008995056152,-12.281003952026367,-0.2819966077804565,-0.9298076629638672,-0.0281702037900686,0.3161267042160034,-0.9381087422370912,67.73355865478516,-128.76602172851562,-2.813004970550537,-0.5458927750587463,3.47825288772583,-0.9242388606071472,-0.1470212042331695,-0.1155799254775047,-108.65643310546876,85.82809448242188,118.0413818359375,15.136095541556644,0.982482541120388,4.506577308465532,0.9429694719999976,-107.71832436323166,18.09453582763672,246.80740356445312
622.047,-2.1242237091064453,-14.379168510437012,2.836885929107666,-0.9402027130126952,0.0089496187865734,0.3370585143566131,-0.8114336133003235,67.47384643554688,-128.5862274169922,7.312277793884277,2.4424712657928467,-6.564644813537598,-0.9877278804779052,-0.1598541736602783,-0.0577545501291751,-108.59730529785156,85.62622833251953,117.93582916259766,14.80948126007938,0.9988341600752072,10.125691776222643,1.0022451350695645,-107.78587168455124,18.152381896972656,246.52205657958984
644.621,-3.2379045486450195,-13.285970687866213,3.04636812210083,-0.94441819190979,-0.0117333522066473,0.430362343788147,-0.7302142381668091,67.19075775146484,-128.426513671875,8.014792442321777,1.9850220680236816,-8.864736557006836,-1.047115921974182,-0.0913910493254661,0.0068330052308738,-107.98153686523438,85.4384536743164,118.37432861328124,14.010046456751256,1.0379186575618484,12.114485739360656,1.0511188172177,-107.25132262706757,18.24769592285156,246.80084228515625
654.586,7.351205348968506,-12.415287017822266,-0.0137838572263717,-0.917130410671234,0.0143835237249732,0.4652480185031891,-0.5484709739685059,66.90314483642578,-128.39324951171875,8.207918167114258,-0.5550329685211182,-3.2256674766540527,-1.0538456439971924,0.0007358449511229,0.0185766443610191,-107.33983612060548,85.43081665039062,118.8476104736328,14.42843587546236,1.0284895695406333,8.836453638430598,1.0540096178666327,-106.79136514663696,18.527671813964844,247.2408599853516
680.7330000000001,18.02592086791992,-12.046846389770508,-2.9293222427368164,-0.8913211822509766,0.0544144362211227,0.459951251745224,-0.2371272444725036,66.6216049194336,-128.46047973632812,9.859139442443848,-1.1299078464508057,4.165678024291992,-1.0115571022033691,0.0078959558159112,0.0415642820298671,-106.92184448242188,85.58065032958984,119.0761489868164,21.87787146586775,1.0044747556711118,10.762536675388954,1.012441458394994,-106.68471723794936,18.95904541015625,247.53662872314453
701.8760000000001,12.992379188537598,-12.185301780700684,-2.386650323867798,-0.9126965999603271,0.0124218016862869,0.4365981519222259,-0.066358558833599,66.35722351074219,-128.560546875,3.769788265228272,-1.66705584526062,7.364804267883301,-1.0016759634017944,-0.0550681799650192,-0.0299963615834712,-107.08071899414062,85.74835205078125,118.85405731201172,17.971633098689455,1.0118237647921589,8.43982942126809,1.003636897393584,-107.01436043530704,19.391128540039062,247.4146041870117
722.1149999999999,6.161505699157715,-16.956214904785156,2.399813652038574,-0.9789080023765564,0.0044440138153731,0.4071572124958038,0.1703476458787918,66.03020477294922,-128.43722534179688,4.354083061218262,-4.696151256561279,2.171059846878052,-0.980962574481964,-0.12554532289505,-0.0425177998840808,-106.02886962890624,85.78521728515625,119.82731628417967,18.19990334981265,1.0602158374892372,6.762054183989952,0.9898772469059424,-106.19921727478504,19.75501251220703,248.26454162597656
744.356,1.5899301767349243,-22.04180335998535,4.838125705718994,-0.9578242301940918,-0.0153122218325734,0.4452091455459595,0.3893725872039795,65.581298828125,-128.22740173339844,-0.3854703307151794,-1.0945303440093994,-7.406679153442383,-0.9994463324546814,-0.1160723119974136,-0.0187815204262733,-105.1661605834961,85.619384765625,120.6907730102539,22.622476293975705,1.0563488549537592,7.497031421293162,1.006339156834842,-105.55553317070007,20.0380859375,248.9181747436524
764.374,7.5387139320373535,-27.604103088378903,5.121673107147217,-0.9227874875068665,0.0149567443877458,0.5077690482139587,0.7635154724121094,64.98670196533203,-127.98362731933594,-0.9365312457084656,-1.5985814332962036,-3.8616819381713854,-0.9719257950782776,-0.0888479501008987,-0.0249284878373146,-104.56918334960938,85.5416030883789,121.30501556396484,29.06974802916976,1.053370712344911,4.283122781880846,0.976296644919734,-105.33269882202148,20.554901123046875,249.2886428833008
776.0749999999999,8.342146873474121,-34.830257415771484,4.323705196380615,-0.9312615394592284,0.0083899535238742,0.5083094239234924,1.088599443435669,64.2557601928711,-127.80796813964844,5.0359721183776855,0.2664312422275543,-0.174593985080719,-0.95340496301651,-0.0872997194528579,-0.0647316128015518,-104.82278442382812,85.52227783203125,120.95331573486328,36.07537488000266,1.0609886505733874,5.04603644889122,0.959579306892844,-105.9113838672638,21.26651763916016,248.7612838745117
794.385,2.9508862495422363,-42.68395233154297,6.267063140869141,-0.9275272488594056,0.042488045990467,0.5314698219299316,1.4021121263504028,63.36236953735352,-127.53189086914062,15.446989059448242,3.790446758270264,-2.132951021194458,-0.9935160875320436,-0.153993934392929,-0.0096243731677532,-105.0679168701172,85.4181900024414,120.40218353271484,43.242381950013005,1.0698468128900598,16.047630282655746,1.0054257688032793,-106.4700289964676,22.05582046508789,247.93407440185547
817.037,-2.55643081665039,-44.94864654541016,7.166845321655273,-0.9116621017456056,0.0217433832585811,0.5738500952720642,1.5921876430511477,62.40863037109375,-127.26215362548828,17.1141357421875,3.588818073272705,-5.422701358795166,-1.071143388748169,-0.1080745309591293,0.0456801429390907,-104.76310729980467,85.28889465332031,120.36792755126952,45.58815456507386,1.077452780551659,18.30789303529348,1.077550434531898,-106.35529494285583,22.88026428222656,247.6300811767578
834.3960000000001,1.375050067901611,-46.08587265014648,6.650143623352051,-0.9038022756576538,0.0061606224626302,0.5712632536888123,1.806061625480652,61.44059371948242,-127.04730224609376,12.047046661376951,-0.798866331577301,-4.815733432769775,-1.0593887567520142,-0.0200283676385879,0.0441364645957946,-103.76438903808594,85.24221801757812,121.11148834228516,46.5835038487442,1.0692231814584872,12.99849257308777,1.0604969122773815,-105.5704506635666,23.801624298095703,248.1587905883789
856.928,7.888221740722656,-47.28474044799805,4.350612163543701,-0.869196355342865,0.0368095263838768,0.5923064947128296,2.081878900527954,60.43861770629883,-126.91693115234376,1.3852601051330566,-5.438697814941406,-1.1330379247665403,-1.0607386827468872,0.0300485268235206,0.0143160531297326,-102.3935317993164,85.31340026855469,122.43569946289062,48.13521110022191,1.052465785217232,5.725570226630789,1.0612607673974754,-104.47541069984436,24.87478256225586,249.3526306152344
879.401,6.721593856811523,-47.846717834472656,2.473702907562256,-0.8361259698867798,0.0631595253944397,0.6106585264205933,2.282341718673706,59.419410705566406,-126.85247802734376,-1.2458479404449463,-11.12646770477295,3.897761821746826,-1.0063127279281616,-0.0042736059986054,0.0439895465970039,-99.67623138427734,85.48815155029297,125.17277526855467,48.37982469565648,1.0373040051293203,11.855081943838831,1.0072828055259653,-101.95857310295104,26.06874084472656,252.02525329589844
894.356,-0.8745472431182861,-50.88676452636719,4.344406127929688,-0.8471024036407471,-0.0187556929886341,0.6039077639579773,2.2949254512786865,58.35529708862305,-126.80233001708984,-2.284581661224365,-12.49123477935791,4.75269889831543,-0.9603456258773804,-0.1040915250778198,0.0207172818481922,-96.57433319091795,85.60808563232422,128.338623046875,51.07936473221629,1.0404993251521786,13.558702242393704,0.9661925131680648,-98.86925864219666,27.25278854370117,255.14095306396484
916.785,-6.893246650695801,-57.29222869873047,9.341501235961914,-0.8808687925338745,-0.0183747448027133,0.5741986632347107,2.336867094039917,57.19411087036133,-126.57489013671876,-5.286727428436279,-12.890413284301758,0.8641327619552612,-0.9454596042633056,-0.1858104020357132,0.00651740655303,-93.32618713378906,85.58100891113281,131.70265197753906,58.45665029743358,1.051651827254239,13.95918933795828,0.9635672500591628,-95.66305422782898,28.386898040771484,258.2775421142578
939.215,-5.085530757904053,-63.11927032470703,10.30581760406494,-0.8637127876281738,0.0655432567000389,0.6203128099441528,2.505034208297729,55.90030670166016,-126.26502990722656,-1.0706969499588013,-9.894118309020996,-4.236318588256836,-0.9897302389144896,-0.0580791495740413,0.010031727142632,-90.78245544433594,85.51287841796875,134.2491912841797,64.15695430661656,1.065403059969366,10.816023495387109,0.991483620130177,-93.28748965263368,29.6125717163086,260.51422119140625
962.152,-3.5282742977142334,-65.12210845947266,5.580382347106934,-0.8681996464729309,0.0538368038833141,0.6977882981300354,2.533742904663086,54.55290222167969,-126.1519775390625,-0.1689779162406921,-8.703948020935059,-2.905907392501831,-1.028714299201965,0.0242898967117071,0.0800170451402664,-88.10919189453125,85.51187133789062,136.90086364746094,65.45592713320264,1.115158076953803,9.177775463646578,1.032107473075278,-90.64293479919434,30.958969116210938,263.05284118652344
983.224,4.246028423309326,-70.64836120605469,5.252748966217041,-0.8785808682441711,-0.0073409425094723,0.6847126483917236,2.641873359680176,53.11878967285156,-126.1081771850586,-8.277445793151855,-10.334077835083008,2.357099294662476,-1.000622272491455,-0.0711644068360328,0.0311634428799152,-85.51243591308594,85.55308532714844,139.6444854736328,70.9704943633255,1.1139073760188578,13.448612963611511,1.0036336309522604,-88.15430927276611,32.434295654296875,265.7526626586914
994.286,1.6497328281402588,-78.49124145507812,8.404067993164062,-0.8543045520782471,0.0464594103395938,0.6254606246948242,2.810126543045044,51.5560188293457,-125.94377899169922,-5.392995834350586,-8.901619911193848,-0.6810611486434937,-0.9886944890022278,-0.1691821962594986,-0.0392789244651794,-83.84718322753906,85.47151184082031,141.3944549560547,78.95710837155413,1.0598092930118874,10.430104764616564,1.00383377210657,-86.6573097705841,33.91549301147461,267.3382339477539
1016.673,-9.424497604370115,-81.54547119140625,8.094255447387695,-0.8376127481460571,0.047251783311367,0.73484867811203,2.7326583862304688,49.89864730834961,-125.80508422851562,5.787687301635742,-7.860291481018066,-4.549987316131592,-1.0140645503997805,-0.1530568301677703,0.0264549478888511,-81.94761657714844,85.31658172607422,143.14903259277344,82.48637462133253,1.1152714587067547,10.76958174884425,1.0258914025891417,-84.6802749633789,35.41793441772461,268.95411682128906
1039.199,-4.060207366943359,-88.13798522949219,8.392005920410156,-0.8396378755569458,0.0262688267976045,0.7582176923751831,2.7406580448150635,48.11822128295898,-125.6820297241211,14.535150527954102,-8.405912399291992,-0.6713635325431824,-0.989121913909912,-0.0641439035534858,0.0289194379001855,-79.60669708251953,85.2844009399414,145.1859893798828,88.62965354521569,1.1316253277308048,16.80418677376814,0.991621366665901,-82.3473551273346,37.16617965698242,270.8680191040039
1062.337,1.525935173034668,-95.38642120361328,7.106532096862793,-0.8370252847671509,0.0500080622732639,0.790185809135437,2.8326964378356934,46.19977951049805,-125.6030731201172,12.20900535583496,-6.95734167098999,-1.8718907833099363,-1.019926905632019,-0.015348631888628,-0.0104304840788245,-77.94152069091797,85.26094818115234,146.60043334960938,95.6629532610674,1.1521743559856217,14.176332036543911,1.0200957152792465,-80.77421712875366,39.0611686706543,272.20350646972656
1084.174,0.0797994211316108,-100.88645935058594,3.690942049026489,-0.7757225632667542,0.068860575556755,0.8445789813995361,2.827347755432129,44.15340042114258,-125.6257095336914,3.896187067031861,-8.356554985046387,-2.669428825378418,-1.036454439163208,-0.0184646025300025,0.0775933936238288,-75.65996551513672,85.1973876953125,148.7984619140625,100.95398506970548,1.1488258918778895,9.598861137300151,1.039518869834393,-78.48731327056885,41.04398727416992,274.4241714477539
1094.19,-2.711933135986328,-108.19161987304688,4.607393741607666,-0.7891579866409302,0.0529310442507267,0.8474786877632141,2.767759323120117,41.98546600341797,-125.63880920410156,-0.6775742173194885,-9.237329483032228,1.8830293416976929,-0.968196988105774,-0.09647236764431,0.0122464150190353,-73.60789489746094,85.17671203613281,150.8722381591797,108.32363209003904,1.1592204922004692,9.451622204667672,0.9730684971659548,-76.37565422058105,43.19124603271485,276.51104736328125
1119.146,-7.797066211700439,-117.3545913696289,6.279206275939941,-0.791581392288208,0.0717386677861213,0.891772985458374,2.6429574489593506,39.64157485961914,-125.60692596435548,3.091362714767456,-7.257812976837158,-0.8478043675422668,-0.998753786087036,-0.1177351400256156,0.0242321919649839,-72.10154724121094,85.09662628173828,152.3230438232422,117.78082521572864,1.1945738129835288,7.934175753449378,1.0059611759642957,-74.74450469017029,45.45505142211914,277.92996978759766
1141.7,-7.8370256423950195,-126.29757690429688,5.248955249786377,-0.741792619228363,0.0556084029376506,0.8902648687362671,2.4896252155303955,37.12680435180664,-125.61093139648438,6.343784809112549,-3.820995092391968,-4.178274154663086,-1.006397008895874,-0.0897533595561981,0.0343711376190185,-71.42776489257812,84.98662567138672,152.86041259765625,126.64931280520474,1.1601379749516667,8.503033818110813,1.010975756468676,-73.91739010810852,47.85982131958008,278.4713439941406
1161.712,2.8469672203063965,-133.49046325683594,4.04179048538208,-0.7170459032058716,0.0375880226492881,0.9354516267776488,2.5199999809265137,34.47178649902344,-125.65410614013672,12.431328773498535,-2.092989206314087,-0.4003424346446991,-1.0087157487869265,-0.0389518365263938,0.0436662137508392,-70.58924865722656,84.98815155029297,153.44386291503906,133.58197884896708,1.17925291298854,12.612644962795754,1.0104115229167183,-73.10924863815308,50.51636505126953,279.0979690551758
1184.115,12.634613990783691,-142.45362854003906,2.655874013900757,-0.6255053281784058,0.1347129642963409,0.9639599919319152,2.7755239009857178,31.62046241760254,-125.71754455566406,9.633132934570312,-1.6675825119018557,2.384570360183716,-1.028973937034607,0.0193950906395912,0.0274954177439212,-69.66436004638672,85.0807113647461,154.17291259765625,143.03748956723635,1.1569889214570988,10.063014328309924,1.0295239339783848,-72.43988394737244,53.46024894714356,279.8904571533203
1194.1219999999998,5.319694519042969,-145.49603271484375,1.4109848737716677,-0.5434261560440063,0.1288237422704696,0.9502948522567748,2.8632848262786865,28.70701026916504,-125.82699584960938,-2.466298341751098,-2.1498024463653564,3.388366222381592,-1.0748895406723022,0.0210906267166137,0.0843807980418205,-68.45779418945312,85.17613983154297,155.4212188720703,145.60008778791595,1.102255800561312,4.710127782332363,1.078402734723993,-71.32107901573181,56.46912956237793,281.2482147216797
1224.027,-4.802131175994873,-145.19432067871094,2.457371234893799,-0.5285656452178955,0.0101748751476407,0.9707814455032348,2.698103904724121,25.81707572937012,-125.93982696533205,-14.59422492980957,-6.209630966186523,4.731105327606201,-1.0126714706420898,-0.070465013384819,0.1212712675333023,-66.4619140625,85.20269012451172,157.69903564453125,145.29449368289872,1.1053966637918853,16.55095996185724,1.0223382737102575,-69.16001796722412,59.3856143951416,283.6388626098633
1234.081,2.659620523452759,-150.49436950683594,8.146517753601074,-0.515023410320282,0.0094403140246868,0.9687721729278564,2.739406108856201,22.839235305786133,-125.9254150390625,-12.693117141723633,-5.963367938995361,5.483070373535156,-0.918721079826355,-0.1227702125906944,0.0764540508389473,-64.80904388427734,85.21463012695312,159.60598754882812,150.73816565853048,1.0972045186500914,15.057922853783488,0.9300355743231288,-67.54844999313354,62.37539482116699,285.5314025878906
1256.578,-0.6466730833053589,-158.5609588623047,10.93966293334961,-0.5113867521286011,0.1140626221895217,1.0132205486297607,2.786566734313965,19.71465301513672,-125.84349822998048,-9.25905418395996,-3.778665781021118,3.101982593536377,-0.9687169790267944,-0.0349112600088119,0.0376426503062248,-63.771121978759766,85.26004028320312,160.82972717285156,158.93920877651763,1.1406763661087145,10.470467777361671,0.970076466394417,-66.55768871307373,65.5453872680664,286.67322540283203
1279.363,-27.092662811279297,-162.0980682373047,6.896234512329102,-0.497378945350647,0.1489597260951995,0.995903730392456,2.2774250507354736,16.51944923400879,-125.84065246582033,-21.300182342529297,-3.165469169616699,-2.6092185974121094,-1.056264042854309,0.0168780367821455,0.0603561699390411,-63.420597076416016,85.22663879394531,161.59178161621094,164.4911978037749,1.12312023198146,21.691610926297564,1.0581216676744976,-65.69802212715149,68.70718955993652,287.43243408203125
1294.119,-34.242958068847656,-163.00411987304688,1.4705610275268557,-0.4351272583007812,0.030508441850543,0.9671719074249268,1.5698708295822144,13.35189723968506,-125.92298889160156,-35.14984130859375,-0.7880649566650391,-0.693466305732727,-1.0159505605697632,-0.0407257452607154,0.0512386560440063,-63.85649490356445,85.22299194335938,161.83407592773438,166.56856192759537,1.060984445905063,35.165512734957154,1.0180567409148926,-65.42636573314667,71.87109470367432,287.75706481933594
1317.187,-22.180774688720703,-165.199951171875,3.597388505935669,-0.3112636804580688,-0.0132103767246007,1.0324996709823608,1.104458928108215,10.098172187805176,-125.93081665039062,-33.399322509765625,4.11452579498291,1.6225945949554443,-1.0510841608047483,-0.145724281668663,0.0700695514678955,-65.22459411621094,85.25062561035156,161.10940551757812,166.72117992937885,1.078478170110175,33.690902033761205,1.0634487394347611,-66.32905304431915,75.15245342254639,287.04022216796875
1339.196,-12.069683074951172,-166.03546142578125,9.16610050201416,-0.1981439888477325,-0.014068990945816,0.98256653547287,0.8625264167785645,6.804184436798096,-125.80634307861328,-17.65058708190918,5.914608001708984,2.5847792625427246,-0.9896879196166992,-0.1754295527935028,0.0933824107050895,-66.5063247680664,85.2833251953125,160.1861114501953,166.7257301642877,1.0024449977200156,18.7937994026224,1.0094443921572165,-67.36885118484497,78.4791407585144,285.9924545288086
1354.638,-23.374107360839844,-166.61883544921875,12.525923728942873,-0.238618791103363,0.0683226883411407,0.9283709526062012,0.4240006804466247,3.5006120204925537,-125.59344482421876,-9.267223358154297,5.211057662963867,2.4823882579803467,-0.998798131942749,-0.0889427289366722,0.0331055968999862,-67.63288116455078,85.36687469482422,159.24972534179688,168.71598616205043,0.9609784299622632,10.917820396032065,1.0032968144817025,-68.0568818449974,81.86626267433167,284.8431701660156
1376.798,-39.33839416503906,-164.92098999023438,13.010634422302246,-0.1798938512802124,0.070058986544609,0.9988617897033693,-0.3350213468074798,0.251724511384964,-125.3359146118164,-10.872754096984863,2.426107883453369,-0.5729604363441467,-1.016474723815918,-0.0644838064908981,0.0748434588313102,-68.13878631591797,85.3733901977539,158.95913696289062,170.04622548858225,1.0173470077871671,11.154867313297428,1.0212642012652926,-67.80376496911049,85.12166568636894,284.29505157470703
1398.863,-34.2891731262207,-163.6622772216797,13.010492324829102,-0.0781363248825073,-0.0304779689759016,0.9369667768478394,-1.039733648300171,-2.957185983657837,-125.0351333618164,-18.408552169799805,11.44672679901123,-5.567517280578613,-1.0132365226745603,-0.0884133875370025,0.0830335244536399,-71.20828247070312,85.33283996582031,156.24986267089844,167.72108182813605,0.9407129917119618,22.380786314805484,1.0204703543761555,-70.16854882240295,88.29002594947815,281.28499603271484
1421.357,-23.37364959716797,-163.72166442871094,15.283799171447754,-0.0252880007028579,-0.028597081080079,0.9559332728385924,-1.541987061500549,-6.163900852203369,-124.65430450439452,-22.868013381958008,9.531899452209473,-3.987517833709717,-1.0296297073364258,-0.099345713853836,0.0386728383600711,-74.05059051513672,85.30250549316406,153.85665893554688,166.08643959068954,0.9566951960503154,25.09389251747514,1.0351340461590692,-72.50860345363617,91.46640634536745,278.5109634399414
1443.251,-31.13543128967285,-164.31748962402344,17.051006317138672,0.0149848526343703,0.0382831431925296,0.9982134103775024,-2.1850690841674805,-9.369384765625,-124.20923614501952,-12.647780418395996,3.105095863342285,-1.72869074344635,-1.0026733875274658,-0.0582236610352993,0.0499826110899448,-74.89692687988281,85.29496765136719,153.2665252685547,168.10826658544218,0.9990596366176836,13.13759268355446,1.005605378949181,-72.71185779571533,94.6643524169922,277.4757614135742
1453.966,-41.11717987060547,-167.48486328125,14.279375076293944,0.0205044392496347,0.0450334288179874,1.012867450714111,-3.072813034057617,-12.675249099731444,-123.76720428466795,-10.464638710021973,-2.1931381225585938,-4.86118221282959,-0.9990878105163574,0.0223298035562038,0.0469203442335128,-74.57242584228516,85.24205017089844,153.7981414794922,173.04826627684028,1.014075398802352,11.745195216012416,1.0004381999665042,-71.49961280822754,97.91729927062988,277.56534576416016
1476.916,-33.3956298828125,-173.25369262695312,8.013282775878906,0.0471571013331413,-0.0084146363660693,0.905723750591278,-3.834925651550293,-16.12259864807129,-123.38558197021484,-17.714792251586914,7.554340839385986,-1.6652710437774658,-0.970379114151001,0.0417294986546039,0.0009883255697786,-76.66645050048828,85.32294464111328,152.06613159179688,176.6248080111929,0.9069895868732172,19.33015927724711,0.971276455508872,-72.83152484893799,101.44554328918456,275.4517135620117
1498.778,-24.45933723449707,-174.47027587890625,2.7425057888031006,0.1576771289110183,-0.0382835678756237,0.8495351076126099,-4.406962871551514,-19.538976669311523,-123.06954193115234,-36.35714721679688,12.485149383544922,-1.0724694728851318,-1.0319154262542725,-0.0456833690404892,0.0061241006478667,-80.38053131103516,85.37881469726562,149.0810546875,176.1977800121617,0.8648916739206581,38.45609574103361,1.032944297509392,-75.97356843948364,104.91779136657716,272.15059661865234
1521.491,-32.09218978881836,-174.45779418945312,3.1512234210968018,0.3483689129352569,-0.0026818281039595,0.918244481086731,-5.140882968902588,-23.00690650939941,-122.7094497680664,-39.613861083984375,-5.888125419616699,4.031509399414063,-1.068398118019104,-0.1496642380952835,0.0516777522861957,-79.43899536132812,85.40303802490234,150.81533813476562,177.41296685400644,0.9821104921280048,40.251473003803376,1.0800669020170734,-74.29811239242554,108.40994453430176,273.52478790283203
1543.896,-50.93961334228516,-170.0072784423828,8.656515121459961,0.3296772837638855,-0.0736113488674163,0.8573206663131714,-6.386654376983643,-26.336669921875,-122.1507797241211,-20.937061309814453,-23.247987747192383,4.897518157958984,-1.108102560043335,-0.108072429895401,0.0729693546891212,-73.87165069580078,85.37322235107422,156.82603454589844,177.68583000592776,0.921468646780602,31.66725682297212,1.1157488339235833,-67.48499631881714,111.70989227294922,278.9768142700196
1553.944,-36.03487014770508,-169.77658081054688,5.901522159576416,0.3000849783420563,-0.1781791001558303,0.7238806486129761,-7.428041934967041,-29.666173934936523,-121.53478240966795,-16.645009994506836,-8.425516128540039,-1.0013031959533691,-0.9284830093383788,-0.1107734367251396,0.063584916293621,-72.18085479736328,85.27374267578125,158.8711395263672,173.65893936703085,0.8036180556677636,18.68283404196877,0.9372270239883276,-64.75281286239624,114.93991661071776,280.4059219360352
1577.016,-23.61095428466797,-169.99404907226562,5.073883056640625,0.3672506511211395,-0.0588928833603858,0.7374299764633179,-8.210277557373047,-32.97286605834961,-120.89373779296876,-17.32295799255371,-15.968782424926758,5.1635565757751465,-1.0199623107910156,-0.0022150164004415,0.0010417862795293,-68.5833969116211,85.31156158447266,162.8349609375,171.70089741026106,0.8259203246355489,24.11947765308488,1.0199652479621326,-60.37311935424805,118.28442764282228,283.72869873046875
1601.263,-36.473052978515625,-165.8990936279297,0.7735397815704346,0.472328782081604,-0.0273095108568668,0.6581742167472839,-9.234233856201172,-36.26398086547852,-120.3027114868164,-25.519428253173828,-34.06934356689453,6.740901470184326,-1.0616405010223389,0.0115577643737196,-0.0195459499955177,-61.29933166503906,85.1981201171875,170.6424560546875,169.8628600487342,0.8105760836323962,43.09757698616846,1.0618833172667834,-52.06509780883789,121.46210098266602,290.9451675415039
1623.7220000000002,-49.38090515136719,-157.54039001464844,-4.772076606750488,0.4695067107677459,-0.1685278117656707,0.6472169160842896,-10.60325813293457,-39.36670303344727,-119.7151107788086,-31.667593002319336,-35.137794494628906,5.76131534576416,-1.00525963306427,-0.0760166943073272,0.0403868518769741,-54.6038932800293,84.912841796875,177.98318481445312,165.1672515805617,0.8171461994405478,47.65179747943046,1.0089383358196164,-44.00063514709473,124.27954483032228,297.6982955932617
1643.893,-20.19556999206543,-153.59112548828125,-8.733495712280273,0.5014370083808899,-0.2543232142925262,0.505231499671936,-11.393290519714355,-42.42596435546875,-119.14847564697266,-28.50262260437012,-14.680601119995115,6.4879961013793945,-0.917110800743103,-0.1436513066291809,0.0511462092399597,-52.07414627075195,84.800537109375,-178.89549255371094,155.15917254038766,0.755895653488504,32.71106292958189,0.9297009483998304,-40.6808557510376,127.22650146484376,-59.74701690673828
1653.7900000000002,-4.316329002380371,-147.8542022705078,-7.918144226074219,0.5896932482719421,-0.1367108970880508,0.5540981292724609,-11.926530838012695,-45.37593078613281,-118.52101135253906,-21.35150146484375,-22.579265594482425,2.3795127868652344,-0.96454119682312,-0.0629931762814521,0.0342801809310913,-48.4491081237793,84.52696228027344,-174.82981872558594,148.1289736448948,0.8206416594978437,31.166840242351448,0.967203696969605,-36.5225772857666,129.90289306640625,-56.30880737304688
1676.992,-15.293208122253418,-136.32444763183594,-10.060806274414062,0.6098889112472534,-0.0838044807314872,0.5527340173721313,-12.601848602294922,-48.0923957824707,-117.99197387695312,-19.261335372924805,-25.02517890930176,9.70380401611328,-1.0728247165679932,-0.1026960387825965,-0.0510453172028064,-44.42835998535156,84.35276794433594,-170.40643310546875,137.5480172873714,0.8273467042379331,33.03668312912151,1.0789369644558326,-31.82651138305664,132.44516372680664,-52.414459228515625
1698.666,-19.27254104614257,-125.05379486083984,-13.27385139465332,0.6294887065887451,-0.1718717366456985,0.48643359541893,-13.36014461517334,-50.60291290283203,-117.51263427734376,-35.53875732421875,6.863176345825195,17.98025131225586,-0.969684898853302,-0.1530870944261551,-0.0648998022079467,-43.86288833618164,84.7077865600586,-169.11480712890625,127.22451642006584,0.8138879335219112,40.415292884692605,0.9838376115348568,-30.5027437210083,135.31069946289062,-51.6021728515625
1721.179,0.7071177959442139,-114.47013854980467,-8.794431686401367,0.5913596749305725,-0.2437340021133422,0.4555666446685791,-13.860894203186035,-52.87266540527344,-116.88278198242188,-38.77009963989258,31.21991920471192,17.743860244750977,-0.9715570211410522,-0.1468998342752456,-0.0916385054588317,-47.458133697509766,85.43055725097656,-171.89852905273438,114.80964534339266,0.7852728803764756,52.84551596513362,0.9868638317018706,-33.59723949432373,138.30322265625,-55.0157470703125
1733.711,-4.446969509124756,-102.23289489746094,-8.895719528198242,0.7199029326438904,-0.0673056244850158,0.4143815338611603,-14.356451988220217,-54.95965576171875,-116.36446380615234,-30.44346046447754,31.066036224365234,17.049198150634766,-0.9886870384216307,-0.1112606897950172,-0.0492123961448669,-52.019309997558594,86.13349914550781,-175.79446411132812,102.7155010835986,0.8333680670158412,46.71806983732727,0.9961439961024298,-37.66285800933838,141.09315490722656,-59.43000030517578
1756.155,-24.162351608276367,-87.02791595458984,-7.805474281311035,0.7728967070579529,-0.1113050952553749,0.4272891879081726,-15.270283699035645,-56.72758483886719,-115.84500122070312,-30.78522491455078,30.31521224975586,16.952774047851562,-0.9741811156272888,-0.04679761454463,-0.0744430720806121,-57.65400695800781,86.82478332519531,179.2519989013672,90.6565100773096,0.8901315600033856,46.41269992905752,0.97814141807445,-42.38372325897217,143.5523681640625,295.0970001220703
1779.65,-6.40198278427124,-72.8696517944336,-8.206130981445312,0.745215117931366,-0.2385785579681396,0.3130058348178863,-15.78725528717041,-58.18352890014648,-115.39291381835938,-35.94381332397461,42.88946914672852,24.848451614379883,-0.8640424609184265,-0.1230889409780502,-0.1034962832927703,-69.78501892089844,87.7334976196289,167.9897003173828,73.60918503758033,0.8427561645847859,61.228341702099776,0.8788809602650896,-53.99776363372803,145.9170265197754,283.3826141357422
1793.63,14.556196212768556,-57.06560897827149,-3.951152801513672,0.7316620945930481,-0.2580327987670898,0.3270859122276306,-15.883249282836914,-59.30338668823242,-114.94152069091795,-25.1923828125,51.93144607543945,19.20970916748047,-0.9326313138008118,-0.1294265836477279,-0.0765621289610862,-95.01018524169922,88.32228088378906,143.49964904785156,59.02523345745026,0.8419593457416131,60.83209818473307,0.9446767529835824,-79.1269359588623,147.62566757202148,258.4411697387696
1816.088,-1.3439598083496094,-40.57398986816406,-1.2844103574752808,0.8397089242935181,-0.1616058498620987,0.2982501983642578,-16.287755966186523,-60.11760711669922,-114.51585388183594,-11.665766716003418,35.34141159057617,8.895206451416016,-0.921500325202942,-0.0953891947865486,-0.0328496322035789,-115.17191314697266,88.26155853271484,123.60205078125,40.61655563627631,0.9056382882101152,38.26526080010481,0.9270064973704684,-98.88415718078612,148.37916564941406,238.117904663086
1839.637,-2.3193283081054688,-25.818084716796875,-2.723920583724976,0.8447566032409668,-0.1803392469882965,0.3332587480545044,-16.583166122436523,-60.676719665527344,-114.25363159179688,-8.783829689025879,21.33103370666504,14.481057167053224,-0.9049269556999208,-0.0088337399065494,-0.0340154655277729,-129.57937622070312,88.29176330566406,109.36581420898438,26.06477557146657,0.9258495319858284,27.23728473391127,0.9056091220875228,-112.9962100982666,148.9684829711914,223.61944580078125
1861.112,2.4661879539489746,-13.935068130493164,-9.71872901916504,0.875712513923645,-0.1511980295181274,0.2969010174274444,-16.40152359008789,-61.06139755249024,-114.42166900634766,-8.540961265563965,19.188064575195312,19.33049964904785,-0.93552964925766,0.0207555685192346,-0.0533026307821273,-145.2133331298828,88.27557373046875,93.83924865722656,17.16746634112471,0.9369543560505424,28.54466777111915,0.937276740729766,-128.81180953979492,149.33697128295898,208.26091766357425
1883.569,3.909676551818848,-0.1013925671577453,-12.354440689086914,0.8430010080337524,-0.2181701958179474,0.3203047513961792,-16.001880645751953,-61.173248291015625,-114.8172378540039,-0.700756847858429,10.021519660949709,12.892776489257812,-0.9791125655174256,-0.0401840358972549,-0.0422464944422245,-153.57200622558594,88.21150207519531,85.4489974975586,12.95870579698001,0.927816828720051,16.34458938231796,0.9808470517811448,-137.57012557983398,149.38475036621094,200.2662353515625
1893.597,-10.432450294494627,10.881147384643556,-9.737615585327148,0.857526421546936,-0.2108312845230102,0.313625305891037,-15.81361484527588,-61.03862380981445,-115.283447265625,15.866402626037598,2.621910095214844,5.945986747741699,-0.9735503196716307,-0.0995676890015602,0.0490974262356758,-154.9533233642578,88.24408721923828,83.7647476196289,17.94593393616065,0.9371031035483568,17.145608861841044,0.9798594322089336,-139.13970851898193,149.2827110290527,199.0481948852539
1916.084,-8.651437759399414,17.88176918029785,-7.275089263916016,0.8761589527130127,-0.2013613879680633,0.3055055737495422,-15.584769248962402,-60.76338195800781,-115.74909210205078,19.01517677307129,-1.6935676336288452,2.6192874908447266,-0.9548829197883606,-0.0290081351995468,0.0307236723601818,-154.83433532714844,88.34861755371094,83.54315948486328,21.154951385435943,0.949491745396254,19.269296458369222,0.9558173499443268,-139.24956607818604,149.11199951171875,199.2922515869141
1939.525,-1.7759802341461182,27.239707946777344,-10.414304733276367,0.910737693309784,-0.1417915374040603,0.3321343660354614,-15.067538261413574,-60.372371673583984,-116.3991241455078,17.331134796142578,-2.616868734359741,4.65148401260376,-0.9771140813827516,0.0280597638338804,-0.0439869277179241,-156.9863739013672,88.4627685546875,81.07073211669922,29.216665413687185,0.979725075312667,18.13429179246992,0.9785060695738852,-141.9188356399536,148.83514022827148,197.46985626220703
1962.27,-4.970984935760498,38.430702209472656,-12.26891803741455,0.9063408970832824,-0.1327680647373199,0.4186039865016937,-14.441218376159668,-59.732383728027344,-117.24278259277344,19.96136283874512,-14.53051471710205,5.001124858856201,-1.024921178817749,-0.0018777777440845,-0.0377314463257789,-156.0767822265625,88.88582611083984,81.714111328125,40.646720819194265,1.0071298219469689,25.1913301391138,1.025617185347562,-141.63556385040283,148.6182098388672,198.95689392089844
1983.484,-8.60132884979248,46.40314865112305,-9.68057632446289,0.8788052797317505,-0.1593580394983291,0.3612819612026214,-13.989439964294434,-58.94697570800781,-117.98965454101562,26.665372848510746,-21.474334716796875,2.394700050354004,-0.9758793115615844,-0.091884009540081,-0.0109981689602136,-147.73422241210938,89.70194244384766,89.83982849121094,48.17622464135444,0.963440895918148,34.320893767649565,0.9802571405827918,-133.74478244781494,148.64891815185547,207.82948303222656
1993.548,-12.96754550933838,53.18060302734375,-3.9704902172088623,0.8554608821868896,-0.1717216074466705,0.4161828458309173,-13.783247947692873,-57.9732780456543,-118.5588150024414,35.10863494873047,-26.23398971557617,5.840346336364746,-0.9682871699333192,-0.0778642892837524,-0.0235514491796493,-132.56272888183594,90.0,105.01427459716795,54.8825889281258,0.9667004668354936,44.21479514471218,0.971698287413126,-118.77948093414308,147.9732780456543,223.57308959960932
2019.636,-7.796666145324707,58.39591979980469,-0.9208046793937684,0.8377060294151306,-0.1523606479167938,0.4301744401454925,-13.531126976013184,-56.88338851928711,-119.05960083007812,38.05682373046875,-25.47757339477539,7.581860065460205,-1.0020523071289062,-0.0093100843951106,-0.0397759862244129,-99.67049407958984,90.0,138.26824951171875,58.921297792092695,0.9539471723877464,46.42104243325818,1.0028846558672302,-86.13936710357666,146.8833885192871,257.3278503417969
2041.13,-4.500819206237793,65.95606994628906,-0.0080325379967689,0.8137727975845337,-0.1006334424018859,0.4586540460586548,-13.156798362731934,-55.636695861816406,-119.61346435546876,37.38286209106445,-20.99497413635254,5.415810108184815,-1.000462770462036,0.0090738330036401,-0.0372174568474292,-48.647071838378906,90.0,-173.1096954345703,66.10945923851352,0.9395300898769484,43.21571839312141,1.001195899222595,-35.49027347564697,145.6366958618164,-53.49623107910156
2061.094,-4.649039268493652,71.89669799804688,0.2507662773132324,0.776743471622467,-0.1297695189714431,0.4352772831916809,-12.827836036682127,-54.2812385559082,-120.14020538330078,36.02605056762695,-17.289060592651367,1.5311782360076904,-1.0003719329833984,-0.0267974436283111,-0.0061616552993655,-27.10500144958496,90.0,-153.270751953125,72.04728747751848,0.8997982340641333,39.989154060420034,1.00074975557428,-14.277165412902832,144.2812385559082,-33.13054656982422
2083.3430000000003,-5.759140491485596,78.62166595458984,3.453644275665283,0.7236307859420776,-0.208797812461853,0.489987701177597,-12.667205810546877,-52.73747634887695,-120.52696228027344,34.42017364501953,-14.656424522399902,-4.558518409729004,-0.9991980195045472,-0.0674717798829078,-0.004940902814269,-25.614192962646484,90.0,-152.48252868652344,78.90793189191196,0.8985132097845364,37.68738812422453,1.0014856642923038,-12.94698715209961,142.73747634887695,-31.95556640625
2093.474,0.0120643377304077,85.85189056396484,8.49412727355957,0.726450502872467,-0.1633674502372741,0.4599668681621551,-12.464651107788086,-51.067989349365234,-120.8130111694336,36.15937805175781,2.9890921115875244,-12.319022178649902,-0.9426349997520448,-0.0700492560863494,-0.0600969791412353,-40.48971176147461,90.0,-167.73141479492188,86.2710696415355,0.8752078477296635,38.31701449982197,0.9471426967134838,-28.025060653686523,141.06798934936523,-46.91840362548828
2115.834,-3.3924856185913086,96.4365463256836,10.11220645904541,0.7480639815330505,-0.0459112897515296,0.5391107201576233,-12.208612442016602,-49.18222427368164,-121.19789123535156,35.090030670166016,24.551233291625977,-20.128963470458984,-1.0580064058303833,-0.0054706800729036,-0.0641106367111206,-73.55809020996094,90.0,159.0999755859375,97.0246007225406,0.9232269144596036,47.32069820879767,1.0599611581836814,-61.349477767944336,139.18222427368164,280.29786682128906
2133.393,-5.618810176849365,109.08011627197266,3.0881266593933105,0.7063870429992676,-0.1065597683191299,0.4844958782196045,-11.876359939575195,-47.09010314941406,-121.79132080078124,35.04387664794922,22.92154121398925,-12.465048789978027,-1.078342080116272,0.0777551978826522,-0.0233521033078432,-95.57312774658205,89.63630676269531,136.5153045654297,109.268382068991,0.8631766301014304,43.69036259265676,1.0813939306636406,-83.69676780700684,136.72640991210938,258.30662536621094
2153.485,-4.7528486251831055,121.20689392089844,1.55161452293396,0.6488509178161621,-0.1697590500116348,0.5041579604148865,-11.525693893432615,-44.71824264526367,-122.43067169189452,30.51453018188477,17.26361083984375,-7.154975891113281,-0.9961735010147096,0.0177877284586429,0.0305813029408454,-107.0128936767578,89.2022933959961,124.4029312133789,121.30996748673874,0.8390476134650685,35.7821532534466,0.9968015166005624,-95.4871997833252,133.92053604125977,246.83360290527344
2175.905,5.657979965209961,123.14783477783205,2.8006341457366943,0.6435253620147705,-0.2281896322965622,0.5736591815948486,-11.066195487976074,-42.28982162475586,-122.9783172607422,29.16934394836425,10.198387145996094,-10.645061492919922,-0.9871149063110352,-0.0538761429488658,0.0565044209361076,-109.4551773071289,88.77043914794922,121.2451400756836,123.30955153342016,0.8917848711836017,32.68294755596012,0.9901975694909654,-98.38898181915285,131.06026077270508,244.22345733642572
2193.541,5.011331081390381,129.87754821777344,16.15945816040039,0.5413596034049988,-0.0856259912252426,0.5115864872932434,-10.785449981689451,-39.69887924194336,-123.22628784179688,27.94167709350586,2.6047754287719727,-15.818784713745115,-0.9622658491134644,-0.1344648748636245,0.0488067455589771,-106.0156021118164,88.28638458251953,123.99400329589844,130.97487949337884,0.7497484675230506,32.21422238161121,0.9728404110408888,-95.23015213012695,127.98526382446288,247.2202911376953
2215.7580000000003,-18.18479347229004,141.83726501464844,20.67586135864257,0.5026269555091858,-0.1303516626358032,0.5673291087150574,-11.065031051635742,-36.86124801635742,-123.37905883789062,33.81147766113281,-0.0752387642860412,-16.312149047851562,-1.012980818748474,-0.187803253531456,-0.0372652262449264,-103.1412353515625,87.80999755859375,126.09808349609376,144.48525081608594,0.7690823947743003,37.54074971361466,1.0309165331278838,-92.07620429992676,124.67124557495116,249.4771423339844
2237.864,-19.9389591217041,158.52272033691406,24.17629623413086,0.4852479696273803,-0.2393576353788375,0.6814087629318237,-11.443316459655762,-33.649986267089844,-123.5100555419922,40.205169677734375,-0.9443621039390564,-20.70121192932129,-1.1093440055847168,-0.0968588441610336,-0.0048432080075144,-100.05581665039062,87.33060455322266,128.31373596191406,161.5905574390809,0.8701008975066754,45.231489738250296,1.1135749705712497,-88.61250019073486,120.9805908203125,251.82379150390625
2253.716,16.147111892700195,155.71209716796875,22.888822555541992,0.4541850090026855,-0.2107952833175659,0.9010734558105468,-11.037965774536133,-30.449342727661133,-123.69000244140624,42.65191650390625,-7.437491416931152,-18.955337524414062,-1.0942713022232056,0.1243825554847717,0.0459945127367973,-95.26426696777344,86.978515625,132.22335815429688,158.21151862270145,1.0308501572188191,47.26316833113894,1.1022777318716404,-84.2263011932373,117.42785835266112,255.91336059570312
2276.183,11.97223663330078,154.24261474609375,22.42891311645508,0.397555947303772,0.0408447235822677,0.5567857623100281,-10.710827827453612,-27.34950256347656,-123.851318359375,25.6897029876709,-20.27364921569824,-18.87380027770996,-0.9832119941711426,0.1809397041797638,-0.0323026701807975,-87.87701416015625,86.58251953125,139.07833862304688,156.32394185568995,0.6853680819765905,37.77832750452055,1.0002442024483145,-77.16618633270264,113.93202209472656,262.9296569824219
2298.199,-35.479679107666016,176.29544067382812,12.73875331878662,0.2680865824222564,0.0169832333922386,0.6460203528404236,-11.211891174316406,-23.81942749023437,-124.31777954101562,17.83501625061035,-6.12917947769165,-10.994256019592283,-0.9045539498329164,-0.0084986956790089,3.065820783376694e-05,-85.59486389160156,86.34788513183594,141.0142822265625,180.2807972804622,0.6996435822441066,21.82952842261218,0.9045938740266264,-74.38297271728516,110.16731262207033,265.3320617675781
2322.257,-21.18049049377441,183.8246459960937,13.74232006072998,0.2690841853618622,-0.3379401862621307,0.7284491658210754,-11.46196174621582,-20.14446830749512,-124.8066177368164,26.19927406311035,16.240446090698242,-9.619836807250977,-0.93440842628479,-0.1909829229116439,0.1263234913349151,-89.65660858154297,86.14485168457031,136.4356231689453,185.55043792402537,0.8469049861042036,32.29079297349298,0.9620557200177832,-78.19464683532715,106.28931999206544,261.2422409057617
2343.909,24.88519287109375,179.67947387695312,21.90453720092773,0.1760545819997787,-0.28318852186203,1.0043251514434814,-10.897574424743652,-16.511106491088867,-125.0835418701172,30.28944206237793,2.88851284980774,-9.333632469177246,-1.1137540340423584,-0.0879181548953056,0.0171174146234989,-89.72724151611328,85.94352722167969,135.76724243164062,182.712328283882,1.0582343618402732,31.826254916394632,1.1173498360805425,-78.82966709136963,102.45463371276855,260.8507843017578
2353.725,28.06161880493164,171.3816680908203,22.79744338989257,0.1886101812124252,-0.0434073396027088,0.7813085317611694,-10.267122268676758,-13.03449535369873,-125.27369689941406,28.18716049194336,-39.01200866699219,-6.339151859283447,-1.087599515914917,0.0548763386905193,0.0124812880530953,-78.89248657226562,85.80128479003906,146.04922485351562,175.1538010796818,0.8049229897270689,48.545212772498,1.0890545909723273,-68.62536430358887,98.8357801437378,271.3229217529297
2375.592,-12.204672813415527,189.46339416503903,16.007095336914062,0.058513056486845,0.0289669465273618,0.783797025680542,-10.441152572631836,-9.250872611999512,-125.64100646972656,16.343496322631836,-37.54526901245117,-7.250534534454346,-1.004868507385254,0.049468994140625,0.0743109956383705,-69.47624206542969,85.50289154052734,155.1422119140625,190.52967975657896,0.7865116904637947,41.58518183560728,1.0088260616125653,-59.03508949279785,94.75376415252686,280.78321838378906
2398.516,-1.2924599647521973,189.92909240722656,17.847278594970703,-0.0106504671275615,-0.2965218424797058,0.8872571587562561,-10.422012329101562,-5.4298272132873535,-125.98687744140624,6.6553053855896,-10.690831184387209,-11.504803657531738,-0.8584054708480835,-0.1009501367807388,0.2020134031772613,-67.88834381103516,85.1978759765625,156.61155700683594,190.7701652477132,0.9355553972276676,17.057182310888265,0.8876149489284352,-57.4663314819336,90.62770318984984,282.5984344482422
2420.8430000000003,43.84103012084961,183.6632080078125,18.687885284423828,-0.1655508130788803,-0.2620194852352142,0.9049656987190248,-9.528141975402832,-1.7495235204696655,-126.2576141357422,1.5045281648635864,-11.684531211853027,-1.807257890701294,-0.8909024000167847,0.0527439564466476,-0.0936965346336364,-65.66549682617188,85.0973892211914,158.80519104003906,189.7457429145172,0.956568972009869,11.918811002912054,0.8973672892966765,-56.13735485076904,86.84691274166107,285.06280517578125
2443.693,28.06365203857422,174.96311950683594,17.212617874145508,-0.1651265919208526,-0.0018379781395196,0.98097026348114,-8.96694564819336,1.7580446004867554,-126.47466278076172,4.091864109039307,-33.50736618041992,-3.0211992263793945,-1.0731247663497925,-0.0812924057245254,0.1235702186822891,-59.00809097290039,84.70308685302734,165.37498474121094,178.0335248412132,0.9947727516158124,33.89121693007007,1.0832704271450255,-50.04114532470703,82.94504225254059,291.84964752197266
2463.998,-16.10345458984375,182.7696533203125,15.25539493560791,-0.1859611421823501,-0.0732664614915847,0.9061614871025084,-9.31594181060791,5.447933673858643,-126.75270080566406,-3.554762601852417,-36.941383361816406,-8.907966613769531,-1.088516116142273,-0.0920120701193809,0.1208237707614898,-53.66554641723633,84.11053466796875,170.7811737060547,184.11082124415103,0.9279429731880574,38.16613696763464,1.0990595706012196,-44.34960460662842,78.66260099411011,297.53387451171875
2473.722,4.237982749938965,184.7677764892578,16.95088005065918,-0.3901519775390625,-0.3058497607707977,1.0239635705947876,-9.26890468597412,9.181228637695312,-127.02542114257812,4.616280555725098,1.853717565536499,-10.271893501281738,-0.8581466674804688,-0.128361165523529,0.0884238854050636,-55.01636505126953,83.93025970458984,169.32928466796875,185.5920905132138,1.1376572575457082,11.4130675580064,0.8721875229745727,-45.74746036529541,74.74903106689453,296.3547058105469
2500.741,59.57818222045898,173.2236785888672,20.87828063964844,-0.3925063014030456,-0.1085571870207786,0.8829513788223267,-8.098614692687988,12.666863441467283,-127.14034271240234,28.33501434326172,4.070468425750732,-2.3956618309021,-1.0787684917449951,-0.0785788968205452,0.0279312748461961,-55.35812759399414,83.95181274414062,168.4157257080078,184.36893779327715,0.9723420164012304,28.72596293679156,1.0819871801097456,-47.25951290130615,71.28494930267334,295.55606842041016
2520.7160000000003,57.10088348388672,176.93927001953125,13.287492752075195,-0.3812747299671173,0.0756627842783927,0.8082579374313354,-7.009815216064453,16.20916748046875,-127.34310913085938,20.483169555664062,-11.914996147155762,-5.624134063720703,-1.1756116151809692,0.0611948892474174,-0.0428027138113975,-53.81679153442383,83.7399673461914,169.5421600341797,186.3989636058137,0.8968702080329201,24.354840426484493,1.1779811358965098,-46.806976318359375,67.53079986572266,296.88526916503906
2543.955,9.255241394042969,204.1343231201172,-1.2614086866378784,-0.3629868328571319,-0.0340678170323371,0.874172568321228,-6.975225925445557,20.27322578430176,-127.88129425048828,0.4454323053359985,-31.29060935974121,7.205419540405273,-1.2289693355560305,0.0487004518508911,0.2078936100006103,-48.50244903564453,83.47209930419922,174.8593292236328,204.34792027531168,0.9471524355616324,32.11259433299987,1.2473801003810336,-41.527223110198975,63.19887351989746,302.7406234741211
2553.8,10.960895538330078,201.62538146972656,-2.5092992782592773,-0.6012772917747498,-0.3432655930519104,1.2197502851486206,-6.993296146392822,24.27106285095215,-128.47572326660156,-24.870664596557617,-22.11240577697754,21.8322811126709,-0.7357895374298096,-0.1737452149391174,0.2116787880659103,-43.65790939331055,83.47868347167969,-179.78555297851562,201.9386844234725,1.4025535309204418,39.80146913498119,0.78509970858641,-36.664613246917725,59.20762062072754,-51.30982971191406
2584.724,47.42965316772461,178.59458923339844,18.062232971191406,-0.5509174466133118,-0.0122822243720293,0.6106077432632446,-6.068343162536621,27.85891914367676,-128.5314483642578,-11.010578155517578,-11.691716194152832,20.67962646484375,-0.8245881795883179,-0.0883463621139526,-0.0478928498923778,-40.0612907409668,83.60112762451172,-175.9616241455078,185.6659461585849,0.8224978432503568,26.18350644220217,0.8306891540680903,-33.992947578430176,55.74220848083496,-47.43017578125
2593.727,26.71487617492676,186.87371826171875,5.676720142364502,-0.7605204582214355,0.0997194647789001,0.6868572235107422,-5.6868510246276855,31.58726692199707,-128.83641052246094,-1.1160378456115725,-9.681930541992188,-6.193554401397705,-1.0519883632659912,-0.0383057110011577,0.0244170427322387,-39.9053955078125,83.41172790527344,-175.7991180419922,188.8589323743429,1.029615551804662,11.547529416107643,1.0529686775579563,-34.218544483184814,51.82446098327637,-46.96270751953125
2615.438,-4.13627815246582,203.38397216796875,2.166271448135376,-0.6949472427368164,0.024270586669445,0.7884229421615601,-5.992806434631348,35.65669250488281,-129.26687622070312,-18.216920852661133,-10.670225143432615,-7.228306770324707,-1.2036266326904297,0.1044115275144577,0.3093671798706054,-39.82614135742188,83.16527557373047,-175.3907470703125,203.43756207682657,1.0512618452562013,22.31497991774995,1.2471274553872578,-33.83333492279053,47.508583068847656,-46.123870849609375
2633.109,13.04397964477539,205.3715057373047,4.050270080566406,-0.850042998790741,-0.2089505195617675,1.2115260362625122,-6.0454277992248535,39.7227897644043,-129.74258422851562,-44.08806991577149,-11.24902629852295,16.7369327545166,-0.863847553730011,-0.1180761829018592,0.3600475490093231,-37.40036010742188,83.19847869873047,-172.10440063476562,205.8251817963648,1.4946667708757837,48.48116561709327,0.9432967818251148,-31.35493230819702,43.47568893432617,-42.36181640625
2655.4500000000003,63.51123046875,168.66104125976562,22.24899101257324,-0.8661405444145203,-0.0272950958460569,0.5974130630493164,-4.663710594177246,43.12137222290039,-129.57618713378906,-42.12850189208984,6.569271087646484,22.21990394592285,-0.7001288533210754,-0.1635808497667312,-0.261459082365036,-35.8856315612793,83.57583618164062,-169.7705535888672,181.59086110143485,1.0525430313473618,48.08003874437752,0.7650489902053702,-31.22192096710205,40.45446395874024,-40.194366455078125
2677.994,41.07024002075195,159.73870849609375,5.0171427726745605,-1.1219606399536133,0.1249233707785606,0.5156722664833069,-3.978880882263184,46.31450271606445,-129.76730346679688,-8.099199295043945,14.223807334899902,-4.323359489440918,-0.8948312401771545,-0.097003661096096,-0.1386452764272689,-38.17512893676758,83.75442504882812,-171.9403839111328,165.01027643441964,1.241096052927343,16.929417048325423,0.9106893934479662,-34.196248054504395,37.43992233276367,-42.17308044433594
2697.983,7.776660442352295,156.0139923095703,-3.0770602226257324,-1.116974711418152,0.0603103339672088,0.6453274488449097,-4.114114761352539,49.43843460083008,-130.17091369628906,-12.939286231994627,20.74476623535156,-14.511763572692873,-1.1513279676437378,0.0226461812853813,-0.0072235520929098,-42.8709716796875,83.95991516113281,-176.4264678955078,156.23799327826754,1.2914013158439863,28.431703015166075,1.1515733230282426,-38.75685691833496,34.521480560302734,-46.25555419921875
2722.808,-6.6191229820251465,166.90298461914062,-9.48999309539795,-0.9697769284248352,-0.0244506709277629,0.8297857046127319,-4.771486759185791,52.73877334594727,-130.86036682128906,-26.45860290527344,11.768678665161133,2.514364242553711,-1.3006868362426758,-0.0163866989314556,0.2868798077106476,-44.164188385009766,84.16849517822266,-177.2371063232422,167.30355355693723,1.2765615699188086,29.06684524964819,1.3320490959228757,-39.392701625823975,31.42972183227539,-46.376739501953125
2732.985,27.106067657470703,157.5302276611328,-7.259780406951904,-1.0032382011413574,-0.1162914559245109,0.8352184891700745,-4.841163158416748,55.82741928100586,-131.6012420654297,-29.55364227294922,16.290849685668945,23.90188789367676,-0.86468905210495,-0.2463694363832473,0.1104200705885887,-43.5601806640625,84.74983215332031,-176.08006286621094,160.01004950432605,1.3105725907411352,41.35347385601846,0.9058574104144342,-38.71901750564575,28.922412872314453,-44.47882080078125
2755.413,62.32902145385742,129.64031982421875,3.150697469711304,-1.015225172042847,-0.0965503826737403,0.3641621768474579,-3.798865556716919,58.41756820678711,-131.845703125,-13.358199119567873,24.773929595947266,15.16630744934082,-0.7778470516204834,-0.2521828114986419,-0.2068418860435485,-45.2892951965332,85.33384704589844,-177.5495147705078,143.87997196992634,1.0828749777283395,31.97195572671316,0.8434605930048487,-41.49042963981629,26.916278839111328,-45.70381164550781
2777.8230000000003,31.80178642272949,121.70402526855467,0.858646035194397,-1.1249547004699707,0.0643969103693962,0.4208536148071289,-3.344839334487915,60.88365936279297,-132.0694122314453,16.579971313476562,35.57402420043945,-12.323770523071287,-0.9884408116340636,-0.2406412959098816,-0.1131792217493057,-53.51897048950195,85.62251281738281,173.88571166992188,125.7933251776884,1.2028249271073628,41.13735487940952,1.0235882998729384,-50.17413115501404,24.738853454589844,305.9551239013672
2800.293,-7.051595687866211,118.56756591796876,-2.031959295272827,-1.0776163339614868,0.001336011569947,0.5949825644493103,-3.800991535186768,63.24142074584961,-132.4365234375,29.490140914916992,36.07965850830078,-17.100299835205078,-1.105652093887329,-0.1080050840973854,0.0465142577886581,-63.11612319946289,85.7010269165039,163.6981201171875,118.7944508301404,1.2309601943792443,49.6369864487277,1.1118881360487431,-59.31513166427612,22.459606170654297,296.1346435546875
2823.742,12.191373825073242,107.06417846679688,-1.6130986213684082,-1.0169930458068848,-0.0641736015677452,0.6667814254760742,-3.949886560440064,65.30199432373047,-132.8698272705078,22.63661766052246,30.507164001464844,2.227872133255005,-0.9840102791786194,0.0002781711518764,0.023846261203289,-69.69694519042969,86.04175567626953,156.68106079101562,107.76813069583731,1.2177810048270772,38.05347459514156,0.9842992182673668,-65.74705862998962,20.739761352539062,289.55088806152344
2832.881,45.54561614990234,87.49407196044922,2.8877816200256348,-1.0071477890014648,-0.0766485780477523,0.4807269275188446,-3.214064121246338,67.03653717041016,-133.05233764648438,27.552196502685547,28.688861846923828,4.307934284210205,-0.9354730248451232,-0.1047273576259613,-0.0384248755872249,-77.2033920288086,86.28868865966797,148.64552307128906,98.68107752441432,1.1186241782873236,40.00915675181812,0.9421008813880254,-73.98932790756226,19.25215148925781,281.69786071777344
2855.61,30.685747146606445,79.81724548339844,0.9566322565078736,-0.9948357343673706,0.0129495598375797,0.3858497738838196,-2.706619501113892,68.64490509033203,-133.17576599121094,25.628480911254883,31.936485290527344,-5.081324577331543,-0.9944358468055724,-0.0914647355675697,0.0052766702137887,-86.19951629638672,86.26844024658203,139.15586853027344,85.5179682860669,1.0671203669129583,41.262307085169375,0.9986472322661823,-83.49289679527283,17.62353515625,272.3316345214844
2875.255,13.42697811126709,76.93740844726562,-1.7427654266357422,-1.015909194946289,-0.0028978164773434,0.4390981793403625,-2.6967241764068604,70.15606689453125,-133.45697021484375,18.784040451049805,30.48184967041016,-6.975932121276856,-1.0410047769546509,-0.0402909778058528,0.034458503127098,-94.27737426757812,86.13922882080078,130.6990509033203,78.11968888259926,1.1067461772316065,36.47803399248404,1.042353921167237,-91.58065009117126,15.983161926269531,264.15602111816406
2903.136,12.894319534301758,72.9810791015625,-3.2139885425567627,-1.016051173210144,0.0032406388781964,0.5647981762886047,-2.8025591373443604,71.57257843017578,-133.82192993164062,20.138465881347656,27.412118911743164,-1.1199419498443604,-1.0656518936157229,-0.0401452705264091,0.0831451490521431,-100.78282928466795,86.0684585571289,123.7703857421875,74.18106972424222,1.1624833195624713,34.03287148121316,1.0696442010889962,-97.9802701473236,14.495880126953123,257.5923156738281
2917.929,19.12052726745605,62.39290237426758,-2.881826400756836,-1.008863091468811,-0.0052954507991671,0.6083462238311768,-2.789090394973755,72.81844329833984,-134.1891326904297,17.94921112060547,21.98252487182617,-0.5133600234985352,-1.057530403137207,-0.0328877940773963,0.0467970483005046,-105.86968994140624,85.98448181152344,118.29462432861328,65.32054617862985,1.1780992773008672,28.38431112615294,1.0590760710583829,-103.0805995464325,13.166038513183594,252.48375701904297
2940.157,27.39936065673828,52.763221740722656,-3.073824405670166,-1.011265754699707,-0.0549872927367687,0.6013092398643494,-2.6122753620147705,73.87187194824219,-134.5319366455078,13.527610778808594,12.46242904663086,2.4048004150390625,-1.0925674438476562,-0.0120363207533955,0.1082794666290283,-108.27507781982422,86.01163482666016,115.60089111328124,59.53260391865603,1.177817825869998,18.54970232002172,1.0979858538553886,-105.66280245780943,12.139762878417969,250.13282775878903
2962.84,47.21885299682617,45.35756301879883,-4.464724063873291,-0.9771257638931274,-0.0316747575998306,0.6596752405166626,-2.120936632156372,74.77669525146484,-134.9237060546875,3.5825088024139404,5.555842876434326,6.6724534034729,-1.0191956758499146,0.0746244937181472,0.1117162331938743,-110.18048095703124,86.1153564453125,113.6191177368164,65.62668940535333,1.179385209201579,9.39273090259252,1.0280122360618489,-108.05954432487488,11.338661193847656,248.5428237915039
2973.703,61.22150802612305,26.677284240722656,-3.597684860229492,-0.9809881448745728,-0.0829478651285171,0.6233618259429932,-1.2249276638031006,75.30925750732422,-135.18698120117188,-11.012253761291504,-0.6616905331611633,10.006199836730955,-0.9385526776313782,-0.0086627406999468,-0.0102289244532585,-111.3127899169922,86.33915710449219,112.7176742553711,66.87820179854182,1.165245920291857,14.89401230150387,0.938648391391012,-110.08786225318909,11.029899597167969,247.90465545654297
3002.568,49.62894821166992,9.227757453918455,-2.36767578125,-1.0496134757995603,-0.0812790244817733,0.3198086023330688,-0.5821447372436523,75.46983337402344,-135.4550018310547,-16.457881927490234,0.5738919377326965,-0.2637318074703216,-1.017916202545166,-0.2034063190221786,-0.1091195195913314,-111.9798355102539,86.23734283447266,112.3759536743164,50.5350363295613,1.100260092217733,16.46999647728183,1.0437598361586666,-111.39769077301024,10.76750946044922,247.8309555053711
3022.84,33.98078155517578,-4.76612663269043,-4.572939395904541,-1.1247797012329102,-0.0011716748122125,0.4031409323215484,-0.2514589428901672,75.3509292602539,-135.72164916992188,-8.61111068725586,1.4143640995025637,-6.768794536590576,-1.0149271488189695,-0.1771576553583145,-0.1517642438411712,-112.14924621582033,86.03186798095703,112.36803436279295,34.616777043769275,1.1948444921580998,11.043922878792308,1.0413905789714737,-111.89778727293016,10.680938720703123,248.08968353271484
3032.664,39.52003860473633,-33.8451042175293,-0.0985556244850158,-1.10207998752594,-0.0161672551184892,0.4550070762634277,0.4930338561534881,74.6243896484375,-135.76507568359375,3.906936645507813,7.753847122192383,-8.42706298828125,-0.9022803902626038,-0.2276806533336639,-0.2425771355628967,-113.1162109375,85.8067855834961,111.31321716308594,52.0320501616685,1.1924232128288326,12.099656596565154,0.9616610885612356,-113.60924479365347,11.182395935058594,247.0782928466797
3060.078,47.18783187866211,-59.59246444702149,7.739136219024658,-1.0477190017700195,0.1014113426208496,0.3703595995903015,2.055166482925415,73.39012908935547,-135.1337432861328,29.455102920532227,11.690288543701172,-10.799832344055176,-1.014468789100647,-0.2271612584590912,-0.1716644614934921,-114.20729064941406,85.47441101074219,109.6422882080078,76.40580819345489,1.1158698849287123,33.479879225496575,1.053668756651682,-116.26245713233948,12.08428192138672,244.77603149414065
3073.121,28.29526329040528,-65.76395416259766,9.029024124145508,-1.0707402229309082,0.1500709950923919,0.4264454543590545,3.1973679065704346,72.029296875,-134.54640197753906,42.45999526977539,7.508047103881836,-8.978134155273438,-1.1307823657989502,-0.0860085561871528,-0.025788128376007,-114.04166412353516,85.24415588378906,108.98088836669922,72.1598424915687,1.162265741607165,44.04348831023202,1.1343417730580174,-117.2390320301056,13.214859008789062,243.52729034423828
3095.843,10.125269889831545,-69.65046691894531,8.020278930664062,-1.0364816188812256,0.0669277533888816,0.6416712999343872,3.6270053386688232,70.62698364257812,-134.3046112060547,42.032012939453125,-0.9294772744178772,-3.9354922771453857,-1.071516513824463,-0.0350036844611167,0.0126696024090051,-112.48725128173828,85.2125015258789,109.71946716308594,70.83807949468053,1.2208667116486611,42.22608363570419,1.0721629615639527,-116.1142566204071,14.58551788330078,244.02407836914065
3116.366,14.25754451751709,-82.76605987548828,9.100534439086914,-1.0404343605041504,0.0714276880025863,0.5803449153900146,4.144895076751709,68.89828491210938,-134.059814453125,36.42377853393555,-3.1337227821350098,-3.936697006225586,-1.03765606880188,-0.0210651494562625,0.0081684151664376,-110.65740203857422,85.20232391357422,110.8501434326172,84.47673034663984,1.1934847271541091,36.76968104951798,1.0379020091749114,-114.80229711532591,16.304039001464844,244.9099578857422
3132.684,13.483268737792969,-92.8154296875,8.555413246154785,-1.0245097875595093,0.1420924961566925,0.577292263507843,4.581216812133789,66.9786148071289,-133.89248657226562,28.5568962097168,-4.734662055969238,-1.6025630235671997,-1.0374755859375,0.034106895327568,-0.0028891714755445,-109.01918029785156,85.27278137207031,111.95262145996094,94.17907209005236,1.1845154873513808,28.99105990061897,1.0380400854673484,-113.60039710998537,18.294166564941406,245.84510803222656
3155.143,-4.208485126495361,-101.9764633178711,9.51120376586914,-1.0175246000289917,0.1148352324962616,0.6444717645645142,4.600884437561035,64.86573791503906,-133.78480529785156,20.045299530029297,-7.295698165893555,-1.1158323287963867,-1.002597689628601,-0.0892586261034011,0.0028299444820731,-106.71359252929688,85.29747009277344,113.88571166992188,102.50547992647478,1.2099121032568971,21.36085969155742,1.0065670559720534,-111.31447696685792,20.43173217773437,247.67051696777344
3177.632,-15.691313743591309,-113.00597381591795,16.92888069152832,-0.9928224682807922,0.0729648023843765,0.6254318356513977,4.624875068664551,62.52288055419922,-133.4111785888672,16.644298553466797,-9.35525131225586,-4.583521842956543,-1.0204583406448364,-0.1562226861715316,0.0109459767118096,-103.6639404296875,85.22126770019531,116.63025665283205,115.33930139614924,1.1756637686670592,19.63573461669468,1.0324052339427758,-108.28881549835204,22.698387145996094,250.0414352416992
3200.498,-26.523311614990234,-121.21198272705078,20.16069221496582,-0.9934480786323548,0.0837468653917312,0.677987813949585,4.503127574920654,60.01503753662109,-132.95126342773438,14.66336154937744,-11.291363716125488,-5.317652225494385,-1.0044338703155518,-0.0668048039078712,0.0118065159767866,-100.40560913085938,85.17633819580078,119.6144027709961,125.70713713324044,1.205661684829287,19.25581708702337,1.0067222434622958,-104.90873670578004,25.161300659179688,252.56566619873047
3212.583,-28.68312644958496,-133.46636962890625,20.448869705200195,-0.9858706593513488,0.1147916987538337,0.735723614692688,4.314115524291992,57.2641830444336,-132.51593017578125,11.690868377685549,-11.776737213134766,-2.834296703338623,-0.9538930654525756,-0.0374795719981193,0.012342270463705,-97.27857971191406,85.18475341796875,122.53079986572266,138.03676987333108,1.2354785826913912,16.834523474519774,0.954708872000189,-101.59269523620604,27.92057037353516,255.0467300415039
3234.9860000000003,-29.74877548217773,-147.57528686523438,20.870529174804688,-0.9435834884643556,0.1856266111135482,0.72889244556427,4.121926307678223,54.24958801269531,-132.07020568847656,11.379268646240234,-10.605646133422852,0.5254799723625183,-0.9848126769065856,0.0067603145726025,-0.0145346485078334,-94.72368621826172,85.27236938476562,124.89063262939452,151.98366334603733,1.2066860551347751,15.564177268074507,0.9849431285390452,-98.84561252593994,31.022781372070312,256.9608383178711
3257.746,-39.37471771240234,-156.37896728515625,16.837894439697266,-0.9928448796272278,0.0800815373659133,0.72886061668396,3.52474045753479,51.11391067504883,-131.8409423828125,8.476821899414062,-9.636985778808594,4.425045013427734,-0.953094720840454,-0.0599622204899787,0.005899354815483,-92.27823638916016,85.3885726928711,127.20455169677734,162.13656124781272,1.2342575931230138,13.576046102831508,0.9549972864711558,-95.80297684669496,34.274662017822266,259.04549407958984
3281.456,-41.290130615234375,-166.73348999023438,19.498409271240234,-0.9850293397903442,0.0317645035684108,0.8051242828369141,2.925288438796997,47.7741813659668,-131.53652954101562,4.460071563720703,-9.436535835266112,0.8878964781761169,-0.963141918182373,-0.1896269023418426,0.0159742943942546,-89.81089782714844,85.34461212158203,129.61309814453125,172.8731313265757,1.2726024103184796,10.47515188814602,0.9817616282648136,-92.73618626594543,37.570430755615234,261.1496276855469
3302.862,-42.31499099731445,-178.31642150878906,24.451339721679688,-0.9245378375053406,0.0950739234685897,0.8192492723464966,2.4486916065216064,44.21103286743164,-131.04684448242188,11.87903881072998,-10.54307460784912,-0.4851341843605041,-1.0253260135650637,-0.1201129034161567,-0.0107204047963023,-87.17792510986328,85.30885314941406,131.99839782714844,184.89232719879948,1.2389425467482449,15.890353691165505,1.0323930795677003,-89.62661671638489,41.09782028198242,263.0452423095703
3312.44,-51.42543029785156,-184.37576293945312,21.02187728881836,-0.9001544713973999,0.1328784227371215,0.8688832521438599,1.7421342134475708,40.54429244995117,-130.61976623535156,16.256389617919922,-8.834707260131836,-1.6852912902832031,-1.0258018970489502,0.0168960224837064,0.0619160644710063,-84.38823699951172,85.31749725341797,134.45631408691406,192.56405730449995,1.2581306980842364,18.57854845016007,1.0278076700456038,-86.13037121295929,44.7732048034668,265.0760803222656
3337.394,-45.27808380126953,-190.8335418701172,16.56385040283203,-0.8415722250938416,0.0589601472020149,0.8830400705337524,1.05105459690094,36.769004821777344,-130.29812622070312,8.64052963256836,-6.893050193786621,2.9034903049468994,-1.016303300857544,0.0124141545966267,0.0515031926333904,-82.15003967285156,85.41357421875,136.51560974121094,196.8296388138127,1.2212615916238982,11.428173487319588,1.0176831969821063,-83.2010942697525,48.644569396972656,266.81373596191406
3360.136,-34.26926803588867,-197.8125762939453,14.8917818069458,-0.7958972454071045,0.0538336373865604,0.9089553356170654,0.5580347776412964,32.87165832519531,-129.98895263671875,0.9945234656333924,-6.957446575164795,3.9830918312072754,-1.0252844095230105,-0.0408738702535629,0.0530101023614406,-80.00321960449219,85.49314880371094,138.63034057617188,201.3106138214009,1.2093594535569714,8.078376093361705,1.0274672085438168,-80.56125438213348,52.621490478515625,268.6192932128906
3382.411,-44.66275024414063,-202.43963623046875,15.937297821044922,-0.7001947164535522,0.1335644274950027,0.9021095633506776,-0.0814490392804145,28.88956451416016,-129.60118103027344,-7.283453464508057,-7.462350845336914,2.8428173065185547,-1.0431461334228516,-0.0284965746104717,0.0593082681298255,-77.8590316772461,85.54666137695312,140.90780639648438,207.9196119617668,1.1497450854560276,10.808190632423004,1.04521929809401,-77.77758263796568,56.65709686279297,270.5089874267578
3392.46,-48.38469696044922,-203.35220336914065,14.874369621276855,-0.6524327993392944,-0.0227986425161361,0.9316009879112244,-0.8740100264549255,24.881460189819336,-129.22512817382812,-9.783303260803224,-3.162847757339477,1.889134407043457,-0.9904400110244752,-0.0249104909598827,0.1339647024869918,-76.29674530029297,85.58509063720703,142.66665649414062,209.5577352107748,1.1375714203650933,10.453968501809529,0.9997692181250896,-75.42273527383804,60.703630447387695,271.89178466796875
3414.796,-22.622821807861328,-208.2216796875,15.81487274169922,-0.6527214646339417,-0.0820738524198532,0.9372317790985109,-1.161086916923523,20.72565078735352,-128.7981719970703,-15.494766235351562,4.072629451751709,0.547377347946167,-0.9915509223937988,-0.0472536906599998,0.0100536812096834,-77.57980346679688,85.63372039794922,141.69866943359375,210.0432578262636,1.145069794989403,16.03039966128452,0.9927271626619524,-76.41871654987335,64.9080696105957,270.49684143066406
3442.32,-15.926937103271484,-212.4021759033203,16.733728408813477,-0.5057494640350342,0.0861510559916496,0.8827168345451355,-1.3366769552230835,16.48775863647461,-128.35012817382812,-20.396074295043945,0.9951210021972656,3.700697660446167,-1.0985978841781616,0.0032220748253166,0.0570744052529335,-77.65972137451172,85.75577545166016,142.0364532470703,213.65479007131228,1.0209767552738822,20.752958238092184,1.100084169789698,-76.32304441928864,69.26801681518555,270.38658142089844
3462.364,-41.0767707824707,-206.16932678222656,13.853737831115724,-0.4357877671718597,0.0530501380562782,0.9599832892417908,-2.0562212467193604,12.400442123413086,-127.9406509399414,-29.72001266479492,-0.0674422681331634,-0.363387256860733,-1.0337117910385132,0.0032764747738838,0.0849253088235855,-77.65271759033203,85.78507995605469,142.63951110839844,210.67752242620816,1.0556008766517355,29.72231066982428,1.0371996482345025,-75.59649634361267,73.3846378326416,270.58016204833984
3472.355,-31.683961868286133,-206.3145751953125,11.865015029907228,-0.3420292735099792,-0.1070452705025672,0.8637634515762329,-2.6179776191711426,8.301563262939453,-127.52667236328124,-34.78487014770508,1.471748113632202,2.768739461898804,-0.9977866411209106,-0.054561298340559,0.0624540299177169,-78.19983673095703,85.85423278808594,142.7938995361328,209.070217772291,0.9351630949484796,34.92590946432976,1.001227058328389,-75.58185911178589,77.55266952514648,270.32057189941406
3493.378,-23.720684051513672,-205.9716796875,15.119812965393066,-0.2998364269733429,-0.0148610994219779,1.0134193897247314,-3.032935619354248,4.237852573394775,-127.01866149902344,-38.06693649291992,0.1118348538875579,3.335200071334839,-1.021116018295288,-0.048407033085823,0.0639716312289238,-78.41905975341797,85.93311309814453,143.3746795654297,207.8836511832287,1.056949192102543,38.21292609191783,1.0242624337900343,-75.38612413406372,81.69526052474976,270.3933410644531
3515.091,-26.14215469360352,-208.7760772705078,14.287519454956056,-0.2286062985658645,-0.0027788858860731,0.8655271530151367,-3.5360524654388428,0.0875023305416107,-126.49593353271484,-32.28584671020508,1.153536677360535,1.7824420928955078,-0.9878052473068236,0.0081744771450757,0.0262652076780796,-79.06769561767578,86.0203857421875,143.4052734375,210.89095738001924,0.89521272028342,32.35558134967446,0.9881881854271802,-75.53164315223694,85.93288341164589,269.90120697021484
3532.297,-34.735076904296875,-202.8160858154297,9.68028450012207,-0.2474611103534698,-0.0369964502751827,0.8575963377952576,-4.245694160461426,-3.9443204402923584,-126.02755737304688,-32.86591339111328,8.849853515625,2.531970739364624,-1.008228421211243,0.0009870380163192,-0.0145021369680762,-82.1581039428711,86.14922332763672,140.99020385742188,205.9965974016136,0.8933516760325543,34.130617429299136,1.0083331966958151,-77.91240978240967,90.09354376792908,267.01776123046875
3554.801,-24.433603286743164,-201.90789794921875,7.008390426635742,-0.0813890695571899,-0.0379727110266685,0.8635145425796509,-4.785415649414063,-7.933535099029541,-125.56594848632812,-39.3619270324707,10.249391555786133,1.9065428972244265,-1.0266586542129517,-0.1059001833200454,0.0304783210158348,-85.63817596435547,86.19213104248047,138.2943572998047,203.50164068188303,0.8681724901611682,40.71911385077437,1.032555939961372,-80.8527603149414,94.12566614151,263.8603057861328
3576.272,-23.058443069458008,-196.97720336914065,5.259202480316162,0.0079564815387129,-0.1392958462238311,0.8475431799888611,-5.341569423675537,-11.81627082824707,-125.1056137084961,-41.55989837646485,1.3810880184173584,4.270310878753662,-0.9940390586853028,-0.0847552120685577,0.0005016177892684,-86.82970428466797,86.27473449707031,137.93540954589844,198.3919596522101,0.858950569194363,41.80153241422978,0.9976459030062498,-81.48813486099243,98.09100532531738,263.04102325439453
3592.391,-27.49963760375977,-191.9570159912109,6.02722692489624,0.1109732910990715,-0.067852184176445,0.851129949092865,-6.003522872924805,-15.56179428100586,-124.59603118896484,-39.00990295410156,-3.125523567199707,4.131798267364502,-1.0422301292419434,-0.0703791305422782,0.0722935646772384,-86.07188415527344,86.35577392578125,139.49700927734375,194.0104469377676,0.861011719129128,39.35242283493786,1.0471022986362446,-80.06836128234863,101.91756820678712,264.0930404663086
3614.659,-35.417076110839844,-185.13267517089844,2.738919496536255,0.1539038717746734,-0.0960236713290214,0.8008227348327637,-6.863346099853516,-19.170469284057617,-124.10387420654295,-35.61316680908203,-7.653086185455322,1.7982988357543943,-1.0148077011108398,-0.0309176053851842,0.0473215393722057,-84.09053039550781,86.39901733398438,142.2036895751953,188.5098893325836,0.8211114417834926,36.47055328667478,1.0163807832919594,-77.2271842956543,105.569486618042,266.3075637817383
3637.123,-28.3720645904541,-179.2255096435547,-1.430666208267212,0.1591145098209381,-0.1306064426898956,0.7624561190605164,-7.610898017883301,-22.67780113220215,-123.64327239990234,-39.135047912597656,-4.549633026123047,2.237835168838501,-0.9831588864326476,-0.0612271279096603,-0.0471548624336719,-83.91331481933594,86.44157409667969,143.19412231445312,181.4629553432774,0.7897561671810425,39.4621216109397,0.9861915322160744,-76.30241680145264,109.11937522888184,266.83739471435547
3660.241,-25.37255477905273,-174.4048614501953,-4.448372840881348,0.2689730525016784,-0.0886420235037803,0.6714276671409607,-8.293135643005371,-26.11900520324707,-123.21358489990234,-37.14345550537109,-10.845335960388184,4.842097282409668,-1.0141311883926392,-0.0525503531098365,-0.045715607702732,-81.61920166015625,86.52598571777344,146.26034545898438,176.29693773406655,0.7287105210611879,38.996198597626034,1.0165203016517994,-73.32606601715088,112.64499092102052,269.4739303588867
3681.625,-35.677764892578125,-163.55838012695312,-6.646982192993164,0.33442422747612,-0.1312571316957473,0.7317224740982056,-9.213815689086914,-29.33852195739746,-122.79505920410156,-33.97981262207031,-16.570287704467773,7.107932567596436,-1.0245487689971924,-0.1175182610750198,0.0494125559926033,-76.58699798583984,86.5728530883789,151.99085998535156,167.53635124878704,0.8151599705851567,38.46719129109042,1.032449670652028,-67.37318229675293,115.91137504577635,274.7859191894531
3702.953,-34.59453582763672,-156.34925842285156,-6.44533109664917,0.3675428032875061,-0.2252266258001327,0.7322710156440735,-10.224526405334473,-32.394405364990234,-122.28704071044922,-35.491180419921875,-23.83088493347168,-0.5003056526184082,-0.9855642318725586,-0.162998616695404,0.0109843323007225,-70.69613647460938,86.36061096191406,158.59732055664062,160.26045928877994,0.8497267711271397,42.752605418358485,0.9990125423373094,-60.4716100692749,118.7550163269043,280.88436126708984
3713.028,-14.56168270111084,-150.0433349609375,-6.713118553161621,0.3881844282150268,-0.1770638823509216,0.6709601879119873,-10.840785026550291,-35.324737548828125,-121.76013946533205,-18.9033317565918,-9.524136543273926,4.70445442199707,-0.9559085369110109,-0.0909033566713333,-0.0159917343407869,-68.34800720214844,86.37328338623047,161.35003662109375,150.89768364688942,0.7951266204226203,21.68356566165596,0.9603542506599796,-57.50722217559815,121.6980209350586,283.1101760864258
3734.562,-1.5577927827835083,-145.72039794921875,-8.495590209960938,0.4440353512763977,-0.1522974967956543,0.6402696967124939,-11.186755180358888,-38.19342041015625,-121.2604522705078,-24.35189247131348,-13.837093353271484,5.327739715576172,-0.9831603169441224,-0.090252049267292,-0.0320818200707435,-64.98395538330078,86.35771179199219,165.21817016601562,145.97614924996603,0.7939188908457118,28.510780941224525,0.9878152076120637,-53.797200202941895,124.55113220214844,286.47862243652344
3757.08,-16.569866180419922,-136.9618377685547,-3.694286346435547,0.4959597587585449,-0.0895724594593048,0.6283897161483765,-11.874034881591797,-40.87930679321289,-120.67034149169922,-19.55228042602539,-20.515504837036133,1.361786961555481,-0.9852234125137328,-0.1023420542478561,-0.0291331764310598,-60.49864196777344,86.17760467529297,170.09779357910156,138.00997508073965,0.8055265005960139,28.37308711270332,0.9909529810247504,-48.62460708618164,127.05691146850586,290.7681350708008
3779.912,-22.568336486816406,-127.79795837402344,-4.774440288543701,0.5281195044517517,-0.2106968611478805,0.6521396636962891,-12.79477882385254,-43.35442733764648,-120.02027893066406,-19.04398536682129,-16.639455795288086,-1.2017346620559692,-0.9723933339118958,-0.1520374715328216,0.0024032853543758,-57.708492279052734,85.93773651123047,173.27447509765625,129.86317128585634,0.865210679109916,25.31776123619615,0.9842103252693908,-44.9137134552002,129.29216384887695,293.2947540283203
3802.934,0.1460049152374267,-125.20591735839844,-3.702894926071167,0.5362815856933594,-0.2024750560522079,0.6369752883911133,-13.329691886901855,-45.75468444824219,-119.2919692993164,-15.714581489562988,-13.127591133117676,2.408252716064453,-1.041499137878418,-0.0852141231298446,-0.0478294268250465,-55.38414001464844,85.84687042236328,175.9239501953125,125.26074600539027,0.8569315057214728,20.61750230980604,1.0460733985016006,-42.05444812774658,131.60155487060547,295.2159194946289
3814.038,7.840738296508789,-122.98410034179688,-8.973756790161133,0.5747026801109314,-0.143542394042015,0.5426111221313477,-13.612747192382812,-48.17842102050781,-118.69988250732422,-5.613584041595459,-20.961715698242188,4.510173320770264,-0.9572039246559144,-0.0025386095512658,-0.0036318944767117,-50.45050430297852,85.70243835449219,-179.02882385253906,123.56008427014147,0.8033146452509383,22.16410418197352,0.9572141811384896,-36.8377571105957,133.880859375,-60.32894134521485
3839.44,-0.4756574630737304,-116.02294158935548,-11.25207233428955,0.6368378400802612,-0.1203411668539047,0.4698783159255981,-14.016918182373049,-50.52081680297852,-118.1834945678711,-14.206719398498535,-4.48138427734375,3.2709431648254395,-0.8651751279830933,-0.0696277543902397,0.0177359338849782,-49.5864372253418,85.69679260253906,-177.87228393554688,116.56825621448256,0.8005186211294075,15.251647461714311,0.8681535518632413,-35.56951904296875,136.21760940551758,-59.68878936767578
3859.496,0.5064903497695923,-110.54743957519533,-15.1287202835083,0.7004703283309937,-0.1745469272136688,0.466743528842926,-14.38066864013672,-52.770652770996094,-117.7371826171875,-19.778059005737305,11.913528442382812,11.321844100952148,-0.9558611512184144,-0.0485861226916313,-0.0118565037846565,-50.80195236206055,86.065673828125,-178.67181396484375,111.57899043512852,0.8596364536178135,25.7155192797687,0.9571685997820834,-36.42128372192383,138.8363265991211,-60.93463134765625
3882.812,9.123489379882812,-105.46183776855467,-16.201007843017578,0.7625438570976257,-0.1373147666454315,0.4458864331245422,-14.513238906860352,-54.94243621826172,-117.3590087890625,-32.59270095825195,21.73981475830078,11.054133415222168,-1.0138497352600098,-0.0407251007854938,-0.0314804315567016,-55.0279426574707,86.56497955322266,177.7993927001953,107.08832774450865,0.8939480915471213,40.70746328427751,1.0151555728516577,-40.51470375061035,141.50741577148438,295.1584014892578
3892.757,7.886852264404297,-95.00325012207033,-18.33244705200196,0.8085494637489319,-0.1362580955028534,0.4094087481498718,-14.567822456359863,-56.935340881347656,-117.11643981933594,-33.97309494018555,22.47554588317871,11.588613510131836,-1.070502519607544,-0.0734671130776405,-0.0551626533269882,-60.79389953613281,87.0533676147461,172.78123474121094,97.07676646505922,0.916479147051582,42.35111929629419,1.0744375177329468,-46.22607707977295,143.98870849609375,289.8976745605469
3922.856,-2.3021764755249023,-82.61678314208984,-19.535728454589844,0.8282938003540039,-0.170731320977211,0.3603665232658386,-14.742377281188965,-58.662742614746094,-116.98829650878906,-21.00264549255371,25.654741287231445,3.993830680847168,-0.9957706928253174,-0.063940592110157,0.0005010697059333,-69.62735748291016,87.36766815185547,164.44273376464844,84.92630664006903,0.919284414508486,33.39502285832337,0.997821588802357,-54.88498020172119,146.03041076660156,281.4310302734375
3943.006,-5.852339744567871,-69.45890045166016,-18.52161026000977,0.8571144938468933,-0.1704256385564804,0.3069010376930237,-14.86994457244873,-60.10979461669922,-116.98209381103516,-20.64860916137696,29.92923355102539,12.33833122253418,-0.9948352575302124,-0.0901060625910759,0.0225392840802669,-80.92404174804688,87.78388214111328,153.66897583007812,72.12377402121427,0.9262172535517004,38.3973761943194,0.9991618044479692,-66.05409717559814,147.8936767578125,270.6510696411133
3952.726,3.74708890914917,-57.43001556396485,-18.35299301147461,0.8537551760673523,-0.1930831521749496,0.3167778849601745,-14.71994686126709,-61.341529846191406,-117.0786590576172,-15.371277809143066,22.74934196472168,9.441089630126951,-0.9248093366622924,-0.048058845102787,-0.0337852276861667,-92.18560028076172,88.03596496582031,142.80294799804688,60.40761305869938,0.9308744451941152,29.033479204494103,0.926673299162207,-77.46565341949463,149.37749481201172,259.88160705566406
3974.431,-1.0754075050354004,-45.92389678955078,-19.46988868713379,0.9078830480575562,-0.0621231645345687,0.3413918018341064,-14.437777519226074,-62.389442443847656,-117.41605377197266,-13.305112838745115,16.2623233795166,11.415773391723633,-0.9956653118133544,-0.0381943024694919,-0.0590191781520843,-101.82275390625,88.26122283935547,133.50967407226562,49.89225754692384,0.9719358409286109,23.912529591887548,0.9981440183056064,-87.38497638702393,150.65066528320312,250.92572784423828
4002.814,-15.297161102294922,-29.40484046936035,-17.87541389465332,0.8732931613922119,-0.1352149546146392,0.329743891954422,-14.420490264892578,-63.10097885131836,-117.79537200927734,-0.5980086326599121,0.4249065816402435,9.53048610687256,-0.970345377922058,-0.0849601328372955,-0.038275558501482,-103.52471923828124,88.45236206054688,131.87506103515625,37.658706864724685,0.9432152797570088,9.55867801325831,0.9748094147088614,-89.10422897338867,151.55334091186523,249.6704330444336
4012.763,-15.032906532287598,-18.3344783782959,-15.32932949066162,0.8427812457084656,-0.2062766551971435,0.3001458048820495,-14.441568374633787,-63.56209945678711,-118.13768005371094,6.5317230224609375,3.553015947341919,9.03231716156006,-0.9032755494117736,-0.1103517860174179,0.0074302610009908,-106.11849975585938,88.5979232788086,129.20321655273438,28.233485772145865,0.9181055444694404,11.699148741306976,0.910021672061121,-91.6769313812256,152.1600227355957,247.3408966064453
4034.382,-4.292862892150879,-11.19538688659668,-11.656255722045898,0.8700923323631287,-0.1406487226486206,0.3397287130355835,-14.2543363571167,-63.8733024597168,-118.45808410644533,9.131887435913086,-7.542181015014648,10.078768730163574,-0.9642106294631958,-0.0251367297023534,0.0071954932063817,-102.57054901123048,88.93779754638672,132.69676208496094,16.722250351227093,0.9445942665931292,15.551766514501102,0.9645650668941026,-88.31621265411377,152.81110000610352,251.15484619140625
4056.894,-3.207733631134033,-4.033176422119141,-12.59087085723877,0.8945217728614807,-0.093299962580204,0.3591168522834778,-13.863469123840332,-64.04838562011719,-118.96529388427734,9.02670192718506,-12.391916275024414,7.1883087158203125,-0.9786257147789,0.0050219413824379,-0.0211404245346784,-94.61360931396484,89.27664947509766,140.58131408691406,13.60463509411078,0.9684208789233671,16.932593388001724,0.9788669097846082,-80.75014019012451,153.32503509521484,259.5466079711914
4079.4940000000006,-6.062399864196777,3.3593382835388184,-13.514023780822754,0.8845982551574707,-0.1164986789226532,0.3619871735572815,-13.450763702392578,-64.07474517822266,-119.56674194335938,12.693038940429688,-10.212947845458984,5.815349578857422,-0.9631852507591248,-0.0285186134278774,-0.0242173466831445,-86.62130737304688,89.54629516601562,148.35902404785156,15.187714922439964,0.9628710864068744,17.298434378915534,0.963911623787232,-73.1705436706543,153.62104034423828,267.92576599121094
4102.891,-7.98795747756958,11.221305847167969,-12.85385036468506,0.8881838321685791,-0.1382423043251037,0.347763329744339,-13.066664695739746,-63.94898986816406,-120.1870346069336,13.897655487060549,-12.454585075378418,6.360741138458252,-0.9800149202346802,-0.0601477809250354,0.0330735146999359,-74.08172607421875,89.76014709472656,160.5474090576172,18.84002756836784,0.9638053682905316,19.71599719180692,0.9824158268306752,-61.01506137847901,153.70913696289062,280.7344436645508
4112.853999999999,-9.023258209228516,17.649070739746094,-10.044683456420898,0.9157378673553468,-0.099078744649887,0.3399471640586853,-12.716821670532228,-63.700313568115234,-120.78314971923828,13.376216888427734,-19.802947998046875,7.139039993286133,-0.9934487342834472,-0.0290822926908731,0.0139285717159509,-55.32215118408203,89.56253814697266,178.76815795898438,22.22171353488896,0.9818128710204704,24.94084641076455,0.9939719173636584,-42.605329513549805,153.2628517150879,299.55130767822266
4135.569,-10.861822128295898,25.132583618164062,-7.429599761962891,0.9044393301010132,-0.0967329442501068,0.3944123387336731,-12.4358549118042,-63.265380859375,-121.34151458740234,16.274211883544922,-24.50180625915528,3.813709020614624,-1.0020129680633545,-0.0106274951249361,-0.0023326000664383,-39.04021453857422,89.00455474853516,-165.57778930664062,28.369435875492943,0.991427686360548,29.66029094404862,1.0020720397470602,-26.60435962677002,152.26993560791016,-44.23627471923828
4156.799,-8.694787979125977,32.3778190612793,-5.371871471405029,0.8929439187049866,-0.1033641993999481,0.3585186898708343,-12.165596961975098,-62.6990852355957,-121.84644317626952,16.093585968017578,-22.608783721923828,1.37663733959198,-0.9822291135787964,-0.0350105389952659,0.0310646872967481,-29.9531307220459,88.47992706298828,-156.9384002685547,33.952606796418294,0.9677647703117268,27.785891043107814,0.9833436755272146,-17.7875337600708,151.17901229858398,-35.09195709228516
4179.281,-4.016443252563477,39.30647277832031,-1.088242530822754,0.8883705139160156,-0.1009115800261497,0.3045130670070648,-11.932952880859377,-62.0009765625,-122.20849609375,16.740211486816406,-24.7385196685791,1.643035650253296,-0.959347367286682,-0.0575441904366016,0.0454449839890003,-23.500713348388672,87.9322738647461,-150.89340209960938,39.52612921195029,0.9445176149531722,29.91535729627875,0.962145493957464,-11.567760467529297,149.9332504272461,-28.68490600585937
4201.718,-14.653070449829102,48.16571807861328,5.584134101867676,0.8851937055587769,-0.0682115331292152,0.387084424495697,-12.042669296264648,-61.08020782470703,-122.41150665283205,19.578369140625,-29.38191795349121,0.9272659420967102,-0.9842758774757384,-0.0438917241990566,0.048695184290409,-18.53651237487793,87.30658721923828,-146.35556030273438,50.65403661411152,0.9685324265608672,35.31953373077905,0.9864566424363912,-6.493843078613281,148.3867950439453,-23.944053649902344
4212.017000000001,-16.7045955657959,55.67144393920898,8.283965110778809,0.86051344871521,-0.0961127877235412,0.412920206785202,-12.25683307647705,-59.98872756958008,-122.55056762695312,19.51527214050293,-22.84635734558105,0.3871952891349792,-1.0204718112945557,0.0292259957641363,0.019230106845498,-15.265371322631836,86.8602523803711,-143.4934844970703,58.710963722714496,0.959283149312688,30.049156575048883,1.0210713361389034,-3.008538246154785,146.84897994995117,-20.942916870117188
4237.882,-7.665709495544434,63.69110107421875,7.46653413772583,0.8474018573760986,-0.0529595576226711,0.3671359717845917,-12.169662475585938,-58.78143310546875,-122.8192901611328,16.143972396850586,-11.471840858459473,-0.7026335597038269,-0.9775678515434264,0.0527755767107009,0.0136682726442813,-13.68669605255127,86.6551284790039,-142.26084899902344,64.5838105886162,0.9250315910314996,19.81728213835883,0.9790868130791346,-1.517033576965332,145.43656158447266,-19.441558837890625
4257.94,-10.311949729919434,72.49138641357422,4.66717529296875,0.8255953788757324,-0.0587119907140731,0.3373034596443176,-12.020359992980955,-57.39633560180664,-123.23184967041016,10.720200538635254,-0.959796667098999,1.8262460231781008,-0.9521660208702089,0.0423495844006538,0.0525993257761001,-12.314809799194336,86.6556625366211,-141.12522888183594,73.36974810240127,0.8937720354556856,10.916917319825398,0.9545576502604832,-0.2944498062133789,144.0519981384277,-17.89337921142578
4279.528,-11.060625076293944,81.50708770751953,4.982985019683838,0.7940976619720459,-0.1421325206756591,0.4381426274776459,-11.92973518371582,-55.81454086303711,-123.62346649169922,-3.186722755432129,3.55440616607666,-0.3646551370620727,-1.00269615650177,-0.0419963188469409,0.0969861969351768,-12.928569793701172,86.70306396484375,-141.6884307861328,82.40493257897865,0.9180205401820276,4.7876903076972805,1.0082507602060438,-0.9988346099853516,142.51760482788086,-18.0649642944336
4301.647,4.272195816040039,85.04364776611328,8.307663917541504,0.7699680328369141,-0.1785460412502288,0.5282416939735413,-11.649612426757812,-54.10829544067383,-123.8877410888672,-1.4385836124420166,8.045309066772461,-5.70944881439209,-1.0219464302062988,-0.0439240708947181,0.0607712529599666,-15.709620475769045,86.83565521240234,-144.44613647460938,85.55519249130444,0.9506675274189772,9.969670333267851,1.0246936007420393,-4.060008049011231,140.94395065307617,-20.558395385742188
4311.686,7.529802322387695,89.81953430175781,12.523184776306152,0.7471367120742798,-0.0722135603427887,0.4319446980953216,-11.335780143737791,-52.34927368164063,-124.0844497680664,2.635904550552368,7.347187042236328,-12.38198947906494,-1.0191344022750854,-0.0419952534139156,0.0014194720424711,-20.84815788269043,86.93036651611328,-149.62115478515625,91.00042209869352,0.8660278789041409,14.637035686671773,1.020000267701325,-9.512377738952637,139.2796401977539,-25.536705017089844
4339.637,-13.425949096679688,103.88369750976562,11.980911254882812,0.7237561345100403,-0.0654956176877021,0.4206054806709289,-11.38011360168457,-50.30758666992188,-124.36619567871094,8.810983657836914,11.329252243041992,-10.435675621032717,-0.9660302996635436,-0.0573788248002529,0.0195758715271949,-26.1252384185791,87.07597351074219,-155.04823303222656,105.43064522208188,0.8396556368819496,17.745103974689968,0.9679308261180358,-14.745124816894531,137.38356018066406,-30.682037353515625
4361.6320000000005,-18.17065620422364,116.48924255371094,13.11072826385498,0.6724691390991211,-0.2109873592853546,0.5435675978660583,-11.598954200744627,-47.97620391845703,-124.61016845703124,11.460397720336914,14.447614669799805,-7.444913864135742,-1.0176618099212646,-0.1093678474426269,0.0998750329017639,-31.36982154846192,87.22412872314453,-160.493408203125,118.62464993936985,0.8900540108716983,19.88720764712127,1.0283831521488411,-19.770867347717285,135.20033264160156,-35.88323974609375
4382.304,9.231040000915527,116.1457977294922,17.695209503173828,0.6557601690292358,-0.224135473370552,0.6657930612564087,-11.363750457763672,-45.594764709472656,-124.72633361816406,20.43013381958008,-1.7644526958465576,-7.405825614929199,-1.0817872285842896,-0.0166972912847995,0.0148655092343688,-33.00257873535156,87.1270980834961,-162.52517700195312,117.84811780032732,0.9610091103238686,21.802520823073905,1.0820182026329892,-21.63882827758789,132.72186279296875,-37.79884338378906
4391.828,21.93376922607422,122.48927307128906,18.93248176574707,0.6286920309066772,-0.0692864879965782,0.4794085323810577,-10.83470344543457,-43.14750289916992,-124.8596649169922,20.362293243408203,2.2073957920074463,-11.105430603027344,-1.016491413116455,0.0476053468883037,-0.0346166081726551,-36.18610382080078,87.09815216064453,-166.09375,125.86957978719816,0.7936540984989758,23.298630242822767,1.0181941718322802,-25.35140037536621,130.24565505981445,-41.23408508300781
4414.018,0.7170655727386475,137.58816528320312,11.002991676330566,0.576035737991333,-0.0431592613458633,0.5399331450462341,-10.505266189575195,-40.453895568847656,-125.28605651855467,17.339651107788086,1.280831217765808,-5.753928661346436,-1.0195791721343994,-0.0012629823759198,0.0209648311138153,-37.66155242919922,87.06954956054688,-167.9010772705078,138.02928397576736,0.7907007616049563,18.31424921169536,1.019795473376098,-27.156286239624023,127.52344512939452,-42.615020751953125
4431.645,-13.893311500549316,151.76504516601562,10.151481628417969,0.5328224897384644,-0.1995819658041,0.6196478009223938,-10.567754745483398,-37.43866729736328,-125.69659423828124,18.07866668701172,13.823156356811523,-3.9915637969970703,-0.9997403025627136,-0.130779355764389,0.1311796754598617,-41.90770721435547,87.21167755126953,-172.46560668945312,152.73737465972815,0.8412467912766642,23.10520336180627,1.0167556342190045,-31.33995246887207,124.6503448486328,-46.76901245117188
4454.111,16.445205688476562,150.03024291992188,14.802526473999023,0.4371371269226074,-0.3119491338729858,0.8065075278282166,-10.065876007080078,-34.42563247680664,-125.99966430664062,17.850908279418945,1.6523573398590088,-12.105276107788086,-0.9602524042129515,-0.0574499480426311,0.1068781688809394,-44.92339324951172,87.02874755859375,-175.81871032714844,151.65300317092476,0.968945572414591,21.63152608635366,0.9678884849558844,-34.85751724243164,121.4543800354004,-49.81904602050781
4477.974999999999,30.31895446777344,146.69143676757812,25.018266677856445,0.4230732917785644,-0.0817851424217224,0.591330885887146,-9.45740032196045,-31.46557235717773,-126.00104522705078,19.194732666015625,-6.149204254150391,-14.84458827972412,-1.0012041330337524,-0.0563583001494407,0.0574316382408142,-46.54380035400391,86.69398498535156,-177.8253631591797,151.86681760186994,0.7316775494310104,25.032224756772845,1.004432360624958,-37.08640003204346,118.1595573425293,-51.824317932128906
4499.376,-15.90146827697754,161.37533569335938,22.17911148071289,0.3867333531379699,0.0352662093937397,0.6250592470169067,-9.69530963897705,-28.211822509765625,-126.1233139038086,27.992679595947266,-17.955078125,-19.60528945922852,-1.05025315284729,-0.1013805419206619,0.0715349987149238,-46.28816604614258,86.09991455078125,-178.1433563232422,163.66663878011929,0.7358705417637557,38.60495196495332,1.057557069565016,-36.59285640716553,114.31173706054688,-52.0200424194336
4511.563,-34.48344039916992,181.326171875,20.36320304870605,0.2474541515111923,-0.2404948770999908,0.7435905933380127,-10.279940605163574,-24.55179023742676,-126.37554168701172,33.74248123168945,2.247853279113769,-17.035852432250977,-0.9351866245269777,-0.0806217491626739,0.0868937075138092,-49.091426849365234,85.83674621582031,178.38360595703125,185.6958489223924,0.8197550326239185,37.86592336294956,0.9426687676685308,-38.81148624420166,110.38853645324708,304.75914764404297
4534.061000000001,16.28519058227539,173.98944091796875,27.53886604309082,0.2460004240274429,-0.2476839423179626,0.8581631183624268,-9.950660705566406,-20.990345001220703,-126.4457550048828,35.41792297363281,-17.43657684326172,-6.886621475219727,-0.9985162019729614,0.0003909454680979,0.0579415559768676,-45.9770622253418,85.50851440429688,-179.2196502685547,176.90653500136074,0.9264488553726936,40.07354532756136,1.0001959719724367,-36.02640151977539,106.49885940551758,-52.77389526367188
4556.678,39.54340362548828,170.57666015625,31.18996810913086,0.1847904920578003,-0.0780627876520156,0.7573344707489014,-9.173223495483398,-17.502986907958984,-126.39268493652344,37.40716552734375,-29.08162307739257,-10.89697265625,-1.0937881469726562,0.0615730136632919,0.0569466426968574,-41.862300872802734,84.96809387207031,-175.85763549804688,177.85637989961924,0.7834518653723955,48.618729381553024,1.0969989364552275,-32.689077377319336,102.4710807800293,-49.46495056152344
4579.375,-4.020930767059326,184.48989868164065,18.485870361328125,0.1381410807371139,0.0751686915755271,0.7729672193527222,-9.183981895446776,-13.796696662902832,-126.62203979492188,24.33833122253418,-56.67195129394531,-13.28774642944336,-1.1012110710144043,0.075333148241043,0.0822209790349006,-35.7391471862793,83.93669891357422,-170.23313903808594,185.4573212434908,0.7888039126261189,63.09222325559844,1.1068428956008418,-26.55516529083252,97.73339557647704,-43.61109924316406
4601.493,-30.340375900268555,201.7816467285156,11.927000999450684,0.0478823706507682,-0.0998174995183944,0.9252596497535706,-9.678256034851074,-9.749064445495604,-127.06257629394533,8.790246963500977,-22.87820243835449,-6.753502368927002,-0.8707945346832275,-0.0347558259963989,0.2308642864227295,-34.00715637207031,83.46405029296875,-168.66448974609375,204.39820135970368,0.9318592565893964,25.42224189045432,0.9015483391479054,-24.32890033721924,93.21311473846436,-41.60191345214844
4611.579,30.437889099121094,187.43338012695312,18.71030616760254,-0.088797353208065,-0.3106341361999511,0.8402449488639832,-9.03482723236084,-5.991927623748779,-127.31192016601562,10.521909713745115,0.0930160135030746,0.3310396671295166,-0.7986466884613037,-0.0233800448477268,0.0490294098854064,-33.69957733154297,83.49708557128906,-168.57763671875,190.80831385322475,0.9002167020228437,10.527526930109705,0.8004917504390658,-24.66475009918213,89.48901319503784,-41.265716552734375
4634.032999999999,43.51896286010742,179.2774200439453,20.966318130493164,-0.1874645054340362,-0.0068836733698844,0.8226810693740845,-8.156577110290527,-2.3856441974639893,-127.4302978515625,19.85262680053711,-15.615802764892578,5.905709743499756,-0.997501790523529,-0.0441459007561206,0.0479510873556137,-31.084896087646484,83.3231430053711,-166.36839294433594,185.67143011778,0.8437976461588277,25.93949680406116,0.9996289258668946,-22.92831897735596,85.70878720283508,-38.93809509277344
4656.374,-1.370194435119629,188.7624053955078,9.631001472473145,-0.2220349758863449,0.0219363328069448,1.0193103551864624,-8.181888580322266,1.377118468284607,-127.77102661132812,11.028706550598145,-24.356821060180664,-4.452733993530273,-1.0389548540115356,-0.0166170615702867,0.1572640836238861,-29.218530654907227,82.8407974243164,-164.7347412109375,189.0129077942849,1.04344349794525,27.10560717552748,1.0509211708817283,-21.03664207458496,81.4636789560318,-36.963714599609375
4681.256,1.5846593379974363,185.9940948486328,11.170615196228027,-0.2965794205665588,-0.149506390094757,1.0546176433563232,-8.167325973510742,5.088698387145996,-128.08370971679688,-4.727299213409424,-0.6654478311538696,-1.036302089691162,-0.8605470657348633,0.0237935800105333,0.1855712532997131,-29.13325500488281,82.81675720214844,-164.5843505859375,186.33597910130487,1.1056807346884572,4.885089629698417,0.8806498037505187,-20.96592903137207,77.72805881500244,-36.50064086914063
4702.151,43.64229583740234,170.86117553710938,13.35023593902588,-0.4594846367835998,-0.1584119498729705,0.8692729473114014,-7.317838668823242,8.508764266967773,-128.2823944091797,0.3677111864089966,17.905485153198242,0.7335318326950073,-0.8932939767837524,-0.0556804165244102,-0.0410641692578792,-30.57829666137696,83.17070007324219,-166.06712341308594,176.8514068123573,0.9959196424562392,17.924276248640833,0.8959691421803001,-23.26045799255371,74.66193580627441,-37.78472900390625
4722.402,34.68924331665039,170.77413940429688,10.351627349853516,-0.4075062870979309,0.0490841828286647,0.8844997882843018,-6.662816524505615,11.924687385559082,-128.4930419921875,-1.65696382522583,10.559736251831056,-5.378538608551025,-1.1750768423080444,-0.0695821493864059,0.0150692900642752,-32.50895690917969,83.34262084960938,-167.99859619140625,174.56891613328597,0.9750951268995623,11.965878003306567,1.1772316443015445,-25.846140384674072,71.4179334640503,-39.50555419921875
4731.856,1.69659423828125,184.5596160888672,1.1961137056350708,-0.3207541704177856,-0.0223156586289405,1.1122453212738037,-6.680574417114258,15.607346534729004,-128.89663696289062,-0.0547828078269958,-3.3298110961914062,-3.7028205394744873,-1.1992075443267822,-0.0400609895586967,0.2509646117687225,-32.57345199584961,83.24378204345703,-168.09815979003906,184.57128977952183,1.157787062095579,4.980112753734293,1.2258412840229027,-25.89287757873535,67.63643550872803,-39.20152282714844
4753.813,24.8803768157959,177.58248901367188,5.227919101715088,-0.4192934334278106,-0.2728659510612488,1.1263667345046997,-6.308416843414307,19.15239143371582,-129.22288513183594,-7.430715560913086,2.7118496894836426,11.423319816589355,-0.8907973170280457,-0.1318095922470092,0.2014238536357879,-31.53009796142578,83.4072036743164,-166.92445373535156,179.39315676168076,1.2324629126927198,13.894671572859556,0.9227487184744168,-25.221681118011475,64.25481224060059,-37.701568603515625
4778.7480000000005,46.14567565917969,162.81802368164062,12.368346214294434,-0.5839273929595947,-0.0909254178404808,0.8472757339477539,-5.418305397033691,22.41541862487793,-129.31454467773438,-6.096055507659912,3.1405038833618164,13.929158210754396,-0.8738101124763489,-0.0516075529158115,-0.0416682250797748,-30.232276916503903,83.68064880371094,-165.51031494140625,169.68237446981388,1.0330124884021297,15.525659594816188,0.876323965874029,-24.81397151947021,61.26523017883301,-36.19577026367188
4801.4400000000005,20.65087890625,164.1161346435547,4.094032287597656,-0.582839846611023,0.0001859073527157,0.8377100229263306,-5.08861255645752,25.72015953063965,-129.5455322265625,2.485755920410156,-0.9467951655387878,-1.833324193954468,-1.0797746181488037,-0.0172080025076866,0.0967479348182678,-30.230262756347656,83.66072845458984,-165.57557678222656,165.46094871695217,1.0205196734362048,3.2305543148940497,1.0842368303282726,-25.141650199890137,57.9405689239502,-36.03004455566406
4821.401,-3.730944156646729,177.3291473388672,-5.180083274841309,-0.4884836375713348,-0.0409725680947303,0.9436805844306946,-5.357395648956299,29.24519920349121,-130.01109313964844,-2.5162248611450195,-3.382598400115967,1.3194153308868408,-1.2327543497085571,0.0599877499043941,0.321943461894989,-29.46906471252441,83.62353515625,-164.78762817382812,177.4440185043271,1.0634039970503486,4.417489819308088,1.2755114305724156,-24.111669063568115,54.37833595275879,-34.77653503417969
4831.394,6.46991491317749,178.91958618164062,-3.413577079772949,-0.5463234186172485,-0.1748320460319519,1.093022704124451,-5.512770175933838,32.75735855102539,-130.5104522705078,-20.88012886047364,-9.824313163757324,21.900325775146484,-0.9198869466781616,-0.025010660290718,0.2229906916618347,-25.643558502197266,83.63529205322266,-160.55519104003906,179.0690666387493,1.2343962709684773,31.81385200548819,0.946859216760798,-20.130788326263428,50.87793350219727,-30.04473876953125
4854.485000000001,39.06201171875,163.06240844726562,7.030226707458496,-0.7138469815254211,-0.1219597607851028,0.7077385783195496,-4.861437797546387,36.0291862487793,-130.71231079101562,-3.267629146575928,-4.553722381591797,21.622589111328125,-0.8404868841171265,-0.1380409449338913,0.0234401039779186,-22.25711441040039,83.71839904785156,-157.12242126464844,167.8231625720863,1.0125934976709516,22.337192026875,0.8520697995620155,-17.395676612854004,47.689212799072266,-26.41011047363281
4872.602,21.5343017578125,161.35462951660156,4.36761474609375,-0.8320522904396057,0.0791216418147087,0.6971296072006226,-4.566444873809815,39.25150680541992,-130.933837890625,-0.027175972238183,-5.789778232574463,7.110052585601807,-0.9885573387145996,-0.0219679195433855,0.0352503769099712,-20.65488624572754,83.68126678466797,-155.5584259033203,162.84384752641583,1.0883753660685929,9.169248512603588,0.9894295278026886,-16.088441371917725,44.42975997924805,-24.624588012695312
4893.868,-11.904391288757324,172.11585998535156,-3.8453831672668457,-0.7883074283599854,0.0640950500965118,0.721345067024231,-5.082038879394531,42.69968032836914,-131.39016723632812,-14.505786895751951,-8.160563468933105,2.480666160583496,-1.1768810749053955,0.1368429660797119,0.220622718334198,-19.588668823242188,83.54235076904297,-154.24378967285156,172.5699010898369,1.070455736018356,16.827547480120764,1.2051761056713426,-14.506629943847656,40.84267044067383,-22.85362243652344
4914.717,-14.650794982910156,183.59011840820312,-5.771987438201904,-0.8425188660621643,-0.0721568763256073,0.938545823097229,-5.821356773376465,46.318607330322266,-132.03604125976562,-48.051414489746094,-7.315473079681396,15.788576126098633,-1.0286157131195068,0.0191992633044719,0.392648696899414,-17.657522201538086,83.48882293701172,-151.39205932617188,184.26419405233364,1.2632944694428925,51.10512417492532,1.101177504385462,-11.83616542816162,37.17021560668945,-19.35601806640625
