Timestamp (ms),Wrist Gyroscope X (deg/s),Wrist Gyroscope Y (deg/s),Wrist Gyroscope Z (deg/s),Wrist Accelerometer X (g),Wrist Accelerometer Y (g),Wrist Accelerometer Z (g),Wrist Roll (deg),Wrist Pitch (deg),Wrist Yaw (deg),Arm Gyroscope X (deg/s),Arm Gyroscope Y (deg/s),Arm Gyroscope Z (deg/s),Arm Accelerometer X (g),Arm Accelerometer Y (g),Arm Accelerometer Z (g),Arm Roll (deg),Arm Pitch (deg),Arm Yaw (deg),Wrist Gyroscope Magnitude (deg/s),Wrist Accelerometer Magnitude (g),Arm Gyroscope Magnitude (deg/s),Arm Accelerometer Magnitude (g),Difference Roll (deg),Difference Pitch (deg),Difference Yaw (deg)
0.0,2.2487664222717285,4.506105899810791,-3.238342046737671,-0.954028844833374,0.228963166475296,0.1114556789398193,60.75607299804688,74.14119720458984,-54.57651519775391,5.1261372566223145,3.3596866130828857,-2.2870113849639893,-0.9739992618560792,0.1877096742391586,-0.0962077379226684,116.21784973144533,77.33361053466797,10.746177673339844,5.987386743305925,0.9874297629423736,6.541803909229824,0.99657684738075,55.46177673339844,3.192413330078125,65.32269287109375
21.062,2.990007877349853,4.623373508453369,-2.77405309677124,-0.9661002159118652,0.227437287569046,0.1301195472478866,60.99971389770508,74.24182891845703,-54.37369918823242,3.105078220367432,2.8609676361083984,-2.6058449745178223,-0.9768306016921996,0.1765967458486557,-0.1034870222210884,116.64749145507812,77.36408996582031,11.163508415222168,6.165314289554807,1.0010037180439004,4.961559694358181,0.9980450885680804,55.64777755737305,3.122261047363281,65.53720760345459
42.336,1.3311636447906494,3.9323983192443848,-2.6169233322143555,-0.9745111465454102,0.2306153327226638,0.1280511766672134,61.18009185791016,74.33214569091797,-54.20530319213867,1.045654535293579,2.492055654525757,-2.901980400085449,-0.9921247959136964,0.1831690222024917,-0.1088643744587898,117.02044677734376,77.39949035644531,11.564790725708008,4.90754937999571,1.0095803634549816,3.965504385940575,1.014748221672605,55.8403549194336,3.067344665527344,65.77009391784668
63.166,0.0212145671248435,3.577550411224365,-2.637291431427002,-0.9733635187149048,0.2348072379827499,0.1137719973921775,61.342063903808594,74.41998291015625,-54.0337142944336,-0.9082770943641664,1.8326308727264404,-3.774554252624512,-0.9820545315742492,0.1910765916109085,-0.1127872616052627,117.3363037109375,77.44953918457031,11.95398998260498,4.444617317271331,1.0077276645824278,4.293106451256767,1.0068079922346536,55.994239807128906,3.0295562744140625,65.98770427703857
85.565,-2.258970260620117,3.523658275604248,-3.030510425567627,-0.9654666781425476,0.2253791689872741,0.1000554040074348,61.45835113525391,74.52024841308594,-53.86629867553711,-3.147111415863037,2.7622933387756348,-4.337441444396973,-0.9740740060806274,0.1906604170799255,-0.1161154732108116,117.7123031616211,77.49836730957031,12.448781967163086,5.167504980266057,0.9964601147502548,6.028928017224305,0.999326957047604,56.25395202636719,2.978118896484375,66.3150806427002
96.071,-0.6581811308860779,2.851095199584961,-3.176231622695923,-0.9742078185081482,0.21997731924057,0.1103355064988136,61.534446716308594,74.61676788330078,-53.77505493164063,-3.0186898708343506,3.435708522796631,-4.232621669769287,-0.9794297814369202,0.1830220818519592,-0.1234141290187835,118.16510772705078,77.5404052734375,13.01838207244873,4.318610142067058,1.0048108372310791,6.231506061081531,1.0039974235287974,56.63066101074219,2.9236373901367188,66.79343700408936
117.784,1.3965424299240112,2.202268362045288,-3.946362018585205,-0.9716913104057312,0.2319888025522232,0.1084531769156456,61.59977722167969,74.71389770507812,-53.74888229370117,-1.3990694284439087,2.7935500144958496,-3.888091325759888,-0.9892585277557372,0.1721239686012268,-0.1190617233514785,118.58655548095705,77.58890533447266,13.52159023284912,4.730125778325096,1.004870588091182,4.987842329759975,1.011155175663908,56.986778259277344,2.8750076293945312,67.2704725265503
140.44899999999998,0.9688387513160706,2.3910961151123047,-4.065098285675049,-0.9759278297424316,0.2330491244792938,0.1056477427482605,61.67074966430664,74.81487274169922,-53.71053695678711,2.0363545417785645,2.159789562225342,-3.367483377456665,-0.9858777523040771,0.1638487875461578,-0.1180198714137077,119.0112075805664,77.63697814941406,13.95744514465332,4.814666471309831,1.008914500259631,4.489028299127403,1.0063448999806146,57.340457916259766,2.822105407714844,67.66798210144043
163.898,-0.9218189716339112,2.0567922592163086,-4.392117500305176,-0.9722854495048524,0.2231483459472656,0.1001863032579422,61.67146682739258,74.9229965209961,-53.70587539672852,4.758545398712158,2.087862014770508,-3.6038899421691895,-0.9830119013786316,0.1746309101581573,-0.113555334508419,119.46961975097656,77.68447875976562,14.383817672729492,4.9366831729941225,1.0025824030863226,6.323839404949691,1.004839871337726,57.798152923583984,2.7614822387695312,68.08969306945801
185.209,-1.323678970336914,2.1167898178100586,-3.980401039123535,-0.9588618278503418,0.2326934784650802,0.1055923774838447,61.68262100219727,75.01541137695312,-53.682373046875,1.9555160999298096,2.7166874408721924,-4.316208362579346,-0.9721828699111938,0.1855364739894867,-0.1038730591535568,119.91576385498048,77.73308563232422,14.855887413024902,4.698565481245553,0.992326564197174,5.462058998004074,0.9951647743701216,58.2331428527832,2.7176742553710938,68.5382604598999
195.257,-2.086169958114624,2.5636472702026367,-3.9005045890808105,-0.9498925805091858,0.2262911647558212,0.1047970876097679,61.70606231689453,75.1117935180664,-53.63090896606445,-1.0968413352966309,3.237875699996948,-4.413121223449707,-0.9665628671646118,0.1900966018438339,-0.1047911196947097,120.34142303466795,77.77383422851562,15.35158348083496,5.112565742325263,0.9820824992455752,5.5823417036498455,0.9906370036400411,58.63536071777344,2.6620407104492188,68.98249244689941
220.253,0.2539612054824829,2.876607179641724,-3.599261522293091,-0.9548343420028688,0.2266767472028732,0.0994388088583946,61.81888961791992,75.20683288574219,-53.52962112426758,-1.3022239208221436,3.588945150375366,-4.010909557342529,-0.9713684916496276,0.1738438159227371,-0.1111754477024078,120.8076629638672,77.80950927734375,15.884163856506348,4.614547503896347,0.986397001768407,5.537482271713915,0.99304501362027,58.98877334594727,2.6026763916015625,69.41378498077393
243.155,1.7028790712356567,3.01133131980896,-3.314145088195801,-0.957542359828949,0.2428245842456817,0.1047268137335777,61.98629760742188,75.28813171386719,-53.40425109863281,0.4032575786113739,2.3816163539886475,-3.483804225921631,-0.9783081412315368,0.1673768311738968,-0.1152452826499939,121.20421600341795,77.8501968383789,16.314796447753906,4.790769365616251,0.9933875654021788,4.239292985492168,0.9991913220133554,59.217918395996094,2.5620651245117188,69.71904754638672
263.454,0.043206088244915,3.546966552734375,-2.819185733795166,-0.9798536896705629,0.2470950931310653,0.1042930036783218,62.17820739746094,75.36616516113281,-53.21376419067383,1.475798487663269,1.508004069328308,-2.697184085845948,-0.987452745437622,0.1776116043329239,-0.1207857728004455,121.51219940185548,77.8802261352539,16.652193069458008,4.531075666319421,1.0158967805966863,3.424450239416623,1.0105434228062706,59.33399200439453,2.5140609741210938,69.86595726013184
285.232,-1.1415507793426514,3.725031137466431,-3.4705514907836914,-0.9790860414505004,0.232234850525856,0.0836362764239311,62.36159133911133,75.46892547607422,-53.00788116455078,1.544607639312744,1.2406328916549685,-2.833570718765259,-0.9844448566436768,0.1894979327917099,-0.133183404803276,121.81710052490234,77.90512084960938,16.983686447143555,5.217635748794004,1.0097215106632311,3.457471004870948,1.0113253490442695,59.455509185791016,2.436195373535156,69.99156761169434
305.276,-0.803422749042511,2.6142897605896,-3.364027976989746,-0.9880716800689696,0.2179108560085296,0.0968752950429916,62.43855285644531,75.56306457519531,-52.91793823242188,0.6702765226364136,2.4363937377929688,-3.424074411392212,-0.981797695159912,0.1930523067712783,-0.1445954740047454,122.24630737304688,77.92143249511719,17.446868896484375,4.335514190493715,1.0164426245048723,4.255534118898035,1.010991472997515,59.80775451660156,2.358367919921875,70.36480712890625
315.18600000000004,0.6436852216720581,1.5599467754364014,-3.916821002960205,-0.9844039678573608,0.2383855879306793,0.091961033642292,62.48378372192383,75.64706420898438,-52.889461517333984,-0.3236619532108307,3.3338894844055176,-3.5131123065948486,-0.9889729022979736,0.1890769302845001,-0.1292386949062347,122.69792175292967,77.93607330322266,17.951614379882812,4.264885857326503,1.0170229555791404,4.854022479648617,1.015145372499207,60.21413803100586,2.289009094238281,70.8410758972168
335.302,1.1533069610595703,1.2948075532913208,-4.199975967407227,-0.9835245013237,0.2377033233642578,0.0947189107537269,62.50439453125,75.73240661621094,-52.89830780029297,0.5706312656402588,3.017164707183838,-3.1666619777679443,-0.9903385639190674,0.1713737398386001,-0.1207014769315719,123.12854766845705,77.95845031738281,18.419767379760746,4.543835568469329,1.0162652147430895,4.410969393800316,1.0122787543088176,60.62415313720703,2.226043701171875,71.31807518005371
357.686,0.4550354182720184,1.3691902160644531,-3.63473391532898,-0.9743777513504028,0.2328322976827621,0.1146100237965583,62.4913444519043,75.80353546142578,-52.927093505859375,0.8632190823554993,2.62906551361084,-2.6284942626953125,-0.986610233783722,0.1566358804702758,-0.1157885938882827,123.5154266357422,77.98306274414062,18.84380149841309,3.910630347513217,1.008344355230667,3.81655797126451,1.005654787157151,61.02408218383789,2.179527282714844,71.77089500427246
375.245,-3.4270918369293213,1.493910551071167,-2.8203673362731934,-0.9754064679145812,0.2198487669229507,0.1024774685502052,62.450286865234375,75.87030029296875,-52.90757751464844,-0.4018853008747101,1.9733667373657229,-2.7978761196136475,-0.9922031164169312,0.1549396961927414,-0.1081015020608902,123.8180160522461,78.02096557617188,19.2068099975586,4.683075816689934,1.005113371479854,3.4472886238179874,1.0100293403815503,61.36772918701172,2.150665283203125,72.11438751220703
398.957,-3.12713885307312,2.508941888809204,-1.862865209579468,-0.9697357416152954,0.2264226824045181,0.0909555479884147,62.5528564453125,75.927734375,-52.75090789794922,-0.981126606464386,1.5960198640823364,-2.939563751220703,-0.9849532842636108,0.1708724051713943,-0.1073172464966774,124.06005096435548,78.05670166015625,19.520092010498047,4.420865706723347,0.9999637750355244,3.4858175327960663,1.005409042343642,61.50719451904297,2.12896728515625,72.27099990844727
420.569,-1.6113972663879397,3.2378735542297363,-1.6781914234161377,-0.9758262038230896,0.2322065532207489,0.1041109263896942,62.72237396240234,75.98262786865234,-52.5643424987793,-2.27764105796814,1.987907886505127,-2.6476099491119385,-0.9866587519645692,0.2010795176029205,-0.1098779588937759,124.24998474121094,78.06819915771484,19.80730056762696,3.987073206868706,1.0084620708882228,4.018614810703811,1.0129173861072611,61.527610778808594,2.0855712890625,72.37164306640625
435.218,-1.354711413383484,3.3525524139404297,-2.09692120552063,-0.976913332939148,0.2423439621925354,0.1082323864102363,62.89169692993164,76.03949737548828,-52.38516998291016,-6.084956169128418,1.7101659774780271,-3.2643141746521,-0.9895081520080566,0.2137956917285919,-0.1067245453596115,124.34756469726562,78.08829498291016,20.078781127929688,4.179943689086178,1.0123262841364469,7.113867181890029,1.0179514277578878,61.455867767333984,2.048797607421875,72.46395111083984
458.032,-3.25454044342041,3.536041259765625,-2.5160903930664062,-0.9719147086143494,0.2416836470365524,0.0975405871868133,63.04285430908203,76.1070785522461,-52.1827392578125,-8.329071998596191,1.454745888710022,-3.9620401859283447,-0.9835216999053956,0.181063175201416,-0.1189758405089378,124.49513244628906,78.13291931152344,20.443191528320312,5.424604331626875,1.006252131532924,9.337424076983384,1.0071018112502954,61.45227813720703,2.025840759277344,72.62593078613281
480.03,-3.0301942825317383,3.3470115661621094,-1.933825850486756,-0.9826315641403198,0.2149747908115387,0.0963487550616264,63.18001174926758,76.17658233642578,-51.99652862548828,-8.121478080749512,1.387258768081665,-3.5226619243621826,-0.9830645322799684,0.1557832062244415,-0.1290987879037857,124.68072509765624,78.17882537841797,20.837156295776367,4.911643944131312,1.010476142287012,8.960582578106477,1.0036686599703242,61.50071334838867,2.0022430419921875,72.83368492126465
503.697,-1.97877037525177,2.245711326599121,-2.40043568611145,-0.9693552255630492,0.2369814366102218,0.0936294645071029,63.27165222167969,76.23176574707031,-51.8825569152832,-4.548647880554199,1.3584469556808472,-2.548229217529297,-0.97532856464386,0.1597437560558319,-0.1317016631364822,124.88239288330078,78.20457458496094,21.19890785217285,3.836775083784162,1.0022855038601135,5.387861154274369,0.9970602813681791,61.61074066162109,1.972808837890625,73.08146476745605
525.441,-1.851079225540161,2.171145439147949,-1.3026371002197266,-0.9697424173355104,0.2321880459785461,0.0941527858376503,63.39388656616211,76.26838684082031,-51.73891830444336,-1.54359233379364,2.251781225204468,-1.9221789836883545,-0.9725553393363952,0.1578312516212463,-0.121878832578659,125.15897369384766,78.21316528320312,21.57494735717773,3.136435912310048,1.0015869366939871,3.3388572932162024,0.992788518210599,61.76508712768555,1.9447784423828125,73.3138656616211
535.882,0.148762509226799,1.6224470138549805,-0.8453599810600281,-0.9624962210655212,0.2156407535076141,0.0985968559980392,63.505184173583984,76.29752349853516,-51.647071838378906,0.3879958391189575,2.7506024837493896,-1.0037897825241089,-0.9798275828361512,0.1490369588136673,-0.1024186462163925,125.42950439453124,78.21178436279297,21.89582252502441,1.835510309013874,0.9912725408037076,2.953633139420286,0.9963752738159252,61.92432022094727,1.9142608642578125,73.54289436340332
558.043,2.0193676948547363,2.7268617153167725,0.3435016274452209,-0.9619377851486206,0.2336792796850204,0.1146612986922264,63.761138916015625,76.30179595947266,-51.444461822509766,2.140474319458008,1.559092402458191,-0.1051673740148544,-0.9938368797302246,0.1511476933956146,-0.0769142359495163,125.53026580810548,78.2181167602539,22.00333976745605,3.410515220540846,0.9965327499227168,2.6501810519697058,1.0082029400980843,61.76912689208984,1.91632080078125,73.44780158996582
580.507,-1.106515645980835,4.346453666687012,0.6488822102546692,-0.9754669070243835,0.2434162199497223,0.1289415210485458,64.06141662597656,76.3083724975586,-51.1314697265625,1.8540860414505005,0.9008036255836488,0.4428712427616119,-1.000221610069275,0.1820425987243652,-0.0702753663063049,125.4803466796875,78.21186065673828,21.96546745300293,4.531786013730385,1.013613860740194,2.1083683640748,1.0190787035893638,61.41893005371094,1.9034881591796875,73.09693717956543
603.777,-3.266491413116455,5.694658279418945,0.4937301576137543,-0.9728314876556396,0.2320114225149154,0.1041512191295623,64.45146942138672,76.34011840820312,-50.680572509765625,-1.8997917175292969,-0.218105673789978,-0.7417327761650085,-1.0084460973739624,0.1917963325977325,-0.0767021626234054,125.33499908447266,78.2324447631836,21.908748626708984,6.583530097132964,1.0055236844539537,2.051084144097884,1.0293845667474435,60.88352966308594,1.8923263549804688,72.58932113647461
625.11,-2.19701623916626,6.986613750457764,1.551284909248352,-0.9713038206100464,0.2291106581687927,0.1045787632465362,64.98887634277344,76.36359405517578,-50.085636138916016,-6.975554466247559,-0.8923145532608032,-2.3246631622314453,-0.9857318997383118,0.1712324917316436,-0.1034220904111862,125.21484375,78.28473663330078,21.976865768432617,7.486396791708774,1.0034239001241627,7.406662149131901,1.0058250708604095,60.22596740722656,1.921142578125,72.06250190734863
635.359,-4.897414207458496,6.62022066116333,2.298124551773072,-0.9639982581138612,0.2363144755363464,0.0932502225041389,65.49906921386719,76.36686706542969,-49.4677734375,-10.240278244018556,-1.1443754434585571,-2.60942006111145,-0.9658666253089904,0.1559243649244308,-0.132023811340332,125.1168441772461,78.33953857421875,22.146196365356445,8.549465712977177,0.996911619448609,10.629297565024777,0.9872390957735072,59.617774963378906,1.9726715087890625,71.61396980285645
657.3919999999999,-6.248836040496826,5.74034595489502,2.893004894256592,-0.9628061652183532,0.2161051779985427,0.0832608416676521,65.93402099609375,76.36336517333984,-48.90725326538086,-11.22019100189209,-1.5303103923797607,-1.7181389331817627,-0.95700341463089,0.1515353173017501,-0.1426304280757904,124.95310974121094,78.38101196289062,22.27512550354004,8.964875953468864,0.99026740201597,11.45366916798633,0.9793681264049838,59.01908874511719,2.017646789550781,71.1823787689209
682.2080000000001,-4.604866027832031,3.9945943355560303,3.3027210235595703,-0.960205078125,0.2148727476596832,0.0861396789550781,66.2722396850586,76.33685302734375,-48.48289108276367,-8.386703491210938,-1.394080638885498,-0.4911877512931824,-0.9604151844978333,0.1482556909322738,-0.1490787416696548,124.8105926513672,78.40044403076172,22.3512020111084,6.933220117622132,0.98771662638347,8.515956886000867,0.9831589636094564,58.538352966308594,2.0635910034179688,70.83409309387207
705.926,-5.600684642791748,3.1458897590637207,3.417792320251465,-0.9723776578903198,0.2344114482402801,0.0856029093265533,66.54563903808594,76.29306030273438,-48.110626220703125,-5.082055568695068,-1.4473661184310913,0.1048811674118042,-0.96706622838974,0.162495344877243,-0.1266245394945144,124.62149047851562,78.4117660522461,22.2734489440918,7.2763723921027585,1.0038898817676865,5.285182829700832,0.9887646844426276,58.07585144042969,2.1187057495117188,70.38407516479492
724.749,-7.927556991577148,2.0020086765289307,2.391271114349365,-0.9662597179412842,0.2260688543319702,0.0977546200156211,66.6153793334961,76.25975799560547,-47.90947723388672,-3.800750732421875,-1.1355773210525513,0.3126262724399566,-0.975685179233551,0.1921512484550476,-0.1106177866458892,124.38784790039062,78.4082260131836,22.127182006835938,8.518942195949124,0.9971564246141816,3.97906737418632,1.0005598262879014,57.77246856689453,2.148468017578125,70.03665924072266
734.8019999999999,-9.870926856994627,2.239138126373291,2.419240474700928,-0.9773441553115844,0.2171909213066101,0.0949218869209289,66.66168975830078,76.23480224609375,-47.693458557128906,-8.589344024658203,-0.3863709270954132,-1.0608735084533691,-0.9868626594543456,0.1907601654529571,-0.1083028092980384,124.19304656982422,78.42178344726562,22.115747451782227,10.406808398329794,1.005675722505201,8.663230683075126,1.0109484892173244,57.53135681152344,2.186981201171875,69.80920600891113
757.367,-10.48134422302246,1.726355791091919,2.0459539890289307,-0.999351441860199,0.224231868982315,0.0922609344124794,66.65704345703125,76.21283721923828,-47.51207733154297,-13.624646186828612,-0.0271645002067089,-1.2496564388275146,-1.0075117349624634,0.1678778380155563,-0.1218945458531379,124.0057144165039,78.44298553466797,22.20950508117676,10.817800551135443,1.0283459123437135,13.681862550158806,1.028650156706639,57.348670959472656,2.2301483154296875,69.72158241271973
774.664,-13.944663047790527,1.3174853324890137,1.1011854410171509,-0.9975569844245912,0.2451106905937194,0.0839420408010482,66.55939483642578,76.19636535644531,-47.3563232421875,-12.455653190612791,-0.5414909720420837,-1.0024406909942627,-0.9996749758720398,0.1709015071392059,-0.1258420944213867,123.79338836669922,78.4622573852539,22.26261329650879,14.049982366296636,1.0306529260771828,12.507653505617542,1.0219557795010392,57.23399353027344,2.2658920288085938,69.61893653869629
797.304,-15.957734107971191,0.5026139616966248,0.480764091014862,-0.9947299957275392,0.219595655798912,0.0715898424386978,66.34563446044922,76.20005798339844,-47.280311584472656,-10.84889793395996,0.0924253463745117,-1.3044569492340088,-0.9915598630905152,0.1763501763343811,-0.1353885233402252,123.69613647460938,78.47285461425781,22.416656494140625,15.97288429703317,1.0211929895892655,10.927430473745328,1.0161793144113371,57.35050201416016,2.272796630859375,69.69696807861328
814.83,-14.425863265991213,-0.5055248141288757,0.1318165212869644,-0.980866551399231,0.2236857861280441,0.076171189546585,66.07331848144531,76.19715881347656,-47.294918060302734,-11.043133735656738,0.7943943738937378,-1.858564496040344,-0.9748518466949464,0.1857988834381103,-0.1364191472530365,123.6706771850586,78.47801208496094,22.646238327026367,14.43531994456856,1.0089284279305857,11.226581274404763,1.001732265542366,57.59735870361328,2.280853271484375,69.9411563873291
837.33,-16.511892318725586,-1.5866665840148926,0.0352997109293937,-0.9566435813903807,0.2268842309713363,0.0792532190680503,65.67698669433594,76.18157958984375,-47.3953857421875,-13.429034233093262,2.128267288208008,-2.770480155944824,-0.9507805705070496,0.1790260374546051,-0.1323594450950622,123.7568588256836,78.48481750488281,23.036008834838867,16.5879879691182,0.9863693369177274,13.876024011874982,0.9765004035054368,58.079872131347656,2.3032379150390625,70.43139457702637
861.001,-14.734719276428224,-1.8774040937423704,0.2661903500556946,-0.9318995475769044,0.2127875238656997,0.0676414370536804,65.32041931152344,76.1661148071289,-47.471588134765625,-14.168701171875,2.5609521865844727,-2.427313327789306,-0.9461217522621156,0.1585123240947723,-0.1120192036032676,123.82820892333984,78.49677276611328,23.42310905456543,14.856226155683308,0.9582748358866686,14.601452632910446,0.9658265004489016,58.507789611816406,2.330657958984375,70.89469718933105
880.1949999999999,-9.680624008178713,-1.204392910003662,0.9796150922775269,-0.9357616305351256,0.2180890887975692,0.0850280299782753,65.10777282714844,76.13694763183594,-47.49900436401367,-11.20077896118164,0.9702364802360536,-1.0011247396469116,-0.9655491709709167,0.1325064450502395,-0.0959412157535553,123.7554931640625,78.52220916748047,23.604381561279297,9.804319925339597,0.9645944462396088,11.287207755205149,0.9793098980520656,58.64772033691406,2.3852615356445312,71.10338592529297
903.055,-10.825265884399414,-0.0656810328364372,1.113438606262207,-0.9566779136657716,0.2254314720630645,0.1215100362896919,64.88931274414062,76.10587310791016,-47.509674072265625,-5.13227128982544,-0.3701485097408294,-0.4502327442169189,-0.9762971997261048,0.1326386779546737,-0.0768094733357429,123.61966705322266,78.560302734375,23.60593032836914,10.882575108674024,0.9903618873985084,5.165261661871055,0.9882555015160358,58.73035430908203,2.454429626464844,71.11560440063477
914.982,-15.233089447021484,1.1376888751983645,0.8908330798149109,-0.9599278569221495,0.200954258441925,0.0992145165801048,64.68870544433594,76.10750579833984,-47.421268463134766,-3.3493428230285645,0.4712859690189361,-0.3890140652656555,-0.9789813756942748,0.1342889219522476,-0.0728791505098342,123.5736083984375,78.58827209472656,23.66263198852539,15.301468349599654,0.9857421695257432,3.404635039727692,0.990832689758663,58.88490295410156,2.4807662963867188,71.08390045166016
937.318,-11.874115943908691,2.4975802898406982,1.1899842023849487,-0.9639840126037598,0.1849394887685775,0.0891878306865692,64.67139434814453,76.12670135498047,-47.21639633178711,-2.98112416267395,0.5270313024520874,0.2696437835693359,-0.9884027242660522,0.1355055868625641,-0.0842463076114654,123.5298080444336,78.6010971069336,23.711774826049805,12.192153179627995,0.9856075589220106,3.0393372693829805,1.001198856248691,58.85841369628906,2.474395751953125,70.92817115783691
959.778,-10.001025199890137,3.4790234565734863,1.3261009454727173,-0.9764595627784728,0.2082664668560028,0.1033681854605674,64.76094055175781,76.13786315917969,-46.93610382080078,-1.791353702545166,1.02963387966156,0.6063734889030457,-0.9927474856376648,0.1462943106889724,-0.1003756672143936,123.55429077148438,78.59296417236328,23.80484199523925,10.671581559347691,1.0037595233538854,2.1533190246253904,1.0084765094679211,58.79335021972656,2.4551010131835938,70.74094581604004
983.864,-10.17740249633789,3.9810943603515625,1.3109030723571775,-0.9894514083862304,0.2017738223075866,0.1016616821289062,64.87976837158203,76.15869140625,-46.62371063232422,-4.469631195068359,0.5887999534606934,-0.0517354160547256,-1.004887342453003,0.1537281423807144,-0.1021719425916671,123.51717376708984,78.59800720214844,23.895477294921875,11.006684366493085,1.0149196335372508,4.508543551791186,1.021699573570939,58.63740539550781,2.439315795898437,70.5191879272461
1005.599,-11.01095962524414,3.970006704330444,0.7181957364082336,-0.984111487865448,0.198399156332016,0.1019614711403846,64.95641326904297,76.19070434570312,-46.33649063110352,-6.422826290130615,-0.0857370793819427,-0.7194793224334717,-0.9922196865081788,0.1637034863233566,-0.1147459596395492,123.4368896484375,78.61183166503906,23.9864444732666,11.726806479898109,1.009075709438649,6.463567041145568,1.0121587686634992,58.48047637939453,2.421127319335937,70.32293510437012
1014.765,-14.500203132629396,3.2952985763549805,0.5545836091041565,-0.9720486998558044,0.2064247578382492,0.0870310813188552,64.9487533569336,76.21757507324219,-46.06337738037109,-11.35657787322998,0.7239428758621216,-2.1229305267333984,-0.9623295664787292,0.1762672066688537,-0.1304771602153778,123.42017364501952,78.62557220458984,24.24091911315918,14.880270379745438,0.9975290796039326,11.575957338362336,0.9870018297874876,58.47142028808594,2.407997131347656,70.30429649353027
1037.235,-14.423548698425291,1.8936148881912231,0.0727309584617614,-0.9643060564994812,0.1747563034296035,0.0607846491038799,64.84963989257812,76.26268005371094,-45.89095687866211,-16.152250289916992,2.7200872898101807,-2.47412371635437,-0.9631797075271606,0.1492967158555984,-0.1394928842782974,123.556640625,78.63323211669922,24.74553871154785,14.54750233521013,0.981896486273702,16.565486785969725,0.9846130829527162,58.70700073242188,2.370552062988281,70.63649559020996
1059.634,-6.977334022521973,1.119314193725586,0.1066159456968307,-0.9694653749465942,0.1799165606498718,0.0907457023859024,64.78363037109375,76.29082489013672,-45.84088897705078,-13.397420883178713,2.855367660522461,-1.9447875022888184,-0.9808787107467652,0.1293497383594513,-0.1327078640460968,123.743408203125,78.64373779296875,25.24095344543457,7.0673489574235,0.9901857727305168,13.835686077200846,0.998231324488253,58.95977783203125,2.3529129028320312,71.08184242248535
1079.605,-7.420551300048828,0.995621144771576,-0.1930457055568695,-0.9834455847740172,0.2084754407405853,0.1030042022466659,64.69271850585938,76.30747985839844,-45.80926513671875,-8.22191333770752,1.3424793481826782,-1.7017265558242798,-0.9887037873268129,0.1209775879979133,-0.1194552853703498,123.87616729736328,78.67560577392578,25.55655097961425,7.489533343607368,1.0105627606853331,8.502822061166949,1.0032149924493194,59.18344879150391,2.368125915527344,71.36581611633301
1102.4199999999998,-9.90703582763672,0.6056371331214905,-0.8339962363243103,-0.9686906337738036,0.1859410107135772,0.0881106257438659,64.51106262207031,76.34529876708984,-45.81812286376953,-4.08720064163208,1.0019770860671997,-1.676895260810852,-0.974141001701355,0.1145065054297447,-0.1139091849327087,124.0607452392578,78.71380615234375,25.829200744628903,9.960507263653607,0.990302522361352,4.530027028803614,0.9874399897682316,59.5496826171875,2.3685073852539062,71.64732360839844
1129.524,-7.685919761657715,0.8883123993873596,0.0211787577718496,-0.9625552296638488,0.1584171056747436,0.0705390721559524,64.43617248535156,76.3875732421875,-45.75899505615234,-1.327336668968201,2.131045341491699,-1.2172574996948242,-0.972320556640625,0.1034567207098007,-0.1071898862719535,124.3692855834961,78.73833465576172,26.17069625854492,7.737112513161914,0.97805128200121,2.7901420574666744,0.9836667269176868,59.93311309814453,2.3507614135742188,71.92969131469727
1135.306,-1.2001007795333862,1.741302490234375,0.6560856699943542,-0.9702702760696412,0.1742362231016159,0.0869897454977035,64.55715942382812,76.41399383544922,-45.631961822509766,2.8873658180236816,3.0463132858276367,0.7626092433929443,-0.992681920528412,0.098151259124279,-0.0962868779897689,124.70384216308594,78.72685241699219,26.45161247253418,2.2142322935737835,0.9896210819736656,4.26596751752869,1.0021587837686572,60.14668273925781,2.3128585815429688,72.08357429504395
1157.179,-0.0059873610734939,3.4974756240844727,0.9464550018310548,-1.0045454502105713,0.2090152651071548,0.1073850914835929,64.8338851928711,76.43170928955078,-45.36822509765625,8.928926467895508,1.6072477102279663,2.284685611724853,-1.029726505279541,0.1332904696464538,-0.0872022211551666,124.87254333496094,78.69642639160156,26.44328689575196,3.623278716859734,1.0316639474458305,9.355680702949442,1.0419727694849723,60.03865814208984,2.264717102050781,71.8115119934082
1184.696,-3.1927287578582764,4.764791965484619,-0.3605047464370727,-1.0250959396362305,0.2053433805704116,0.1094643846154213,65.08655548095703,76.48721313476562,-45.06502532958984,8.134525299072266,1.3815109729766846,1.7793809175491333,-1.0335524082183838,0.1861434578895568,-0.0936307162046432,124.9653778076172,78.6522216796875,26.378894805908203,5.746888120348759,1.0511755518951171,8.440691373308214,1.0543465646864394,59.87882232666016,2.165008544921875,71.44392013549805
1205.379,-4.731009483337402,4.834348678588867,-1.645524978637695,-1.0032330751419067,0.1816421151161193,0.0813587382435798,65.30595397949219,76.5811767578125,-44.76476287841797,2.569423198699951,2.56166410446167,-1.1017134189605713,-1.0057893991470337,0.1820105910301208,-0.1184270158410072,125.26605987548828,78.63312530517578,26.639122009277344,6.9614028997697694,1.0227852684366996,3.791811046930304,1.0289631328500992,59.960105895996094,2.051948547363281,71.40388488769531
1215.247,-3.646764278411865,4.2060723304748535,-1.462032437324524,-0.9963408708572388,0.1852884292602539,0.0739098042249679,65.52716827392578,76.66449737548828,-44.48439025878906,-5.41190242767334,4.564986228942871,-2.9671573638916016,-0.9883764386177064,0.1751282811164856,-0.1491518467664718,125.7519073486328,78.61221313476562,27.25700187683105,5.755647053049384,1.0161149502486744,7.676705672304417,1.01479267471503,60.22473907470703,1.947715759277344,71.74139213562012
1237.156,-0.8495742678642273,3.552854299545288,-1.5781813859939575,-1.00292706489563,0.2190460860729217,0.0742324590682983,65.78348541259766,76.727294921875,-44.22962951660156,-9.344255447387695,4.6396894454956055,-1.990977764129639,-1.0083006620407104,0.1772855818271637,-0.1593341827392578,126.12018585205078,78.57225799560547,27.86069107055664,3.979347509016056,1.0292494077255303,10.621008449009755,1.036092555896778,60.336700439453125,1.8449630737304688,72.0903205871582
1255.312,0.4094595313072204,2.725385427474976,-3.0544958114624023,-1.016858696937561,0.2363597303628921,0.0862044915556907,65.93992614746094,76.79994201660156,-44.10292816162109,-6.979685306549072,2.510577917098999,-1.1764750480651855,-1.0143548250198364,0.191971406340599,-0.1678321063518524,126.3087387084961,78.53594970703125,28.22959899902344,4.114040288853847,1.0475202843091629,7.51019986385197,1.045914120669527,60.36881256103516,1.7360076904296875,72.33252716064453
1277.137,-1.1031110286712646,0.7154194116592407,-4.629915237426758,-1.0039750337600708,0.2240105718374252,0.0621035732328891,65.89778900146484,76.89398193359375,-44.15326690673828,-4.216948986053467,2.414592981338501,-2.9528555870056152,-0.9759170413017272,0.1757926344871521,-0.1729165464639663,126.68624877929688,78.52969360351562,28.753883361816406,4.81298181815717,1.0305355202596165,5.686147565286781,1.0065869330982178,60.78845977783203,1.635711669921875,72.90715026855469
1299.618,1.2336645126342771,-1.188105225563049,-4.39882755279541,-0.9662356376647948,0.1824298650026321,0.0372014008462429,65.78006744384766,76.9896011352539,-44.335731506347656,-2.266497135162353,6.000926971435547,-3.298123836517334,-0.9469475746154784,0.1170619055628776,-0.1669821143150329,127.4903793334961,78.50958251953125,29.67145347595215,4.720509082289266,0.984010115478136,7.212888091548737,0.9686569182663528,61.71031188964844,1.5199813842773438,74.0071849822998
1314.499,8.741671562194824,-2.166177749633789,-2.796663999557495,-0.9656612873077391,0.1949320286512375,0.0687656253576278,65.73076629638672,77.03308868408203,-44.602298736572266,4.987098693847656,7.588679313659668,0.1272398084402084,-0.9690835475921632,0.1159816607832908,-0.1501851230859756,128.3033905029297,78.42247772216797,30.43442726135254,9.430295714913456,0.9875367987218262,9.081596614945804,0.987486829810004,62.57262420654297,1.3893890380859375,75.0367259979248
1338.231,11.406696319580078,-1.9517369270324707,-3.0731770992279053,-0.9726035594940186,0.2421794831752777,0.0839325785636901,65.75464630126953,77.05619812011719,-44.84687042236328,14.638669967651367,6.763275146484375,2.7895970344543457,-0.9814218282699584,0.1473179161548614,-0.1072325706481933,128.91603088378906,78.30562591552734,30.7766227722168,11.973571540801128,1.005809755249883,16.365035922463104,0.9981934670357137,63.16138458251953,1.2494277954101562,75.62349319458008
1359.413,10.002889633178713,-1.0958609580993652,-3.073217391967773,-0.9645174145698548,0.2203801572322845,0.0836313515901565,65.79581451416016,77.09624481201172,-45.04550552368164,19.372848510742188,8.19172477722168,3.143712282180786,-0.9692337512969972,0.151606798171997,-0.0874701142311096,129.63967895507812,78.1695785522461,31.13897705078125,10.521567249765305,0.9929025428908116,21.26721752272844,0.9849110146550384,63.84386444091797,1.073333740234375,76.18448257446289
1381.858,11.222244262695312,0.8742455244064331,-2.230526924133301,-0.9268698692321776,0.1858195662498474,0.0716671496629715,66.03968811035156,77.15263366699219,-45.0596809387207,17.3739013671875,10.758392333984377,2.494269609451294,-0.9512313008308412,0.1175421625375747,-0.070742167532444,130.55096435546875,78.03062438964844,31.75701713562012,11.475117510850426,0.948025762325355,20.586812167339698,0.9610731511812886,64.51127624511719,0.87799072265625,76.81669807434082
1403.829,17.181610107421875,3.685158014297485,0.5546151399612427,-0.9259834885597228,0.1798915565013885,0.0910149663686752,66.66853332519531,77.17845916748047,-44.79644393920898,15.17709255218506,10.765536308288574,4.655782699584961,-0.965428590774536,0.0928523167967796,-0.0765505582094192,131.31976318359375,77.86824035644531,32.274749755859375,17.581118093775398,0.9476761668886782,19.181168444295185,0.9728997402515892,64.65122985839844,0.6897811889648438,77.07119369506836
1415.0,21.427553176879883,6.610770225524902,2.093711376190185,-0.9498105645179749,0.2198872566223144,0.1225912496447563,67.62989044189453,77.17259216308594,-44.27524566650391,20.811153411865234,6.994555473327637,8.063737869262695,-0.996984601020813,0.1199991554021835,-0.0737713947892189,131.66224670410156,77.69728088378906,32.236026763916016,22.52167723437777,0.9826083291852886,23.389138099250875,1.0068864437755698,64.03235626220703,0.524688720703125,76.51127243041992
1435.2050000000002,18.574113845825195,8.947164535522461,2.3272247314453125,-0.9696241021156312,0.2306335717439651,0.1199019849300384,68.73888397216797,77.17555236816406,-43.54436111450195,23.50200080871582,4.193372249603272,7.92233943939209,-0.9922741055488586,0.1754050105810165,-0.0890429019927978,131.80625915527344,77.5380630493164,31.937211990356445,20.747660912354355,1.0038621567770576,25.15336707141947,1.0115846265513395,63.06737518310547,0.3625106811523437,75.4815731048584
1457.568,15.927964210510254,9.669196128845217,2.207308053970337,-0.9794750809669496,0.1885159462690353,0.087207593023777,69.88031768798828,77.212158203125,-42.71725082397461,17.64899253845215,5.387990951538086,5.61108922958374,-0.9836821556091307,0.1778065264225006,-0.1228256970643997,132.11077880859375,77.38462829589844,31.922527313232425,18.763411377318707,1.0012566406840568,19.287345759812226,1.0071404549324874,62.23046112060547,0.1724700927734375,74.63977813720703
1479.357,17.395153045654297,9.431241989135742,2.9326329231262207,-0.9755733609199524,0.1992899030447006,0.0822596251964569,71.06690216064453,77.22416687011719,-41.87651062011719,10.643562316894531,5.561720848083496,4.602210998535156,-0.9772220849990844,0.1647161394357681,-0.1645150184631347,132.4424591064453,77.23445892333984,32.07384490966797,20.00349996378576,0.9991128534503394,12.860734958028717,1.0045693611197322,61.37555694580078,0.0102920532226562,73.95035552978516
1500.3280000000002,18.00885009765625,7.437807083129883,2.9258389472961426,-0.9860824942588806,0.2213224172592163,0.0796080380678176,72.11377716064453,77.2100601196289,-41.20524215698242,8.048172950744629,3.952563524246216,5.068158149719238,-0.973842978477478,0.1560005098581314,-0.1980576515197754,132.66184997558594,77.09107971191406,32.158973693847656,19.7027964916462,1.0137454007739246,10.29961520100944,1.0059488750087708,60.548072814941406,-0.1189804077148437,73.36421585083008
1522.0990000000002,17.448434829711914,5.013516426086426,2.6100494861602783,-0.995448112487793,0.2193099409341812,0.0705817490816116,72.94735717773438,77.18862915039062,-40.74875259399414,10.017641067504885,1.4778097867965698,6.081675052642822,-0.9822216629981996,0.1669485718011856,-0.2127046138048172,132.70803833007812,76.95917510986328,32.034263610839844,18.34109002435645,1.0217610181209122,11.812020393194814,1.018761244661015,59.76068115234375,-0.2294540405273437,72.78301620483398
1544.725,17.58985137939453,1.4640637636184692,1.9967916011810305,-0.9962584972381592,0.2147358059883117,0.0679037496447563,73.46540069580078,77.16029357910156,-40.61520004272461,12.213274002075195,0.4931498169898987,5.127663612365723,-0.972715437412262,0.1810173094272613,-0.204382374882698,132.75418090820312,76.85199737548828,31.872617721557617,17.763263521990417,1.021397757442468,13.255194933057096,1.0103042827065043,59.28878021240234,-0.3082962036132812,72.48781776428223
1554.347,15.934060096740724,-0.6816466450691223,2.157562017440796,-0.996673047542572,0.2072044909000396,0.0408278703689575,73.82919311523438,77.12493133544922,-40.59107971191406,9.735174179077148,1.4669189453125,3.769012928009033,-0.9799814820289612,0.1721209436655044,-0.1854661852121353,132.870361328125,76.76435089111328,31.835363388061523,16.093911493927823,1.0188021298298346,10.54186539188328,1.0121200670993165,59.04116821289063,-0.3605804443359375,72.42644309997559
1582.34,17.87631607055664,-1.8105254173278809,1.5485084056854248,-1.0046899318695068,0.2072818279266357,0.0536800734698772,74.08756256103516,77.09420013427734,-40.71050262451172,9.484198570251465,2.4144678115844727,4.633248329162598,-0.9950507879257202,0.1624386310577392,-0.1773958355188369,132.9901885986328,76.66091918945312,31.803800582885746,18.034371539471795,1.0272532140014423,10.828050028182613,1.0237097547014655,58.902626037597656,-0.4332809448242187,72.51430320739746
1604.2289999999998,20.571807861328125,-2.70085072517395,0.8200176358222961,-1.011861801147461,0.2209094613790512,0.069349467754364,74.27787780761719,77.06446075439453,-40.95658493041992,13.933456420898438,2.458315849304199,5.460573196411133,-1.0110245943069458,0.1653688997030258,-0.1614972352981567,133.12005615234375,76.55268859863281,31.693435668945312,20.76454435440696,1.038014760697544,15.165829495328628,1.0371108717448978,58.84217834472656,-0.5117721557617188,72.65002059936523
1624.271,20.20022392272949,-2.665229558944702,-0.306302547454834,-1.0026627779006958,0.2220871895551681,0.0666186958551406,74.44290924072266,77.05572509765625,-41.22139739990234,17.10789680480957,1.1039228439331057,4.99693489074707,-1.0120681524276731,0.1687681674957275,-0.1424658894538879,133.21852111816406,76.47675323486328,31.480186462402344,20.377593488458416,1.0291226440951986,17.85687926351456,1.0358866584603346,58.775611877441406,-0.5789718627929688,72.70158386230469
1634.439,19.13898277282715,-2.0139853954315186,-0.4521327018737793,-0.9843473434448242,0.2140947580337524,0.065599039196968,74.6325454711914,77.0555648803711,-41.43605041503906,17.952800750732422,-0.3766188025474548,3.4791460037231445,-1.0044715404510498,0.1665435582399368,-0.1455806344747543,133.3387908935547,76.44290924072266,31.27100944519043,19.24996682417114,1.0094946715599735,18.290690348730788,1.0285395245207625,58.70624542236328,-0.6126556396484375,72.70705986022949
1655.047,15.042749404907228,-0.2137999385595321,0.8973768949508667,-0.983892261981964,0.2293404191732406,0.0720347166061401,74.91352081298828,77.02992248535156,-41.47293472290039,12.885455131530762,-2.4657137393951416,1.1472247838974,-0.9964436292648317,0.1873549818992614,-0.158904492855072,133.35272216796875,76.45783996582031,31.06317901611328,15.07100877062171,1.01283266705368,13.169313683564638,1.0262808745146084,58.43920135498047,-0.57208251953125,72.53611373901367
1676.808,8.15721607208252,-0.7167887091636658,1.2113240957260132,-0.9735632538795472,0.2255198508501052,0.0529733598232269,75.06354522705078,76.99931335449219,-41.502967834472656,2.837721347808838,-4.554490566253662,-1.1759246587753296,-0.9688339829444884,0.1922028958797454,-0.1798827350139618,133.20001220703125,76.52142333984375,30.9007568359375,8.277757314944207,1.0007451170417705,5.493527607013501,1.003961671603426,58.13646697998047,-0.4778900146484375,72.40372467041016
1697.187,8.101678848266602,-1.4321147203445437,1.978664517402649,-0.9738051891326904,0.2139863073825836,0.0251387916505336,75.22852325439453,76.9608154296875,-41.5078239440918,-2.879084587097168,-5.466943264007568,-0.8069140911102295,-0.9522141218185424,0.1775072365999221,-0.211095929145813,132.9378662109375,76.58269500732422,30.73929214477539,8.461871306342719,0.9973558266609954,6.231188254415882,0.9913536423183872,57.70934295654297,-0.3781204223632812,72.24711608886719
1714.217,10.768973350524902,-3.9069790840148926,1.0498101711273191,-0.9734668135643004,0.2302076965570449,0.0249904282391071,75.23043060302734,76.91914367675781,-41.72700500488281,-0.7716683745384216,-3.7509841918945312,1.0725382566452026,-0.9364272952079772,0.176663339138031,-0.218392014503479,132.73318481445312,76.5872802734375,30.572412490844727,11.5037982415656,1.0006286734691885,3.976894869125028,0.977650799930535,57.50275421142578,-0.3318634033203125,72.29941749572754
1736.933,9.94478702545166,-5.639742851257324,0.0977331548929214,-0.9780975580215454,0.2379166632890701,0.0186137426644563,75.07340240478516,76.88473510742188,-42.093997955322266,4.313655853271484,-1.456492900848389,2.114558219909668,-0.9606534838676452,0.167075902223587,-0.2010875940322876,132.6961669921875,76.55951690673828,30.46799659729004,11.433067837613187,1.0067897710516798,5.019995503590878,0.9955931365997678,57.62276458740234,-0.3252182006835937,72.5619945526123
1759.946,9.825040817260742,-6.264523506164551,0.2668001353740692,-1.001402497291565,0.2314569056034088,0.0424112118780612,74.80733489990234,76.84686279296875,-42.586700439453125,8.67011547088623,-0.7555434107780457,3.024695634841919,-0.996427834033966,0.1573590040206909,-0.1733067035675048,132.70269775390625,76.52854919433594,30.32717514038086,11.65533629426296,1.028677778328206,9.21360579835618,1.0235553224352067,57.89536285400391,-0.3183135986328125,72.91387557983398
1781.959,7.399499416351318,-6.943854808807373,-0.4950556755065918,-1.0000795125961304,0.2228968888521194,0.0722944736480712,74.34980010986328,76.8197021484375,-43.218292236328125,11.600008010864258,-1.0173195600509644,3.174741744995117,-1.0078834295272827,0.1541987061500549,-0.1512047946453094,132.7097930908203,76.5099868774414,30.13946914672852,10.159468063842322,1.0271652960913933,12.069553019345491,1.0307614362294304,58.35999298095703,-0.3097152709960937,73.35776138305664
1804.07,4.54946231842041,-5.803049087524414,-0.0843126848340034,-1.009344220161438,0.2021169513463974,0.0736770629882812,73.92765045166016,76.80188751220703,-43.76057434082031,13.31553554534912,-1.8587279319763184,2.434500217437744,-1.0290558338165283,0.1393698304891586,-0.1268267035484314,132.7228240966797,76.5311279296875,29.925594329833984,7.374286048680853,1.0320151774104112,13.663277340860402,1.0461667512855533,58.79517364501953,-0.2707595825195312,73.6861686706543
1814.279,4.495198726654053,-4.713796615600586,0.1784733831882476,-0.9919099807739258,0.2223106026649475,0.0721315592527389,73.62141418457031,76.77192687988281,-44.18611907958984,14.62206745147705,-3.672746181488037,1.8562815189361568,-1.010122299194336,0.1584521681070327,-0.1309349089860916,132.6592559814453,76.57398223876953,29.606096267700195,6.516022012997379,1.0190732926813524,15.19011856921214,1.030823990455532,59.037841796875,-0.1979446411132812,73.79221534729004
1836.584,3.748237609863281,-2.9638445377349854,0.8458955883979797,-0.9958561062812804,0.2369424849748611,0.0732307136058807,73.46959686279297,76.73194885253906,-44.43136215209961,13.14887809753418,-2.937753915786743,2.019373178482056,-0.9911878108978271,0.1911917924880981,-0.14661306142807,132.5760040283203,76.5826187133789,29.30037307739257,4.852751690569617,1.026271827060941,13.623555384975948,1.0200504731475546,59.106407165527344,-0.1493301391601562,73.73173522949219
1859.095,0.7210526466369629,-3.264174699783325,0.2993612587451935,-0.9729903936386108,0.2311264425516128,0.0523489192128181,73.26805877685547,76.70410919189453,-44.65315628051758,7.538929462432861,-2.1381516456604004,1.3691308498382568,-0.9633881449699402,0.1999976187944412,-0.1517387777566909,132.46112060546875,76.5805892944336,29.07418441772461,3.35624351815616,1.0014340457076207,7.954977635628986,0.9955603558133296,59.19306182861328,-0.1235198974609375,73.72734069824219
1881.604,0.414484441280365,-3.545943260192871,1.324920654296875,-0.9619153738021852,0.229703277349472,0.0517787300050258,73.06639862060547,76.65449523925781,-44.86724472045898,1.1923584938049316,1.0129865407943726,1.0517326593399048,-0.9545469284057616,0.177563801407814,-0.1521418690681457,132.4693603515625,76.54851531982422,29.097888946533203,3.808008100930617,0.9903160196942284,1.8852061150711088,0.982769500148848,59.40296173095703,-0.1059799194335937,73.96513366699219
1905.227,0.905900239944458,-3.6806445121765137,2.003690481185913,-0.9560860991477966,0.2432172298431396,0.0750921890139579,72.83895111083984,76.57952880859375,-45.13421630859375,-0.1454676687717437,1.161012887954712,2.4744222164154053,-0.9679932594299316,0.1549232900142669,-0.1374979764223098,132.39170837402344,76.51058959960938,29.059370040893555,4.287490503096368,0.989390765434532,2.737129349107373,0.9899080106812236,59.5527572631836,-0.068939208984375,74.1935863494873
1914.772,0.3450275063514709,-2.523732900619507,3.057687282562256,-0.9688005447387696,0.250292420387268,0.0982710495591163,72.67383575439453,76.48619079589844,-45.3268928527832,3.151329040527344,-0.6421608328819275,4.021202087402344,-0.9972056746482848,0.1381590217351913,-0.1137496680021286,132.17002868652344,76.49346923828125,28.80668258666992,3.9796637108870665,1.0054242837583065,5.149107833857004,1.013136742897108,59.496192932128906,0.0072784423828125,74.13357543945312
1939.192,-2.775844097137451,-1.31455397605896,4.17467737197876,-0.9689688086509703,0.241944819688797,0.1030466854572296,72.55537414550781,76.3832778930664,-45.403282165527344,7.868707656860352,-3.1746139526367188,3.4100446701049805,-0.9962496757507324,0.1243418380618095,-0.0918746963143348,131.90591430664062,76.53308868408203,28.415447235107425,5.182788223311535,1.0040201528338195,9.144568802820602,1.0081742254932329,59.35054016113281,0.149810791015625,73.81872940063477
1959.513,-5.377224922180176,1.1082229614257812,6.05018424987793,-0.9606534242630004,0.2235256880521774,0.0990486741065979,72.61642456054688,76.26936340332031,-45.237491607666016,9.227823257446287,-4.147170543670654,3.179394721984864,-0.9972715973854064,0.1382864564657211,-0.0811625719070434,131.57992553710938,76.5864028930664,27.93671607971192,8.169910369974563,0.9912766387894464,10.60472990637392,1.0100797721329005,58.9635009765625,0.3170394897460937,73.17420768737793
1981.651,-3.646188497543335,3.217472553253174,7.176873207092285,-0.9678558111190796,0.2246085852384567,0.1126256957650184,72.86857604980469,76.14575958251953,-44.90797805786133,10.439096450805664,-6.090694427490234,3.648484945297241,-0.9953129887580872,0.1624914109706878,-0.0956510156393051,131.1182098388672,76.64127349853516,27.29627990722656,8.669159660614973,0.999939215665806,12.624687549176992,1.013015558134539,58.2496337890625,0.495513916015625,72.20425796508789
2005.242,-5.599785804748535,3.9950318336486816,6.915672302246094,-0.9734044075012208,0.2458555400371551,0.1131493374705314,73.14160919189453,76.02204895019531,-44.50688171386719,11.495077133178713,-7.507806301116943,3.6773722171783447,-0.9886178374290466,0.1898780018091201,-0.1210565567016601,130.589599609375,76.69087219238281,26.56681632995605,9.754199290714912,1.010328589954666,14.213620938258291,1.013939630340175,57.44799041748047,0.6688232421875,71.07369804382324
2015.111,-7.079648017883301,3.768667936325073,6.502211093902588,-1.000087022781372,0.247763305902481,0.0740187242627143,73.4381332397461,75.91480255126953,-44.05368423461914,9.848596572875977,-5.4038496017456055,5.409305572509766,-0.976881504058838,0.196553036570549,-0.1619799435138702,130.1366729736328,76.66571044921875,25.935447692871094,10.324874003157303,1.032976030907259,12.46824092445826,1.009538543720901,56.69853973388672,0.7509078979492188,69.98913192749023
2041.713,-4.036302089691162,1.789350986480713,4.811932563781738,-0.9945905208587646,0.2338830083608627,0.0430982895195484,73.65902709960938,75.84043884277344,-43.74819564819336,9.5803861618042,-2.429807424545288,7.097547054290772,-0.970344305038452,0.1764963567256927,-0.1935105323791504,129.8765106201172,76.5721435546875,25.505245208740234,6.530559433191604,1.0226284898933469,12.168111493470809,1.0050698286187194,56.21748352050781,0.7317047119140625,69.2534408569336
2064.127,-3.0643253326416016,-1.4296140670776367,4.336050510406494,-0.9881538152694702,0.2124578058719635,0.0642078295350074,73.58253479003906,75.76476287841797,-43.77293395996094,10.619939804077148,0.1437551081180572,7.318043708801269,-0.9493674039840698,0.1509522348642349,-0.2026756554841995,129.85581970214844,76.44754028320312,25.2973747253418,5.49865621346268,1.0127728902775468,12.897966921079384,0.9824268249004142,56.273284912109375,0.6827774047851562,69.07030868530273
2085.24,-4.367994785308838,-4.130032539367676,4.586696147918701,-0.9792478680610656,0.2114837765693664,0.0627828314900398,73.28870391845703,75.66921997070312,-43.993743896484375,11.800947189331056,1.2120840549468994,7.714683532714844,-0.9668556451797484,0.1359837055206298,-0.1877968311309814,129.90101623535156,76.31864166259766,25.133769989013672,7.561370826381501,1.0037895490510402,14.150895531081368,0.9942681009495916,56.61231231689453,0.6494216918945312,69.12751388549805
2094.078,-5.095596790313721,-5.655665397644043,4.724347114562988,-0.9660440683364868,0.2318905740976333,0.0672019273042678,72.88147735595703,75.54945373535156,-44.32469177246094,14.320669174194336,0.5052023530006409,8.0487642288208,-0.966346025466919,0.174113929271698,-0.1662714183330536,129.83798217773438,76.18626403808594,24.80969619750977,8.959414791069966,0.9957562349073436,16.4353095688929,0.995884775391524,56.956504821777344,0.636810302734375,69.1343879699707
2116.37,-4.944333076477051,-5.175337314605713,4.699367046356201,-0.9763591289520264,0.2285902351140976,0.0621056668460369,72.53018188476562,75.43777465820312,-44.602420806884766,13.345365524291992,0.6463411450386047,8.42345905303955,-0.98568195104599,0.2000655829906463,-0.1498066633939743,129.68130493164062,76.04497528076172,24.403139114379883,8.562394322120063,1.004682914223124,15.79465733312898,1.0168761883889563,57.151123046875,0.6072006225585938,69.00555992126465
2141.602,-0.4691962301731109,-5.344027519226074,3.608289003372192,-0.970422387123108,0.2155908793210983,0.0722270011901855,72.20755004882812,75.3509292602539,-44.940765380859375,11.9564847946167,0.4409558773040771,8.056619644165039,-0.9736099243164062,0.1855958700180053,-0.1545119732618332,129.5400848388672,75.91587829589844,24.041059494018555,6.465177859928599,0.9967024512747436,14.42432288949382,1.0031131848283144,57.33253479003906,0.5649490356445312,68.98182487487793
2154.95,2.2020504474639893,-5.350828647613525,2.968651294708252,-0.9583861231803894,0.209132432937622,0.0637170374393463,71.9433364868164,75.28003692626953,-45.27938461303711,15.27113437652588,1.72503924369812,8.04390811920166,-0.947012722492218,0.1435331255197525,-0.164979875087738,129.6322021484375,75.7828598022461,23.856319427490234,6.503328678367019,0.983005695034974,17.346116665362523,0.971932720854462,57.68886566162109,0.5028228759765625,69.13570404052734
2177.085,2.1566600799560547,-6.097654342651367,2.7284188270568848,-0.9412715435028076,0.2159920334815979,0.0615469515323638,71.63446807861328,75.20372772216797,-45.6607666015625,20.373720169067383,2.3525612354278564,8.519320487976074,-0.9307831525802612,0.151363343000412,-0.1654382795095443,129.82948303222656,75.63009643554688,23.680021286010746,7.019746468268608,0.9676945305098096,22.20814804234585,0.9574121176685556,58.19501495361328,0.4263687133789062,69.34078788757324
2199.087,2.454120635986328,-6.020380973815918,2.8170807361602783,-0.9205048084259032,0.2125392705202102,0.0722571909427642,71.31995391845703,75.12354278564453,-46.033790588378906,21.933780670166016,2.6800615787506104,7.732415199279785,-0.9276918172836304,0.1958628743886947,-0.1553839594125747,130.02830505371094,75.47053527832031,23.47407913208008,7.085452634793628,0.94748253044128,23.410760546528525,0.9607905850191992,58.70835113525391,0.3469924926757812,69.50786972045898
2221.336,6.123692512512207,-5.078891754150391,2.5924103260040283,-0.920828640460968,0.2247044295072555,0.073256179690361,71.15277099609375,75.04708862304688,-46.32516098022461,20.485641479492188,1.625770926475525,7.2911200523376465,-0.9436758160591124,0.2254018783569336,-0.1484094113111496,130.10206604003906,75.32521057128906,23.15517234802246,8.3675171189874,0.9506755143560828,21.80516153458314,0.9815067019370718,58.94929504394531,0.2781219482421875,69.48033332824707
2243.894,11.054495811462402,-3.4252138137817383,1.948147892951965,-0.962761402130127,0.2457913309335708,0.0912075862288475,71.16500854492188,74.9859619140625,-46.53429412841797,19.309255599975582,-0.4816943407058716,7.525545597076416,-0.9767724275588988,0.2310075461864471,-0.1471215337514877,130.01397705078125,75.20811462402344,22.69624328613281,11.73581047599927,0.9978184802755242,20.72952526703718,1.0144425106075643,58.848968505859375,0.2221527099609375,69.23053741455078
2254.905,11.302947998046877,-3.693257808685303,-0.2347251176834106,-0.9593577980995178,0.2441254556179046,0.0954712703824043,71.10153198242188,74.96440887451172,-46.83309173583984,20.62835502624512,-2.258075714111328,6.188673496246338,-0.9768248200416564,0.2126602679491043,-0.1692298501729965,129.9821319580078,75.13526153564453,22.273191452026367,11.893354554911676,0.9945247037270792,21.65473658723683,1.013927936691348,58.88059997558594,0.1708526611328125,69.10628318786621
2276.395,8.797220230102539,-3.975881576538086,-0.1258080899715423,-0.9756416082382202,0.2216349393129348,0.0796424001455307,70.98892974853516,74.95614624023438,-47.129695892333984,20.52735710144043,-2.7427895069122314,3.087186813354492,-0.9646543264389038,0.187719851732254,-0.1883745044469833,130.13877868652344,75.11884307861328,22.04705619812012,9.654768032587974,1.0036640403794737,20.93862474638281,1.000640627886616,59.14984893798828,0.1626968383789062,69.1767520904541
2298.803,9.372479438781738,-5.474231243133545,0.0027814321219921,-0.9744291305541992,0.225404292345047,0.0777764543890953,70.7945327758789,74.93353271484375,-47.51540756225586,19.94060516357422,-3.464359760284424,2.741202116012573,-0.9747957587242126,0.1751652956008911,-0.2028371095657348,130.29879760742188,75.11904907226562,21.835691452026367,10.854058516059812,1.0031791476787797,20.424096354039083,1.0109661443523432,59.50426483154297,0.185516357421875,69.35109901428223
2321.491,11.852486610412598,-6.996598243713379,0.0879805162549018,-0.984247088432312,0.2376226484775543,0.084494337439537,70.54391479492188,74.89295959472656,-48.00616455078125,21.8940544128418,-6.207101821899414,3.3455305099487305,-0.9694223403930664,0.1851067990064621,-0.2159776091575622,130.31863403320312,75.13592529296875,21.43965721130371,13.763777330558044,1.0160443628190243,23.00152834167552,1.0102922986685614,59.77471923828125,0.2429656982421875,69.44582176208496
2345.527,11.891708374023438,-9.602195739746094,-0.7542220950126648,-0.9700879454612732,0.2309204638004303,0.0623313337564468,70.13873291015625,74.85597229003906,-48.66777801513672,24.082876205444336,-6.900917530059815,2.831092596054077,-0.9307138919830322,0.2025219351053238,-0.2258471101522445,130.36134338378906,75.15214538574219,21.02682304382324,15.303063158917643,0.9991396687645514,25.21155834871926,0.978902650978701,60.22261047363281,0.296173095703125,69.69460105895996
2354.219,14.31137466430664,-12.008537292480469,-0.9088072180747986,-0.9425336122512816,0.2347433716058731,0.0392650812864303,69.67208862304688,74.80288696289062,-49.4605712890625,23.26711654663086,-4.718738079071045,2.2086527347564697,-0.9065272212028505,0.2175767123699188,-0.2158631682395935,130.50350952148438,75.14231872558594,20.728410720825195,18.70417983357402,0.9721192351480206,23.843308251082227,0.9569368505548832,60.8314208984375,0.3394317626953125,70.1889820098877
2376.876,16.939353942871094,-13.737048149108888,-1.771086573600769,-0.918813169002533,0.2439702749252319,0.0501864738762378,69.11314392089844,74.7417984008789,-50.39601516723633,20.8117733001709,-1.7790271043777466,2.174612283706665,-0.8860558271408081,0.233782023191452,-0.200224757194519,130.71243286132812,75.08987426757812,20.555349349975582,21.88115516840889,0.9519757437769624,21.000566276180862,0.9379972902792814,61.59928894042969,0.3480758666992187,70.95136451721191
2398.7250000000004,16.623247146606445,-14.500871658325195,-2.80486798286438,-0.9032988548278807,0.2361358404159546,0.0576130673289299,68.45977783203125,74.69269561767578,-51.42368316650391,18.32437515258789,0.5329117774963379,1.2540546655654907,-0.8946338891983032,0.2305295467376709,-0.1680628657341003,130.9924774169922,75.0372085571289,20.49822235107422,22.236791786354345,0.9354294317527956,18.374965926488173,0.9390201246298804,62.53269958496094,0.344512939453125,71.92190551757812
2421.1870000000004,19.21272850036621,-13.654109954833984,-2.6960840225219727,-0.9120009541511536,0.2332960218191146,0.0746055096387863,67.8905258178711,74.6446304321289,-52.40920639038086,16.239158630371094,0.7445067763328552,0.5096295475959778,-0.9300131797790528,0.2124325633049011,-0.1412865817546844,131.2583465576172,75.0177001953125,20.45741271972656,23.724091640018145,0.9443192025145428,16.26420258230155,0.9643723382070634,63.367820739746094,0.3730697631835937,72.86661911010742
2441.2630000000004,19.520092010498047,-12.198726654052734,-3.088235378265381,-0.9087442755699158,0.238478422164917,0.0976472198963165,67.3797607421875,74.60456085205078,-53.34537887573242,15.584014892578123,-1.9202330112457275,-1.1077489852905271,-0.942253828048706,0.2005656063556671,-0.127756655216217,131.43434143066406,75.06997680664062,20.339635848999023,23.224558592795177,0.9445756167575146,15.740899682165146,0.9717976136404598,64.05458068847656,0.4654159545898437,73.68501472473145
2463.659,14.4739990234375,-9.09984016418457,-2.1899869441986084,-0.9207461476325988,0.2278876006603241,0.0951024517416954,67.00347900390625,74.57853698730469,-54.055908203125,13.713360786437988,-4.124589920043945,-3.2300236225128174,-0.9550380110740662,0.2043307870626449,-0.1315810084342956,131.55482482910156,75.1816177368164,20.235258102416992,17.2365826531809,0.9532841670993348,14.679971344302212,0.9854756389269772,64.55134582519531,0.6030807495117188,74.29116630554199
2473.713,12.371047973632812,-7.135054588317871,-2.8622398376464844,-0.9186437129974364,0.2385624498128891,0.0785484239459037,66.74501037597656,74.577392578125,-54.59954833984375,10.10771942138672,-7.14667558670044,-4.761347770690918,-0.949635922908783,0.210819199681282,-0.1492016613483429,131.52706909179688,75.34503936767578,20.05326461791992,14.565172461471612,0.9523592645608217,13.263159368584912,0.9841312192904856,64.78205871582031,0.7676467895507812,74.65281295776367
2496.399,12.52578353881836,-5.047799587249756,-3.0428054332733154,-0.9375920295715332,0.2389738112688064,0.0760252848267555,66.62891387939453,74.5988540649414,-54.95894241333008,4.704301834106445,-10.153440475463867,-5.642014026641846,-0.952392578125,0.2187206596136093,-0.1768996566534042,131.29611206054688,75.5466079711914,19.77088928222656,13.843200455065634,0.9705499164501512,12.532163879872805,0.9930678921068232,64.66719818115234,0.94775390625,74.72983169555664
2523.71,12.984573364257812,-4.095006942749023,-3.828678607940674,-0.9585810899734496,0.2551050782203674,0.0751560479402542,66.57694244384766,74.63699340820312,-55.260231018066406,-1.243794083595276,-11.518868446350098,-6.310825347900391,-0.9656925797462464,0.2178759127855301,-0.1931087672710418,130.92376708984375,75.77037048339844,19.46460151672364,14.143090440065023,0.9947887909151896,13.19309935452654,1.008624344315578,64.3468246459961,1.1333770751953125,74.72483253479004
2533.753,10.618066787719728,-4.728815078735352,-4.94711971282959,-0.989079475402832,0.2629941999912262,0.0878839939832687,66.3825912475586,74.68793487548828,-55.66928863525391,-3.160334587097168,-11.40573024749756,-6.866025447845459,-0.9700098633766174,0.2069903016090393,-0.212068110704422,130.59068298339844,75.99681854248047,19.234582901000977,12.632459293835808,1.027213587473714,13.682861638982716,1.0142667319723486,64.20809173583984,1.3088836669921875,74.90387153625488
2561.2650000000003,5.480029582977295,-6.819418430328369,-6.262461185455322,-0.9836421608924866,0.2430920302867889,0.0705540627241134,65.92504119873047,74.75776672363281,-56.25683975219727,-1.636466383934021,-10.314874649047852,-8.784148216247559,-0.9572154879570008,0.189251035451889,-0.2252522408962249,130.50148010253906,76.2363510131836,19.20298767089844,10.758885260915418,1.0156886883494725,13.6468282445527,1.0014070185659487,64.5764389038086,1.4785842895507812,75.4598274230957
2574.471,5.946263313293457,-8.859630584716797,-6.813577175140381,-0.973823606967926,0.2288916110992431,0.0433412119746208,65.36614990234375,74.83052825927734,-56.96032333374024,1.4214835166931152,-8.222373962402344,-9.699851989746094,-0.9472744464874268,0.1739022582769394,-0.2074863612651825,130.64508056640625,76.47156524658203,19.349878311157227,12.660013246843898,1.001300278525407,12.795123195530534,0.9852012294516008,65.2789306640625,1.6410369873046875,76.31020164489746
2596.615,9.15471076965332,-9.625784873962402,-7.015614986419678,-0.9675115942955016,0.2423359304666519,0.0733208879828453,64.7672348022461,74.88329315185547,-57.76564025878906,4.555055618286133,-6.410823345184326,-8.772104263305664,-0.9600587487220764,0.1806374788284301,-0.1817854046821594,130.85841369628906,76.67511749267578,19.52371406555176,15.022759977896412,1.0000906663427842,11.781213895653783,0.9936743093744284,66.09117889404297,1.7918243408203125,77.28935432434082
2619.911,7.5270609855651855,-9.281792640686035,-7.785554885864258,-0.9622663855552672,0.259044885635376,0.0924740880727768,64.11336517333984,74.93636322021484,-58.58932495117188,4.011028289794922,-7.7965497970581055,-8.237357139587402,-0.979463279247284,0.1899076700210571,-0.1506851911544799,130.87054443359375,76.89667510986328,19.512022018432617,14.26265005480804,1.000805828574322,12.030319585308344,1.009018961843598,66.7571792602539,1.9603118896484373,78.10134696960449
2639.146,3.012603521347046,-7.690171241760254,-7.841733455657959,-0.9621765613555908,0.2542977631092071,0.0905396938323974,63.47370910644531,75.00440216064453,-59.30109405517578,1.6107388734817505,-9.45915985107422,-8.742931365966797,-0.979139804840088,0.1753384470939636,-0.1435521841049194,130.7635955810547,77.15422821044922,19.415414810180664,11.388911154891602,0.9993240333864084,12.981102945309608,1.0050201779133097,67.28988647460938,2.1498260498046875,78.71650886535645
2653.565,-0.701269268989563,-6.377640247344971,-7.910311698913574,-0.9575751423835754,0.224193274974823,0.0806503593921661,62.83469009399414,75.09943389892578,-59.93233108520508,2.1104986667633057,-8.7464017868042,-9.30691909790039,-0.9659234285354614,0.1554908156394958,-0.148675262928009,130.78729248046875,77.41329193115234,19.40382194519043,10.185239559585847,0.9867711276303878,12.944979410315195,0.9895907221415572,67.95260238647461,2.3138580322265625,79.33615303039551
2676.187,0.6760150194168091,-4.933190822601318,-7.688604354858398,-0.9627278447151184,0.2241003811359405,0.0684550553560257,62.34914779663086,75.20516967773438,-60.43511581420898,4.581605434417725,-7.03703498840332,-8.134112358093262,-0.978656530380249,0.1495165228843689,-0.1491117924451828,130.91871643066406,77.63359832763672,19.45317649841309,9.160131272215615,0.9908339812596696,11.69079781874548,1.001178366584873,68.5695686340332,2.428428649902344,79.88829231262207
2698.57,2.8761515617370605,-3.745023012161255,-7.585569381713867,-0.9807597994804382,0.2518588006496429,0.0963650792837143,61.960105895996094,75.2999267578125,-60.90621948242188,7.104085445404053,-7.253665924072266,-6.6553144454956055,-1.0052469968795776,0.1560316979885101,-0.1491993069648742,130.9862823486328,77.83262634277344,19.395545959472656,8.935228481269787,1.0171572485348284,12.139889197273233,1.02816722798939,69.02617645263672,2.532699584960937,80.30176544189453
2721.282,-3.860804080963135,-2.229053020477295,-7.194395542144775,-0.9915109872817992,0.2418335974216461,0.1060510352253913,61.52064514160156,75.40422821044922,-61.28876495361328,5.75376033782959,-8.292543411254883,-7.476232528686523,-0.9992303252220154,0.1380783170461654,-0.1538347452878952,131.04461669921875,78.06096649169922,19.35903549194336,8.463676077007742,1.0260722921971923,12.560497087126691,1.020388158172853,69.52397155761719,2.65673828125,80.64780044555664
2744.837,-6.911529541015625,-2.101318597793579,-6.211531162261963,-0.9808521270751952,0.2119562774896621,0.0793579667806625,61.08527374267578,75.51066589355469,-61.60263442993164,5.059341430664063,-8.387581825256348,-7.648284912109375,-0.9869088530540466,0.1173305884003639,-0.1677834540605545,131.15963745117188,78.29309844970703,19.37998962402344,9.52721889249514,1.0066250770007523,12.427579276922936,1.007922039974977,70.0743637084961,2.782432556152344,80.98262405395508
2755.717,-6.225197792053223,-1.5562779903411863,-4.391870975494385,-0.9889142513275146,0.227501168847084,0.0743714496493339,60.79372787475586,75.58393096923828,-61.780723571777344,7.912463665008545,-7.464191913604736,-6.8245530128479,-0.9882783889770508,0.1293974071741104,-0.1734243780374527,131.33688354492188,78.49128723144531,19.38595390319824,7.775835607752695,1.017467095698132,12.84117463468098,1.011688626999501,70.54315567016602,2.9073562622070312,81.16667747497559
2776.103,-7.207466125488281,-2.191932201385498,-4.519855499267578,-0.984959363937378,0.2502020001411438,0.0884013250470161,60.432716369628906,75.63714599609375,-62.01164627075195,8.935503959655762,-6.533721923828125,-5.881035804748535,-0.9759345054626464,0.1796882450580597,-0.1689915657043457,131.4391632080078,78.6402359008789,19.30095863342285,8.785284768281054,1.0200788125201998,12.534725179582932,1.0066251405780962,71.0064468383789,3.003089904785156,81.3126049041748
2798.2960000000003,-7.574245452880859,-2.7648816108703613,-4.955278396606445,-0.9799656867980956,0.2406792789697647,0.0842281505465507,60.008583068847656,75.69620513916016,-62.30337142944336,4.639297962188721,-4.39669942855835,-5.050717830657959,-0.9625441431999208,0.201600044965744,-0.166142463684082,131.51136779785156,78.73676300048828,19.28897476196289,9.4640661710752,1.0125974738125518,8.146398102964277,0.9973650906151046,71.5027847290039,3.040557861328125,81.59234619140625
2818.526,-6.165394306182861,-3.4841175079345703,-5.402589321136475,-0.9713392853736876,0.2367066591978073,0.0822974145412445,59.54821395874024,75.75585174560547,-62.662872314453125,-1.583067774772644,-1.909946322441101,-5.193111419677734,-0.968739688396454,0.1971010565757751,-0.1493032723665237,131.62631225585938,78.81057739257812,19.451061248779297,8.90725171602701,1.0031465068767509,5.755206751396268,0.9997984184409864,72.07809829711914,3.054725646972656,82.11393356323242
2841.31,-8.276558876037598,-3.1485366821289062,-5.366133689880371,-0.9610347151756288,0.2496922314167022,0.1024819165468216,59.0467643737793,75.80353546142578,-63.0129508972168,-6.71926736831665,-1.3833472728729248,-5.776252269744873,-0.9784641861915588,0.1754294782876968,-0.1256096959114074,131.7086944580078,78.9043960571289,19.68186378479004,10.354231060049663,0.998216648539616,8.96812655620017,1.0019707886055158,72.66193008422852,3.100860595703125,82.69481468200684
2863.366,-10.128373146057127,-1.676665186882019,-4.811598777770996,-0.9673166871070862,0.2296386808156967,0.1153846755623817,58.58213424682617,75.86255645751953,-63.28100204467773,-8.893792152404785,-1.0645190477371216,-5.799904823303223,-1.0008461475372314,0.1459653973579406,-0.1024050042033195,131.78289794921875,79.0167007446289,19.94451332092285,11.337840690930554,1.0008741780250092,10.671065345716334,1.0166049838319016,73.20076370239258,3.154144287109375,83.22551536560059
2873.2920000000004,-8.673592567443848,0.7741281390190125,-3.926287889480591,-0.9612694978713988,0.2361442744731903,0.1317821592092514,58.32557678222656,75.9224624633789,-63.366058349609375,-6.025515079498291,-3.114767551422119,-4.8354573249816895,-1.002816915512085,0.1363594830036163,-0.0978675261139869,131.70237731933594,79.14665985107422,19.98906135559082,9.552288678255078,0.998583848953233,8.33008141703144,1.0167663090946009,73.37680053710938,3.2241973876953125,83.3551197052002
2900.875,-10.107292175292969,2.460579395294189,-3.4736642837524414,-0.9701061248779296,0.2401852756738662,0.1270501017570495,58.18833923339844,75.99267578125,-63.30846786499024,-1.2463726997375488,-4.277530670166016,-4.280581951141357,-0.9955525398254396,0.1241400092840194,-0.1101579740643501,131.64076232910156,79.28247833251953,19.98015022277832,10.967139537431908,1.007440612906131,6.178518866305997,1.0092920195403714,73.45242309570312,3.2898025512695312,83.28861808776855
2922.491,-10.371068000793455,3.923280954360962,-2.3088510036468506,-0.9573433995246888,0.2258835285902023,0.1053487956523895,58.221900939941406,76.06884002685547,-63.074485778808594,2.2578909397125244,-5.377536296844482,-4.025032997131348,-0.9855865836143494,0.1247014179825782,-0.1180276125669479,131.56082153320312,79.42366027832031,19.88121032714844,11.32616342284423,0.9892563478933342,7.086385450108676,1.0004308445743384,73.33892059326172,3.354820251464844,82.95569610595703
2943.382,-9.129924774169922,4.805190086364746,-0.6302326917648315,-0.9643664360046388,0.222234845161438,0.107322871685028,58.40330505371094,76.12705993652344,-62.72639846801758,4.707385540008545,-4.891840934753418,-3.328308582305908,-0.9747133851051332,0.1307769864797592,-0.1355557441711425,131.5462646484375,79.53604125976562,19.779476165771484,10.336468032837372,0.9954441963681028,7.560901029127541,0.9927457696075198,73.14295959472656,3.4089813232421875,82.50587463378906
2953.3230000000003,-9.575742721557615,4.766345500946045,0.0850683078169822,-0.9750765562057496,0.2386291027069091,0.1141492873430252,58.60906600952149,76.16382598876953,-62.35334014892578,4.6952738761901855,-4.508651256561279,-2.145460844039917,-0.974160134792328,0.1617757678031921,-0.1427409052848816,131.42881774902344,79.60855102539062,19.55646514892578,10.696734769117496,1.010320839595863,6.8539430373350845,0.9977646683003294,72.81975173950195,3.4447250366210938,81.90980529785156
2983.221,-10.605890274047852,3.886246681213379,-0.5647010207176208,-0.981510043144226,0.2383780628442764,0.1029438078403472,58.72754287719727,76.20601654052734,-62.04977035522461,2.0329232215881348,-3.044571876525879,-1.289210557937622,-0.9667485356330872,0.1772275418043136,-0.1475884616374969,131.2945556640625,79.63864135742188,19.373411178588867,11.309584829479125,1.0152750825323356,3.881270230079636,0.993878607643429,72.56701278686523,3.4326248168945312,81.42318153381348
2993.353,-9.47529411315918,2.641057252883911,-0.5087642669677734,-0.9709980487823486,0.2073134481906891,0.0915918946266174,58.77116012573242,76.25028991699219,-61.82524490356445,-3.5340609550476074,-0.4325846135616302,-1.5022051334381104,-0.9626154899597168,0.1659226566553115,-0.1433773934841156,131.29136657714844,79.64297485351562,19.44101905822754,9.849630603389295,0.9970983661109546,3.8643675478414425,0.9872770565875828,72.52020645141602,3.392684936523437,81.26626396179199
3017.16,-7.635714054107666,2.0841403007507324,-0.1033907979726791,-0.967539131641388,0.2157720774412155,0.0942445620894432,58.83550643920898,76.2761459350586,-61.62019348144531,-7.690690040588379,2.2544989585876465,-1.848893523216248,-0.970996081829071,0.1486869156360626,-0.1285850554704666,131.44895935058594,79.63074493408203,19.755935668945312,7.915709669158926,0.9957768817079956,8.224833500738422,0.9906943556410912,72.61345291137695,3.354598999023437,81.37612915039062
3038.413,-7.60951566696167,2.2296974658966064,0.6081879734992981,-0.971083164215088,0.2179596275091171,0.1151483282446861,58.8994026184082,76.28440856933594,-61.4092025756836,-10.468535423278809,3.2588257789611816,-1.6288002729415894,-0.9909291863441468,0.1573278903961181,-0.1062194257974624,131.54437255859375,79.60877227783203,20.06416320800781,7.9527461977778495,1.001882252833858,11.084366003303922,1.0089476120502532,72.64496994018555,3.3243637084960938,81.4733657836914
3053.21,-8.014873504638672,3.0509374141693115,0.6467978358268738,-0.969346284866333,0.2221929430961609,0.1352662593126297,58.97764205932617,76.29235076904297,-61.17116928100586,-12.39660930633545,2.745593547821045,-1.530711054801941,-0.9952276945114136,0.1536590903997421,-0.1011118069291114,131.5474090576172,79.59624481201172,20.31521415710449,8.60027696303831,1.0036428074042714,12.788951581621228,1.0120834340534626,72.56976699829102,3.30389404296875,81.48638343811035
3075.687,-7.788041114807129,3.996199607849121,0.6883077025413513,-0.9692373871803284,0.2129494994878769,0.1195340603590011,59.14882659912109,76.3179931640625,-60.84526062011719,-12.058584213256836,2.166387796401977,-1.2199890613555908,-0.9945432543754578,0.1273049116134643,-0.1015593484044075,131.54330444335938,79.59764862060547,20.553356170654297,8.780487640505935,0.9995283856030284,12.31223223556288,1.0077882349943197,72.39447784423828,3.2796554565429688,81.39861679077148
3099.057,-4.944706439971924,5.781557559967041,1.6490424871444702,-0.9733585715293884,0.200905293226242,0.1084434613585472,59.54962921142578,76.35417938232422,-60.34263610839844,-9.05860710144043,2.150065422058105,-0.4788457155227661,-1.0063722133636477,0.1200458034873008,-0.1022286117076873,131.56134033203125,79.59199523925781,20.767223358154297,7.784334956893844,0.9997748896263982,9.32257674447743,1.0186494567892526,72.01171112060547,3.2378158569335938,81.10985946655273
3120.708,-4.724196910858154,6.810884475708008,1.9782649278640747,-0.982007384300232,0.219959408044815,0.1388819217681884,59.99884414672852,76.37738800048828,-59.79510116577149,-6.135477542877197,1.1311924457550049,-0.6007828712463379,-1.000011682510376,0.1339128017425537,-0.1183480322360992,131.57289123535156,79.58946228027344,20.91282844543457,8.521720244106769,1.0158783550217192,6.267744497573796,1.0158554328062288,71.57404708862305,3.212074279785156,80.70792961120605
3143.281,-8.936838150024414,6.514795303344727,2.0611188411712646,-0.9792158603668212,0.2159065902233123,0.1200036406517028,60.377925872802734,76.4017105102539,-59.23230743408203,-5.1936469078063965,1.3639812469482422,-1.5827484130859375,-0.9708720445632936,0.1396606564521789,-0.1302177757024765,131.70790100097656,79.58860778808594,21.166194915771484,11.249793102170612,1.0098911974393352,5.5981698423788,0.9894717252069732,71.32997512817383,3.1868972778320312,80.39850234985352
3153.148,-7.608946323394775,5.544422626495361,2.069547176361084,-0.9731460213661194,0.191272348165512,0.0911676436662674,60.74427795410156,76.43427276611328,-58.711891174316406,-6.181575298309326,4.517644882202148,-0.5826865434646606,-0.9736939668655396,0.152609497308731,-0.1289804726839065,131.97140502929688,79.52569580078125,21.571027755737305,9.639487119586846,0.9959467000422844,7.678574871568949,0.993984689073699,71.22712707519531,3.0914230346679688,80.28291893005371
3175.601,-0.5088028311729431,5.111170768737793,1.6201106309890747,-0.970129370689392,0.2223442196846008,0.1120840311050415,61.19318389892578,76.4480972290039,-58.25032424926758,-4.632173538208008,6.016579627990723,0.7830866575241089,-0.988878607749939,0.1649136841297149,-0.12500661611557,132.24514770507812,79.42072296142578,21.953781127929688,5.385880188497801,1.0015741499909558,7.633445278589463,1.0102990043305786,71.05196380615234,2.972625732421875,80.20410537719727
3199.19,-0.176944226026535,5.804997444152832,1.2372832298278809,-0.991360068321228,0.2364601641893386,0.1364191174507141,61.645057678222656,76.46414184570312,-57.77886199951172,-3.630381345748901,5.417497634887695,1.1447559595108032,-1.0032795667648315,0.1505735516548156,-0.1222921013832092,132.481689453125,79.32781982421875,22.275388717651367,5.9380278187760585,1.028259874699169,6.621134007585927,1.02185989333494,70.83663177490234,2.863677978515625,80.05425071716309
3220.631,-2.243688106536865,5.279425621032715,0.6695348024368286,-0.9843403697013856,0.2056884467601776,0.1200020611286163,61.99192810058594,76.50230407714844,-57.375274658203125,-3.686452388763428,4.949970722198486,0.0381080321967601,-0.9979745149612428,0.1216504573822021,-0.1218874305486679,132.81048583984375,79.26969909667969,22.68836975097656,5.775356963782046,1.0127359948326071,6.172000776681715,1.0127233146418535,70.81855773925781,2.76739501953125,80.06364440917969
3243.1890000000003,-3.104918956756592,5.125627517700195,2.05466365814209,-0.9757748246192932,0.1969117820262909,0.1127607226371765,62.36758041381836,76.51856994628906,-56.92684555053711,-4.069060325622559,4.596051692962647,-0.5745652914047241,-0.9829996824264526,0.1105366051197052,-0.1298946142196655,133.18223571777344,79.22547912597656,23.15780067443848,6.335157608640984,1.001811229140121,6.165311701124881,0.9976869887520696,70.81465530395508,2.7069091796875,80.08464622497559
3253.196,-4.998774528503418,4.403619766235352,2.433192253112793,-0.9682791829109192,0.1932179927825927,0.105612076818943,62.67504119873047,76.52342224121094,-56.5123291015625,-4.041049957275391,5.8882904052734375,-0.4096104800701141,-0.9637584686279296,0.1407578289508819,-0.1222110465168953,133.55252075195312,79.14945983886719,23.62722396850586,7.092251995875595,0.9930013492254588,7.1533089825208815,0.9816204420007626,70.87747955322266,2.62603759765625,80.13955307006836
3278.901,-1.8006223440170288,4.284557342529297,1.9720196723937988,-0.9556459188461304,0.207557275891304,0.1102064773440361,63.02340698242188,76.52476501464844,-56.12443542480469,-4.864497661590576,7.016709327697754,0.4486626088619232,-0.977218747138977,0.1769419759511947,-0.1221623867750167,133.8446502685547,79.03237915039062,24.037202835083008,5.048617041874263,0.9841161580988624,8.549786279528375,1.0005941191891714,70.82124328613281,2.5076141357421875,80.1616382598877
3300.482,-0.2201618105173111,4.410947799682617,1.1577565670013428,-0.9690799713134766,0.2371929138898849,0.1325811594724655,63.36260223388672,76.52274322509766,-55.780517578125,-6.557042121887207,5.976521015167236,-0.0828772336244583,-0.9796903133392334,0.1708069145679474,-0.125715285539627,134.07568359375,78.9396743774414,24.42100143432617,4.565668842871756,1.0064562747817545,8.872455887114453,1.0023833823110084,70.71308135986328,2.41693115234375,80.20151901245117
3320.688,-2.580008745193481,4.142712593078613,0.0004705991595983,-0.9478157758712769,0.2040977776050567,0.1062512099742889,63.61053085327149,76.55883026123047,-55.48501205444336,-7.175486564636231,4.933242321014404,-0.9972201585769652,-0.9584921002388,0.1195280402898788,-0.127518743276596,134.38644409179688,78.8932876586914,24.89210700988769,4.880421393239578,0.9753460757263516,8.764641195268345,0.9742972280174912,70.77591323852539,2.334457397460937,80.37711906433105
3343.197,0.1544612646102905,4.488685131072998,1.4352800846099854,-0.9464961886405944,0.1720257252454757,0.0969890654087066,63.97574996948242,76.5901107788086,-55.12440490722656,-5.548293590545654,5.331409454345703,0.0512668639421463,-0.963003158569336,0.0876468941569328,-0.1252920925617218,134.73992919921875,78.84063720703125,25.37919235229492,4.715101420909085,0.966878877660619,7.694811032644999,0.975066751524412,70.76417922973633,2.250526428222656,80.50359725952148
3352.981,2.528415441513061,4.871031284332275,2.417937994003296,-0.9687339663505554,0.2099190354347229,0.1226873993873596,64.43415832519531,76.58329010009766,-54.71605682373047,-1.9154579639434808,4.233609676361084,2.217959403991699,-1.0009759664535522,0.1225837022066116,-0.1220438033342361,134.84788513183594,78.76355743408203,25.54248809814453,5.997187220745248,0.9987811056320384,5.148958537526586,1.015812157535333,70.41372680664062,2.180267333984375,80.258544921875
3380.391,0.9883812069892884,5.139910697937012,2.3597092628479004,-0.9990028142929076,0.2248269766569137,0.1430664956569671,64.84825897216797,76.57127380371094,-54.31787490844727,-1.7796547412872314,1.3825644254684448,2.039510488510132,-1.0225615501403809,0.1689281016588211,-0.1218742281198501,134.67654418945312,78.71430206298828,25.42255592346192,5.741411603279033,1.0339351113959732,3.039450348582758,1.0435622429138385,69.82828521728516,2.143028259277344,79.74043083190918
3403.0490000000004,-4.073580265045166,5.175461292266846,1.8869808912277224,-0.9957919716835022,0.2173659801483154,0.1264340281486511,65.17088317871094,76.57452392578125,-53.90370941162109,-6.327983856201172,-1.0788912773132324,-0.4377127587795257,-1.0086733102798462,0.1599699258804321,-0.1359509080648422,134.46142578125,78.7320785522461,25.350494384765625,6.851288393242283,1.0270516947403614,6.434203799368156,1.030288733055326,69.29054260253906,2.157554626464844,79.25420379638672
3413.069,-4.544784069061279,3.7720656394958496,1.5528545379638672,-0.9864679574966432,0.1972163915634155,0.1010376289486885,65.39844512939453,76.58625030517578,-53.5816650390625,-8.01665210723877,-0.9114034175872804,-1.2288914918899536,-0.9877776503562928,0.1268475502729416,-0.1647157222032547,134.40585327148438,78.75797271728516,25.469879150390625,6.106954939995333,1.0110499190111564,8.161344343729475,1.0094187717169645,69.00740814208984,2.171722412109375,79.05154418945312
3435.742,-2.8731484413146973,2.7192258834838867,1.69548237323761,-0.9931101202964784,0.2018566280603408,0.0948644131422042,65.60077667236328,76.586181640625,-53.32275772094727,-6.984557628631592,-0.7454688549041748,-0.3981020748615265,-0.9842426776885986,0.1412995606660843,-0.1669621765613556,134.30078125,78.76239013671875,25.52786064147949,4.303932138079925,1.0178472705705857,7.035499580222925,1.008253729390651,68.70000457763672,2.17620849609375,78.85061836242676
3462.8540000000003,-1.2883583307266235,0.8196661472320557,0.9014405608177184,-0.9874987602233888,0.2317358404397964,0.0997761711478233,65.68045043945312,76.56787872314453,-53.22408676147461,-6.953818321228027,-0.1868732422590255,0.0561387576162815,-0.980909526348114,0.1699667274951934,-0.1582164019346237,134.1300506591797,78.74410247802734,25.519886016845703,1.773221606556354,1.019220577459064,6.956555355448965,1.0080201472079044,68.44960021972656,2.1762237548828125,78.74397277832031
3483.107,-2.545577049255371,-1.020984768867493,0.1571709811687469,-0.976169764995575,0.2194646894931793,0.1063050106167793,65.54289245605469,76.55128479003906,-53.32615280151367,-9.628006935119627,0.6106196641921997,-0.778211772441864,-0.973854660987854,0.1627359688282013,-0.1444856971502304,134.00840759277344,78.73412322998047,25.62245178222656,2.74719404652759,1.0061674390021211,9.67868728081329,0.997873746001572,68.46551513671875,2.1828384399414062,78.94860458374023
3493.124,-3.084044933319092,-1.9214321374893188,0.2843672633171081,-0.9558206796646118,0.2154127806425094,0.1030621975660324,65.33599090576172,76.52491760253906,-53.49565124511719,-11.972107887268066,0.882339358329773,-1.3549891710281372,-0.968782126903534,0.1346012949943542,-0.1191571056842804,133.90402221679688,78.74967193603516,25.79246711730957,3.644735840929272,0.98519929674447,12.08080649879169,0.985319610003245,68.56803131103516,2.2247543334960938,79.28811836242676
3515.523,-3.410644769668579,-0.8250812292098999,0.9353815317153932,-0.9623699188232422,0.2150896489620208,0.1141143143177032,65.2052993774414,76.49458312988281,-53.57778930664063,-11.351612091064451,0.9087797403335572,-0.5454065203666687,-0.996399998664856,0.148265853524208,-0.0989248007535934,133.69081115722656,78.75836181640625,25.834346771240234,3.631555505501243,0.9926940588512952,11.400984429201712,1.012216299446282,68.48551177978516,2.263778686523437,79.41213607788086
3538.629,-2.455771446228028,0.1981489211320877,0.3353017568588257,-0.980998396873474,0.2270719408988952,0.131033793091774,65.12690734863281,76.4766845703125,-53.623348236083984,-8.86013412475586,-1.3428258895874023,-0.6186606884002686,-1.0197689533233645,0.1600490808486938,-0.0975238606333732,133.3475341796875,78.79706573486328,25.659698486328125,2.486464087656872,1.0154257116815268,8.982644328135306,1.0368487497391214,68.22062683105469,2.320381164550781,79.28304672241211
3561.413,-5.6731133460998535,1.4973934888839722,0.5057554244995117,-0.9906781315803528,0.2366446554660797,0.1314988881349563,65.09752655029297,76.46351623535156,-53.552955627441406,-8.00426197052002,-4.000480651855469,-1.9755163192749023,-1.0125759840011597,0.1430618911981582,-0.1076233014464378,132.97450256347656,78.89387512207031,25.434545516967773,5.889158755515007,1.0270033159308338,9.163772141771338,1.0282799244871703,67.8769760131836,2.43035888671875,78.98750114440918
3581.368,-8.042834281921387,1.61122465133667,0.5521292686462402,-0.9686880111694336,0.2248233258724212,0.1143452823162078,65.05577087402344,76.45713806152344,-53.44622039794922,-7.858652114868164,-5.017002105712891,-2.4751992225646973,-0.9743551015853882,0.1244008690118789,-0.1186682432889938,132.62258911132812,79.01021575927734,25.23441505432129,8.221196682528689,1.0009879292117878,9.646519288460182,0.9894066869400462,67.56681823730469,2.5530776977539062,78.68063545227051
3592.99,-9.176368713378906,0.8397099375724792,2.077057123184204,-0.9448314309120178,0.2088668346405029,0.0997400805354118,65.00274658203125,76.42494201660156,-53.32505035400391,-9.24382495880127,-3.1886303424835205,-2.579445600509644,-0.9387144446372986,0.1159224882721901,-0.1347876489162445,132.44195556640625,79.09563446044922,25.237865447998047,9.44589973671685,0.972769176689519,10.112823687573734,0.9554007233398436,67.439208984375,2.670692443847656,78.56291580200195
3615.407,-6.630234241485596,-0.559443473815918,3.2221028804779053,-0.936853289604187,0.200825810432434,0.0876456275582313,64.95533752441406,76.3665771484375,-53.25204849243164,-11.66861057281494,-1.0959490537643433,-0.9587242603302002,-0.92472106218338,0.1275300681591034,-0.1292588859796524,132.22299194335938,79.12338256835938,25.255434036254883,7.392897271689044,0.9621366058975755,11.759112604095654,0.9423804012896942,67.26765441894531,2.756805419921875,78.50748252868652
3638.048,-4.058730602264404,-1.3728454113006592,3.6079182624816895,-0.9361921548843384,0.2176545709371566,0.1019051000475883,64.8982925415039,76.2825927734375,-53.24287033081055,-13.686956405639648,0.7084550857543945,1.1086219549179075,-0.94171142578125,0.161831259727478,-0.1120198890566825,131.8487548828125,79.08964538574219,25.16853141784668,5.6013456252793175,0.9665474186673552,13.750044614376256,0.96205936491269,66.9504623413086,2.8070526123046875,78.41140174865723
3660.343,-4.809432506561279,-1.1857353448867798,2.908079147338867,-0.9433251619338988,0.2324883490800857,0.1139080077409744,64.80548858642578,76.20423889160156,-53.253562927246094,-15.77793312072754,0.966382086277008,0.9406546950340272,-0.9692517518997192,0.1766220480203628,-0.0899889171123504,131.39166259765625,79.06045532226562,25.040212631225582,5.743999797220508,0.9782066386112488,15.835463338788598,0.9893140611608812,66.58617401123047,2.8562164306640625,78.29377555847168
3672.955,-7.336790561676025,0.0618191212415695,2.392077207565308,-0.959428608417511,0.2221939414739608,0.1328357905149459,64.68571472167969,76.14972686767578,-53.238807678222656,-15.986066818237305,0.2764530181884765,-0.1803489178419113,-0.991995334625244,0.1512772291898727,-0.0918184667825698,131.01480102539062,79.06999206542969,25.000627517700195,7.717146539790658,0.9937397795798588,15.98947417273564,1.007655781917574,66.32908630371094,2.9202651977539062,78.23943519592285
3697.997,-7.221391201019287,0.6323468089103699,1.3519588708877563,-0.9698466658592224,0.2047490030527115,0.1327855587005615,64.55809783935547,76.12970733642578,-53.23797225952149,-12.755762100219728,-1.7578601837158203,-0.3928791880607605,-1.006960391998291,0.1287206411361694,-0.1002316325902938,130.6248321533203,79.11710357666016,24.87972450256348,7.374018317950533,1.000078353994701,12.88230931313585,1.0200904933777073,66.06673431396484,2.987396240234375,78.11769676208496
3717.798,-7.231520652770996,1.2185155153274536,1.1005516052246094,-0.9848563075065612,0.2103860676288604,0.1189215928316116,64.50147247314453,76.12205505371094,-53.16668701171875,-8.154767990112305,-2.952707052230835,-0.6566179394721985,-1.009740948677063,0.1187645345926284,-0.1174568608403205,130.30990600585938,79.18147277832031,24.74563980102539,7.415583918229882,1.0140742522761346,8.697693201492607,1.0234636839041829,65.80843353271484,3.059417724609375,77.91232681274414
3740.366,-7.012742042541504,1.279766082763672,0.6973695158958435,-0.9902524948120116,0.2019307166337967,0.1000073328614234,64.47171020507812,76.13167572021484,-53.04901123046875,-3.791704893112183,-3.177545547485352,-0.6858000755310059,-0.9951356053352356,0.1173198968172073,-0.1324057132005691,130.10438537597656,79.2421875,24.64462280273437,7.162588667759881,1.015567567632852,4.994411221194465,1.0107374060967949,65.63267517089844,3.110511779785156,77.69363403320312
3760.925,-3.6955292224884033,0.7734883427619934,1.0090821981430054,-0.9877610206604004,0.1968211084604263,0.0934560745954513,64.49113464355469,76.13497924804688,-52.94700241088867,-1.8303556442260744,-2.18921971321106,0.3531652092933655,-0.9853640794754028,0.1206129416823387,-0.1444312483072281,129.9695281982422,79.26675415039062,24.574859619140625,3.908128367040105,1.0115060160723006,2.87534526659276,1.0031700934085204,65.4783935546875,3.13177490234375,77.5218620300293
3782.6,-2.5114760398864746,-0.9363004565238952,0.8991516828536987,-0.9810387492179872,0.2051673829555511,0.1063679158687591,64.38722229003906,76.11735534667969,-53.00830459594727,-2.7388830184936523,-1.3062585592269895,0.6962462663650513,-0.9653797745704652,0.1425180584192276,-0.1433014571666717,129.8208770751953,79.26310729980469,24.497652053833008,2.827126490376641,1.007891271924847,3.113286121764902,0.9863086807644956,65.43365478515625,3.145751953125,77.50595664978027
3792.702,-4.689194202423096,-2.1549630165100098,0.6975525617599487,-0.951965034008026,0.2074610441923141,0.0950199142098426,64.17298889160156,76.09071350097656,-53.16044616699219,-6.099993705749512,-0.6038018465042114,-0.3481095731258392,-0.96034437417984,0.1622050404548645,-0.1244214996695518,129.6491241455078,79.26409149169922,24.46586227416992,5.207589408448228,0.9789312003035318,6.139680786077352,0.981861752869442,65.47613525390625,3.173377990722656,77.62630844116211
3822.873,-4.445021629333496,-2.2302565574646,0.7339356541633606,-0.9523313641548156,0.2165091931819915,0.0992579609155654,63.96262741088867,76.05723571777344,-53.31285095214844,-9.479612350463867,-1.2619187831878662,-1.0567052364349363,-0.9753225445747375,0.1656398028135299,-0.1144353300333023,129.3758087158203,79.2883529663086,24.382362365722656,5.027019309870279,0.9816635883490866,9.621440395654824,0.9958845590688092,65.41318130493164,3.231117248535156,77.6952133178711
3832.86,-4.655497550964356,-1.850968718528748,-0.0382986217737197,-0.9523088932037354,0.2228316962718963,0.1191406548023223,63.714786529541016,76.0330810546875,-53.48173904418945,-10.478923797607422,-3.064089059829712,-2.355584144592285,-0.9707159996032716,0.1505278199911117,-0.1140530258417129,129.0524444580078,79.36165618896484,24.24920654296875,5.010110720177432,0.9852617360707052,11.168941865050863,0.9889167149870132,65.3376579284668,3.328575134277344,77.7309455871582
3856.448,-8.063275337219238,-1.8324854373931885,-0.3784615993499756,-0.9556196331977844,0.1963815242052078,0.0927690863609314,63.41985321044922,76.0357437133789,-53.6307258605957,-10.352468490600586,-2.9189722537994385,-3.1906206607818604,-0.9623135328292848,0.1272415369749069,-0.1163570210337638,128.85130310058594,79.45394134521484,24.23538398742676,8.277538596965204,0.9799901478007168,11.219361081110502,0.9776383280855796,65.43144989013672,3.418197631835937,77.86610984802246
3877.524,-4.109158039093018,-1.5143061876296997,-0.3459495306015014,-0.965458869934082,0.1869199424982071,0.0826629698276519,63.2417221069336,76.04916381835938,-53.73504257202149,-8.887864112854004,-1.237064242362976,-1.9613697528839111,-0.9756631851196288,0.1277248710393905,-0.1210327669978141,128.74754333496094,79.50445556640625,24.325170516967773,4.3929470857113415,0.9868551367949884,9.185392083946066,0.9914036635835856,65.50582122802734,3.455291748046875,78.06021308898926
3892.788,0.3619111776351928,-1.1946083307266235,-0.5442838668823242,-0.9874651432037354,0.2131078243255615,0.1077191531658172,63.14453506469727,76.05216217041016,-53.83921051025391,-5.37938404083252,-1.4869334697723389,0.1134995520114898,-1.007730484008789,0.1361354887485504,-0.1197869032621383,128.53439331054688,79.52510070800781,24.231555938720703,1.3617318723181586,1.0159260651198534,5.582259932195886,1.0239152806216576,65.38985824584961,3.472938537597656,78.07076644897461
3915.441,-0.7032178640365601,-0.4832245707511902,-1.4250919818878174,-0.9964251518249512,0.2247895896434784,0.109803520143032,63.053741455078125,76.07227325439453,-53.91530990600586,-1.9653880596160889,-3.3672659397125244,0.1959852129220962,-1.026828050613403,0.1248020455241203,-0.1187541186809539,128.24530029296875,79.5745849609375,23.970762252807617,1.6609962392849542,1.027351086940225,3.903798193722837,1.041179108893958,65.19155883789062,3.5023117065429688,77.88607215881348
3937.547,-2.2020599842071533,-0.3583393096923828,-0.9377844929695128,-1.003633737564087,0.1941051185131073,0.1103571876883506,62.92691040039063,76.1001968383789,-54.00947952270508,-0.244397684931755,-3.964408874511719,-1.0073424577713013,-1.0097872018814087,0.0992216542363166,-0.1270685642957687,128.090087890625,79.6564712524414,23.79030990600586,2.420106400588889,1.028171281978021,4.0976830990129045,1.0225759383953177,65.16317749023438,3.5562744140625,77.79978942871094
3952.594,-2.446738243103028,-0.8454374074935913,0.1863500773906707,-0.9935384392738342,0.175940454006195,0.1005394160747528,62.80342102050781,76.11353302001953,-54.09568786621094,-0.1921549439430236,-3.941507577896118,-1.326141357421875,-0.9928056597709656,0.1065498292446136,-0.129507839679718,127.95196533203124,79.73677062988281,23.63406753540039,2.5953841317993533,1.0139930216008612,4.163058540179204,1.0068705104052984,65.14854431152344,3.623237609863281,77.72975540161133
3974.95,-1.915874481201172,-2.1226918697357178,0.6631767153739929,-0.981661319732666,0.1991333961486816,0.0925852283835411,62.65964126586914,76.095703125,-54.22016906738281,-2.0105738639831543,-2.5966413021087646,-1.3296654224395752,-0.9782221913337708,0.1528333574533462,-0.124593898653984,127.7913055419922,79.77914428710938,23.542648315429688,2.935336293744588,1.0059249875790042,3.5430161515269254,0.9978979558803124,65.13166427612305,3.683441162109375,77.7628173828125
3997.558,-3.838414669036865,-2.304999589920044,0.1238720193505287,-0.9669837951660156,0.2250500470399856,0.1068830117583274,62.44465255737305,76.06739044189453,-54.381683349609375,-7.114877223968506,-2.819183349609375,-2.025629758834839,-0.971557319164276,0.1926602721214294,-0.1325044482946396,127.49850463867188,79.81362915039062,23.42222595214844,4.479039468255101,0.9985635492991428,7.916593243986823,0.9992992713363926,65.05385208129883,3.7462387084960938,77.80390930175781
4020.125,-6.647529125213623,-2.8718791007995605,-1.0977435111999512,-0.959486484527588,0.2271060198545456,0.1020197197794914,62.10417556762695,76.05486297607422,-54.61523818969727,-11.34477710723877,-2.916032075881958,-3.4225189685821533,-0.9625190496444702,0.1819785237312317,-0.1398834288120269,127.24838256835938,79.8721694946289,23.4096908569336,7.324095429235906,0.9912615605727724,12.203312942426985,0.98950819990746,65.14420700073242,3.817306518554688,78.02492904663086
4042.263,-5.339059829711914,-3.530773639678955,-1.7793636322021484,-0.961005926132202,0.2098380178213119,0.0724309682846069,61.76438522338867,76.06441497802734,-54.871700286865234,-12.372981071472168,-1.1246566772460938,-3.9906067848205566,-0.9473753571510316,0.1240543648600578,-0.1231626570224762,127.24898529052734,79.94815826416016,23.6583194732666,6.643647890692192,0.9863116287213868,13.049155365300033,0.9633683578272192,65.48460006713867,3.883743286132813,78.53001976013184
4052.556,-2.091217279434204,-4.0831708908081055,-1.641299605369568,-0.9556204080581664,0.1726403683423996,0.0826354622840881,61.39548110961914,76.08106994628906,-55.22105407714844,-9.614436149597168,2.704278945922852,-2.048024892807007,-0.9835785627365112,0.0819843858480453,-0.1053724884986877,127.5494155883789,79.9743423461914,24.150075912475582,4.872303215927058,0.9745992410758184,10.195337809685345,0.9925984031470676,66.15393447875977,3.893272399902344,79.37112998962402
4074.956,1.6163221597671509,-2.774251937866211,-0.2535097897052765,-0.9964547753334044,0.1992478817701339,0.1215896904468536,61.1978645324707,76.06695556640625,-55.46189498901367,-4.377694606781006,0.5893204212188721,0.0693313404917717,-1.0298984050750732,0.1081047654151916,-0.0842276439070701,127.51290130615234,79.99134063720703,24.18591690063477,3.2207512093275983,1.023428497989768,4.417727409413066,1.0389762562637268,66.31503677368164,3.924385070800781,79.64781188964844
4097.646,-3.1813442707061768,-1.3438751697540283,-0.6255119442939758,-0.996723175048828,0.2373986989259719,0.1473758518695831,60.98369598388672,76.04833984375,-55.6148567199707,-0.9272817373275756,-1.7272820472717283,-0.6517554521560669,-1.0214004516601562,0.15495266020298,-0.0811484679579734,127.29144287109376,80.0278549194336,23.966461181640625,3.5097317608459573,1.0351496856230245,2.065947690679418,1.0362694067700144,66.30774688720703,3.9795150756835938,79.58131790161133
4120.963,-7.019455909729004,-0.6037335991859436,-1.3811904191970823,-0.9865421652793884,0.1989070177078247,0.1097685247659683,60.75006103515625,76.07707977294922,-55.71153259277344,-0.9273648262023926,-0.482359766960144,-2.041687250137329,-0.9926028251647948,0.1232080310583114,-0.0923415198922157,127.36651611328124,80.07868194580078,24.048629760742188,7.179480656809186,1.0123628670574905,2.293722584148433,1.0044737645844228,66.616455078125,4.0016021728515625,79.76016235351562
4142.359,-5.533094882965088,0.0643671974539756,-1.0067654848098757,-0.9482886791229248,0.1854291707277298,0.090470977127552,60.63437271118164,76.1124267578125,-55.73435592651367,-0.105076715350151,0.4312902987003326,-1.8257042169570925,-0.9713495373725892,0.1127491220831871,-0.1053637862205505,127.580810546875,80.11283111572266,24.25460624694824,5.624309634204627,0.9704743139372052,1.8788955068541489,0.983531298806094,66.94643783569336,4.000404357910156,79.98896217346191
4152.41,-1.268781661987305,1.5886509418487549,0.5736101269721985,-0.972338855266571,0.2124723196029663,0.1013495177030563,60.78137969970703,76.12167358398438,-55.57585525512695,-0.601457953453064,0.002409353852272,-0.0787784159183502,-0.9968090653419496,0.1449203044176101,-0.11160708963871,127.57524871826172,80.10964965820312,24.24838829040528,2.112497881323734,1.000429438190027,0.6065999617314017,1.0134526875182712,66.79386901855469,3.98797607421875,79.82424354553223
4174.74,-2.4406561851501465,1.1338294744491575,-0.7959532141685486,-0.9800783395767212,0.2487921267747879,0.1292592883110046,60.80165100097656,76.12637329101562,-55.498661041259766,-3.0211195945739746,-2.470243453979492,-0.1204166933894157,-0.9924520254135132,0.1867331713438034,-0.1299720853567123,127.2673568725586,80.11225891113281,23.984453201293945,2.806405781491081,1.019391503627165,3.904326639344381,1.0181959747511633,66.46570587158203,3.985885620117188,79.48311424255371
4200.5,-7.681939125061035,1.4209567308425903,-0.472616970539093,-0.9869393706321716,0.2238523662090301,0.094793252646923,60.7923698425293,76.15017700195312,-55.3331298828125,-6.951749324798584,-1.5880626440048218,-2.536149501800537,-0.9846563935279846,0.1281933635473251,-0.1376579701900482,127.26656341552734,80.165283203125,24.10830307006836,7.8265364978968766,1.0164373880906743,7.568409075334411,1.0024627018148646,66.47419357299805,4.015106201171875,79.44143295288086
4219.820000000001,-4.483726501464844,-0.7309958934783936,-0.2620018720626831,-0.978478193283081,0.1718170940876007,0.0704126507043838,60.69552230834961,76.17996978759766,-55.332279205322266,-6.752902030944824,0.8836981058120728,-0.6666735410690308,-0.9540585279464722,0.079956978559494,-0.1373770087957382,127.46807098388672,80.17680358886719,24.44376945495605,4.550472867426504,0.9959410775394534,6.843030161567031,0.9672089927794392,66.77254867553711,3.9968338012695312,79.77604866027832
4242.442999999999,1.840414047241211,-0.7535987496376038,1.1792607307434082,-0.9582393765449524,0.183143064379692,0.0758770182728767,60.78402328491211,76.17472839355469,-55.32056427001953,-2.4726357460021973,2.8483450412750244,3.36718225479126,-0.9962714314460754,0.1118918657302856,-0.1054557412862777,127.49554443359376,80.09999084472656,24.520721435546875,2.312075001337892,0.978530227787382,5.056175762722753,1.0080662022419236,66.71152114868164,3.925262451171875,79.8412857055664
4262.43,7.2123122215271,0.4381810426712036,1.6694875955581665,-0.9955095648765564,0.2384403645992279,0.1344219297170639,61.0220832824707,76.135009765625,-55.26043319702149,-0.8094922304153442,1.1291706562042236,4.539928913116455,-1.0211673974990845,0.1790802925825119,-0.0825526788830757,127.13411712646484,80.0067367553711,24.17770004272461,7.415971887667062,1.032454529952667,4.747763534348172,1.040032475308951,66.11203384399414,3.8717269897460938,79.4381332397461
4273.477,-1.1853678226470947,1.5202741622924805,0.4671450853347778,-0.9779611825942992,0.256370484828949,0.1489668041467666,61.1099739074707,76.11222076416016,-55.16337203979492,-2.3171257972717285,-1.0513509511947632,1.5364993810653689,-1.0110080242156982,0.1543082445859909,-0.0944488421082496,126.83503723144533,79.99456024169922,23.933422088623047,1.9835712576697755,1.0219222127394882,2.9724133512979884,1.027068081069278,65.72506332397461,3.882339477539064,79.09679412841797
4292.334999999999,-8.125123023986816,2.2894208431243896,1.1267515420913696,-0.9823009967803956,0.1904551535844802,0.0990931540727615,61.16613006591797,76.13090515136719,-54.94895553588867,-3.443446636199951,-2.1898443698883057,-0.7566176652908325,-0.9931771159172058,0.1052856370806694,-0.1161052584648132,126.71829223632812,80.04593658447266,23.89251518249512,8.51637487370409,1.005488869648359,4.150326901837784,1.0054681894521986,65.55216217041016,3.9150314331054688,78.84147071838379
4314.954,-4.424662590026856,2.287824869155884,2.086068153381348,-0.9542628526687622,0.1888324320316314,0.0704590752720832,61.39226531982422,76.13751220703125,-54.63991165161133,-0.1380090862512588,-2.181736469268799,0.1124427169561386,-0.9615436792373656,0.1171736270189285,-0.1329792141914367,126.63399505615234,80.06818389892578,23.80218315124512,5.400320546788233,0.9753152109234744,2.188986956064807,0.9777419789275048,65.24172973632812,3.9306716918945312,78.44209480285645
4332.325,0.2585729956626892,2.106674194335937,2.9405672550201416,-0.964897096157074,0.2218739837408065,0.0860671326518058,61.732757568359375,76.10767364501953,-54.30181884765625,-0.0373914018273353,0.3510010838508606,2.293163776397705,-0.9585840702056884,0.1652148813009262,-0.1450305581092834,126.5713882446289,79.99826049804688,23.734317779541016,3.626550969787084,0.9938118645680744,2.3201724037617715,0.9834699992581744,64.83863067626953,3.890586853027344,78.03613662719727
4355.255999999999,1.5686875581741333,1.0518971681594849,2.4190242290496826,-0.9856073260307312,0.2485847324132919,0.0890560895204544,62.02071762084961,76.06608581542969,-54.04590606689453,-2.8276381492614746,1.7843393087387085,3.642941474914551,-0.9764591455459596,0.1862186342477798,-0.1388194113969802,126.4358139038086,79.88492584228516,23.650693893432617,3.0690302260293363,1.020366187892911,4.944737289434252,1.0037034779465783,64.41509628295898,3.8188400268554688,77.69659996032715
4377.236,-1.5921342372894287,0.1025798469781875,0.8068569898605347,-0.9697996377944946,0.2390662580728531,0.0935013592243194,62.09664916992188,76.04544067382812,-53.93854904174805,-1.9775550365448,2.965168237686157,3.251606702804565,-0.9631236791610718,0.162981703877449,-0.1276664584875106,126.46687316894533,79.7776870727539,23.71842384338379,1.787856889306877,1.0031981446315,4.824509586483388,0.9851238408354044,64.37022399902344,3.732246398925781,77.65697288513184
4392.529,-1.536189317703247,-0.9558388590812684,0.8848930597305298,-0.942145049571991,0.2012658417224884,0.090674489736557,62.06655502319336,76.0293197631836,-53.937255859375,-1.153992772102356,4.9787468910217285,2.373697280883789,-0.9574264287948608,0.1164962649345398,-0.1066837608814239,126.78021240234376,79.68968963623047,24.0544490814209,2.014085716029635,0.967660630885775,5.635073975042218,0.970370120693328,64.71365737915039,3.660369873046875,77.9917049407959
4414.888999999999,0.3309285044670105,-0.5820791721343994,2.5831968784332275,-0.9213132858276368,0.2145857214927673,0.101589560508728,62.15581893920898,75.97411346435547,-53.85271835327149,-1.1731704473495483,4.2069993019104,2.9210193157196045,-0.9569166898727416,0.1112438738346099,-0.0660568103194236,126.88772583007812,79.61951446533203,24.164501190185547,2.668564398782351,0.9514124454280828,5.254286428014366,0.9656232458947496,64.73190689086914,3.6454010009765625,78.01721954345703
4437.438,-1.4160363674163818,2.1943325996398926,4.800403118133545,-0.9290807247161864,0.2303061336278915,0.1334574222564697,62.433685302734375,75.89070129394531,-53.549312591552734,-2.371955394744873,1.196934938430786,2.671323537826538,-0.9851555228233336,0.1629907786846161,-0.0491681918501853,126.58851623535156,79.57452392578125,23.88882064819336,5.464807832694066,0.9664588929598218,3.767598052505297,0.9997574251664,64.15483093261719,3.6838226318359375,77.4381332397461
4459.701,-6.518843650817871,4.149359703063965,4.573126792907715,-0.9385791420936584,0.2394851446151733,0.1533608138561248,62.70035552978516,75.82166290283203,-53.150177001953125,-7.630894660949707,-1.4899028539657593,-0.3418222665786743,-0.9703686237335204,0.2158471047878265,-0.0689662322402,126.10025787353516,79.5779037475586,23.556215286254883,8.979198023945676,0.9807157996541258,7.782493578712098,0.9964745755718922,63.39990234375,3.7562408447265625,76.70639228820801
4481.919000000001,-11.733468055725098,5.350160598754883,4.522764205932617,-0.9500762820243835,0.2339666783809662,0.1083282828330993,63.02810287475586,75.78071594238281,-52.586307525634766,-15.21047592163086,-2.2448742389678955,-2.614288568496704,-0.9645862579345704,0.2098237574100494,-0.1029826253652572,125.6402587890625,79.61739349365234,23.418331146240234,13.665792589881342,0.9844391119411432,15.59591429928577,0.9925009215597784,62.61215591430664,3.8366775512695312,76.004638671875
4492.652,-10.7030029296875,5.200078010559082,3.326627731323242,-0.9558234810829164,0.2313489913940429,0.0808383375406265,63.37321853637695,75.76851654052734,-52.03163146972656,-19.66792106628418,-0.8049355745315552,-2.578937292098999,-0.9595811367034912,0.1821589022874832,-0.1341978311538696,125.3502197265625,79.6407699584961,23.53400230407715,12.355627668864424,0.9867399452869215,19.85260582153664,0.9858939504257788,61.97700119018555,3.87225341796875,75.56563377380371
4514.244,-6.933082103729248,4.747756004333496,2.7865889072418213,-0.988509714603424,0.2402701079845428,0.0949830114841461,63.71694564819336,75.75792694091797,-51.5528450012207,-17.976133346557617,0.099265232682228,-0.1356328278779983,-0.9988669157028198,0.1734705716371536,-0.150644302368164,125.07960510253906,79.6171646118164,23.60693359375,8.852903042036477,1.0217156909467742,17.976919089311117,1.0249491989097683,61.3626594543457,3.8592376708984375,75.1597785949707
4534.831999999999,-7.091097831726074,2.2543833255767822,0.6727296710014343,-0.9981284737586976,0.2589245140552521,0.1123707294464111,63.78852081298828,75.75106048583984,-51.33879470825195,-11.481395721435549,0.8852111101150513,-0.5980458855628967,-0.9741008281707764,0.1462729424238205,-0.1369582414627075,125.0558090209961,79.60636901855469,23.795991897583008,7.471176470141403,1.037270232361333,11.530988912617524,0.994497741089879,61.26728820800781,3.855308532714844,75.13478660583496
4557.089999999999,-12.383737564086914,0.1567544341087341,0.4115101099014282,-0.9599564671516418,0.1930768489837646,0.0891157835721969,63.579959869384766,75.76349639892578,-51.30522537231445,-9.438192367553713,3.1336445808410645,-1.5106371641159058,-0.9530849456787108,0.1042681261897087,-0.1119181513786315,125.34166717529295,79.61042785644531,24.26560401916504,12.391564412104756,0.9832277006479462,10.05888801844378,0.9652815280665608,61.7617073059082,3.8469314575195312,75.57082939147949
4577.074,-8.894784927368164,0.1852983236312866,1.7434251308441162,-0.9294391870498656,0.1745040118694305,0.1089321821928024,63.42948532104492,75.75269317626953,-51.29340744018555,-6.846765995025635,2.5043413639068604,-0.2287037521600723,-0.981221079826355,0.1068516373634338,-0.0875508189201355,125.47075653076172,79.60981750488281,24.526185989379883,9.065928830502436,0.9519322837784878,7.293986267046733,0.9908971822527456,62.0412712097168,3.857124328613281,75.81959342956543
4599.704,-7.0479350090026855,1.1446701288223269,2.6979658603668213,-0.943548321723938,0.2434830963611602,0.1525089591741562,63.399452209472656,75.6892318725586,-51.198280334472656,-2.22830867767334,-2.657970428466797,-0.3654928803443908,-0.983994960784912,0.1453268527984619,-0.0728195756673812,125.13597106933594,79.65857696533203,24.22987365722656,7.632999238742834,0.9863196420380476,3.487657008247904,0.9973307714067504,61.73651885986328,3.9693450927734375,75.42815399169922
4622.26,-14.240169525146484,2.1397571563720703,1.7602508068084717,-0.934492290019989,0.2381200492382049,0.1329987943172454,63.29754638671875,75.65825653076172,-51.0283203125,-1.308713674545288,-5.865413665771484,-1.312154769897461,-0.9664903283119202,0.1686612665653228,-0.0695724785327911,124.53912353515624,79.74701690673828,23.67159080505371,14.507221363721792,0.9734812156615296,6.151224194640069,0.9835601188179084,61.2415771484375,4.0887603759765625,74.69991111755371
4632.219,-15.24224853515625,3.202299356460572,1.4311575889587402,-0.927827537059784,0.2076366096735,0.0962306708097457,63.28430938720703,75.66693878173828,-50.74142074584961,-4.06013298034668,-5.756946086883545,-2.903831243515014,-0.9510393142700196,0.1621569395065307,-0.0828564092516899,124.03856658935548,79.85591888427734,23.267078399658203,15.640622545803438,0.9556344710231124,7.619668231373104,0.9683159788371754,60.75425720214844,4.188980102539063,74.00849914550781
4659.507,-12.720325469970703,3.805207490921021,1.6395065784454346,-0.9353482723236084,0.2036151140928268,0.1027651876211166,63.35232925415039,75.67874145507812,-50.42475509643555,-8.22770881652832,-5.486020565032959,-3.6642587184906006,-0.9431779384613036,0.1382903009653091,-0.1135598644614219,123.65261840820312,79.97358703613281,23.040695190429688,13.378126398405447,0.9627544801311482,10.546013747647818,0.9600024342457092,60.300289154052734,4.294845581054688,73.46545028686523
4681.972,-15.6919584274292,2.781646251678467,1.230773687362671,-0.9417782425880432,0.2067085802555084,0.1122166886925697,63.25845718383789,75.685302734375,-50.21225738525391,-12.4837064743042,-5.612491130828857,-3.79422664642334,-0.9306600689888,0.1376760601997375,-0.128830999135971,123.22042846679688,80.08727264404297,22.845590591430664,15.984052021535325,0.9707045279510116,14.203490411678604,0.9495684745718618,59.96197128295898,4.401969909667969,73.05784797668457
4692.293000000001,-19.933019638061523,1.099085807800293,1.1506459712982178,-0.9453502893447876,0.1828732788562774,0.0955632328987121,62.97153472900391,75.69532012939453,-50.11443710327149,-19.3867244720459,-4.351286888122559,-3.0982277393341064,-0.9327099919319152,0.1371173560619354,-0.1260288506746292,122.7177963256836,80.17543029785156,22.71225357055664,19.99643087292128,0.9676063957859998,20.109147134141462,0.9511216376391702,59.74626159667969,4.480110168457031,72.82669067382812
4719.739,-19.217021942138672,-0.7882294654846191,0.332267165184021,-0.9449329972267152,0.1843230426311493,0.090347021818161,62.55450439453125,75.70317840576172,-50.172508239746094,-23.074199676513672,-3.87750506401062,-1.607599139213562,-0.9493456482887268,0.1508021205663681,-0.1218326315283775,122.05618286132812,80.22866821289062,22.481130599975582,19.23605051677596,0.9669725630254868,23.452891319098622,0.9689384034071442,59.50167846679688,4.525489807128906,72.65363883972168
4732.252,-18.55663299560547,-1.243685007095337,-0.3453917205333709,-0.9671720862388612,0.2133748531341552,0.1025862991809845,62.10436630249024,75.70386505126953,-50.29157638549805,-25.15223693847656,-3.5206520557403564,-2.382596731185913,-0.9887796640396118,0.1837913691997528,-0.0991760417819023,121.31201934814452,80.28585815429688,22.20927047729492,18.60146972610176,0.995728186368802,25.50895491960248,1.0105940721546576,59.2076530456543,4.581993103027344,72.50084686279297
4755.066,-19.334095001220703,-1.2860677242279053,-1.9005351066589355,-1.0004299879074097,0.212318018078804,0.1055623814463615,61.57527923583984,75.73534393310547,-50.477569580078125,-29.12582397460937,-1.7506535053253174,-3.365772724151612,-1.0227738618850708,0.157787337899208,-0.072033405303955,120.69336700439452,80.36418914794922,22.14800453186035,19.469803116600108,1.0281451832703192,29.37187150874593,1.0373774761562469,59.11808776855469,4.62884521484375,72.62557411193848
4774.963,-19.35843276977539,-0.960385262966156,-3.5451371669769287,-1.0045218467712402,0.1941224038600921,0.1376209706068039,60.92698287963867,75.79890441894531,-50.77459716796875,-27.708097457885746,-0.5224348902702332,-5.003077507019043,-1.03525710105896,0.1224009469151496,-0.062847189605236,120.35946655273438,80.47798919677734,22.342723846435547,19.70378787664741,1.032321258074192,28.16100828257941,1.044360582528852,59.4324836730957,4.679084777832031,73.1173210144043
4792.769,-22.364288330078125,0.1334604918956756,-3.822599172592163,-1.0113396644592283,0.1747220158576965,0.1302561312913894,60.27852630615234,75.88861846923828,-51.00970077514648,-24.66591453552246,0.5066138505935669,-6.8047308921813965,-1.0330597162246704,0.1006978973746299,-0.0572679974138736,120.3235855102539,80.62324523925781,22.78622436523437,22.689016475997104,1.0345541839231436,25.59234963777885,1.0395345436057732,60.04505920410156,4.734626770019531,73.79592514038086
4814.618,-20.506641387939453,0.6576219201087952,-3.912498950958252,-0.9972110986709596,0.1744551658630371,0.1239597499370575,59.712398529052734,75.98387145996094,-51.19578170776367,-18.70377922058105,0.7856047749519348,-7.241917610168457,-1.0183240175247192,0.0895318239927291,-0.0679178163409233,120.52130126953124,80.77311706542969,23.35307502746582,20.88689674519909,1.0199169573123588,20.07221718363806,1.0245060185043664,60.80890274047852,4.78924560546875,74.54885673522949
4837.317,-18.51119613647461,1.852927327156067,-3.6035218238830566,-0.9793787002563475,0.1912941187620163,0.1171787977218627,59.315040588378906,76.07638549804688,-51.234130859375,-12.21126937866211,0.6320167183876038,-6.777545928955078,-1.0154941082000732,0.1034504324197769,-0.0655212774872779,120.78197479248048,80.90857696533203,23.84987068176269,18.94948789856749,1.0047422301388005,13.980331676668758,1.0228505822261948,61.46693420410156,4.832191467285156,75.0840015411377
4860.433,-15.95748233795166,3.919213533401489,-2.543009042739868,-1.0045359134674072,0.2044038474559784,0.1239655464887619,59.15890121459961,76.16616821289062,-51.08100128173828,-9.990379333496094,-0.2429583072662353,-4.73548698425293,-1.0329285860061646,0.1327115297317505,-0.0594736114144325,120.8001937866211,81.00513458251953,24.0440673828125,16.62733809958447,1.0325893622427371,11.058550761480658,1.043115968800742,61.64129257202149,4.838966369628906,75.12506866455078
4879.728,-17.643333435058594,4.787764072418213,-4.048720359802246,-1.011196494102478,0.2300678491592407,0.1386394202709198,58.96969985961914,76.27497863769531,-50.934906005859375,-10.785006523132324,-0.4611028432846069,-5.301487445831299,-1.0332719087600708,0.1615351289510727,-0.0624400675296783,120.77577209472656,81.09857940673828,24.210834503173828,18.724370111319427,1.0462650016869337,12.026418863252635,1.0476846841254437,61.80607223510742,4.823600769042969,75.1457405090332
4892.377,-21.670936584472656,5.756060600280762,-4.51578426361084,-1.0088587999343872,0.1861745119094848,0.1221787333488464,58.729759216308594,76.4251937866211,-50.76349258422852,-14.556198120117188,0.8040863871574402,-7.665187835693359,-1.0102828741073608,0.1467688381671905,-0.0853607803583145,121.06736755371094,81.21720123291016,24.77751541137696,22.872560713610863,1.0331431023689388,16.470718356725566,1.024450604175212,62.33760833740234,4.792007446289063,75.54100799560547
4914.277,-18.727371215820312,5.096053123474121,-4.3223185539245605,-0.994449019432068,0.1859036087989807,0.1051218062639236,58.54707336425781,76.567138671875,-50.5925407409668,-17.89546775817871,3.005646228790283,-7.975944519042969,-1.0018644332885742,0.1211437657475471,-0.1041847914457321,121.6722183227539,81.32229614257812,25.73084259033203,19.88382829774,1.0171231971428416,19.821638845148662,1.0145258130953214,63.125144958496094,4.755157470703125,76.32338333129883
4937.071000000001,-17.375944137573242,3.950645446777344,-4.2530059814453125,-0.9860926270484924,0.2042093873023986,0.1125222891569137,58.32255935668945,76.68299102783203,-50.4825553894043,-16.27648162841797,3.342436552047729,-7.139739036560059,-0.9838001132011414,0.1053249612450599,-0.1143234223127365,122.36627197265624,81.40983581542969,26.738018035888672,18.3199097704224,1.0132824919729593,18.08512122754149,0.9960049473196144,64.0437126159668,4.726844787597656,77.22057342529297
4959.32,-17.27261734008789,3.151805877685547,-3.744129180908203,-0.9668314456939696,0.1874805986881256,0.0938576161861419,58.08516693115234,76.79170227050781,-50.39374923706055,-13.32779312133789,2.890392541885376,-6.086799621582031,-0.9690293669700624,0.0962331220507621,-0.1124525517225265,123.0189971923828,81.48534393310547,27.652427673339844,17.952595728502505,0.98930342735851,14.934308426059085,0.980267465653606,64.93383026123047,4.693641662597656,78.04617691040039
4981.942,-13.081768989562988,2.1923561096191406,-2.641846179962158,-0.9462934136390686,0.1876007616519928,0.1014097779989242,57.8979377746582,76.86554718017578,-50.34452438354492,-9.921566009521484,2.547497034072876,-4.982418060302734,-0.9535180330276488,0.0978005304932594,-0.1042355149984359,123.59963989257812,81.54435729980469,28.42240333557129,13.52473498617466,0.9700253674739028,11.390860500749406,0.9641714710883478,65.70170211791992,4.678810119628906,78.76692771911621
