Timestamp (ms),Wrist Gyroscope X (deg/s),Wrist Gyroscope Y (deg/s),Wrist Gyroscope Z (deg/s),Wrist Accelerometer X (g),Wrist Accelerometer Y (g),Wrist Accelerometer Z (g),Wrist Roll (deg),Wrist Pitch (deg),Wrist Yaw (deg),Arm Gyroscope X (deg/s),Arm Gyroscope Y (deg/s),Arm Gyroscope Z (deg/s),Arm Accelerometer X (g),Arm Accelerometer Y (g),Arm Accelerometer Z (g),Arm Roll (deg),Arm Pitch (deg),Arm Yaw (deg),Wrist Gyroscope Magnitude (deg/s),Wrist Accelerometer Magnitude (g),Arm Gyroscope Magnitude (deg/s),Arm Accelerometer Magnitude (g),Difference Roll (deg),Difference Pitch (deg),Difference Yaw (deg)
0.0,5.922728,-2.179953,-4.290121,-0.882662,0.462588,0.054011,82.238785,61.48555,-56.304375,7.092297,-0.242416,-3.401939,-0.991327,0.118391,0.049065,62.152969,82.997917,-101.723282,7.631254172076436,0.9979965190866148,7.869728789036253,0.9995764223084695,-20.085816,21.512367,-45.418907
19.986,5.991961,-2.6139085,-4.338749,-0.8856029999999999,0.4650435,0.0589545,82.2330935,61.527567000000005,-56.379658,7.3070135,0.7370115,-3.4988555000000003,-0.9917115,0.114374,0.047867,62.2405355,83.03954300000001,-101.7125475,7.846072721871385,1.0020148519715164,8.134962940923256,0.999432019097472,-19.992558,21.511976000000004,-45.3328895
39.973,5.998025000000001,-2.710201,-4.185769666666666,-0.888203,0.4708393333333333,0.0578923333333333,82.23347733333333,61.564274000000005,-56.44869,8.154559333333333,1.6810173333333334,-3.681242,-0.9934633333333333,0.105428,0.047812,62.40419233333333,83.09328699999999,-101.64099633333336,7.800138528475811,1.006948742132168,9.10352678132958,1.000185205452359,-19.829285,21.529013000000003,-45.192306333333335
59.96,5.7459195,-2.82586575,-4.11303075,-0.886405,0.471183,0.05994675,82.22427375,61.5996105,-56.52209875,8.385649749999999,2.3854230000000003,-3.641281,-0.995925,0.1043955,0.0509437499999999,62.6230705,83.14703349999999,-101.51382825,7.610396184690313,1.005644497995968,9.448189876350128,1.0026765638576145,-19.60120325,21.547423,-44.991729500000005
79.947,5.5805846,-2.9212936,-4.1495284,-0.8835065999999999,0.4721034,0.0610456,82.209845,61.6349168,-56.598533,9.120434,2.6776038,-3.7950627999999993,-0.997827,0.1074962,0.0515744,62.8578832,83.2009734,-101.3828034,7.542908372608319,1.0035896062706509,10.234958725567694,1.0049249094727426,-19.3519618,21.566056600000003,-44.7842704
99.934,5.420849800000001,-3.199141,-4.2083328,-0.8809562,0.4739378,0.0609038,82.1849656,61.70844960000001,-56.7509904,10.1629154,2.907011,-3.8959084,-0.997444,0.1060587999999999,0.0533942,63.202059000000006,83.29952239999999,-101.2444504,7.571669607662295,1.002202642902981,11.26559650630488,1.004486905234249,-18.9829066,21.5910728,-44.493460000000006
119.92,5.1211314,-3.2793064000000003,-4.1439406,-0.8767864,0.474495,0.061805,82.15024120000001,61.778245600000005,-56.90769819999999,10.907138,2.8460974,-3.9877762,-0.9946195999999998,0.103952,0.056467,63.52685220000001,83.39836419999999,-101.1403808,7.358809752770844,0.99885922645534,11.956934756977525,1.0016300160723817,-18.623389,21.6201186,-44.2326826
139.907,4.8121212,-3.4403040000000003,-4.1414026,-0.8727902000000001,0.4730942000000001,0.066893,82.09706600000001,61.84604420000001,-57.0774904,11.100329599999998,2.6376308,-3.8424712,-0.9919036,0.1077952,0.0538077999999999,63.8598036,83.490126,-101.0321472,7.2210399217281855,0.9950153409564498,12.03906135828596,0.9991935929422484,-18.2372624,21.6440818,-43.9546568
159.894,4.6155258,-3.6329948,-4.2213794,-0.8723566,0.4717264,0.066536,82.0326296,61.9147132,-57.2563142,11.344010399999998,2.192303,-3.8168478,-0.9897422,0.1128865999999999,0.049767,64.1646124,83.57458799999999,-100.957306,7.233379131915942,0.9939612031244076,12.16803564785549,0.997401504515308,-17.8680172,21.6598748,-43.7009918
179.881,4.9430566,-4.032386,-4.1089978,-0.8743316,0.4693724,0.0650872,81.9619188,61.9810714,-57.450615000000006,10.4781654,1.8779498,-3.8651392,-0.987305,0.1107566,0.0462434,64.41432259999999,83.6580872,-100.9206512,7.588004238546813,0.994486068401242,11.325102500041837,0.9945735968303804,-17.547596199999997,21.6770158,-43.4700362
199.868,5.580619,-4.3360948,-3.8262688,-0.8775955999999999,0.468316,0.0681092,81.89040680000001,62.0414214,-57.6596886,9.3190746,1.8191884000000005,-3.8445602,-0.990102,0.1048168,0.0467234,64.61525939999999,83.7431488,-100.9095718,8.036501693373895,0.9970620723505632,10.243790361310785,0.9967304590880124,-17.275147399999998,21.7017274,-43.2498832
219.855,6.387775599999999,-4.365138,-3.6438872,-0.8822386,0.4676872,0.0692465999999999,81.83362259999998,62.09889740000001,-57.8699638,9.5138418,1.2424238,-3.493926,-0.9983818,0.1021979999999999,0.0471966,64.742514,83.8177354,-100.9759568,8.5519600561113,1.0009352406551386,10.21099023541349,1.0047080017730523,-17.091108599999995,21.718838,-43.105993
239.842,7.069206400000001,-4.1875100000000005,-3.5263098,-0.8864752000000001,0.4661176,0.0653131999999999,81.80222599999999,62.1561224,-58.0672248,10.3245508,0.4006546,-3.4195366,-1.0029412,0.1027168,0.0500108,64.7412414,83.8821458,-101.1872696,8.941128560281248,1.003678091491012,10.883478482958534,1.0094270017075628,-17.060984599999998,21.726023399999995,-43.1200448
259.829,8.1477398,-4.1028304,-3.274875,-0.8897299999999999,0.465874,0.0618098,81.8008452,62.2092712,-58.2550758,10.4893882,-0.1642422,-3.3373509999999995,-1.0050328,0.0990699999999999,0.0483788,64.656047,83.941919,-101.4860916,9.69245517943174,1.0062199104331218,11.008730717378867,1.011061967569387,-17.144798199999997,21.7326478,-43.2310158
279.816,8.7994346,-4.001348,-3.0432636,-0.8914565999999999,0.4670914,0.0625362,81.81636660000001,62.2574302,-58.4383058,10.7665702,-0.8033455999999999,-3.0172414,-1.0066654,0.0965381999999999,0.0472951999999999,64.49338220000001,83.9912842,-101.8678956,10.134213755189206,1.00835510706693,11.210180359407309,1.012389098894017,-17.3229844,21.733854,-43.4295898
299.803,8.9815244,-3.9548544,-2.8794848,-0.8928148,0.4667626,0.0620133999999999,81.83817,62.302604,-58.6186724,11.3954942,-1.2818999999999998,-2.7683026,-1.0080022,0.097163,0.0452772,64.2910934,84.03151539999999,-102.3019516,10.22741837349122,1.0093717123227497,11.796781550804456,1.0136859023453368,-17.5470766,21.7289114,-43.6832792
319.79,9.0257692,-3.9665688,-2.5767283999999995,-0.8920246000000001,0.4675475999999999,0.0593659999999999,81.86490339999999,62.3409462,-58.7950166,11.4196664,-1.679233,-2.6661706,-1.0065402,0.0973568,0.0438936,64.0351364,84.0658064,-102.7902022,10.190078848770929,1.0088770823182178,11.846394802803186,1.012189788944366,-17.829766999999997,21.7248602,-43.9951856
339.777,8.6967484,-3.9155304,-2.2291288,-0.8882504000000001,0.4694542,0.0584904,81.8898882,62.3703202,-58.9655298,10.8239368,-2.123518,-2.3237482,-1.0051248000000002,0.0970063999999999,0.0442865999999999,63.717749000000005,84.08911259999999,-103.3276732,9.794581474122117,1.0063782320231098,11.272388488857253,1.0107657533551284,-18.1721392,21.718792400000005,-44.3621434
359.763,7.7496144,-3.7006800000000006,-1.9943426,-0.8836528000000001,0.4674674,0.0591613999999999,81.903943,62.395134,-59.125989,9.929341,-2.731299,-2.0620362,-1.000972,0.0991544,0.0463998,63.29895700000001,84.099626,-103.9484174,8.816402793501561,1.00143302934373,10.502561602380268,1.0069406542907084,-18.604986,21.704492,-44.8224284
379.75,7.2610236,-3.4020048000000003,-1.7568718,-0.8813603999999999,0.464285,0.0592377999999999,81.919899,62.4168594,-59.2714472,8.8499164,-3.1977068,-1.7771612,-0.9969718,0.0985801999999999,0.0485668,62.794889,84.0996198,-104.6325742,8.208696540901924,0.9979307755861624,9.576254539042946,1.0030102491448032,-19.12501,21.682760400000003,-45.361127
399.737,6.460500000000001,-3.0540052,-1.4067652000000002,-0.8801762,0.4656414,0.0593782,81.9346908,62.4314704,-59.3983728,8.3591252,-3.3723376000000003,-1.3398882,-0.9945498,0.0964192,0.0461724,62.2997086,84.09118020000001,-105.297682,7.283130943458183,0.9975258528357248,9.112789659931147,1.0002788897754666,-19.634982200000003,21.6597098,-45.8993092
419.724,5.2358478,-2.8203238,-1.1958684,-0.8798729999999999,0.464609,0.0595252,81.9344834,62.44286579999999,-59.51379119999999,7.805489199999999,-3.637591,-1.0539918,-0.9927164000000002,0.0987362,0.045734,61.79038539999999,84.0732024,-105.9655852,6.066170929979623,0.9967854676132872,8.675749457485784,0.9986622485982938,-20.144098000000003,21.630336600000003,-46.451794
439.711,4.4393586,-2.8335994,-1.0979123999999998,-0.8819554000000001,0.4606793999999999,0.0591933999999999,81.9181198,62.454724,-59.63039719999999,6.487733799999999,-3.5915194,-0.9678048,-0.9899332,0.0982088,0.0460972,61.276291,84.053662,-106.6118072,5.379832894909291,0.99678217067576,7.478392045830563,0.9958602616369026,-20.6418288,21.598938,-46.98141
459.698,4.0308824,-2.9322234000000003,-0.8524186,-0.8856968000000001,0.4610988,0.0614573999999999,81.8885894,62.4619384,-59.7529962,5.5490384,-3.5924912,-0.691639,-0.9937608,0.0934788,0.0466458,60.7621088,84.03128960000001,-107.2390336,5.056932317103254,1.0004238786166793,6.646516733829307,0.99923703110109,-21.1264806,21.5693512,-47.4860374
479.684,2.6359438,-2.8575328000000004,-0.6293402,-0.8889072,0.462457,0.0636409999999999,81.8331314,62.4648514,-59.8734642,5.5837354,-3.6716038000000006,-0.414008,-0.9965016,0.0909064,0.0492603999999999,60.2508088,84.00352319999999,-107.8636932,3.938243581492938,1.0040282186979803,6.695534191194278,1.0018512860558098,-21.5823226,21.5386718,-47.99022900000001
499.671,1.3178338,-2.706567,-0.5494094,-0.8893131999999999,0.4591865999999999,0.0609847999999999,81.76080019999999,62.4684654,-59.98471980000001,4.8874512,-3.9529992000000007,-0.3688418,-0.99788,0.0954942,0.0544246,59.6828072,83.968097,-108.5309448,3.060072145999143,1.0027210215931648,6.296779032252071,1.0039151725712685,-22.077993,21.4996316,-48.54622500000001
519.659,0.4885808,-2.5783842000000003,-0.542493,-0.8910003999999999,0.454864,0.0589854,81.6792144,62.4749816,-60.089514,3.17403,-3.8323788,-0.4028304,-0.9965788,0.0951814,0.0565814,59.09992,83.9334976,-109.1787384,2.679752775161784,1.002128858335753,4.992380798652443,1.0027114531815022,-22.5792944,21.458516,-49.0892244
539.646,0.10349,-2.2870022,-0.3329912,-0.8934751999999999,0.4538636,0.059152,81.6024932,62.479226,-60.182163200000005,2.0655478,-3.1155828000000003,-0.2120854,-0.996465,0.0905896,0.0559314,58.6250374,83.90557859999998,-109.6959884,2.313433029543384,1.0038869754728366,3.7441052488723994,1.0021363646525956,-22.9774558,21.4263526,-49.5138252
559.632,-0.6307624,-1.8779802,-0.1107693999999999,-0.8949902,0.4533927999999999,0.0598152,81.5276916,62.48076639999999,-60.2580656,1.7522384,-2.0359246000000004,-0.0866696,-0.9995316,0.086782,0.0575104,58.3136574,83.8885848,-110.0430388,1.9841725471395275,1.0050623599254525,2.68753418710979,1.0049387946689687,-23.214034200000004,21.407818400000004,-49.7849732
579.619,-1.206359,-1.4363794,0.1572454,-0.8934033999999998,0.4513262,0.0581509999999999,81.4620208,62.4790056,-60.31120060000001,0.8748682000000001,-1.1560988000000003,-0.0015964,-0.9984914,0.085504,0.0594282,58.1226488,83.87944180000001,-110.2517638,1.8823426716319531,1.0026198246289566,1.449814247145351,1.0039062311018894,-23.339372,21.400436200000005,-49.9405632
599.606,-1.5938823999999998,-0.9650514,0.5602518,-0.8920564000000001,0.4474021999999999,0.0580626,81.4088104,62.47234900000001,-60.3412924,-0.3849437999999999,-0.386524,0.1334371999999999,-0.9956924,0.0801593999999999,0.062258,58.014702,83.8777464,-110.3517196,1.945679158822173,0.9996522469661936,0.5615941756092917,1.0008521086504838,-23.3941084,21.405397400000005,-50.0104272
619.593,-1.917219,-0.237442,1.1030799999999998,-0.8901988,0.4483084,0.0617574,81.3758714,62.456031200000005,-60.3392592,-1.2040356,0.272193,0.6024638,-0.9963864,0.0754372,0.0646204,58.0152826,83.8766616,-110.3259872,2.2246107263350594,0.998623202958333,1.3735914187365903,1.0013253344168216,-23.3605888,21.420630400000004,-49.986728
639.58,-2.7096866,0.5843102,1.4337566000000002,-0.8893941999999999,0.4445962,0.0654173999999999,81.35517899999999,62.4372048,-60.3019712,-2.0292506,0.2627068,1.0481862,-0.9971026,0.0758952,0.0680046,58.0268366,83.86661079999999,-110.2721924,3.120813654816186,0.9964774258711734,2.2990361393934284,1.0022965139772562,-23.328342400000004,21.429406000000004,-49.9702212
659.567,-3.180266,1.3432244,1.804794,-0.891278,0.442074,0.065815,81.3550478,62.4152404,-60.2285124,-3.2325998,0.2209454,1.5194704,-0.9927428,0.074863,0.0675101999999999,58.0514086,83.84848339999999,-110.18074959999998,3.895590456137216,0.997064445753132,3.5787300307815,0.99784786557114,-23.3036392,21.433243,-49.9522372
679.554,-3.368167,1.7176976,2.1657568,-0.8962534,0.4389342,0.0684456,81.3635652,62.39014039999999,-60.1430464,-4.7553072,0.5111052,2.0596022,-0.9965136,0.0715138,0.0619315999999999,58.1561098,83.82778640000001,-109.9782884,4.357239550642241,1.000309046795319,5.207315653394147,1.0009940567525664,-23.2074554,21.437646,-49.835242
699.541,-3.6622958,1.8252088,2.5053974,-0.9015454,0.4423671999999999,0.07475,81.3650406,62.3580648,-60.06034,-5.3926504,0.8065982,2.3434598,-1.0008312,0.0724372,0.0536529999999999,58.3583872,83.80778219999999,-109.6655122,4.798001023574488,1.0070056655237845,5.934903775722016,1.0048825221120528,-23.0066534,21.449717400000004,-49.6051722
719.528,-4.302673,1.6449696,2.6663330000000003,-0.9063008,0.4403211999999999,0.0756701999999999,81.34635460000001,62.324755800000005,-59.9879066,-6.3039732,0.6114378,2.4605142,-1.0047594,0.0753784,0.0517842,58.536818,83.7832826,-109.358368,5.32242910678406,1.010440437837936,6.794708560195111,1.0089127605717751,-22.8095366,21.458526800000005,-49.3704614
739.515,-4.6669178,1.4169682,2.8663922000000004,-0.9104164,0.4396152,0.0766876,81.3117874,62.288478,-59.926371,-7.1638546000000005,0.3399136,2.4015226000000003,-1.0114236,0.0755946,0.0548272,58.6364106,83.7564942,-109.1127992,5.657218828716892,1.0139036115202271,7.563310438142605,1.015725486559218,-22.6753768,21.4680162,-49.1864282
759.501,-5.0391604,0.9663634,2.9019142,-0.9138534,0.4426865999999999,0.0825096,81.2471512,62.2494042,-59.89026799999999,-7.453584399999999,0.6350346,2.1881412,-1.0136778,0.0778442,0.0501398,58.7786904,83.73714460000001,-108.81913,5.894752054323351,1.0187773537938896,7.794045885306165,1.017898030860911,-22.468460800000003,21.487740400000003,-48.928862
779.488,-6.1087518,-0.1235072,2.7968882,-0.9164002,0.4458496,0.0844005999999999,81.11914219999998,62.2083138,-59.8993164,-7.176383,1.7533822,1.5029384,-1.0074552,0.0812654,0.0374199999999999,59.10216379999999,83.7430726,-108.35070799999998,6.719723668853827,1.022592124779259,7.538809318198756,1.0114199432699555,-22.016978400000003,21.5347588,-48.45139160000001
799.475,-7.467214200000001,-2.3474154,2.9573186,-0.9195206,0.4526614,0.0948956,80.8739152,62.15384,-60.0055122,-7.467471399999999,4.6271402,0.4499652000000001,-0.9976372,0.0802428,0.0231354,59.8576372,83.799498,-107.445288,8.367519361838655,1.029284048148848,8.796364261527886,1.0011264338278358,-21.016278,21.645658000000005,-47.43977580000001
819.462,-10.7461182,-6.231372800000001,3.8745822,-0.9296778,0.4717729999999999,0.11767,80.4094788,62.0596718,-60.278823,-6.8044214,11.070029,-1.4729364,-0.978769,0.0612152,-0.0057144,61.65101500000001,83.95641020000001,-105.5162506,13.01235760980722,1.049150515532371,13.077279315211706,0.9806980730272696,-18.7584638,21.896738400000004,-45.2374276
839.449,-16.584759400000003,-13.030988000000002,5.7804966,-0.9426184,0.4924719999999999,0.1338726,79.59115139999999,61.8935968,-60.8162102,-3.956981,21.3467608,-3.4084606,-0.9593098,0.0463556,-0.0612052,65.45269640000001,84.2159804,-101.6346542,21.86950007555372,1.071904842713811,21.97633952569285,0.96237737428435,-14.138455,22.3223836,-40.81844400000001
859.436,-22.310163,-22.71276,8.6868302,-0.9523578,0.500092,0.1399308,78.3502182,61.624633,-61.699572,0.6484032,30.7462438,-5.304515799999999,-0.9561272,0.0434788,-0.1076708,71.471425,84.5291152,-95.6236328,33.001119054174524,1.084738685801092,31.207207859583637,0.9631524436982548,-6.878793200000001,22.904482200000004,-33.9240608
879.423,-27.375212800000003,-33.558265,12.4051768,-0.957488,0.5337676,0.1751012,76.67126920000001,61.207138,-62.956669,6.0875014,39.3851746,-7.0338286,-0.9609972,0.0503266,-0.1240002,79.8651298,84.8308882,-87.33569639999999,45.04939330440275,1.110113305566238,40.468807696072105,0.9702702894943448,3.1938606000000007,23.623750200000007,-24.3790274
899.41,-33.9304208,-44.7154322,15.748227,-0.9627488,0.5621486,0.2123015999999999,74.5473526,60.6365334,-64.5611132,12.0757346,46.2182906,-8.232904600000001,-0.9726038,0.0565728,-0.1241251999999999,90.2019424,85.0525466,-77.208062,58.298799182670976,1.1348868973364523,48.47405976672871,0.9821230568260374,15.654589800000002,24.4160132,-12.6469488
919.397,-40.114795,-56.2077048,19.3531992,-0.9601082,0.5814832,0.2432598,72.03184819999998,59.8928132,-66.47811300000001,17.7943646,49.490264,-8.2184086,-0.991779,0.0736148,-0.1230049999999999,101.6394134,85.1146866,-66.076165,71.71505543503991,1.1485233118598508,53.23032859398844,1.0020853025790968,29.6075652,25.221873400000003,0.4019479999999994
939.384,-44.3876626,-66.6211202,22.8983218,-0.948093,0.6008962,0.2814674,69.249025,58.9626496,-68.6131074,21.6440764,47.6947668,-7.791571599999999,-1.0126608,0.0931798,-0.1016075999999999,112.6886246,84.9922242,-55.39599080000001,83.26446654516343,1.1572296561556827,52.95248257932149,1.0220021895096116,43.4395996,26.0295746,13.2171166
959.37,-48.2371162,-75.2087056,25.9495588,-0.929046,0.6332798000000001,0.3423002,66.3021614,57.8409844,-70.87418520000001,22.9404418,44.4037246,-6.569872800000001,-1.0243517999999998,0.1146218,-0.0686736,122.34561,84.71509859999999,-46.1271768,93.04057383332515,1.1753038765034685,50.40950165335909,1.0330299272215882,56.0434486,26.8741142,24.7470084
979.357,-52.679039,-82.3685086,28.4588636,-0.9081132,0.6458908,0.3870702,63.2766892,56.555211,-73.1638686,21.7715542,39.5734574,-4.2485988,-1.0331686,0.1314772,-0.0463247999999999,129.8371934,84.3349304,-39.0028102,101.8310329730343,1.179689725846131,45.36639389059388,1.042530381926992,66.5605042,27.7797194,34.1610584
999.344,-56.4096144,-87.91056180000001,31.5622212,-0.8793023999999999,0.6477334000000001,0.4234892,60.2649536,55.09944839999999,-75.39859600000001,18.4290444,32.559758599999995,-1.1919005999999996,-1.0506876,0.136207,-0.0310695999999999,134.9764312,83.9322312,-34.1766368,109.11684232888176,1.171355783115429,37.43244828524746,1.05993495068656,74.7114776,28.8327828,41.2219592
1019.331,-58.5858626,-91.087985,34.4216236,-0.8421394,0.6408596000000001,0.4561296,57.37031399999999,53.502555,-77.4824446,14.9986278,23.6816596,1.6310650000000002,-1.068683,0.1358168,-0.0053381999999999,137.855252,83.58866420000001,-31.5605208,113.64054064992116,1.1523688680022035,28.07917752227493,1.077292000355744,80.484938,30.0861092,45.9219238
1039.318,-59.4940642,-91.8627166,36.4995528,-0.802008,0.6285362,0.4815546,54.6632286,51.810572,-79.3615858,11.829486,13.4459458,4.976990200000001,-1.0815832,0.1407786,0.0224004,138.6051666,83.3460784,-31.0302176,115.3712257487352,1.1270179322245055,18.587647213448765,1.0909365749943305,83.94193800000001,31.5355064,48.3313682
1059.305,-58.80954959999999,-90.5780456,37.6703894,-0.7604484,0.6029142000000001,0.4940798,52.1940972,50.073616,-80.99817039999999,9.741072400000002,2.404883199999999,8.429742800000001,-1.0852582000000002,0.1402396,0.0403984,137.4584382,83.22016579999999,-32.375174400000006,114.376587230159,1.0889913454165925,13.104675439774764,1.095027185415029,85.26434099999999,33.1465498,48.62299599999999
1079.292,-57.20385120000001,-87.61378640000001,38.1791204,-0.7301254,0.5899110000000001,0.5098328000000001,49.9798958,48.3239006,-82.3871352,9.2805114,-7.263309800000002,12.016290200000002,-1.0786658,0.1374964,0.0548488,134.8180024,83.1768874,-35.221867,111.3826799550732,1.0681795596256278,16.830769182272157,1.0887761748697664,84.83810659999999,34.8529868,47.1652682
1099.279,-56.7252396,-84.852617,37.5370444,-0.7314372,0.5691826000000001,0.511186,47.958471,46.6087578,-83.5752974,8.401092000000002,-12.9265174,14.9931922,-1.0341916000000002,0.1583368,0.0419384,131.30071579999998,83.13986179999999,-38.9370678,108.75085802748256,1.0584329625831763,21.505092681295466,1.0470824404694028,83.34224479999999,36.531104,44.6382296
1119.266,-55.2152076,-84.7810806,36.9340126,-0.7589884,0.5470944,0.5103898,46.0890526,44.898945600000005,-84.6373304,0.3839840000000009,-14.177212,16.462563600000003,-0.9757650000000002,0.1540522,0.0061458,127.4947054,83.07245759999999,-42.7824416,107.70641607978492,1.0657736259590778,21.729168969135596,0.9878700250576896,81.4056528,38.173512,41.8548888
1139.253,-51.270176000000006,-87.7503524,36.8294076,-0.7869964,0.5249575999999999,0.523582,44.364331,43.1404326,-85.6417142,-7.2660202,-11.1637678,17.6136616,-0.9435556,0.1264411999999999,-0.0558595999999999,124.0178194,82.92672560000001,-46.140602,108.09792115282374,1.0812409195617412,22.08315729234476,0.9536272029786904,79.6534884,39.78629299999999,39.5011122
1159.239,-48.125863,-92.3515502,37.4208056,-0.8091462,0.526308,0.561288,42.7471366,41.3019568,-86.6152738,-10.824791,-5.430706400000001,18.010138,-0.9392926,0.0944798,-0.0931698,121.4985902,82.6924132,-48.4610442,110.6581411627309,1.116584928602585,21.703311797412997,0.9486188026045236,78.7514536,41.3904564,38.1542296
1179.226,-46.9542534,-98.5225752,37.8252246,-0.8297934,0.5189798,0.5859344,41.1747352,39.369433400000005,-87.59429159999999,-9.6532048,1.8564394,17.285923800000003,-0.940718,0.0790552,-0.1212767999999999,120.2016252,82.3788206,-49.570178000000006,115.50821335485853,1.1407086571929574,19.885519650640813,0.951792068883367,79.02689000000001,43.009387200000006,38.0241136
1199.213,-44.659951,-106.2302702,37.81363699999999,-0.8367152000000001,0.5134331999999999,0.6094666,39.652516,37.29496519999999,-88.6092758,-7.7196088,9.1266106,15.9038358,-0.9389074,0.0806348,-0.142511,120.0568254,82.0106856,-49.5534964,121.28170790871629,1.1554892960511751,19.895209831073192,0.9530784132833984,80.4043094,44.7157204,39.055779400000006
1219.2,-40.3465486,-114.69002679999998,37.4733378,-0.8179854000000001,0.5138942,0.6555228000000001,38.2222632,35.065808399999995,-89.6660202,-4.7283864,17.5154574,15.449713,-0.9374748,0.0982064,-0.1644449999999999,120.9239854,81.5600448,-48.5709846,127.22380782381018,1.1674320128926738,23.82944644051323,0.9568414997589728,82.70172219999999,46.4942364,41.0950356
1239.187,-36.4738,-123.2897064,37.3273416,-0.7879888,0.533747,0.7245436,36.8844452,32.6852322,-90.7547974,-3.3259418,27.3999692,14.8940016,-0.9349652,0.1219646,-0.1615825999999999,122.7507584,81.00258779999999,-46.6412604,133.8806192903263,1.1961503405656833,31.36321865942235,0.9566317083846636,85.8663132,48.3173556,44.113537
1259.174,-35.6275788,-132.6065064,37.1888902,-0.767108,0.5491341999999999,0.7800354,35.5846802,30.138585,-91.878688,-3.8663738,38.8989646,13.812903200000004,-0.9278004,0.1505192,-0.1583106,125.3950882,80.3084702,-43.8636688,142.25618954924636,1.2241153044247095,41.45931244154864,0.953169375232524,89.810408,50.1698852,48.015019200000005
1279.161,-34.3661226,-143.8086578,37.6144432,-0.7427108,0.5391864,0.8233083999999999,34.3278358,27.3849118,-93.0490112,-10.6806638,52.260389,12.265804,-0.8748476000000001,0.163974,-0.183738,128.7366118,79.439975,-40.2303632,152.56738438487355,1.23295499832401,54.73275788233558,0.908848418904803,94.408776,52.05506319999999,52.81864800000001
1299.148,-28.603352,-155.98630980000002,40.24472960000001,-0.6892622,0.5410193999999999,0.88523,33.227945,24.3897262,-94.2309342,-20.4494,71.59290920000001,10.912598400000002,-0.8632488,0.1588558,-0.2029177999999999,132.74640340000002,78.28124840000001,-35.70069099999999,163.61393232617633,1.2455587197820903,75.2516273041263,0.900893606066732,99.5184584,53.8915222,58.5302432
1319.135,-23.9317326,-166.6592896,43.1878532,-0.6170266000000001,0.5569406,0.941993,32.281340799999995,21.17006,-95.3995606,-28.7360814,96.8896766,12.1661136,-0.932474,0.175122,-0.2146944,137.0907012,76.6741988,-30.6319082,173.8195538460484,1.2562863802035429,101.79089412127256,0.9727636716856568,104.80936040000002,55.5041388,64.7676524
1339.122,-23.6434768,-175.4421234,45.6079872,-0.5463426,0.5575852,0.9637002,31.411810600000003,17.7593082,-96.5432892,-33.6347314,108.0582596,10.808512600000002,-0.9896994,0.1837066,-0.2032784,141.1589172,74.8692138,-25.7203924,182.80875568398884,1.240205453670415,113.6868794925584,1.026925082540338,109.7471066,57.109905600000005,70.8228968
1359.109,-21.433285400000003,-183.3755982,48.423326,-0.4685805999999999,0.5344198,0.963705,30.6567584,14.1729034,-97.6513642,-39.9789402,113.9247544,10.387118200000002,-1.0184394,0.1915902,-0.2234368,144.66411739999998,72.9353514,-21.2347442,190.8685784490155,1.197455480739639,121.18191923350724,1.0601177386510612,114.007359,58.76244799999999,76.41662
1379.096,-16.310786800000002,-189.831238,52.1512122,-0.3735042,0.5237278,0.9580464,30.0851208,10.426878,-98.7002334,-45.145655,109.2381776,10.6489352,-1.0831282,0.2069124,-0.2269491999999999,147.286136,71.0439376,-17.5372456,197.53908377983612,1.1539710137015748,118.67817588605736,1.1258265311714946,117.2010152,60.61705959999999,81.1629878
1399.082,-13.8527014,-193.9632814,54.927998200000005,-0.2765642,0.5224743999999999,0.94935,29.6436042,6.569513799999998,-99.6949294,-45.1505882,90.2168028,12.972896600000002,-1.1310574,0.196428,-0.2287254,148.6899506,69.43662259999999,-15.0995084,202.0661694935408,1.118361604257317,101.71500955343,1.1705511991723898,119.0463464,62.8671088,84.595421
1419.069,-13.7941596,-196.5386444,56.681058400000005,-0.1943792,0.4959369999999999,0.8997088,29.2803238,2.6444772,-100.6481842,-37.2500572,58.5279374,14.357381400000005,-1.1099478,0.1950816,-0.2165569999999999,148.9466766,68.3393692,-14.0307458,205.01331655042347,1.0455681260248324,70.84645805096156,1.1475791404658766,119.6663528,65.69489200000001,86.6174384
1439.056,-11.6641576,-198.6822998,58.099034,-0.1132792,0.4732318,0.851237,29.0349426,-1.3387386,-101.5735596,-30.2247028,34.47226919999999,19.3582898,-1.0842312,0.216271,-0.2228621999999999,148.39062180000002,67.5896102,-13.977335,207.3311519720755,0.980502393598751,49.76558436436148,1.1278288880336769,119.35567919999998,68.9283488,87.5962246
1459.043,-10.291902,-199.1453276,58.04981840000001,-0.0337704,0.4486778,0.8012772,28.8869648,-5.3386704,-102.4914214,-21.8630544,14.129944599999993,23.8246104,-1.080064,0.2119128,-0.2482165999999999,147.31094660000002,67.1345474,-14.671461399999998,207.68862792161227,0.9189653744123552,35.28824935879104,1.128298169552446,118.4239818,72.4732178,87.81996
1479.03,-9.321354199999998,-197.7632506,56.7881172,0.0362428,0.4297234,0.7654546,28.8254668,-9.308069,-103.41707,-12.4372662,4.292194399999994,26.925308600000005,-1.067333,0.207349,-0.2725796,146.091403,66.8111328,-15.7244112,205.9662137029304,0.8785763972020646,29.96799570378853,1.1209339762118733,117.26593619999998,76.1192018,87.69265879999999
1499.017,-11.4817216,-194.8586486,54.8093406,0.093709,0.410864,0.7199688,28.7910294,-13.20711,-104.3588348,-2.9337438,5.202879999999994,29.427905200000005,-1.0517476,0.2253725999999999,-0.2740592,145.0217956,66.4349488,-16.8208146,202.74562062378803,0.8342335860839216,30.027960594063423,1.1099884089670309,116.23076620000002,79.6420588,87.5380202
1519.004,-15.300273,-191.0901824,52.55953039999999,0.1446582,0.3950314,0.6874374,28.748099199999995,-17.0206634,-105.317659,0.8363302000000002,13.959596799999996,29.4910724,-1.0255296,0.2345798,-0.2903965999999999,144.2827088,65.9027742,-17.6392014,198.7764080554036,0.8059441548469473,32.63882875233185,1.091360998174188,115.5346096,82.9234376,87.6784576
1538.991,-18.6479058,-186.453604,50.0724646,0.1856036,0.3665034,0.6591864000000001,28.6936392,-20.7262366,-106.2886566,1.4190590000000003,29.101078799999996,28.395041400000004,-0.9825246,0.2172344,-0.3103349999999999,144.02847,65.12828920000001,-17.9443296,193.95861039518903,0.7767239847522929,40.683717773539385,1.053020980974985,115.3348308,85.8545258,88.34432699999999
1558.978,-21.816335,-181.0691742,48.3641028,0.2274434,0.3575462,0.6349214,28.633722,-24.3201586,-107.2564882,-1.4924201999999998,46.7805418,26.07498020000001,-0.9211696,0.2145461999999999,-0.326379,144.24245919999998,64.08057099999999,-17.6699556,188.68249722205596,0.7633445942141465,53.57752328715193,1.000553224740993,115.6087372,88.4007296,89.5865326
1578.965,-28.0179774,-174.7125792,46.6408974,0.2707028,0.347154,0.607722,28.4998506,-27.7891992,-108.212146,-5.4008148,61.7668912,24.766352,-0.896138,0.2101435999999999,-0.3408336,144.7526186,62.80203780000001,-16.9764586,182.98870374583373,0.7504145087402295,66.76593323248346,0.981524931193253,116.25276800000002,90.591237,91.2356874
1598.951,-33.2128554,-167.7693022,44.7501748,0.3134502,0.3273442,0.578815,28.300451400000004,-31.1262238,-109.1490266,-11.6372274,78.5027224,21.918458,-0.8686938,0.2038837999999999,-0.3746763999999999,145.5399996,61.2728934,-15.822982200000002,176.78294790258136,0.7351408418654755,82.33177568149819,0.9677705961527452,117.23954820000002,92.3991172,93.3260444
1618.938,-36.801438000000005,-159.849771,43.2701516,0.363134,0.3119994,0.5595968,28.0493394,-34.321949800000006,-110.0439378,-18.2130822,93.0735918,17.337655,-0.8473896,0.1901069999999999,-0.4102792,146.5278566,59.5411688,-14.2742488,169.64256879423652,0.7364499345689428,96.41060177530277,0.9604888482381252,118.4785172,93.8631186,95.769689
1638.925,-42.1334186,-150.56189880000002,42.0472054,0.4206034,0.3004103999999999,0.5247476,27.6992806,-37.3676202,-110.8750506,-22.3347492,99.2481906,11.3513182,-0.8244630000000001,0.1968314,-0.4498664,147.5990632,57.7499404,-12.5114498,161.90144475925487,0.7365552743857585,102.36159819032956,0.9596153480660468,119.8997826,95.1175606,98.3636008
1658.912,-47.216033800000005,-140.9523696,40.250512,0.4735708,0.2862372,0.4965219999999999,27.242994,-40.2473428,-111.6419068,-23.2231288,89.7634356,8.1772132,-0.7983958,0.2146293999999999,-0.4724828,148.47883000000002,56.1410424,-10.9341446,154.00333782071053,0.743461588624779,93.07875642537876,0.9522298194752356,121.235836,96.3883852,100.7077622
1678.899,-51.0359252,-131.08967579999998,37.542945,0.52297,0.2637742,0.4638154,26.7035778,-42.9521868,-112.3547106,-23.943988,74.2509264,5.206831600000002,-0.7649586,0.2327484,-0.497323,149.10877380000002,54.8116418,-9.6250016,145.59753253967637,0.7471272815008164,78.18967788597878,0.9416281876332716,122.405196,97.7638286,102.729709
1698.886,-52.8364692,-120.5428572,34.24698600000001,0.5764414,0.2456858,0.4304736,26.1179176,-45.45889699999999,-113.01689,-23.3682934,50.90869339999999,2.599839600000002,-0.7313692,0.2554927999999999,-0.5250418,149.4011656,53.8917726,-8.7245912,135.99679757092198,0.7602326750755718,56.07612117532216,0.9358666407708526,123.283248,99.3506696,104.2922988
1718.873,-54.2230728,-108.516876,29.656559400000003,0.6227794,0.235837,0.3945654,25.497222,-47.7159572,-113.640837,-18.6530226,21.723080399999997,3.4207926000000013,-0.7088058,0.2832508,-0.541053,149.2944792,53.4459908,-8.4141072,124.88220656330188,0.7740511136291452,28.8362496901589,0.935614785380864,123.79725720000002,101.161948,105.2267298
1738.86,-55.086490600000005,-94.8273748,23.4552934,0.6598314000000001,0.2244469999999999,0.3549522,24.8587076,-49.666189,-114.2460112,-13.619538599999998,-3.178762200000006,5.695598800000002,-0.7023454,0.309262,-0.546934,148.8583372,53.3954612,-8.6258908,112.14679329594604,0.7821412893587706,15.100867739689672,0.94237404776509,123.9996296,103.0616502,105.6201204
1758.847,-53.0189796,-79.3737708,16.562684400000002,0.6925220000000001,0.1989344,0.307743,24.2544814,-51.273282,-114.8309844,-10.820924,-15.503800400000006,6.825070000000002,-0.6971806,0.3276998,-0.542774,148.2655272,53.5349966,-9.0961504,96.8789461305714,0.7834968857859999,20.10079111780719,0.942364877853796,124.0110458,104.8082786,105.734834
1778.834,-47.9292216,-61.69916980000001,10.0345348,0.720569,0.1899952,0.271082,23.717401,-52.49398660000001,-115.3637862,-7.900153199999998,-20.9170736,8.319047000000001,-0.6972122,0.3369156,-0.5424728,147.61533500000002,53.7446698,-9.7089034,78.76985289972015,0.7929711914742175,23.856716696970192,0.9454595243012998,123.897934,106.2386564,105.6548828
1798.821,-42.3002128,-42.065119,3.6659138,0.7395876,0.1770406,0.2429984,23.233557800000003,-53.29610600000001,-115.8183334,-4.5401364,-21.316121200000005,8.3631942,-0.7114153999999999,0.3370308,-0.538087,147.0264648,53.9583584,-10.329616,59.76806139903214,0.7983617065745826,23.343797436805527,0.9535403772650636,123.792907,107.2544644,105.4887174
1818.807,-34.8123986,-21.2586676,-2.0048474,0.7494978,0.158376,0.2176782,22.8174026,-53.6707452,-116.167604,-2.6065172,-15.519970400000004,6.858797200000001,-0.717971,0.3325041999999999,-0.527152,146.5971222,54.0954236,-10.8013318,40.83936161976407,0.7963753564344391,17.167018149972932,0.9507526655038312,123.7797196,107.7661688,105.3662722
1838.794,-24.376326400000004,0.0067163999999991,-6.7046836,0.7534981999999999,0.1436738,0.2146102,22.5054836,-53.6179788,-116.3850662,-1.4708909999999995,-6.239010000000006,4.585924800000001,-0.7206072,0.3273566,-0.5190024,146.383008,54.1050482,-11.035631,25.281576613128284,0.7965294948422939,7.881590726828951,0.9464674170097774,123.8775244,107.723027,105.3494352
1858.781,-14.6801228,21.1923298,-10.990118,0.7460861999999999,0.1459261999999999,0.229736,22.2775424,-53.1415834,-116.464827,-0.9232096,5.087231799999995,1.3062278000000012,-0.7276084,0.3208214,-0.5184835999999999,146.42969680000002,53.9653564,-10.962735999999998,28.02505203258277,0.7941773752587515,5.33277361397952,0.949297423317624,124.1521544,107.1069398,105.502091
1878.768,-6.881843399999999,41.4210216,-15.191861799999998,0.735309,0.1388972,0.251363,22.10801,-52.259285,-116.4216614,-0.3208198,15.537062399999996,-2.6399351999999987,-0.7312824,0.3179878,-0.5131106,146.72990739999997,53.69938119999999,-10.5885696,44.65258630717923,0.789401745258927,15.7630102209497,0.9482471604655404,124.6218974,105.9586662,105.8330918
1898.755,0.8768059999999999,60.4328814,-18.9978418,0.7199367999999999,0.135241,0.2706744,22.005586,-50.9962242,-116.2650376,1.1868264,22.140491599999997,-5.4806616,-0.7295042,0.3181108,-0.508097,147.2109712,53.356382,-10.022625799999998,63.354715184632695,0.7809377407262373,22.839605442457227,0.944210474578248,125.2053852,104.3526062,106.2424118
1918.742,10.9310182,77.6913026,-23.1198014,0.6964296000000001,0.1295496,0.285281,22.045405,-49.3824606,-116.0289628,2.787433,23.152637999999996,-6.870968799999998,-0.7220869999999999,0.3107613999999999,-0.505246,147.7656982,53.0134736,-9.4033004,81.7921198854079,0.7636638891405826,24.31099836162855,0.9344815695426848,125.7202932,102.3959342,106.6256624
1938.729,22.1817326,92.6207284,-26.6608204,0.6783884,0.1224086,0.3226734,22.2632968,-47.4661796,-115.7230408,4.0154396,14.832315999999995,-7.709731599999998,-0.7416617999999999,0.297994,-0.5008589999999999,148.2477568,52.8341232,-8.906345,98.90110178802622,0.7611260143209402,17.19189676705693,0.9432509673974576,125.98445999999998,100.3003028,106.8166958
1958.716,30.0214916,106.6890138,-29.7352154,0.6550996,0.1454202,0.3535082,22.5991606,-45.275354,-115.345877,6.0413988,-2.329668000000005,-7.044190399999998,-0.7756384,0.2939682,-0.4878427999999999,148.5022522,52.9574294,-8.7396966,114.7519876010427,0.7584659306491228,9.567991996355222,0.962300798959265,125.9030916,98.2327834,106.6061804
1978.703,36.04446660000001,119.8290514,-33.2371594,0.6336776000000001,0.1539421999999999,0.3549374,23.0256324,-42.8171716,-114.9099334,10.8543054,-30.979796600000007,-2.731912399999999,-0.7793474,0.2828944,-0.4715943999999999,148.3211608,53.526786,-9.227436,129.47167217921984,0.7424459977677569,32.939749368431976,0.953841123851074,125.2955284,96.3439576,105.6824974
1998.69,45.6386856,131.8101258,-36.4865938,0.6004952,0.1623414,0.3734076,23.6181236,-40.120443,-114.41407,16.3133144,-66.1050144,3.587006600000001,-0.787962,0.2778429999999999,-0.4447669999999999,147.49797660000002,54.616761,-10.6180458,144.18068668803625,0.7255221920208644,68.18257674718592,0.9465191653537712,123.879853,94.737204,103.7960242
2018.677,52.8255586,141.62641920000002,-39.3351716,0.5761764,0.1832348,0.4380497999999999,24.336603200000003,-37.231675,-113.860997,23.972515999999995,-102.95151460000002,9.3276738,-0.8298276,0.2824874,-0.4077624,145.9294922,56.2436912,-13.056374599999998,156.19167065377593,0.7466202938094035,106.11645197764332,0.966790128070348,121.592889,93.4753662,100.8046224
2038.664,53.5530192,151.2491608,-43.0477722,0.5240532,0.2426034,0.474966,25.0788684,-34.142488,-113.2716218,33.6663366,-131.8300614,13.824504999999998,-0.8355676000000001,0.2969178,-0.3588977999999999,143.6643066,58.2407386,-16.4972984,166.12448705571046,0.7477171037750842,136.7614867105769,0.9566300355787708,118.5854382,92.3832266,96.7743234
2058.651,54.4634136,159.84660019999998,-47.4636062,0.47805,0.250232,0.4659398,25.850528399999995,-30.860776,-112.658652,38.752106,-142.9504806,13.2865422,-0.8148958000000001,0.311031,-0.3116056,141.0195922,60.3653838,-20.450254,175.41377634032048,0.7129149693673432,148.70473370689513,0.9262254033279372,115.1690638,91.2261598,92.208398
2078.637,63.0869166,166.3150084,-51.762168,0.417103,0.2727262,0.530046,26.8094796,-27.4325666,-112.0283526,34.0824792,-139.39571519999998,11.1774142,-0.8742862,0.3291312,-0.2695762,138.0641112,62.39207,-24.5906088,185.2564792422863,0.7275323050500507,143.93649777848668,0.972303982265999,111.2546316,89.82463659999999,87.43774379999999
2098.624,62.926371200000006,170.5476776,-56.094469200000006,0.3564387999999999,0.3466876,0.6386828,27.795558,-23.8890586,-111.3943682,33.4385582,-125.2148818,8.903424000000001,-0.9137074,0.339341,-0.2328674,135.10807799999998,64.1485604,-28.652656200000003,190.24412737843835,0.8094174628429015,129.90833213311043,1.0021181332949325,107.31252,88.03761899999999,82.741712
2118.611,53.3316472,174.7244628,-61.24333320000001,0.2695684,0.3985093999999999,0.660136,28.6262598,-20.2182532,-110.771872,22.3762234,-92.8494844,-1.7124047999999987,-0.9363388,0.3651747999999999,-0.20336,132.8545502,65.5218452,-31.6469452,192.674981134708,0.8168576391654301,95.5230572018694,1.025396641568754,104.2282904,85.7400984,79.1249268
2138.598,51.1484158,176.81698,-64.744158,0.1920422,0.3970392,0.6475873999999999,29.441776800000003,-16.4810298,-110.149559,0.3842647999999997,-61.4058258,-13.0146904,-0.9546024,0.35761,-0.1980042,131.24928599999998,66.57946480000001,-33.4170158,195.12101591140572,0.7835111827895246,62.77105437878447,1.0384393662623737,101.8075092,83.0604946,76.73254319999998
2158.585,57.097179800000006,177.2987824,-67.6576628,0.1209823999999999,0.4084544,0.7362725999999999,30.4152516,-12.7111032,-109.5265974,-17.6054836,-45.7232102,-17.5307592,-1.0293784,0.3092515999999999,-0.2006318,129.82432260000002,67.47432560000001,-34.5879104,198.1729182234409,0.8506286378319742,52.03741463516071,1.0933935986918708,99.409071,80.1854288,74.93868699999999
2178.572,47.5861332,177.73898,-68.7007034,0.0405096,0.5322538,0.8467774,31.242477,-8.9290968,-108.8677214,-21.5190004,-35.6674074,-18.4015026,-1.0889171999999998,0.293184,-0.1771998,128.5779634,68.2274322,-35.4664382,196.40613975134104,1.0009830670182989,45.5395062203202,1.141532870937968,97.3354864,77.156529,73.4012832
2198.559,35.4160744,177.76894199999998,-73.13498539999999,-0.061639,0.495561,0.7860308,31.8725954,-5.113474399999999,-108.2461364,-21.6682084,-20.705105600000003,-21.3290716,-1.0625068,0.2833236,-0.1685249999999999,127.9367692,68.82567739999999,-35.681552,195.46053605565476,0.9312488870278663,36.7850777964504,1.1124718594140708,96.0641738,73.93915179999999,72.56458439999999
2218.547,40.0425176,175.7243498,-72.5238892,-0.154468,0.4951488,0.7716516,32.6356154,-1.3542381999999995,-107.5953278,-19.4976284,-33.752749400000006,-14.338917,-1.0245486,0.2552826,-0.1853162,126.534369,69.4550704,-36.7587416,194.27342801596143,0.9297735686434628,41.53324145809687,1.0720126555256515,93.8987536,70.8093086,70.83658619999999
2238.533,44.736037200000005,174.6193204,-72.4186554,-0.2066708,0.5091042,0.8446066,33.53517599999999,2.370191,-106.9018204,-8.7956062,-57.2148834,-3.446304199999999,-1.0669726,0.2221452,-0.1934777999999999,123.81868,70.1338758,-39.4594856,194.26188954929268,1.0076012181383267,57.989504080824936,1.106893255073243,90.283504,67.7636848,67.4423348
2258.52,32.73914,175.0992276,-71.1249238,-0.2785613999999999,0.6163782,0.8859380000000001,34.2575148,6.0726038,-106.1226868,9.8402398,-74.1733124,0.4368170000000013,-1.103084,0.1929065999999999,-0.128594,120.2451006,70.8551756,-43.4526406,191.80809570925837,1.1146320822806062,74.82447060154176,1.1271839620113302,85.9875858,64.7825718,62.6700462
2278.506,23.5429236,175.1813536,-71.8404464,-0.363503,0.5270918,0.7854756,34.8576874,9.769661200000002,-105.3070954,31.9365208,-86.78199,-3.5608327999999987,-1.0114074,0.209647,-0.1470128,116.244922,71.6713118,-48.3477546,190.79786592023228,1.0133765908247536,92.5404488826291,1.0433166138558323,81.38723460000001,61.9016506,56.95934079999999
2298.494,28.315831600000003,174.1710112,-66.01323540000001,-0.4277298,0.5506719999999999,0.769031,35.627871,13.374517,-104.3510894,35.0999402,-103.6214554,-5.486172599999999,-0.9366679999999998,0.184152,-0.1539332,111.1813386,72.601927,-54.417667400000006,188.40136599718676,1.0380756775654847,109.54227453843905,0.9669303653263972,75.5534676,59.22741,49.933422
2318.48,30.559155800000003,174.97766099999998,-62.3928504,-0.4542216,0.5572336,0.77205,36.5375342,16.938474000000003,-103.255693,42.1974706,-102.0410094,-4.4315418,-0.984971,0.1472352,-0.1287152,105.9865326,73.386026,-60.752741400000005,188.2655349055593,1.0549349503052403,110.510780863832,1.0041980271196913,69.44899840000001,56.447552,42.5029516
2338.467,21.748489800000005,178.2838012,-57.9266928,-0.5062704,0.6224182,0.789705,37.410498800000006,20.4756594,-101.9578246,54.5265572,-95.1129486,-6.963886199999999,-1.0444974,0.1851568,-0.0204767999999999,101.0434538,73.98609619999999,-67.0521462,188.7156917631584,1.1257655709038183,109.85496867451045,1.060979339351733,63.632955,53.5104368,34.905678400000006
2358.454,13.974137600000002,181.7848144,-55.457585,-0.5871134,0.5591814,0.7146812,38.276482400000006,24.0163858,-100.4781922,58.680111,-91.2181198,-12.3142174,-0.9792524,0.2967842,-0.0123996,96.005313,74.4936036,-73.51479119999999,190.5689875140717,1.0808122872168693,109.15924494514395,1.0233131848830836,57.7288306,50.4772178,26.963401000000005
2378.441,16.622706400000002,183.2798674,-50.3902022,-0.6649126,0.564111,0.6755606000000001,39.3689032,27.4946396,-98.7801392,35.4881666,-83.0587356,-15.083614799999998,-0.9025542,0.289037,0.0045416,90.6604034,74.8968292,-79.797902,190.80617558134503,1.1030467398220802,91.57335291194072,0.947716781236462,51.2915002,47.4021896,18.982237200000004
2398.428,18.53863,183.6995758,-47.1771888,-0.7339574,0.5651336,0.6638284,40.675467600000005,30.9090416,-96.8894152,20.518583,-76.9531906,-17.352177199999996,-0.9993086000000002,0.283664,0.0143092,85.190303,75.20922699999998,-85.890088,190.56469267534237,1.1396216896454192,81.51014565947001,1.0388877206583012,44.5148354,44.3001854,10.999327200000002
2418.415,16.981833800000004,183.4570342,-45.3597594,-0.8090531999999999,0.584305,0.6525871999999999,42.1397598,34.2611276,-94.812961,12.0280064,-75.8650406,-22.901246,-1.0078678,0.256946,0.0430952,79.4751388,75.4981506,-92.0505112,189.7429151496748,1.1924132954051962,80.15387945415122,1.040997572262241,37.335379,41.237023,2.762449800000001
2438.402,16.3556932,181.2601806,-45.0256622,-0.8933094,0.5716405999999999,0.5718894,43.7997894,37.5406824,-92.5654758,5.6696038,-66.4478752,-26.3467042,-0.9052912,0.2538158,0.0015115999999999,74.1990678,75.7527436,-97.6171922,187.48352468349228,1.2049199747406796,71.7050440906778,0.9402004584457722,30.399278400000004,38.21206120000001,-5.051716400000001
2458.389,22.2836762,175.33096,-44.4895316,-0.941468,0.5597612,0.5049304,45.764592,40.6707894,-90.180733,-2.3314136,-54.557508000000006,-21.7768616,-0.8752734,0.27056,-0.0113906,69.60444720000001,75.8512238,-102.3078248,182.25483856813088,1.206088431622491,58.78936017418359,0.916207391432704,23.8398552,35.1804344,-12.127091800000002
2478.376,28.2728118,167.8015228,-44.86495119999999,-0.9641834,0.5720145999999999,0.4633949999999999,48.0099472,43.6372202,-87.69308339999999,-6.3751182,-47.204586000000006,-19.7729484,-0.9420484,0.2473342,-0.0045452,65.4332512,75.87649400000001,-106.4769732,175.98172287841575,1.2130891383050628,51.57406867723769,0.9739866802350226,17.423304,32.2392738,-18.783889800000004
2498.362,30.829292200000005,160.3711516,-45.644203,-0.9799004,0.5960544,0.43777,50.466168200000006,46.4513818,-85.0994492,-7.323798599999999,-42.1545776,-18.4722858,-0.9506312,0.223824,0.0088986,61.63053520000001,75.84965980000001,-110.2457034,169.56634333076943,1.22765150371737,46.60334517225845,0.9766657803319416,11.164367000000002,29.398278000000005,-25.1462542
2518.349,27.0778612,150.9478744,-45.21882839999999,-1.0105796,0.612938,0.409238,52.9872994,49.0567216,-82.4267136,-8.616579999999999,-29.469627,-17.938384599999996,-0.8835032,0.2748368,-0.0279731999999999,58.7012964,75.887085,-113.0882556,159.88500178226,1.2507757034833065,35.559668284069325,0.9256865943518464,5.713997000000001,26.8303634,-30.661542000000004
2538.336,26.6220446,135.4768782,-44.111582,-1.0364452,0.5944734,0.351541,55.51353,51.3836022,-79.8169022,-17.8726992,-16.329583200000002,-18.6518364,-0.8769392,0.2690238,-0.0822648,56.4324486,76.04841619999999,-115.06065239999998,144.9432628722175,1.2454711359929622,30.56108089174478,0.9209580135826606,0.9189185999999993,24.664814,-35.2437502
2558.323,30.2318972,116.3480406,-40.6625678,-1.0420653999999998,0.6069468,0.3521044,58.0141662,53.37352080000001,-77.3909226,-25.5940784,-0.7894059999999996,-20.7664542,-0.889292,0.162725,-0.1469556,54.9571418,76.4002166,-116.0588046,126.9026342510675,1.2562890688081143,32.96855518549274,0.9159233784877204,-3.0570244000000018,23.0266958,-38.667882
2578.31,30.681389000000003,96.5708838,-36.529499,-1.0284608,0.6242474,0.3785412,60.325003,55.0181206,-75.2406526,-16.600943,14.4926328,-20.165346,-0.9166758,0.1448976,-0.1572046,54.7372604,76.90256500000001,-115.9532534,107.71113000091228,1.261233473089277,29.87087031314288,0.94127738900526,-5.587742600000003,21.8844444,-40.7126008
2598.297,26.748845200000005,76.459542,-31.7804878,-1.0093762,0.6395942,0.4025398,62.2895392,56.3281166,-73.4401582,-7.939073400000001,31.8453222,-20.878398999999995,-0.9206314,0.168159,-0.1461469999999999,56.03720080000001,77.6101396,-114.4734452,87.01472109470487,1.260935900188475,38.89808449365599,0.9472056638111702,-6.252338400000004,21.282023,-41.033287
2618.284,24.702161000000004,56.2889442,-27.2064672,-0.9850482,0.643686,0.4123054,63.87391500000001,57.335038,-72.0584932,-2.1993648,42.8412508,-21.3907674,-0.97712,0.1591698,-0.1057358,58.5359496,78.43367620000001,-111.893802,67.2222720140082,1.2468549898798975,47.935111406910096,0.9956297399303016,-5.337965400000002,21.0986382,-39.8353088
2638.271,24.087110600000003,38.2203316,-21.6476128,-0.9573958,0.6642212,0.4622582,65.0930892,58.054889,-71.10787819999999,3.7439154,48.31009,-21.070639199999995,-1.0110114,0.151104,-0.0578046,61.9979782,79.2801514,-108.4619432,50.09592582844751,1.25358652029061,52.83799328728367,1.0238739382986168,-3.095111,21.2252624,-37.354065000000006
2658.258,20.7341478,21.9718252,-16.1229268,-0.9398272,0.699532,0.511498,65.895813,58.5245874,-70.57037820000001,8.500085,49.3712358,-19.449281,-1.0351811999999998,0.1769766,-0.0086031999999999,66.2421974,80.06713260000001,-104.3408494,34.2434629704672,1.2783780305089103,53.74053312764386,1.0502356158649542,0.3463843999999995,21.5425452,-33.7704712
2678.244,14.286293600000002,6.133733399999999,-10.0900286,-0.9358376,0.7252914,0.5485614,66.21615919999999,58.7597292,-70.4513046,8.8422258,48.2121012,-17.8921946,-1.046856,0.1857796,0.0077684,71.0651642,80.764032,-99.6487092,18.534550099651582,1.3048981715282155,52.17971144823912,1.0632412203026742,4.849004999999998,22.0043028,-29.19740460000001
2698.231,7.815922400000002,-10.335543,-3.0568948,-0.9406752,0.7392582,0.5730668000000001,66.024306,58.7302576,-70.79535840000001,8.6778124,45.1860964,-15.4356922,-1.0585118000000002,0.175466,0.0043974,76.24315340000001,81.326245,-94.599466,13.313778497704469,1.3265662725339131,48.53193103115544,1.072965463107737,10.218847399999998,22.5959874,-23.8041076
2718.218,1.677324000000003,-28.2438636,4.791212800000001,-0.9489558,0.7543012,0.6012166,65.3047862,58.4031586,-71.632953,9.6578418,41.1874186,-12.200250199999996,-1.0601798,0.1715789999999999,-0.0086935999999999,81.5492126,81.73036499999999,-89.443048,28.696427773352987,1.3531255709617789,44.02866639029682,1.0740093762393326,16.2444264,23.3272064,-17.810095
2738.205,-6.101933999999997,-47.60751260000001,13.060372,-0.9597242,0.7630435999999999,0.622789,64.02622099999999,57.74720599999999,-72.96674820000001,10.6817262,38.2761972,-8.769271799999997,-1.0450984,0.1657416,-0.0294437999999999,86.93798519999999,81.98663780000001,-84.2237578,49.74215688204423,1.3751989725445553,40.69479911005004,1.05856878898424,22.9117642,24.23943180000001,-11.257009599999998
2758.192,-14.745810599999997,-67.610294,21.855292,-0.9730034,0.7620792,0.6368318000000001,62.226414,56.728913,-74.7460618,11.8029974,36.6722528,-5.839602799999997,-1.0367572,0.1540254,-0.0441495999999999,92.381836,82.113034,-78.9693968,72.56889535760327,1.3903435061075518,38.96493082135886,1.0490655378846263,30.155422,25.384121,-4.223334999999999
2778.179,-22.479916,-87.52190399999999,30.386126,-0.985146,0.7586082000000001,0.6466754,59.9946428,55.3178396,-76.8986986,13.835327,35.2461802,-1.7798913999999968,-1.0335776,0.155509,-0.0544365999999999,97.6987656,82.0839384,-73.8796796,95.33491992150698,1.4014949573182205,37.90616711412003,1.0466274636766988,37.70412279999999,26.7660988,3.0190189999999992
2798.166,-30.1170224,-106.9435226,38.1195968,-0.993256,0.7553838,0.6720916,57.425538800000005,53.5091192,-79.3103746,15.422389199999998,33.3320032,2.4306534000000037,-1.0331326,0.1662986,-0.0559996,102.57288680000002,81.9087112,-69.2633238,117.46086890762126,1.417345859566041,36.807344401790495,1.0479285036417705,45.147348,28.399592,10.0470508
2818.153,-38.28787419999999,-125.2277528,45.649343,-1.0018944,0.7464854,0.6952693999999999,54.628708800000005,51.30276779999999,-81.8534104,14.7348212,32.199904,5.323113600000004,-1.0278372,0.1594632,-0.0538473999999999,106.9496232,81.6376982,-65.130329,138.67881560795286,1.4298364870644753,35.80899763751689,1.0415264587828963,52.32091440000001,30.3349304,16.723081399999995
2838.14,-45.9695934,-142.2677232,52.7831854,-1.0049188,0.7410098,0.7155834,51.7254152,48.7052748,-84.4094436,13.4909526,31.8704936,7.571485000000004,-1.0217576000000002,0.1522104,-0.0477963999999999,110.8634582,81.2901916,-61.4345496,158.5540073377015,1.4391028179546588,35.42684786243779,1.0341378510038592,59.138043,32.5849168,22.974894
2858.127,-52.98364099999999,-157.74521499999997,58.8039344,-0.9942888,0.7285538,0.738672,48.8100648,45.7437674,-86.8902542,11.0422416,31.602975,9.926889600000004,-1.0183396,0.172163,-0.0361567999999999,114.1903396,80.8582138,-58.2759056,176.49000473095523,1.437023723145822,34.91736338176157,1.033422930693625,65.38027480000001,35.114446400000006,28.6143486
2878.114,-57.00961299999999,-171.49025579999997,64.2693876,-0.963535,0.7012012000000001,0.7624912,46.0157548,42.4580398,-89.213504,5.2178722,31.4945436,10.622808600000004,-1.0120206,0.1724976,-0.0196803999999999,116.9690094,80.3920792,-55.5485298,191.8060426348404,1.414735186946264,33.6448588854236,1.0268049644281432,70.95325460000001,37.9340394,33.6649742
2898.1,-59.6127006,-182.7779116,69.7506544,-0.9199432,0.6901949999999999,0.785349,43.4165214,38.8821266,-91.3164932,-0.2836648,32.7432932,10.760473600000005,-1.0090692,0.1591706,-0.0171753999999999,119.4784682,79.9016632,-52.978880200000006,204.51550755605524,1.3926369523505542,34.467252681294774,1.0216902293054193,76.06194680000002,41.0195366,38.337613
2918.087,-62.63234399999999,-191.7391816,73.99408100000001,-0.8712820000000001,0.6740362,0.7977475999999999,41.0006744,35.0764778,-93.1912246,-3.328203,34.307549400000006,10.995818400000005,-1.0090572,0.1735978,-0.0125385999999999,121.772409,79.37361000000001,-50.5610396,214.8530853830279,1.3600949804113682,36.18000695589248,1.0239579315219156,80.7717346,44.2971322,42.630185
2938.074,-62.9145004,-198.934256,77.26870579999999,-0.8140446000000001,0.6441285999999999,0.801575,38.8057058,31.0661942,-94.8440368,-7.4099626,38.04563900000001,10.967502600000005,-0.9959566,0.1856317999999999,-0.0219803999999999,124.0299866,78.78022759999999,-48.09090260000001,222.49387736938309,1.311523062989027,40.28230760436556,1.0133468568259143,85.2242808,47.71403339999999,46.7531342
2958.061,-58.94030239999999,-204.5232208,80.3053604,-0.7378412,0.6201454,0.8126834000000001,36.9018148,26.8929108,-96.2801956,-11.793976,45.3055816,11.528368600000004,-0.9819622,0.1927665999999999,-0.0360413999999999,126.416629,78.066301,-45.391155,227.4921053627639,1.260731637658927,48.21407342861937,1.0013529381883093,89.51481420000002,51.17339019999999,50.8890406
2978.048,-55.47896579999999,-208.138794,82.795134,-0.6618944,0.6119796,0.8210514,35.259281,22.6054336,-97.5138168,-17.5455492,56.1573502,12.557412000000005,-0.9784434,0.2159726,-0.0559837999999999,129.00180959999997,77.1628494,-42.3576934,230.7698148114046,1.2193230207822208,60.15964489882569,1.0035585866389465,93.7425286,54.55741579999999,55.1561234
2998.035,-52.66046759999999,-211.0403076,84.1390504,-0.593924,0.5916956000000001,0.8150345999999999,33.8177302,18.2270188,-98.5929076,-25.7678282,69.6381744,13.305616400000002,-0.9706604,0.242286,-0.0774359999999999,131.75397479999998,76.02656540000001,-38.9665684,233.21774392607225,1.1692436871895098,75.43537453803407,1.003434328703259,97.9362446,57.799546600000006,59.6263392
3018.022,-47.871325,-213.958545,84.9194062,-0.5226276,0.5680596,0.8111346000000001,32.5834692,13.755125199999998,-99.5569488,-37.7688732,83.57445680000001,14.262810800000002,-0.9531774,0.2452099999999999,-0.1082528,134.5635466,74.64864639999999,-35.251772,235.1196042126927,1.1197190079439931,92.81489850303852,0.9901483569034492,101.9800774,60.89352120000001,64.3051768
3038.009,-40.97573319999999,-216.2224702,85.4426636,-0.446649,0.5409212,0.8157743999999999,31.5825042,9.2217226,-100.4266068,-47.2832404,88.6255234,17.618475800000002,-0.9855348,0.2642676,-0.131683,136.887976,73.12829880000001,-31.827947199999997,236.0754457662428,1.0759084280299136,101.9833266282451,1.0288132089499045,105.3054718,63.9065762,68.59865959999999
3057.996,-35.849075199999994,-217.2055604,85.664299,-0.3780248,0.5190790000000001,0.8110479999999999,30.7645196,4.6435276000000005,-101.2175048,-51.7199126,79.101191,21.0327896,-1.0268352,0.24452,-0.1674139999999999,138.3404296,71.70025000000001,-29.2192146,236.2240118712209,1.0344779436798253,96.82110315074904,1.0687413184466297,107.57591,67.05672240000001,71.9982902
3077.983,-31.9747966,-217.4348756,85.3578262,-0.3091564,0.4916172,0.7873438,30.0889882,0.0360126000000001,-101.9511778,-47.749117,61.5796854,25.445805,-1.0515016,0.2143989999999999,-0.1912234,138.8182006,70.47078839999999,-27.7175426,235.7674091947152,0.978353417940184,81.9727077772882,1.0900407949756377,108.7292124,70.43477580000001,74.2336352
3097.97,-28.110768799999995,-216.9683228,84.82088619999999,-0.2304554,0.4653801999999999,0.7670094,29.5470976,-4.570281400000001,-102.640451,-38.5027046,37.0323366,30.130624800000003,-1.0590756,0.2126221999999999,-0.2103841999999999,138.2419616,69.536763,-27.523954000000003,234.6487825600751,0.9262784903200332,61.33275443357274,1.100504810556428,108.694864,74.10704439999999,75.116497
3117.956,-24.215080799999992,-215.489563,83.43874960000001,-0.1442956,0.4231924,0.736244,29.137848400000003,-9.1429972,-103.30542,-27.989478,12.0947152,32.9791596,-1.0698808,0.2152848,-0.2306692,136.8407684,68.93073580000001,-28.4314816,232.3448876883092,0.8613757920519476,44.914563143860896,1.1154374707478318,107.70292,78.07373300000002,74.8739384
3137.943,-22.206843399999997,-212.65682980000005,82.1510802,-0.0564019999999999,0.4049497999999999,0.7089532000000001,28.8171372,-13.657818400000002,-103.9446228,-17.9736366,-2.1375974,30.731770200000007,-1.0467374,0.200237,-0.2433857999999999,135.2816558,68.5718706,-29.7244096,229.05211444648384,0.8184009811298372,35.665987087124826,1.093156296404773,106.4645186,82.22968900000001,74.2202132
3157.93,-23.317439999999998,-208.9199676,80.1705382,0.0222343999999999,0.3892736,0.678571,28.5207816,-18.0845342,-104.5704194,-10.6390206,-2.4349259999999995,26.668016,-1.0311924,0.2133426,-0.2340951999999999,134.0362426,68.27327299999999,-30.8366494,224.9857130251081,0.7826154267846501,28.81493885693593,1.0787369435852097,105.515461,86.35780720000001,73.73377
3177.917,-27.798390599999998,-204.64865100000003,77.3331222,0.0941138,0.3573502,0.6375846000000001,28.1830604,-22.409778600000003,-105.1970582,-6.017995,6.020817200000001,22.4505422,-0.9976465999999998,0.2317181999999999,-0.2490707999999999,133.3638732,67.903458,-31.431316400000004,220.53170444466733,0.7369333042736229,24.010275896995054,1.054053284286634,105.18081279999998,90.3132366,73.7657418
3197.904,-29.515615199999992,-200.1157042,73.87142180000001,0.1669798,0.3096536,0.5989456000000001,27.847945200000005,-26.617693600000003,-105.8295196,-8.1073212,23.42179,15.473657800000003,-0.962677,0.242158,-0.2721086,133.5016388,67.36991900000001,-31.104753400000003,215.34728595190117,0.6946246737342117,29.2188807033324,1.0292864487046158,105.6536936,93.9876126,74.7247662
3217.891,-31.072346599999992,-194.1105986,70.507937,0.2398678,0.2929362,0.5654058,27.524462,-30.690219000000003,-106.4633284,-12.1363156,46.913307,8.887423200000002,-0.933954,0.2428718,-0.2930938,134.5203918,66.58231359999999,-29.729229600000004,208.84392352203315,0.6804644718285591,49.26596006529204,1.0085438815191334,106.9959298,97.2725326,76.7340988
3237.878,-35.091684,-186.7384398,65.6322428,0.3021198,0.2731194,0.5320718,27.1716998,-34.5847176,-107.1195402,-17.262883600000002,67.1076878,7.353896800000003,-0.9340896,0.2421534,-0.3095038,136.0280578,65.5146004,-27.697674,201.0230396741932,0.6700529684761048,69.68162390612369,1.0133875133304928,108.856358,100.099318,79.4218662
3257.865,-40.4757698,-178.1992338,59.58272040000001,0.361726,0.2373312,0.4874143999999999,26.76725,-38.2856914,-107.8114758,-22.4956022,91.1891448,5.129458800000003,-0.8967246,0.244999,-0.3420892,138.01949159999998,64.0847998,-24.9947826,192.20654369212883,0.6517243243095964,94.06287043928072,0.9905375000487362,111.2522416,102.3704912,82.8166932
3277.852,-43.2249236,-168.4324918,53.4467676,0.42344,0.2171522,0.4571258,26.3642658,-41.777941,-108.5362286,-29.960365000000003,109.95097660000002,0.0009744000000026,-0.8621945999999999,0.2476703999999999,-0.3729666,140.266684,62.3916166,-21.8072048,181.9188150826388,0.6598640076489094,113.95982067016618,0.9715061708609368,113.9024182,104.1695576,86.7290238
3297.849,-47.5494704,-157.12734060000005,46.5193268,0.482319,0.1988766,0.412251,25.945211,-45.0212996,-109.3069562,-33.545581600000006,112.546051,-1.9237461999999967,-0.8185285999999999,0.2435954,-0.4035648,142.3403596,60.6457252,-18.701867,170.6282540064045,0.664931881315342,117.4547591203476,0.94455933414379,116.3951486,105.6670248,90.6050892
3317.826,-50.8371834,-144.70058279999998,39.56221,0.5364206,0.17995,0.3692966,25.5103904,-47.9852386,-110.1084668,-32.2994322,94.9864748,1.041838200000003,-0.7962200000000001,0.245262,-0.4288556,143.8076174,59.116767200000005,-16.295391799999997,158.39143391859605,0.6756545281250766,100.33329029892528,0.9370362120512526,118.297227,107.1020058,93.813075
3337.812,-53.65151519999999,-130.5981262,32.5824564,0.5943548,0.1554018,0.3061323999999999,25.0539012,-50.644139,-110.9240262,-28.630841600000004,72.5286052,2.4331748000000024,-0.7563296,0.2573142,-0.4516146,144.7363496,57.905787,-14.579669999999998,144.8998692727666,0.686385018816728,78.0131014803867,0.9177149929531282,119.6824484,108.549926,96.3443562
3357.799,-52.8031158,-114.6515488,26.195509800000004,0.6572728,0.134426,0.2454942,24.6217246,-52.961058,-111.7201674,-23.1571686,40.6405366,5.475021400000003,-0.7342740000000001,0.2686168,-0.4651278,144.97453620000002,57.154397,-13.7811488,128.91606344482014,0.7143845500355394,47.09441083648063,0.909756650237348,120.35281160000002,110.115455,97.9390186
3377.786,-48.8883384,-96.6703874,19.4898508,0.7131364,0.1163802,0.1930616,24.2556654,-54.884473400000005,-112.4805542,-16.3137538,8.585786800000001,10.164747600000004,-0.7315392,0.2855666,-0.4672924,144.58044439999998,56.863431000000006,-13.8774592,110.0685591610304,0.747917547161156,21.05175507632973,0.9138162130701992,120.324779,111.7479044,98.603095
3397.773,-43.550809,-76.37328640000001,13.013996799999996,0.7571916,0.1113506,0.1489155999999999,23.950273,-56.3843834,-113.1685516,-10.3219532,-10.5543396,13.415863400000005,-0.7516193999999999,0.3016435999999999,-0.4605218,143.87178039999998,56.84681479999999,-14.4867132,88.87584572200322,0.7796883551485683,19.947987192260225,0.9316656654361368,119.9215074,113.2311982,98.6818384
3417.76,-37.74707819999999,-54.2056736,6.3832456,0.7914214,0.1056904,0.1106952,23.687374,-57.42732,-113.7583634,-6.9060984,-13.6316866,11.876727400000004,-0.7536814,0.3195135999999999,-0.455478,143.2083862,56.8930382,-15.1202868,66.36145558572815,0.8060841893581341,19.35390731622462,0.9367949625050938,119.5210122,114.3203582,98.6380766
3437.747,-29.50932199999999,-30.5849858,0.4032522,0.8127625999999999,0.09975,0.091657,23.4728022,-57.9907752,-114.2041886,-3.5862362,-10.7785094,8.681889000000004,-0.758861,0.3259718,-0.4555995999999999,142.7432556,56.9295516,-15.596288399999995,42.50181235691826,0.8239745821976305,14.297291756706928,0.9432383724363634,119.2704534,114.9203268,98.6079002
3457.734,-19.299276799999998,-6.748720200000001,-5.427260200000001,0.8153729999999999,0.0983066,0.1012896,23.3358314,-58.0710754,-114.4976792,-0.911611,-3.7455962,4.817215600000003,-0.7619158,0.3247956,-0.4558954,142.5589752,56.8997146,-15.8018056,21.153308550186896,0.8275003926287406,6.169772414413584,0.9454356053217796,119.2231438,114.97079,98.6958736
3477.721,-9.935868199999994,16.5794742,-10.738525200000002,0.8042082,0.1082786,0.1289324,23.2498322,-57.681166,-114.6290528,0.8928803999999999,6.2518976,1.9206270000000032,-0.7641667999999999,0.3236292,-0.4562336,142.6651366,56.7458656,-15.7032996,22.111453256339164,0.8216438692858118,6.600929259030045,0.9470141789243918,119.4153044,114.4270316,98.9257532
3497.708,-0.9248203999999944,38.3620516,-15.851042,0.7853228,0.1116614,0.1581286,23.2218666,-56.85081399999999,-114.615117,3.525591,15.967433,-0.7461625999999971,-0.7648455999999999,0.327957,-0.4572072,143.0558776,56.4684624,-15.3238704,41.51816263057751,0.8088292913759738,16.369039896536655,0.949517250722808,119.834011,113.3192764,99.2912466
3517.695,9.700047600000005,58.2034614,-20.8667812,0.7619971999999999,0.1134112,0.1955222,23.3072582,-55.6164848,-114.4817474,5.8666776,23.7156896,-3.072398599999997,-0.7561007999999999,0.3284604,-0.4569923999999999,143.6741606,56.0922646,-14.7232022,62.5871903829548,0.7948149242346421,24.62298666740434,0.9425585964737472,120.3669024,111.7087494,99.7585452
3537.682,20.468813000000004,75.14482960000001,-26.044397,0.7366501999999999,0.1125637999999999,0.2500974,23.549265,-54.0304854,-114.2743852,7.299018200000001,27.710574,-3.873198199999997,-0.7484482,0.325492,-0.4662086,144.40125419999998,55.6564156,-14.023988,82.12203319655217,0.7860488761630793,28.91631446761309,0.9399309596248012,120.8519892,109.686901,100.2503972
3557.668,30.162188800000006,90.140223,-31.3202988,0.7081296,0.1254456,0.2807638,23.9485616,-52.1307538,-114.016948,9.2472502,25.6752178,-3.856982399999997,-0.7611486000000001,0.3207448,-0.4696739999999999,145.12345280000002,55.259613,-13.3755792,100.07986087429308,0.7720184196934423,27.560928115227664,0.9501673980331046,121.1748912,107.3903668,100.6413688
3577.656,38.013244,103.7633104,-36.2391186,0.6806942,0.1456358,0.3150556,24.4766488,-49.9519864,-113.7128692,12.370856,14.917892,-3.845887999999997,-0.7765208,0.323825,-0.4673699999999999,145.71586,55.047222,-12.955988200000002,116.29748501784184,0.764077490341549,19.757844882601542,0.9624354006153556,121.2392112,104.9992084,100.756881
3597.642,44.36780780000001,116.2761126,-41.9054246,0.6498708000000001,0.1587788,0.3455068,25.1173174,-47.5043592,-113.3817474,13.679799399999998,-2.3498884,-1.4953571999999968,-0.7737168,0.3055412,-0.4639457999999999,145.9991088,55.098927200000006,-12.9467724,131.31908216726123,0.7529393819347744,13.9604792278878,0.95249084868954,120.88179140000004,102.6032864,100.434975
3617.629,49.930224,126.3373324,-47.0237238,0.6254192,0.164461,0.384615,25.8648864,-44.8371344,-113.0311752,17.0064808,-30.864237000000003,3.213026000000004,-0.7939042000000001,0.3022324,-0.4565588,145.7372466,55.5716856,-13.672272800000002,143.75458054148032,0.7524129813304925,35.38566165651864,0.9644035671049958,119.8723602,100.40882,99.3589024
3637.616,55.08256920000001,134.94053820000002,-52.4643122,0.5869668000000001,0.202414,0.4123906,26.725337000000003,-41.977655600000006,-112.675836,21.96629,-61.619079,9.322563800000005,-0.8188316,0.2981914,-0.432224,144.82761520000005,56.4768362,-15.2792298,154.904946125027,0.7453639773067922,66.0782792525457,0.9727388582597696,118.1022782,98.4544918,97.3966062
3657.603,56.70880360000001,143.22881479999998,-57.6812816,0.5512402,0.2401332,0.4378684,27.6332334,-38.9362288,-112.308087,29.2597424,-88.4511046,14.966760400000004,-0.8172333999999999,0.2928968,-0.4090038,143.330145,57.725849,-17.737365000000004,164.49167772800715,0.7438134494326114,94.3596012451595,0.9596577900169622,115.69691160000002,96.6620778,94.570722
3677.59,59.3706672,150.70670179999996,-63.35487619999999,0.5141207999999999,0.2551028,0.4588544,28.602989200000003,-35.709571,-111.9292526,34.7233418,-109.8135768,18.341103800000003,-0.8249295999999999,0.296466,-0.3768414,141.2509458,59.23452519999999,-20.9713198,173.92879701051402,0.7348094963729307,116.62387493121425,0.9541542720473036,112.6479566,94.94409620000002,90.9579328
3697.577,62.371193000000005,155.6576294,-68.5017198,0.4791328,0.2822619999999999,0.5137094,29.6505084,-32.3519138,-111.54783619999998,41.8628328,-120.8564546,18.9052986,-0.8538906,0.3361814,-0.3218267999999999,138.8430692,60.8594054,-24.710368,181.14068820181924,0.7570584021911387,129.2911045032789,0.9724811461784544,109.1925608,93.2113192,86.83746820000002
3717.564,59.59147640000001,160.422412,-74.0127442,0.4062082,0.3524475999999999,0.5507326,30.6649184,-28.8556774,-111.1668472,43.3689874,-113.7282624,14.655945600000004,-0.879818,0.3443946,-0.2868176,136.511395,62.382072400000006,-28.3581116,186.45208670176945,0.7697602283800846,122.59601738251848,0.9873964195311424,105.8464766,91.2377498,82.8087356
3737.551,54.636303600000005,166.1936706,-78.674916,0.3553792,0.378173,0.5628294,31.5854698,-25.2096494,-110.7544572,35.238296000000005,-100.3734902,3.309560400000003,-0.8952528000000001,0.3639644,-0.2494781999999999,134.4030882,63.8105324,-31.5280334,191.82076067563628,0.7655626213615709,106.43086126661927,0.998091695512211,102.8176184,89.0201818,79.22642379999999
3757.538,51.49926680000001,169.94859920000002,-82.95213759999999,0.2870154,0.4213873999999999,0.6289948000000001,32.45388820000001,-21.4401598,-110.3221452,18.1391444,-78.8209298,-7.457681599999996,-0.9383454,0.3855811999999999,-0.2118226,132.6515716,65.05161740000001,-33.884418,195.99938260971427,0.8096787258801852,81.2242854628316,1.036356003198399,100.1976834,86.4917772,76.43772720000001
3777.525,46.834801600000006,170.4260314,-87.4605696,0.2034727999999999,0.4418564,0.6912442000000001,33.263908,-17.617015199999997,-109.918477,4.710649599999999,-50.96116200000001,-12.362557199999998,-0.9695292,0.3540359999999999,-0.2089929999999999,131.5033508,65.9556946,-35.25957079999999,197.2001066288292,0.8452554658767018,52.65038530312477,1.053093743689345,98.2394428,83.5727098,74.6589062
3797.512,40.27483060000001,171.414038,-89.92233719999999,0.1034998,0.5167298,0.7180256,33.9642334,-13.751593,-109.5026002,-9.0939484,-31.308772999999995,-16.960214399999998,-0.9990026,0.3323417999999999,-0.2156803999999999,130.73951119999998,66.6510926,-35.8920118,197.71408935843357,0.8906641662621441,36.750347437287694,1.0746977722960815,96.7752778,80.40268560000001,73.61058840000001
3817.498,34.913119200000004,173.2276428,-91.961119,0.0392782,0.5066802,0.7100592000000001,34.5764426,-9.8417666,-109.0618654,-27.0211724,-17.4651994,-17.854030799999997,-1.0030990000000002,0.311514,-0.2084133999999999,130.07639480000003,67.1768602,-36.017304,199.20740330130795,0.8731847854674979,36.795969395568726,1.070833657155284,95.4999522,77.0186268,73.04456139999999
3837.485,33.1706372,173.3440644,-92.92818,-0.0334572,0.5307314,0.7675181999999999,35.180982,-5.9181222,-108.5992234,-33.5382264,-11.4630906,-16.0934332,-1.0587361999999998,0.263173,-0.2076339999999999,129.433194,67.597777,-35.9816244,199.4595259020681,0.9337448208740116,38.92574557184907,1.1105378188406911,94.252212,73.5158992,72.61759900000001
3857.472,29.2333142,173.476413,-93.3664902,-0.1007342,0.5580018000000001,0.7879066,35.733964400000005,-1.9960328,-108.1051118,-21.1163346,-25.1202866,-9.333307999999995,-1.0959686,0.2228866,-0.2060098,128.260707,68.07771779999999,-36.7850508,199.1631341858457,0.9707266341130444,34.11801612093177,1.1372183811131265,92.5267426,70.07375060000001,71.320061
3877.459,19.731672600000003,175.883551,-92.664534,-0.1841936,0.6112993999999999,0.8043996,36.128472,1.9529002,-107.5378754,-2.414651000000004,-48.7332724,-6.419488799999996,-1.0907168,0.2115294,-0.1650567999999999,126.284877,68.7616456,-38.8446868,199.7775720079718,1.0269727139517777,49.213536905182174,1.123232643797731,90.156405,66.80874539999999,68.69318860000001
3897.446,10.735450400000005,178.12168279999997,-90.6459366,-0.2683836,0.5688284,0.7585776,36.3898452,5.9111684,-106.8887162,12.437745799999998,-65.83825999999999,-5.447219799999997,-1.0192954,0.2212155999999999,-0.1665993999999999,123.6834334,69.5874818,-41.8830078,200.1481191540053,0.9854113255982396,67.2238514514196,1.0562456221092138,87.2935882,63.676313400000005,65.0057084
3917.433,11.874101200000004,178.019107,-86.17017519999999,-0.3479866,0.573732,0.7789112,36.7335258,9.813482,-106.1417312,24.3169152,-82.59537879999999,-5.638411999999997,-0.9925204,0.1882066,-0.1651433999999999,120.366687,70.5499618,-45.9252296,198.13403501262468,1.0280883906984848,86.28499669027764,1.023616535262732,83.63316119999999,60.736479800000005,60.2165016
3937.42,10.561734000000005,179.2308562,-81.262619,-0.4081786,0.58877,0.77403,37.1373764,13.667866800000002,-105.2629318,38.817331,-97.042993,-0.9336179999999968,-1.0177868,0.1895659999999999,-0.1336424,116.1726654,71.4973646,-51.1867034,197.07578056679364,1.054695369904486,104.522721543842,1.0438800360616156,79.035289,57.8294978,54.07622839999999
3957.407,3.354244200000005,183.5019744,-75.51146100000001,-0.4772226,0.5996494,0.7821269999999999,37.5206886,17.5099224,-104.187181,47.8540214,-102.6829772,-5.653800399999996,-1.0346224,0.2073388,-0.0730913999999999,111.430664,72.4307676,-57.1850158,198.4595835559624,1.095008427821503,113.42736279121726,1.057721722061696,73.9099754,54.92084520000001,47.00216520000001
3977.394,0.030988800000005,187.4650574,-69.6423982,-0.5451706,0.5530290000000001,0.6922729999999999,37.9735878,21.3353606,-102.9071608,42.6378974,-97.1594986,-14.536347199999998,-0.9591818,0.2375966,-0.0776361999999999,106.5107162,73.3423628,-63.2295462,199.98303011340332,1.0403335832675786,107.09464903913396,0.9912160457404026,68.5371284,52.0070022,39.677614600000005
3997.381,8.226190600000006,189.831189,-62.530633,-0.6026132,0.549343,0.6745713999999999,38.7630226,25.0965546,-101.392874,33.317456,-92.929364,-17.480745399999996,-0.9711994,0.1971417999999999,-0.0532809999999999,101.2528962,74.1513654,-69.4095288,200.034073578283,1.0582849210686127,100.2571495081326,0.9924374180917404,62.4898736,49.054810800000006,31.9833452
4017.368,11.936109600000004,194.174286,-57.061075800000005,-0.6575804,0.5768286,0.681354,39.8369508,28.8363296,-99.6060408,37.3487416,-91.9530366,-18.2387616,-1.042982,0.2010726,-0.0002255999999999,95.6868134,74.8240888,-75.9702206,202.73650492066383,1.1087770242740964,100.91056368768407,1.062187221581073,55.8498626,45.987759200000006,23.6358202
4037.354,8.113573400000007,199.0293428,-53.0984002,-0.7533028,0.5954691999999999,0.6660868000000001,41.093461000000005,32.5643636,-97.5171842,41.8489276,-87.54825,-22.6837182,-0.9895782,0.2604917999999999,0.0454518,90.1414078,75.39539160000001,-82.581448,206.15030796124572,1.1686403645992722,99.65229495957206,1.0242982270343537,49.0479468,42.831028,14.9357362
4057.341,10.072340400000003,199.023102,-50.917951200000005,-0.8634485999999999,0.5631280000000001,0.5787207999999999,42.6332384,36.215999,-95.19194,26.2168482,-74.6730996,-25.751659,-0.8593069999999999,0.2996633999999999,-0.0039161999999999,84.81944440000001,75.8618804,-88.6210584,205.6800547579698,1.182190506466111,83.22585460459774,0.9100670360863532,42.186206,39.6458814,6.570881600000002
4077.328,18.940911400000008,192.4702486,-47.480832,-0.9546734,0.586058,0.571728,44.5615152,39.673833,-92.688197,9.5168458,-64.0273216,-23.278477,-0.8784876,0.28385,-0.0519333999999999,79.6730104,76.1876144,-94.1253782,199.14312473249151,1.2576717322161457,68.78921250232723,0.9246666231076582,35.1114952,36.5137814,-1.4371811999999984
4097.315,21.018737000000005,181.196747,-46.5789132,-1.0265502,0.6169108000000001,0.564949,46.660225,42.907377,-90.1336758,3.3628017999999984,-52.177914,-24.6086482,-0.9077079999999998,0.2522691999999999,-0.1063342,75.0934434,76.49587240000001,-98.9123976,188.26482301096587,1.324217361643352,57.78779033298333,0.948093099132295,28.4332184,33.5884954,-8.7787218
4117.302,18.236164800000005,164.0668536,-45.1968834,-1.0930234,0.633812,0.5294204,48.7443054,45.8223054,-87.65012180000001,-1.7084300000000006,-32.903395,-25.7648032,-0.8415338,0.2632326,-0.1752043999999999,71.8357086,76.85431200000001,-102.233319,171.15270499144847,1.3699283792329149,41.82555701393175,0.8989811566571126,23.0914032,31.0320066,-14.583197199999995
4137.289,19.674942800000004,140.4673616,-43.1670952,-1.1215052,0.6256176,0.4704416,50.7739304,48.3325668,-85.3905378,-10.684412,-9.9427558,-26.075922,-0.8190329999999999,0.2162332,-0.2613568,70.1771378,77.31259159999999,-103.7260162,148.26186683383656,1.367657337956902,29.88258290098534,0.8864982959811484,19.403207400000003,28.9800248,-18.3354784
4157.276,24.183727200000007,114.4594728,-39.5812126,-1.0955644,0.6393248,0.4513846,52.7246902,50.4032362,-83.4401656,-5.523807800000001,9.581579,-23.6461948,-0.8895443999999999,0.1550891999999999,-0.2830823999999999,70.3127258,77.82490539999999,-103.486795,123.50099580903937,1.346382416536832,26.104820192143222,0.9462967529891244,17.5880356,27.421669200000004,-20.0466294
4177.263,25.107856800000008,91.6718484,-35.9438442,-1.032801,0.6685086,0.4721262,54.488141600000006,52.0870146,-81.79679100000001,6.1479826,24.697193400000003,-22.6971248,-0.9534712,0.1630518,-0.2264754,72.1885894,78.396289,-101.7115494,101.61738137757618,1.3177574900570288,34.101444633236305,0.9934708478449882,17.7004478,26.3092744,-19.9147584
4197.25,20.609326200000005,73.31247040000001,-32.087765000000005,-0.9729554,0.6964886,0.4937434,55.969833400000006,53.4554312,-80.42974240000001,13.081492799999998,35.7855886,-21.534096,-0.9785892,0.2094494,-0.1539698,75.4691878,78.9872498,-98.6479614,82.63829200355069,1.294419223189566,43.76586678979542,1.0125278133607196,19.4993544,25.5318186,-18.218219
4217.237,16.493653200000004,57.3537544,-28.0782496,-0.92758,0.7054852,0.4973306,57.169703000000005,54.5546286,-79.3213454,14.6491742,40.858005000000006,-21.7118186,-1.0101356,0.2273642,-0.1002931999999999,79.5897292,79.567502,-94.766243,65.95363401858377,1.267064224700311,48.53223613477208,1.040253399799895,22.4200262,25.012873400000004,-15.4448976
4237.224,15.520867200000009,42.331543,-22.9882344,-0.8952218000000001,0.7193723999999999,0.5362218000000001,58.1297746,55.3907462,-78.4871626,11.9566308,41.545614,-20.4098502,-1.0209624000000002,0.2307596,-0.0647705999999999,84.1611496,80.0692354,-90.3769364,50.60944350840293,1.2674590880467267,47.80754174720705,1.0487180010995711,26.031375000000004,24.6784892,-11.8897738
4257.211,13.529074400000004,27.9378258,-16.6503342,-0.876184,0.7396014,0.5986966,58.8201456,55.9623566,-77.9158078,7.350077599999999,39.0998512,-18.4978812,-1.0322732,0.2397954,-0.0316475999999999,88.7830018,80.4654252,-85.8469376,35.22487180279825,1.293501546806002,43.87474915572141,1.0602317500835183,29.962856200000004,24.50306860000001,-7.931129799999999
4277.197,9.873348200000006,13.197738600000005,-9.818255,-0.8755666,0.7511948,0.6428636000000001,59.1910806,56.2693298,-77.6591046,3.192216599999999,35.603245400000006,-15.910775599999996,-1.0410216,0.2233995999999999,-0.0229775999999999,93.1323564,80.75890360000001,-81.5083938,19.18492741913293,1.3206756251205518,39.12715310404646,1.064970104297994,33.94127580000001,24.4895738,-3.849289200000001
4297.184,7.093215400000005,-2.8412209999999987,-2.4556144,-0.8788398,0.750455,0.6803076,59.2210282,56.2827568,-77.7499462,1.3745377999999993,31.0422038,-11.767211199999997,-1.0544060000000002,0.2169778,-0.0269105999999999,97.0207308,80.9320404,-77.59902500000001,8.025975552113623,1.3410296535523738,33.22611970046711,1.076835901575166,37.7997026,24.6492836,0.1509211999999991
4317.171,4.821882400000005,-20.1146736,5.556626199999999,-0.8831792,0.7492994,0.7111582000000001,58.9008522,55.9782144,-78.2240034,-0.4177510000000007,25.28861,-7.716097399999997,-1.0589336,0.209571,-0.0331817999999999,100.2107622,81.0048248,-74.35947259999999,21.41790696217754,1.359117756333218,26.442890740544755,1.0799821318434857,41.30991,25.026610400000003,3.8645308
4337.158,0.6240576000000058,-37.7580276,14.264918400000004,-0.8925763999999999,0.7523192,0.7292396,58.2138602,55.3357142,-79.0558776,-1.566366200000001,19.5348712,-3.677716999999997,-1.056418,0.1930822,-0.0371001999999999,102.6315384,80.9973998,-71.8745818,40.36763546566901,1.3763964555075543,19.93966645170327,1.0745585844991792,44.417678200000005,25.6616856,7.181295800000001
4357.145,-4.352004999999994,-55.7635872,22.921918,-0.908852,0.7512596,0.7315702,57.17416899999999,54.3442804,-80.227855,-2.3030078000000005,14.7170216,0.1516524000000028,-1.0496241999999998,0.17825,-0.0459393999999999,104.3722472,80.9229324,-70.06291940000001,60.44776199108411,1.3876591447557285,14.896897937226838,1.0656427413528418,47.1980782,26.578652,10.164935600000002
4377.132,-10.029601399999994,-73.94080579999999,31.406917600000003,-0.9257294,0.7456003999999999,0.7223771999999999,55.799285,52.980607,-81.68679660000001,-1.8381396000000003,11.555999600000002,4.090022000000003,-1.0355896,0.178748,-0.0647241999999999,105.636836,80.7736648,-68.74263140000001,80.95819995361424,1.3909434559263578,12.395489659742063,1.052894054118362,49.837551,27.793057800000003,12.944165200000004
4397.119,-15.449518999999992,-92.7751526,39.9478544,-0.946125,0.7434183999999999,0.7162078000000001,54.1489388,51.2277476,-83.3820206,-2.5101026000000006,10.682227,6.818215000000004,-1.0146498000000002,0.1647402,-0.0826303999999999,106.6998944,80.5742218,-67.6130384,102.1848699585621,1.4002774888801148,12.918925827183964,1.0312523130350983,52.5509556,29.3464742,15.768982200000004
4417.106,-21.208058999999995,-111.2742448,48.2675564,-0.9644686,0.7462638,0.71413,52.292447800000005,49.0842478,-85.2374068,-1.9179474000000003,11.8950942,9.527154200000002,-1.0025202,0.1539242,-0.0933455999999999,107.7936048,80.315831,-66.4635694,123.13202801539892,1.4131847000574271,15.36028825922932,1.018554275330009,55.501157,31.2315832,18.77383740000001
4437.093,-27.024056599999994,-128.6134446,55.95745839999999,-0.9722416,0.7505866,0.7240572000000001,50.3033602,46.5638222,-87.1730162,-0.3087666000000006,14.450351800000002,12.153472200000005,-1.0047598,0.1565788,-0.0933617999999999,109.0181716,79.9881942,-65.2115224,142.83891247690528,1.4257954978684566,18.884249799057727,1.021163846796742,58.71481140000001,33.424372,21.961493800000007
4457.079,-33.38819959999999,-144.4853776,62.84896140000001,-0.9701598,0.7462821999999999,0.7326678,48.2386576,43.6950638,-89.1152998,1.0145381999999992,17.0251946,14.164751800000005,-1.0020458,0.1693034,-0.0899045999999999,110.3468644,79.59745480000001,-63.87742900000001,161.06144219459452,1.426516478954842,22.170402172327226,1.0202167728724911,62.108206800000005,35.902390999999994,25.237870800000003
4477.067,-38.675209,-159.7020784,69.3556188,-0.9620314,0.7448654,0.7581318,46.178065,40.5015526,-91.0052504,-0.2616226000000006,20.9447978,14.823320800000005,-0.985861,0.1770966,-0.0842451999999999,111.86701680000002,79.1585998,-62.3188216,178.3556208691062,1.433559452856546,25.66093998292791,1.0051777806814075,65.68895180000001,38.6570472,28.686428800000005
4497.053,-44.44574339999999,-173.57796639999998,74.8349592,-0.9389152,0.737718,0.7782131999999999,44.143387800000006,37.0111728,-92.8077422,-3.2532144,25.5853692,14.831104200000004,-0.9695798,0.1982436,-0.0810445999999999,113.5704164,78.6653564,-60.5070748,194.1777681517733,1.4252737929848005,29.75157429152168,0.9929520334327132,69.4270286,41.6541836,32.3006674
4517.04,-48.58379339999999,-185.916684,79.5203688,-0.8937215999999999,0.7228584,0.8009484,42.1825776,33.2504214,-94.4985808,-9.1123798,32.6037568,14.306350200000002,-0.962197,0.2066692,-0.0760433999999999,115.56569220000002,78.10813279999999,-58.2708314,207.9636685211572,1.400992828040058,36.75203503396832,0.9870753890768426,73.3831146,44.85771139999999,36.2277494
4537.027,-50.4808828,-196.5286286,83.57232200000001,-0.8293063999999999,0.6992674,0.8146951999999998,40.3449562,29.2525912,-96.0624556,-14.0986818,40.4442914,14.003612200000005,-0.9634894,0.2280567999999999,-0.0771233999999999,117.8414428,77.46093900000001,-55.6370874,219.44510564634552,1.356632695568981,45.062342260403575,0.9931111452230108,77.4964866,48.2083478,40.4253682
4557.014,-50.5635718,-205.2491088,87.08577419999999,-0.7544594,0.6865648,0.8320392,38.6648858,25.051546,-97.491899,-19.6134384,51.1645298,13.716723000000002,-0.9589374,0.2353778,-0.0741273999999999,120.507553,76.690367,-52.478779800000005,228.62152900455675,1.3163849897290838,56.48579082729047,0.9901810527789148,81.84266720000001,51.63882099999999,45.0131192
4577.001,-49.60846939999999,-211.68505840000003,89.7423692,-0.662832,0.6531212,0.8243805999999999,37.153083800000005,20.6750438,-98.7845534,-26.974047,64.57656560000001,13.474551000000002,-0.9490174,0.2634898,-0.0752101999999999,123.553926,75.73959640000001,-48.7625414,235.21321607352607,1.243188214137264,71.2691767940455,0.987784123374556,86.4008422,55.0645526,50.022012
4596.988,-46.14123839999999,-215.8971006,92.8426972,-0.5647852,0.6390202,0.8258890000000001,35.850401999999995,16.152806599999998,-99.9257232,-40.868812000000005,83.695684,13.357997800000003,-0.9530094,0.2675889999999999,-0.0852607999999999,126.92811740000002,74.5134948,-44.3945916,239.50018445074952,1.187190708550265,94.09390745284205,0.993529160833239,91.0777154,58.360688200000006,55.5311316
4616.975,-43.9809166,-217.9300078,95.1677658,-0.4658428,0.609232,0.8082505999999998,34.713742,11.5331298,-100.9246628,-52.49731799999999,95.93291940000002,13.6852616,-0.99307,0.286525,-0.1004861999999999,130.1444368,73.075705,-39.920745200000006,241.8361283432396,1.1142002407719178,110.21061567226842,1.03845176918114,95.4306948,61.5425752,61.0039176
4636.962,-40.40310559999999,-218.5846892,96.9083678,-0.368647,0.5807249999999999,0.787634,33.752646600000006,6.862520000000001,-101.7973816,-61.75657020000001,93.8862824,15.3570698,-1.0168282,0.2609332,-0.1209337999999999,132.683304,71.61724699999999,-35.9496664,242.49311133400352,1.0457100239502344,113.42110728873244,1.056716947512398,98.9306574,64.754727,65.8477152
4656.949,-36.0219762,-217.8129578,98.079225,-0.2741049999999999,0.5494474,0.7622093999999999,32.9584528,2.162895,-102.5613814,-62.04737560000001,80.30786040000001,19.038125200000003,-1.05567,0.2662228,-0.1367147999999999,134.2363954,70.2736282,-33.002332,241.57732039978129,0.9787692096914982,103.2554089237181,1.0972714635307343,101.2779426,68.1107332,69.55904939999999
4676.936,-32.99164739999999,-216.0060364,98.6628552,-0.1899186,0.5337719999999999,0.7461634,32.2913416,-2.5224706,-103.2327866,-58.039297,58.0995462,24.413461000000005,-1.0868822,0.2524038,-0.1542788,134.54678660000002,69.14759219999999,-31.4471446,239.7528217886501,0.936878563160413,85.67458399606423,1.1264202337763292,102.255445,71.67006280000001,71.785642
4696.922,-31.5074404,-213.418573,97.6127576,-0.1133184,0.4872599999999999,0.7184814,31.7071384,-7.160316399999999,-103.8442062,-45.3809012,24.355903,29.32164180000001,-1.1056868000000002,0.2514624,-0.1697512,133.50500499999998,68.4062866,-31.5976458,236.78778800477076,0.8754878008998869,59.26546112633461,1.146556631052056,101.7978666,75.566603,72.24656039999999
4716.909,-27.601130199999997,-210.3737976,96.2644834,-0.0448494,0.4551332,0.6868877999999999,31.245930200000004,-11.7379048,-104.4095,-32.4845104,-3.506972800000002,33.40902560000001,-1.0743044000000002,0.24916,-0.1895771999999999,131.56260079999998,67.9780792,-32.9914584,232.99314983327724,0.8252106083972988,46.73013230977528,1.1189951582644138,100.3166706,79.715984,71.4180416
4736.896,-25.412777199999997,-206.3289094,94.0391814,0.012254,0.4277156,0.6592412,30.865358800000003,-16.2391584,-104.9461746,-22.352496800000004,-15.3804276,33.755210000000005,-1.035771,0.259652,-0.2005265999999999,129.43480540000002,67.7018006,-34.8056562,228.1683495526765,0.7859324110741329,43.30826559095795,1.0864859147050918,98.5694466,83.94095899999999,70.14051839999999
4756.883,-26.921136599999997,-201.4630036,90.7297454,0.065281,0.3978221999999999,0.6393894,30.4915998,-20.628628,-105.4720902,-19.1947566,-10.801262000000005,31.1835048,-0.9965882,0.2719412,-0.2262143999999999,127.6937532,67.3916718,-36.2725066,222.584761643106,0.7558722885555469,38.17743984786711,1.0575031968765107,97.2021534,88.0202998,69.1995836
4776.87,-28.290504199999997,-195.815143,86.0143448,0.1146071999999999,0.352418,0.5987986000000001,30.1352284,-24.8764138,-106.0105454,-18.114746000000004,1.8511134,27.475383000000004,-0.9712486,0.2776596,-0.2571137999999999,126.6325638,66.9604508,-37.0310332,215.73685444859427,0.7041967199425173,32.96160363909597,1.04236567605834,96.4973354,91.8368646,68.9795122
4796.857,-28.6639226,-188.8205294,81.11443320000001,0.168002,0.3263168,0.5643904,29.8107044,-28.9486836,-106.5567186,-19.3804192,25.098757600000003,21.408375400000004,-0.940109,0.2730688,-0.2849622,126.5984116,66.32206579999999,-36.646185200000005,207.4954555046262,0.6732338743545218,38.26051252529966,1.0195954868688268,96.7877072,95.2707494,69.9105334
4816.844,-31.49722939999999,-180.5668,74.8919624,0.2176598,0.2973986,0.5401764,29.470783800000003,-32.8064836,-107.1251574,-22.12907,53.2604218,14.201418,-0.9136918,0.2640699999999999,-0.3120275999999999,127.6628342,65.4312156,-34.9943602,198.00315844510976,0.6539206824493013,59.397378246767246,1.0009629830563165,98.1920504,98.2376992,72.1307972
4836.831,-35.693602799999994,-171.809491,68.14884020000001,0.267473,0.2637177999999999,0.5089024,29.0881762,-36.4406854,-107.721332,-25.4126882,81.5421376,8.989539800000005,-0.882564,0.2699716,-0.3402017999999999,129.6214738,64.2282148,-32.270376799999994,188.24664379246815,0.6325112935684232,85.8821096139559,0.98363669290333,100.5332976,100.6689002,75.45095520000001
4856.818,-37.13243719999999,-162.7655822,61.3692946,0.3270088,0.2285368,0.4583788,28.724764800000003,-39.8618074,-108.3514834,-30.897381800000005,104.7293548,2.9455788000000025,-0.8330012,0.254747,-0.3714626,132.12919159999998,62.7568854,-28.7869692,177.86973593340295,0.607679972124407,109.2316913417817,0.9469801985306768,103.4044268,102.6186928,79.5645142
4876.805,-38.3748466,-152.462561,54.7731032,0.392727,0.2129408,0.4290201999999999,28.3825244,-43.0488526,-109.008478,-36.294431800000005,122.8789092,-3.262946599999997,-0.8098471999999999,0.2470624,-0.3979495999999999,134.919272,61.07186419999999,-24.8253268,166.48589787849932,0.6193840592408558,128.16847867701773,0.9355512818556552,106.53674759999998,104.1207168,84.18315120000001
4896.792,-41.93328459999999,-141.2999756,47.40588219999999,0.4589098,0.1869019999999999,0.3881114,28.0217708,-45.986744,-109.7048784,-37.75347520000001,127.2884612,-6.225834799999998,-0.7736713999999999,0.253304,-0.4170223999999999,137.56973279999997,59.298033,-20.941025,154.82700387550446,0.6294132354423443,132.91515437788803,0.914679197148224,109.547962,105.284777,88.76385339999999
4916.778,-44.44537559999999,-129.1506776,40.6213836,0.5304987999999999,0.1723438,0.3447804,27.653405400000004,-48.6619964,-110.42287159999998,-37.093330400000006,114.1092536,-5.647942599999998,-0.7386474,0.2634806,-0.4360668,139.6544312,57.6532776,-17.6807694,142.49696748472428,0.6557475782830158,120.11967437903571,0.8973161439344329,112.0010258,106.315274,92.7421022
4936.765,-45.638767,-115.201294,33.476279,0.6064362,0.156739,0.2902446,27.2959404,-51.0348762,-111.1536928,-35.01077640000001,90.2666196,-4.214535399999997,-0.723463,0.2873884,-0.4598136,141.0408448,56.305369,-15.251071,128.35457314891656,0.6903433251800151,96.910161421699,0.9041124662167422,113.7449044,107.3402452,95.9026218
4956.752,-46.0300352,-99.1137384,26.1157096,0.6788798,0.1413246,0.2405517999999999,26.938282,-53.0494864,-111.8711,-29.467994800000007,60.8986726,-1.0748499999999974,-0.7259366,0.315922,-0.4716553999999999,141.725995,55.34186199999999,-13.7511412,112.35803294846524,0.7339724748901965,67.66214853592308,0.9215473257802445,114.787713,108.3913484,98.1199588
4976.739,-44.0041778,-81.3306236,18.287215,0.7418562,0.1276596,0.186573,26.616074,-54.67189080000001,-112.5645128,-22.747295600000008,31.7480488,1.4158824000000028,-0.7156694,0.3380958,-0.4698612,141.8524414,54.7876986,-13.060960400000004,94.2627192026366,0.7755366395468366,39.08174487777626,0.9204678198282872,115.2363674,109.4595894,99.5035524
4996.726,-38.34923619999999,-61.8230246,10.3838748,0.7930802,0.1221596,0.1445121999999999,26.3792694,-55.87096379999999,-113.21094680000002,-17.409939800000007,11.1511758,4.980709400000003,-0.7350291999999999,0.3612614,-0.4713644,141.59944760000002,54.51489359999999,-12.949323,73.48860553635285,0.8153422271985181,21.266456961360028,0.9449667304037532,115.2201782,110.3858574,100.2616238
5016.713,-31.800815199999988,-40.6231624,2.3655616000000004,0.8273197999999999,0.1185886,0.1139598,26.2190364,-56.6202222,-113.7841218,-10.647672600000003,2.7504632,5.904980400000003,-0.744306,0.3842846,-0.4707616,141.2983826,54.3608476,-13.0549082,51.64425478642052,0.8435094211317617,12.482258334761754,0.9608759334418362,115.0793462,110.9810698,100.7292136
5036.7,-23.604304599999995,-18.892078799999997,-5.5942528000000005,0.8411074000000001,0.1143807999999999,0.1114038,26.154671,-56.9099714,-114.2716432,-5.171252800000003,2.7700714,5.101098000000003,-0.752876,0.3881777999999999,-0.464692,141.1208618,54.2227386,-13.140971,30.74686165164337,0.8561281635350166,7.774082060810129,0.9661485034159292,114.9661908,111.13271,101.1306722
5056.687,-13.439672799999991,2.5188496000000056,-12.9486602,0.8349332,0.1169686,0.1263392,26.208126,-56.7506888,-114.6556382,-2.0790636000000027,7.8075116,4.194752400000003,-0.7543802,0.3829695999999999,-0.4607295999999999,141.11358639999995,54.0222434,-13.0938064,18.831813753686703,0.8525002611758193,9.10360865449989,0.9633415619562772,114.9054604,110.7729322,101.5618318
5076.684,-3.7730703999999946,23.30915180000001,-19.3071522,0.8165096000000001,0.1284824,0.1562034,26.3464824,-56.161912400000006,-114.909764,0.9005265999999972,15.8399898,3.660766400000002,-0.750273,0.378781,-0.4690645999999999,141.3188324,53.7012244,-12.8594556,30.501126929226142,0.8411867546350692,16.282427204098923,0.9624999841367065,114.97235,109.8631368,102.0503084
5096.661,4.499469400000005,42.80524080000001,-24.9360928,0.7888805999999999,0.1408592,0.2021224,26.5373302,-55.1833418,-115.028105,4.596827199999997,23.149381800000004,1.2245046000000026,-0.7458208000000001,0.3680498,-0.4747652,141.7746918,53.2973174,-12.4074244,49.74276418694215,0.8264547052699016,23.63311468140102,0.9576592902090598,115.2373616,108.4806592,102.6206806
5116.648,12.548838000000003,60.419920200000014,-29.9754196,0.7578486,0.140702,0.2434985999999999,26.7860866,-53.846939,-115.0205564,7.2547815999999985,28.1211142,-0.9167725999999974,-0.7366382,0.3498404,-0.4815679999999999,142.41419380000002,52.841922,-11.7958454,68.60441583688821,0.8083459169983603,29.056314148791323,0.9470648772895128,115.6281072,106.688861,103.224711
5136.635,22.737431000000004,75.91170040000002,-34.1681026,0.7271556,0.1413884,0.2643232,27.1421944,-52.1964622,-114.8919614,9.928096599999998,27.1333366,-2.696143799999997,-0.7308093999999999,0.3412866,-0.4849982,143.1248536,52.4253236,-11.1614034,86.2962123235038,0.7865193578826652,29.01817100608013,0.9411600164005904,115.9826592,104.6217858,103.730558
5156.622,33.097967000000004,89.9495796,-38.111341200000005,0.700872,0.1515159999999999,0.2914647999999999,27.6231388,-50.261351000000005,-114.6538664,11.330062799999997,17.968204800000002,-5.436743999999997,-0.753831,0.3393584,-0.4859494,143.7698488,52.1983316,-10.6416346,103.14493016049138,0.7740351337497801,21.92680761324418,0.9589432306304267,116.14671,102.4596826,104.0122318
5176.608,40.42635680000001,103.16221320000002,-41.99824,0.6768306,0.1628886,0.3220822,28.1793032,-48.0672464,-114.313266,13.504496799999998,-2.507030199999998,-7.359737599999997,-0.7820309999999999,0.3346148,-0.4795661999999999,144.17218040000003,52.3379656,-10.4780392,118.49297329184024,0.7670523454518341,15.582758798934671,0.976485171173879,115.9928772,100.405212,103.83522680000002
5196.595,46.6739868,115.78558220000002,-46.4792298,0.6512256000000001,0.1729662,0.3210456,28.8092252,-45.601324,-113.8902544,16.046388799999995,-27.043233999999995,-5.904096799999998,-0.7790744000000001,0.3257174,-0.4648443999999999,144.19088140000002,52.85893560000001,-10.8520576,133.210663582165,0.7463795051561639,31.995022389791995,0.9639134098089308,115.3816562,98.4602596,103.0381968
5216.582,54.6503784,127.6423296,-51.1520418,0.6174152,0.1940712,0.3147966,29.5630568,-42.8864322,-113.3961002,18.8938506,-53.8211286,-0.956902399999997,-0.7948068,0.3118986,-0.435688,143.69058840000002,53.75911180000001,-11.9298498,147.97215800713045,0.7196958102087576,57.04916420488545,0.9585523560829632,114.1275316,96.645544,101.4662504
5236.569,59.416541200000005,138.546782,-55.7775698,0.5774586,0.2287128,0.3721953999999999,30.3752798,-39.9451144,-112.8287112,22.807296399999995,-86.5657268,6.465138000000003,-0.826647,0.3105471999999999,-0.4126801999999999,142.44269100000002,55.075186200000005,-13.99213,160.7379030083468,0.7240838317342544,89.75297117560362,0.9747254862313184,112.0674112,95.0203006,98.8365812
5256.556,57.625466800000005,148.5529602,-60.4207262,0.5258676,0.2805998,0.4170209999999999,31.1478564,-36.7867384,-112.2093004,31.7166568,-104.9029708,14.127930000000005,-0.7981532,0.3230684,-0.3905792,140.7480558,56.5410926,-16.783564000000002,170.4093323812873,0.7274472454623772,110.49967424078471,0.945501894879878,109.6001994,93.327831,95.4257364
5276.543,55.623792,156.84968859999998,-66.11570839999999,0.4632654,0.3238608,0.4218108,31.898542,-33.424713999999994,-111.57603,37.308013,-107.5145096,18.3399676,-0.797336,0.3128942,-0.3488993999999999,138.87794780000002,57.957981,-19.8892436,179.07294029978414,0.7052836306128479,115.271904730102,0.9248666220650414,106.9794058,91.382695,91.6867864
5296.53,56.8144216,163.4303342,-71.3859796,0.3973547999999999,0.3463172,0.474891,32.7000946,-29.9021218,-110.9352402,40.4078986,-110.4885758,19.4824702,-0.8193382,0.325952,-0.3079579999999999,136.7783142,59.356993,-23.2973186,187.17187481541623,0.7094701558063454,119.248020095405,0.9340224419398284,104.0782196,89.25911479999999,87.6379216
5316.517,52.6722242,167.7625974,-75.30316780000001,0.33451,0.4122978,0.5900972,33.4472534,-26.263483200000003,-110.2831344,37.1526172,-104.1436876,14.938860200000002,-0.8552386000000001,0.3598966,-0.2937329999999999,134.6652802,60.6701362,-26.604519000000003,191.2830869922496,0.7937890912784579,111.57685322597726,0.9732613733784568,101.2180268,86.9336194,83.6786154
5336.504,42.10410360000001,170.82034579999998,-79.63946080000001,0.2589664,0.4718074,0.6190747999999999,34.035135600000004,-22.5288398,-109.652922,29.8468042,-77.019127,4.551775600000003,-0.847269,0.3862064,-0.2879625999999999,133.16860659999998,61.6868826,-29.0050108,193.1185899795922,0.820316662648492,82.72542720293454,0.974649988847648,99.133471,84.21572239999999,80.6479112
5356.491,38.205229800000005,172.63333419999998,-84.08683920000001,0.189385,0.4692586,0.6029562,34.589997800000006,-18.7216644,-109.0556412,16.1814674,-57.76982400000001,-5.537734999999997,-0.9003074,0.3606,-0.2669652,132.0662354,62.57365480000001,-30.628182400000004,195.78688461622332,0.7871635732282078,60.248310857139096,1.0059106284883363,97.4762376,81.2953192,78.4274588
5376.478,39.16054520000001,174.31190180000002,-85.82191300000001,0.1264526,0.4951464,0.6868548000000001,35.200816999999994,-14.8689366,-108.4416168,4.660897799999996,-48.3616208,-11.728898199999998,-0.960157,0.361136,-0.2709178,131.0816436,63.4184616,-31.846533800000003,198.20087830399157,0.8561131547656303,49.98137040629239,1.0609981760124942,95.8808266,78.2873982,76.595083
5396.464,29.533940600000005,175.594513,-86.470819,0.0714996,0.5644522,0.7453700000000001,35.6520438,-10.9899638,-107.7954954,-8.938510400000002,-29.3265276,-18.7507068,-0.980989,0.3728595999999999,-0.2571504,130.51788000000002,64.1087212,-32.2805726,197.94668267390156,0.9377072655072052,35.93787966399849,1.0805045245871578,94.8658362,75.098685,75.51492280000001
5416.451,18.78306760000001,176.7306978,-87.994934,-0.0131992,0.5815672,0.7330730000000001,35.9331084,-7.0852384,-107.1458052,-18.1523664,-9.684815400000002,-22.668586999999995,-1.0009886,0.3302609999999999,-0.2558512,130.47394680000002,64.6008294,-31.929327,198.31704814010683,0.9358368716424248,30.613214333494856,1.084670614515024,94.5408384,71.6860678,75.21647820000001
5436.438,18.55902840000001,177.895441,-87.8220764,-0.0830791999999999,0.5394694,0.6929884000000001,36.250032,-3.1667152,-106.4658966,-18.754772000000003,-11.1998124,-21.007762,-1.0133756,0.2848906,-0.2330935999999999,130.3145566,65.098198,-31.6910576,199.2584817942361,0.8821350857683647,30.306819939014087,1.0781583311391143,94.0645246,68.2649132,74.774839
5456.425,21.468298200000007,178.6754062,-84.21530920000001,-0.147847,0.5847258,0.7873552,36.6689826,0.7230307999999998,-105.6946304,-15.968431600000006,-28.0805134,-17.260816199999997,-1.0507812,0.2679782,-0.222031,129.4842878,65.7448808,-32.2464104,198.69073182207248,0.991812082786694,36.62569885287707,1.1069106607625026,92.81530519999998,65.02185,73.44822000000002
5476.412,11.900405000000006,179.8060976,-81.7930054,-0.221124,0.6237492,0.7999936,36.9601516,4.5986974,-104.8442536,-3.5182690000000023,-41.6076512,-17.745208399999996,-1.0321028,0.2377892,-0.1958684,128.3150602,66.5392074,-33.4333382,197.89377985593475,1.0382430582082405,45.37033476068535,1.0770999598565771,91.3549086,61.94051,71.41091540000001
5496.399,6.345749200000006,180.01434039999998,-78.7142578,-0.321044,0.611016,0.7755126000000001,37.2093422,8.4327674,-103.91887219999998,14.796449199999998,-57.1143356,-16.653076199999994,-1.016359,0.1949228,-0.2211978,126.7931288,67.4847702,-35.3941964,196.57407169706087,1.0381857227638802,61.30503394404585,1.0582575213839398,89.5837866,59.0520028,68.5246758
5516.386,10.363052800000006,180.0044954,-73.6176864,-0.374978,0.5673166000000001,0.7205082,37.6185386,12.200086,-102.880066,33.2530828,-83.7826728,-14.805196599999997,-0.9650554,0.2212742,-0.2086085999999999,124.383415,68.69212639999999,-38.703877,194.7525994138023,0.9907515790483508,91.34822178663453,1.0118358289014873,86.7648764,56.49204039999999,64.176189
5536.373,17.138181600000006,180.5239472,-68.10511840000001,-0.4166468,0.6118014,0.7964562000000001,38.2550124,15.89885,-101.695906,40.7576286,-96.2346954,-13.738032199999996,-1.028678,0.2264711999999999,-0.1644117999999999,121.3030698,69.98117520000001,-42.8742936,193.70317481523367,1.087307678401399,105.40889154409392,1.0660670110704489,83.04805739999999,54.0823252,58.82161240000001
5556.36,6.859037400000005,183.666339,-65.375392,-0.4701928000000001,0.6370384,0.7664915999999999,38.8178574,19.5874312,-100.356761,51.8278046,-94.6581924,-18.7709858,-1.0319206,0.28115,-0.117249,118.179765,71.2544998,-47.29167640000001,195.07514540522888,1.1020020712852403,109.5383249187014,1.0759427378840194,79.3619076,51.66706860000001,53.0650846
5576.347,5.208774800000005,185.0128632,-63.009799,-0.5503402,0.5969051999999999,0.7164704000000001,39.4737412,23.246618,-98.8866956,43.37116279999999,-90.9522064,-22.398662599999994,-0.9400818,0.3121276,-0.1066999999999999,114.6609434,72.47483059999999,-51.91764980000001,195.5175840030749,1.0828203856592469,103.22335829608016,0.9962742189643372,75.1872022,49.228212600000006,46.9690458
5596.334,12.814847800000004,185.6686584,-59.4472624,-0.6055856000000001,0.5723927999999999,0.660395,40.436248,26.8512182,-97.2494276,31.7696066,-86.1011824,-21.9851368,-0.9415346,0.29867,-0.0887475999999999,110.7492582,73.57758779999999,-56.68925779999999,195.37412326878783,1.063244559094567,94.37196487469966,0.9917496198148604,70.31301020000001,46.7263696,40.5601698
5616.321,20.916920800000003,186.7977752,-56.4438888,-0.6662758,0.595688,0.6834247999999999,41.7442314,30.4063376,-95.412097,25.912083399999997,-79.0892546,-22.9255774,-1.0157234000000002,0.2483346,-0.0433861999999999,106.611157,74.5488586,-61.5451812,196.25707370255464,1.1250942592799411,86.32571087709367,1.0465402339208754,64.8669256,44.142521,33.8669158
5636.307,15.427659200000004,189.0583008,-54.6389488,-0.7489484,0.6337903999999999,0.6692138,43.1777024,33.9266658,-93.3333022,28.671426999999998,-72.8650664,-25.3283944,-0.9766028,0.2751698,-0.0243485999999999,102.5150968,75.4298432,-66.3912184,197.3992616393072,1.1876283455295094,82.29760744137516,1.0149208353964558,59.3373944,41.5031774,26.9420838
5656.294,15.926590200000009,187.7443788,-54.1633254,-0.8508019999999998,0.6061432,0.6138082,44.8384246,37.3827118,-91.0626998,19.315888999999995,-63.43892039999999,-25.572004,-0.8739772,0.2703732,-0.0542265999999999,98.4180098,76.18849479999999,-71.0264562,196.04916185687432,1.2116245823263407,71.07409920606713,0.9164487642774364,53.5795852,38.805783,20.0362436
5676.281,20.611595600000005,181.5831238,-51.5301384,-0.9221992,0.6062000000000001,0.5714292,46.7907112,40.6617996,-88.62873540000001,11.605163599999996,-50.945094,-23.1203538,-0.9115402,0.2542798,-0.0995525999999999,94.7054914,76.8008362,-75.094229,189.875285083834,1.242763507306712,57.13696863405316,0.9515642243542156,47.9147802,36.13903659999999,13.534506399999998
5696.268,24.107884200000008,170.99013680000002,-49.8185044,-0.9878675999999998,0.6209246,0.5519618000000001,48.9452706,43.7200776,-86.1295044,6.243962999999996,-42.6988378,-24.3767048,-0.9181906000000002,0.2351942,-0.1270087999999999,91.2951308,77.37249,-78.7320708,179.72395595505944,1.2907717004467365,49.56209802179908,0.9563061878496032,42.3498602,33.65241239999999,7.397433599999999
5716.255,23.270287400000004,156.9087312,-48.5984832,-1.0387308,0.6421922,0.5344782,51.145414,46.5116196,-83.6589004,1.4871509999999968,-30.0043468,-24.6855766,-0.8852594,0.2446322,-0.1607993999999999,88.7273728,77.89390859999999,-81.40347140000002,165.90258820106797,1.3330564289949318,38.88251711329835,0.9324084757259342,37.5819588,31.382289,2.255428999999998
5736.242,23.241158800000004,139.31668860000002,-46.5721702,-1.0644848,0.6357760000000001,0.4816734,53.3448844,48.9781562,-81.2958342,-3.622709200000002,-15.0321376,-23.6174656,-0.8672308000000001,0.2332418,-0.2134341999999999,87.33254099999999,78.3727232,-82.7673112,148.72208384088074,1.330168514089324,28.22895435789788,0.923062920642748,33.9876566,29.394567,-1.4714770000000017
5756.229,25.5027928,119.3939316,-43.355793000000006,-1.0522346,0.6332954,0.4439704,55.5193046,51.0901472,-79.0995178,-5.2858110000000025,-1.2599018000000002,-22.674271,-0.9212352,0.1959546,-0.2237635999999999,87.1735536,78.824916,-82.8338656,129.5570458530298,1.3058983242099975,23.31629721578461,0.9680612830111326,31.654249,27.7347688,-3.734347800000003
5776.216,25.996996000000006,100.65327,-40.1877684,-1.0233364000000005,0.6475232,0.4371112,57.5681692,52.8805876,-77.12262719999998,-0.0742724000000018,9.572501,-22.0756588,-0.9553244,0.1803318,-0.2059036,88.2665498,79.26293639999999,-81.73151419999999,111.45394246812874,1.2874664590849116,24.06185785093121,0.9937608162025507,30.6983806,26.3823488,-4.608887000000001
5796.203,22.11635920000001,83.73806920000001,-36.79717,-0.9898958,0.6728004000000001,0.4659928,59.3619702,54.3831296,-75.38828579999999,5.456113199999998,21.1552364,-21.8371998,-0.962837,0.1943174,-0.1847135999999999,90.8199754,79.68406379999999,-79.25675820000001,94.10222790995076,1.2844077867833252,30.889747384791274,0.9994665850025805,31.4580052,25.3009342,-3.8684724000000017
5816.19,14.508036800000005,66.9113312,-32.802270799999995,-0.9677998,0.6829187999999999,0.4586179999999999,60.781558,55.6165266,-73.9458694,8.010334599999997,30.859121800000004,-21.5969162,-0.9636844,0.1989264,-0.1782853999999999,94.6768936,80.06730519999999,-75.51016080000001,75.91836631792587,1.2701751887820356,38.50815041028347,1.000022509383404,33.8953356,24.4507786,-1.564291399999999
5836.177,11.427963000000007,49.0465434,-28.2132842,-0.94723,0.6771617999999999,0.4543272,61.8433112,56.5854818,-72.8682084,8.671968999999999,36.0972436,-21.6490116,-0.986655,0.1707494,-0.1607605999999999,99.3330352,80.391141,-70.9667954,57.72478811712888,1.24988238684249,42.97550168539789,1.0141436866330729,37.489724,23.8056592,1.9014130000000005
5856.163,10.791962600000009,32.00356220000001,-22.1614092,-0.9253804,0.6997180000000001,0.5063297999999999,62.57440720000001,57.273413000000005,-72.1765838,12.328052799999998,39.1069504,-18.7600152,-1.0137254,0.1659878,-0.1335854,104.4973128,80.5880556,-65.9795472,40.39582290260854,1.2658214844898945,45.09182437794992,1.035874604113432,41.92290559999999,23.314642600000003,6.1970366000000014
5876.15,7.136339800000006,16.764849400000006,-15.809896999999998,-0.9049744,0.7224654,0.5574359999999999,62.9378686,57.7072884,-71.8374756,15.6069732,38.0782882,-16.1067806,-1.0331554,0.1788739999999999,-0.0953863999999999,109.649408,80.6761902,-61.069117000000006,24.123440142242437,1.2851730673137065,44.19232994541375,1.0528554286938543,46.7115394,22.9689018,10.7683586
5896.137,2.272119800000006,2.762486200000006,-8.9773944,-0.8928548,0.7298436,0.5831094,62.9278612,57.8923424,-71.82644339999999,15.12208,34.40938559999999,-12.801759799999996,-1.0624238,0.1945383999999999,-0.0608371999999999,114.2833328,80.66638479999999,-56.6717004,9.663719191072031,1.2922375736343377,39.706021896845606,1.081799743383608,51.3554716,22.774042399999995,15.154743
5916.124,-1.4045699999999943,-10.688644399999996,-1.8453830000000004,-0.8857671999999999,0.7364758,0.6146242,62.5769494,57.8252174,-72.1411164,11.528311,28.723343400000005,-9.591376799999995,-1.0773474,0.203615,-0.0511849999999999,117.995227,80.59351799999999,-53.1332308,10.937338543322149,1.3056580884010636,32.402575815922766,1.0976139543285517,55.4182776,22.7683006,19.0078856
5936.111,-5.525413199999994,-24.724477599999997,5.5093492,-0.8848531999999999,0.7373342,0.6417518,61.8747428,57.4926492,-72.79257820000001,6.293711599999998,21.800337,-6.646927799999998,-1.0648994,0.2034187999999999,-0.0567795999999999,120.6370682,80.49580219999999,-50.5729456,25.9264905498445,1.3185113882113872,23.6441778921568,1.0856398405041887,58.76232540000001,23.003153,22.219632600000004
5956.098,-10.692539999999994,-39.7792748,13.4708416,-0.8927001999999999,0.7396157999999999,0.6626916,60.81026060000001,56.8669374,-73.7722704,1.5357575999999975,15.7757956,-3.315421799999997,-1.0497354,0.1858684,-0.0764675999999999,122.3714004,80.382878,-48.8383156,43.33802820477421,1.3353296729273412,16.19340297562104,1.0688024915677732,61.5611398,23.5159406,24.9339548
5976.085,-16.085182199999995,-55.9576762,21.277627,-0.9033719999999998,0.7306874000000001,0.6623276,59.391329,55.9293084,-75.0748734,-1.2536350000000025,11.118158599999996,0.305031400000003,-1.0354142,0.1757227999999999,-0.0950831999999999,123.38013139999998,80.24754479999999,-47.7849602,61.98977353453045,1.3374090236814316,11.192769787812349,1.0545149989088445,63.9888024,24.3182364,27.2899132
5996.072,-20.548474599999995,-73.1277846,28.9289774,-0.9120764,0.7230646000000001,0.6657270000000001,57.6668952,54.6593622,-76.677585,-2.6575082000000023,7.529429,3.908795000000004,-1.0159952,0.1659828,-0.1110797999999999,123.8136946,80.0866042,-47.28864360000001,81.28221467394052,1.3408572682202682,8.890069136465323,1.035439644927178,66.1467994,25.427242,29.3889414
6016.059,-25.819371399999994,-90.35124059999998,36.2769432,-0.9243178,0.7144738,0.6761756,55.6647262,53.0361688,-78.5174348,-3.653250200000002,5.423685,7.005427600000003,-1.0016354,0.160691,-0.1100945999999999,123.8299148,79.898924,-47.1961974,100.72737078563227,1.3498331927755518,9.5832464155873,1.0203998691509717,68.1651886,26.8627552,31.3212374
6036.046,-30.898235399999997,-106.980327,43.2751152,-0.9439844,0.7059416,0.6826446,53.4712814,51.0629082,-80.5069444,-5.027163000000003,5.190347200000001,9.653092000000004,-0.9979832,0.1496128,-0.1162553999999999,123.6673996,79.67414679999999,-47.2583564,119.4664258753647,1.3621540808451442,12.057954098667857,1.0158099110735432,70.1961182,28.6112386,33.248588000000005
6056.032,-35.299123599999994,-122.7561906,49.6937286,-0.9587518,0.6948664,0.6785584,51.1801468,48.7515212,-82.56354839999999,-4.611618800000002,5.8823432,12.099373000000003,-0.9945682,0.152536,-0.1226903999999999,123.4392792,79.3996428,-47.395634400000006,137.05683901112727,1.3647292149224182,14.221948406327058,1.0136498754498025,72.2591324,30.648121600000003,35.167914
6076.019,-38.95568339999999,-137.3861558,55.5149232,-0.9639958,0.6903416,0.6997792,48.8676826,46.1160528,-84.6195634,-5.590280000000002,7.8955596,13.234531400000003,-0.9976398,0.1491784,-0.1204287999999999,123.298523,79.0893614,-47.4234276,153.2136017870633,1.3767898735322104,16.393410665664977,1.0158949066906675,74.4308404,32.9733086,37.1961358
6096.006,-43.3519562,-150.6743776,60.5742052,-0.9660352,0.6869109999999999,0.7243986,46.5707938,43.182166,-86.6178788,-4.883358200000002,10.749080799999998,13.621088600000002,-0.9925002,0.1553996,-0.1211699999999999,123.3807968,78.7403548,-47.2373688,168.08151149702874,1.3891810757572247,18.02564783866272,1.0118734365424362,76.810003,35.5581888,39.38051
6115.993,-47.07160499999999,-163.2983154,65.0104752,-0.9575544,0.678495,0.7382228000000001,44.3462516,39.9800818,-88.51735240000001,-5.065305000000002,15.6590284,13.331008200000005,-0.9788827999999998,0.1475199999999999,-0.1306303999999999,123.8849442,78.34313039999999,-46.616945,181.95724139336616,1.3864482667680753,21.179666305291477,0.9985178956533528,79.5386926,38.3630486,41.9004074
6135.98,-50.7463732,-174.9311218,68.79393619999999,-0.9323978,0.6687064,0.7486086000000001,42.2114998,36.5165038,-90.298259,-4.089307000000002,21.3063264,12.709896400000002,-0.9650839999999998,0.164368,-0.1344437999999999,124.797647,77.88191520000001,-45.5956192,194.701559893725,1.3700177892420815,25.144053827939494,0.9881695713987756,82.5861472,41.3654114,44.7026398
6155.967,-51.1317736,-185.9012542,72.0939302,-0.8849790000000001,0.6471662,0.769319,40.2277168,32.800777000000004,-91.9595124,-6.050227800000003,29.405535999999994,10.957108200000002,-0.9419178,0.1663074,-0.1319977999999999,126.2250046,77.3475326,-44.0023248,205.84282682740525,1.3393519494981294,31.95855165657067,0.9655520247280516,85.9972878,44.5467556,47.9571876
6175.954,-50.11453879999999,-195.1423004,75.3253418,-0.8221796000000001,0.6442022,0.7919124,38.4306146,28.8725766,-93.484186,-7.079385000000002,40.2974718,10.617314000000002,-0.9453064,0.1864684,-0.1327385999999999,128.16929620000002,76.6681228,-41.8487274,215.09507554062543,1.310763524978766,42.26974428624588,0.9726223265016488,89.73868159999999,47.7955462,51.63545859999999
6195.941,-50.0778002,-202.285971,77.20975039999999,-0.7464812000000001,0.6335432000000001,0.7985998,36.7869226,24.769867800000004,-94.8833238,-10.472905400000002,54.7470814,10.066316800000005,-0.939738,0.19985,-0.1348769999999999,130.6696106,75.78898,-39.040720400000005,222.23578850651904,1.2634764773353402,56.64146363975368,0.9701748998366222,93.882688,51.01911220000001,55.84260340000001
6215.928,-51.4558236,-207.4635284,78.894426,-0.6605928000000001,0.6177490000000001,0.802609,35.2601282,20.520803,-96.1496216,-17.803986400000003,72.448764,8.942575800000004,-0.9253318,0.2392052,-0.1418759999999999,133.6097274,74.6349564,-35.6060036,227.84456950386465,1.2092054752166153,75.1383723459447,0.9662229903983242,98.3495992,54.114153400000006,60.543618
6235.915,-46.7700692,-211.900189,80.2929566,-0.5594076,0.5778958,0.799198,33.9533072,16.149221999999998,-97.297287,-34.1151798,91.2179962,7.634416200000002,-0.9311472,0.2569844,-0.1552951999999999,136.679306,73.1856156,-31.6707634,231.3786687462308,1.133850899280589,97.68752547917448,0.9783622483795256,102.7259988,57.03639360000001,65.6265236
6255.902,-42.72331319999999,-213.8075774,81.4395294,-0.4591261999999999,0.574724,0.8033066,32.8460952,11.7173258,-98.3250518,-46.0831638,97.273561,9.675302200000004,-0.9980942,0.248288,-0.1697811999999999,139.280548,71.5938232,-27.9560744,232.74741371997183,1.089222675721544,108.0713427699484,1.0424320691973554,106.4344528,59.876497400000005,70.36897739999999
6275.888,-41.5170854,-214.02001640000003,81.21052399999999,-0.3618584,0.5465438,0.784857,31.8607176,7.2694232,-99.2606444,-49.9531432,88.1042594,12.224010400000004,-1.0216414,0.2376052,-0.1823945999999999,141.0978638,70.0894028,-24.9768912,232.6443315628424,1.022571336102279,102.01521195508786,1.0646479095786363,109.2371462,62.8199796,74.2837532
6295.876,-39.50356299999999,-213.2258086,81.0173522,-0.2639436,0.507167,0.7564218,31.0014974,2.8351224,-100.1096924,-48.859597,70.3018794,14.5578028,-1.0453008,0.2472256,-0.2032207999999999,141.993747,68.82005919999999,-22.9876872,231.4942511172095,0.9481869696347868,86.8420640504257,1.093193923020358,110.9922496,65.9849368,77.12200519999999
6315.862,-32.900497599999994,-211.4267456,79.9354202,-0.1760624,0.4796642,0.7304012,30.3421918,-1.5679098000000002,-100.8964402,-44.7679816,42.632590400000005,21.8400564,-1.0816956000000002,0.2372942,-0.2072709999999999,141.6165466,67.89082640000001,-22.4383066,228.41493580737077,0.891381863410312,65.56445686732478,1.126647760328844,111.2743548,69.4587362,78.4581336
6335.849,-31.0963608,-207.75289620000004,78.11825239999999,-0.0978314,0.4735827999999999,0.7224195999999999,29.7796856,-5.8884258,-101.6320894,-29.928055600000004,10.353414,29.1603112,-1.0954342,0.2188024,-0.2214843999999999,140.2196686,67.3728882,-23.3053022,224.12208925610585,0.8693340725785226,43.048872723137976,1.1388177712956362,110.439983,73.261314,78.3267872
6355.836,-31.756256399999994,-203.4535034,75.101358,-0.0293894,0.4333186,0.694159,29.2509152,-10.1090828,-102.3405382,-15.175113000000003,-10.6173172,30.0413046,-1.046637,0.2415217999999999,-0.2329104,138.46003720000002,67.1598526,-24.883792,219.18485768802668,0.8188317673486538,35.291521094423885,1.0991037458185648,109.209122,77.2689354,77.4567462
6375.823,-29.547474199999996,-198.9445526,72.2929276,0.0321154,0.4054973999999999,0.6674856,28.8107572,-14.2346136,-103.0276902,-9.949860600000004,-16.0913416,30.488572800000004,-1.01153,0.2560628,-0.2525529999999999,136.665985,67.0160492,-26.6154632,213.7247192577234,0.7816626935777862,35.88152828166915,1.0735660744699602,107.8552278,81.25066280000001,76.412227
6395.81,-27.617900799999997,-193.6222534,68.8586114,0.0880792,0.3805952,0.6424324,28.452564,-18.2443642,-103.70756219999998,-7.504205400000004,-11.4618332,31.595112400000005,-0.9877152,0.2482326,-0.2628955999999999,135.0938934,66.7794022,-28.1631012,207.349545020549,0.7518843264129397,34.43744831660217,1.0518150201024703,106.6413294,85.0237664,75.544461
6415.797,-28.357938999999995,-187.583911,65.48183220000001,0.1448864,0.3602072,0.628232,28.127369800000004,-22.1134808,-104.3828552,-3.7528314000000025,-0.1966762000000002,29.269867800000004,-0.9649112,0.2562096,-0.2937711999999999,134.0938722,66.38857720000001,-29.1736726,200.69819809518123,0.7385233521431803,29.510126839340245,1.0406721390366132,105.9665024,88.502058,75.20918259999999
6435.784,-30.083974399999995,-180.6955718,60.961224400000006,0.2016185999999999,0.3231924,0.5894868000000001,27.8089116,-25.8294976,-105.0661682,-4.007091800000003,20.1346714,24.324833400000003,-0.923061,0.2625133999999999,-0.3098815999999999,133.9161622,65.7615416,-29.2801488,193.0601099765976,0.7018533142031603,31.830163320620283,1.0084550068888152,106.1072506,91.5910392,75.7860194
6455.771,-28.850545799999992,-172.997061,56.7666382,0.2613572,0.2977956,0.5545998,27.5546158,-29.3898178,-105.7514938,-8.107477400000002,40.3894634,21.822963400000003,-0.900051,0.265328,-0.3267373999999999,134.3463044,64.874465,-28.625811,184.3442115178161,0.6815942660639392,46.61846924867,0.9936035822921332,106.7916886,94.2642828,77.1256828
6475.758,-29.484609399999997,-164.103607,52.034959400000005,0.3140238,0.27603,0.5222702,27.328074200000003,-32.7621998,-106.4464738,-10.7207678,57.5109144,19.777314000000004,-0.8855354,0.2648477999999999,-0.3425269999999999,135.25581979999998,63.768962,-27.3792592,174.66245452769942,0.6690064795459608,61.7542086533399,0.9857190510216388,107.9277456,96.5311618,79.0672146
6495.744,-30.732684799999998,-154.7782104,47.2079476,0.3657374,0.2571938,0.5019440000000001,27.1103538,-35.943672199999995,-107.1489992,-15.348079600000002,74.4089234,15.649525400000003,-0.8507266,0.2657472,-0.366718,136.5670288,62.4560332,-25.569009,164.70999558693202,0.6722055308112245,77.57034919478093,0.9637631523249892,109.456675,98.3997054,81.5799902
6515.731,-32.03201119999999,-144.59704140000002,42.2442856,0.4204431999999999,0.234025,0.4644612,26.896011800000004,-38.918596,-107.85659660000002,-19.9844894,90.7921158,10.2905974,-0.8154248,0.2517314,-0.389902,138.22734359999998,60.95528939999999,-23.2431632,154.00952499441263,0.6687782826592681,93.53333364564854,0.9382482996547342,111.3313318,99.8738854,84.6134334
6535.718,-32.91527,-133.5744264,37.927155,0.4729281999999999,0.231651,0.4444079999999999,26.6931836,-41.6754298,-108.556273,-21.436359400000004,96.2078584,7.446107800000003,-0.8122824000000002,0.2603824,-0.4049799999999999,139.8675994,59.38763279999999,-20.874042600000003,142.70252791613729,0.689073101071461,98.8479339369804,0.9442512864590232,113.1744158,101.0630626,87.68223040000001
6555.705,-35.7009528,-122.461516,32.9441352,0.5173508,0.2244906,0.4262966,26.4622132,-44.1984486,-109.2587038,-20.805337200000004,95.8870484,6.189834200000003,-0.789949,0.2707826,-0.4304141999999999,141.3782196,57.8129098,-18.6387952,131.74481764351097,0.7069488460423144,98.3132857466026,0.9394674143499604,114.9160064,102.0113584,90.6199086
6575.692,-38.3541686,-111.4636828,28.1892806,0.5687832,0.2110684,0.4033859999999999,26.19490560000001,-46.49641,-109.9567934,-20.771074200000005,90.4012878,4.381526000000003,-0.7508033999999999,0.2787208,-0.4548292,142.7008088,56.3189888,-16.6028928,121.201610439308,0.7285495611671179,92.8602613037946,0.9210106573633337,116.5059032,102.8153988,93.3539006
6595.679,-38.8412406,-100.0389238,24.0290092,0.6249480000000001,0.2059715999999999,0.378877,25.919055000000004,-48.5494304,-110.6301942,-19.080965800000005,73.6006832,3.8840270000000032,-0.7373877999999999,0.2908698,-0.4796897999999999,143.6423676,55.075872200000006,-15.038284800000003,109.9719124574224,0.759297098532294,76.13297241737158,0.926524857931464,117.7233126,103.6253026,95.5919094
