Timestamp (ms),Wrist Gyroscope X (deg/s),Wrist Gyroscope Y (deg/s),Wrist Gyroscope Z (deg/s),Wrist Accelerometer X (g),Wrist Accelerometer Y (g),Wrist Accelerometer Z (g),Wrist Roll (deg),Wrist Pitch (deg),Wrist Yaw (deg),Arm Gyroscope X (deg/s),Arm Gyroscope Y (deg/s),Arm Gyroscope Z (deg/s),Arm Accelerometer X (g),Arm Accelerometer Y (g),Arm Accelerometer Z (g),Arm Roll (deg),Arm Pitch (deg),Arm Yaw (deg),Wrist Gyroscope Magnitude (deg/s),Wrist Accelerometer Magnitude (g),Arm Gyroscope Magnitude (deg/s),Arm Accelerometer Magnitude (g),Difference Roll (deg),Difference Pitch (deg),Difference Yaw (deg)
0.0,3.073659,-12.693455,3.307924,-0.967525,-0.247049,0.14818,-62.172321,73.766518,120.233452,1.703419,9.646627,1.530573,-0.98747,-0.054977,0.130716,-37.695103,79.444633,102.192635,13.472696117521616,1.0095024251709357,9.914721502645396,0.9976001925044922,24.477218,5.678114999999991,-18.040817000000004
19.986,1.958346,-13.0628085,3.3468555,-0.9629215,-0.252006,0.153785,-61.6866795,73.726662,120.729912,-0.8912705,9.083708,0.6978945,-0.988517,-0.060045,0.1443229999999999,-37.946619,79.51723849999999,101.971035,13.626207348388196,1.0071616878253709,9.15397022425595,1.000799874921555,23.7400605,5.790576499999993,-18.758877
39.972,2.5597293333333333,-14.289410666666669,3.4796313333333333,-0.9667526666666668,-0.2546239999999999,0.1595233333333333,-61.113988,73.67596466666667,121.29324366666668,-3.5286763333333333,8.436577333333334,-0.0460256666666666,-0.9850026666666666,-0.088246,0.133412,-38.34078333333333,79.573064,101.64361566666666,14.928071063486044,1.0123693959029425,9.144917283864991,0.9979059933683354,22.77320466666667,5.89709933333333,-19.649628
59.958,4.0970955,-16.33395325,3.7816175,-0.97293425,-0.2495669999999999,0.16504875,-60.401781,73.6129095,121.9702265,-3.66006175,8.64606525,-0.21972825,-0.981044,-0.10525875,0.116557,-38.80097675,79.63846375,101.23598475,17.25934098468456,1.017902663415626,9.39142038378214,0.99353523774276,21.600804250000003,6.025554249999999,-20.73424175
79.944,4.945005,-19.6416766,4.0397742,-0.9815012,-0.2462311999999999,0.1676601999999999,-59.5288406,73.5219362,122.804555,-2.204169,10.1763116,-0.1914114,-0.977261,-0.1042122,0.101427,-39.337156,79.7361846,100.7146652,20.65353019936297,1.0257116320481698,10.414044223302756,0.9880215995001528,20.1916846,6.214248399999997,-22.0898898
99.93,4.1815704,-25.6183856,4.294938,-0.9899604,-0.2472816,0.174868,-57.8158378,73.3165666,124.4950228,-2.8900882,12.2921912,-0.3605652,-0.9787528,-0.110864,0.0855918,-40.4272378,79.9434556,99.6734068,26.31033455097612,1.035252916291821,12.632520792169222,0.9887233314891886,17.388600000000004,6.626888999999997,-24.821616
119.916,4.7336494,-32.757568199999994,4.4439468,-1.0035884,-0.2597474,0.2000442,-55.750377,73.0095352,126.5415666,-4.522864199999999,14.890365,-0.075193,-0.9837392,-0.1219924,0.0660081999999999,-41.8338472,80.1923798,98.3476256,33.39482555997263,1.0557822078321646,15.562291746144448,0.993469698451664,13.9165298,7.182844599999996,-28.193941
139.902,6.588570799999999,-40.4939764,4.623345,-1.0109764,-0.2566046,0.2364846,-53.29609000000001,72.5858016,128.9557602,-4.7293604,17.5807022,0.2842538,-0.989675,-0.1197532,0.0609004,-43.483143,80.4813386,96.7815048,41.286156382731896,1.0695065068223193,18.2079306858574,0.9987523683353148,9.812947,7.895536999999996,-32.1742554
159.888,7.3031774,-48.5608018,4.2902304,-1.016356,-0.252592,0.2681752,-50.5522576,72.022345,131.6615798,-4.5366486,19.4577068,0.3962548,-0.9988156,-0.1124603999999999,0.0668548,-45.303148,80.7905474,95.038739,49.293954482064414,1.0810643713928605,19.98350700705888,1.0073477595421354,5.2491096,8.768202399999996,-36.62284079999999
179.874,7.882337799999999,-55.9096918,3.3926036,-1.0146115999999998,-0.2599952,0.3000897999999999,-47.6699692,71.3032868,134.5079404,-4.762058,19.1419962,0.7251412,-1.0097082,-0.1079234,0.0819426,-47.095601,81.0867952,93.3279418,56.564429154292974,1.0895357226551314,19.73877009025932,1.018760373743286,0.5743681999999992,9.783508399999995,-41.17999859999999
199.86,10.971331,-62.8906984,2.3297558,-1.0179914,-0.2639671999999999,0.3456816,-44.6859964,70.4197022,137.4049802,-4.4282652,18.0365856,0.7726464,-1.0079711999999998,-0.1160584,0.0872714,-48.8675834,81.35207840000001,91.6318206,63.88300095674089,1.1070144270642368,18.588301031753588,1.0183770370044485,-4.181587,10.932376199999998,-45.7731596
219.846,13.7072986,-71.42507939999999,1.3323462,-1.0240198,-0.2560409999999999,0.3707008,-41.642965,69.3530214,140.3218686,-1.3939984,16.9569694,0.5457494,-0.9972052,-0.1225784,0.0790138,-50.628788,81.58707439999999,89.8866286,72.74068427367534,1.118746006738652,17.022922345453473,1.0078129070636277,-8.985823,12.234053,-50.43523999999999
239.832,14.1281532,-81.55474480000001,0.230689,-1.0347808,-0.2572606,0.3832646,-38.641776400000005,68.0710284,143.2087004,1.7214256,17.004549,0.2987787999999999,-0.9898324,-0.1197463999999999,0.0576206,-52.5177934,81.81372999999999,87.951637,82.76976700251439,1.133069315608785,17.094070947584893,0.9987129286972708,-13.876017,13.7427016,-55.25706339999999
259.818,14.6578954,-92.433368,-0.7440762000000001,-1.0451240000000002,-0.2680155999999999,0.4171766,-35.7166344,66.54948680000001,146.0288176,3.8045566,17.937157,-0.1099078,-0.9874376,-0.120073,0.0419878,-54.6593256,82.03495500000001,85.7216366,93.59131939860754,1.1567855690692723,18.33652998497135,0.9955970643646956,-18.9426912,15.485468200000003,-60.30718099999999
279.803,17.633159,-103.3747238,-1.2264696000000002,-1.0533358000000002,-0.2674088,0.4630588,-32.830933,64.79047499999999,148.7678894,4.5734258,19.585284,-0.730725,-0.992523,-0.1369158,0.031533,-57.19486400000001,82.24594440000001,83.0803922,104.87500200107408,1.1812904918505525,20.1254448878624,1.0024181621996082,-24.363931,17.455469400000005,-65.6874972
299.789,19.7725076,-114.2562988,-1.5426364,-1.0494790000000005,-0.253332,0.4996392,-30.0376652,62.7981166,151.3865142,6.206500200000001,20.5035912,-1.1682554,-1.0033544,-0.124641,0.0334258,-59.899605,82.45054339999999,80.235246,115.96479465479834,1.1896312890310343,21.45420046305493,1.0116188585559285,-29.861939800000005,19.652426800000004,-71.15126819999999
319.776,20.8613576,-123.989766,-1.7877748,-1.0365584,-0.2404318,0.5431372000000001,-27.41399,60.586381,153.8225006,6.9287516,20.8355984,-1.1680652,-1.0091405999999998,-0.123566,0.0424,-62.6846216,82.639847,77.2938642,125.7451965380203,1.1946793649702168,21.98850007917857,1.017561333249431,-35.2706316,22.053466000000004,-76.52863640000001
339.761,21.7310632,-132.721785,-2.161195,-1.0188738000000002,-0.236382,0.5899110000000001,-25.0084068,58.1687402,156.0457884,8.526942199999999,20.6396648,-0.9818791999999998,-1.0054636,-0.1229946,0.0559362,-65.4549248,82.80627000000001,74.33402079999999,134.50643882437987,1.2008227421944675,22.35326806312429,1.0145016417061927,-40.446518000000005,24.637529800000003,-81.7117676
359.747,22.9083728,-140.95935520000003,-2.6758626000000003,-0.9995654000000002,-0.2240984,0.6256712,-22.8190948,55.5624328,158.04996020000002,9.5647308,20.381753,-0.5631624000000001,-1.0002228,-0.1129545999999999,0.0624916,-68.2084784,82.9592042,71.36942280000001,142.8337971328832,1.2003397570143048,22.521480469060005,1.0085185131526144,-45.3893836,27.3967714,-86.68053739999999
379.733,21.641619400000003,-149.11560060000002,-3.3905328,-0.982022,-0.2061896,0.6622918,-20.8766258,52.773857,159.8450102,8.9181966,20.5578658,-0.3731664,-0.99268,-0.0921472,0.0637259999999999,-71.052957,83.10437019999999,68.325653,150.71601688347877,1.2022943849072072,22.41203538300683,0.9989823281439166,-50.1763312,30.330513199999995,-91.5193572
399.719,19.3371058,-157.7115448,-4.574209000000001,-0.9694344,-0.2057136,0.7011194,-19.196102000000003,49.7959234,161.4453612,6.1981942000000005,22.0642188,0.15855,-0.9850388,-0.0882134,0.0544947999999999,-74.30511920000001,83.24899740000001,64.9267838,158.9584172414235,1.2139561582630076,22.918824156088093,0.9904810572000052,-55.1090172,33.453074,-96.5185774
419.705,16.694683199999997,-165.8848998,-5.5066148,-0.9429156,-0.2044308,0.7338328,-17.7585798,46.6419394,162.885034,3.7558374,24.8121772,1.1108662,-0.9836956,-0.0856,0.0444296,-78.1784712,83.398291,60.9517274,166.8137741176069,1.2121849525001702,25.11940436582327,0.9884120511282328,-60.4198914,36.7563516,-101.9333066
439.691,13.6623098,-172.61064140000002,-7.6005866,-0.8995678,-0.202201,0.7652094,-16.5700162,43.3342108,164.1376646,2.3393246000000003,28.1214808,2.2334842000000004,-0.9954818,-0.102042,0.0371408,-82.77476940000001,83.531897,56.276245200000005,173.3172269287005,1.1981873380428456,28.3068644261526,1.001387049506773,-66.2047532,40.19768620000001,-107.8614194
459.677,9.4717136,-177.86425480000003,-9.6963298,-0.8441348,-0.2075193999999999,0.8038744,-15.6326158,39.8998832,165.22226540000003,2.7265936,31.4059112,2.2260282,-1.0060718000000002,-0.113504,0.0393448,-87.9818846,83.61490640000001,50.974672,178.38000253859772,1.1839940510504097,31.602543766428703,1.013218455249548,-72.3492688,43.715023200000005,-114.2475934
479.663,3.5144818,-182.0730774,-12.0385706,-0.7722201999999999,-0.2060726,0.8283031999999999,-14.9573166,36.3614592,166.16644260000004,4.1723414000000005,35.098999000000006,2.458771,-1.0052938,-0.1207002,0.0377936,-93.7932386,83.63822640000001,45.0312996,182.50447741992556,1.1510326428425215,35.43153564821311,1.013218889874957,-78.83592200000001,47.27676720000001,-121.135143
499.649,-1.8792794,-184.252304,-14.2246566,-0.6975226,-0.2152884,0.8417069999999999,-14.5161474,32.765311399999995,166.9845884,5.633354,38.8262108,1.382142,-1.0099602,-0.1356208,0.0397046,-100.0186154,83.5538592,38.6349616,184.81012979747516,1.114162262210635,39.25709666905484,1.0197985400253524,-85.50246800000001,50.7885478,-128.3496268
519.635,-7.0469336,-184.7924408,-17.1209798,-0.624871,-0.2203785999999999,0.8445326,-14.294679,29.1444884,167.676608,7.3846282,42.7487808,-1.658869,-1.0097334000000002,-0.1249325999999999,0.0366474,-106.387132,83.316942,32.05120000000001,185.7176173638256,1.073436447323138,43.41362504903092,1.0180926900558125,-92.092453,54.1724536,-135.625408
539.621,-12.5535638,-184.5471954,-19.5290582,-0.5694786000000001,-0.2182429999999999,0.8653332,-14.2592484,25.5212444,168.2814664,5.299101200000001,45.7653358,-5.00762,-1.0120232000000002,-0.1180563999999999,0.0404942,-112.50490399999998,82.92180640000001,25.753492,186.00172958406984,1.0586488699891008,46.34245022092599,1.0196901740984077,-98.2456556,57.400562,-142.5279744
559.607,-16.6505672,-183.80307,-21.439028,-0.5110664,-0.2191679999999999,0.8606756000000001,-14.3675512,21.9083772,168.8245146,3.0768980000000004,48.1369552,-7.288471199999999,-1.0045772000000002,-0.119736,0.0188127999999999,-118.2295012,82.3890686,19.8910536,185.79677567463705,1.0246882286180126,48.78273843955914,1.0118626299551143,-103.86195,60.4806914,-148.933461
579.593,-20.4677872,-182.1650788,-23.1062078,-0.4570774,-0.2240377999999999,0.8594338,-14.603582800000002,18.3290894,169.31906719999998,1.4213336,48.81394039999999,-9.6415972,-1.013052,-0.1254968,0.0015958,-123.2534378,81.74233240000001,14.7639186,184.76185506205408,0.9988689313428664,49.77731775763222,1.0207969181438,-108.649855,63.413243,-154.5551486
599.578,-24.1259486,-179.8860536,-24.1033678,-0.3974573999999999,-0.230562,0.8552768000000001,-14.9539978,14.7959282,169.789755,0.2232862,45.7872508,-11.4690746,-1.0119888,-0.1277748,-0.0167846,-127.2591966,81.05511,10.687625,183.0902127775649,0.9708911500662678,47.20235020345466,1.020161484098297,-112.3051988,66.25918180000001,-159.10213
619.564,-26.8839694,-177.024643,-24.664264,-0.3379852,-0.2301725999999999,0.8641681999999999,-15.386435799999996,11.317692,170.2522184,-2.3530158,40.5610148,-12.3862144,-1.0156312,-0.1457794,-0.0336022,-130.1867508,80.3783064,7.752987,180.7451187685003,0.9560335240466412,42.47529766962953,1.0265902180142965,-114.800315,69.0606144,-162.4992314
639.55,-28.2387848,-173.64734800000002,-24.4861392,-0.2718732,-0.2364652,0.8531378000000001,-15.872355199999998,7.9084508,170.7220458,-2.1066902,34.9331764,-13.3924616,-1.011542,-0.145582,-0.0582868,-132.1950592,79.7370666,5.7453144,177.62432673295513,0.9261074092556004,37.47162906386334,1.023625267147231,-116.322704,71.8286158,-164.9767314
659.536,-28.6035446,-169.35240779999998,-24.032308,-0.2102596,-0.2415357999999999,0.8401902,-16.393878800000003,4.5915922,171.203375,-3.0267628,29.538825600000003,-14.082683,-1.0148638,-0.1498618,-0.0735618,-133.478305,79.1447768,4.4920164,173.42419848207038,0.8991486052093057,32.86374098232227,1.028503004404421,-117.0844262,74.5531846,-166.71135859999998
679.522,-29.3190552,-165.3281432,-23.4390098,-0.154061,-0.2445949999999999,0.8383834,-16.9575528,1.3522764,171.7018278,-3.2018726,23.934974200000003,-15.196813,-1.0072298,-0.1488336,-0.0924558,-134.14990840000002,78.6063048,3.8656338,169.53580480885108,0.8868191648479187,28.5320539649403,1.0223558017885164,-117.1923556,77.2540284,-167.836194
699.508,-28.7711822,-161.5586272,-22.941669800000003,-0.103056,-0.2550748,0.8432458,-17.538749799999998,-1.807049,172.2218138,-2.6197916,22.5793296,-15.8703992,-1.0053818,-0.1610642,-0.1051206,-134.59758600000004,78.0711578,3.4548054,165.69638246246177,0.8869876954888835,27.722896745834976,1.0236134919183315,-117.0588362,79.8782068,-168.76700839999998
719.494,-25.5376706,-158.15290520000002,-22.2043746,-0.057557,-0.263305,0.8339212,-18.087317,-4.8898018,172.7680236,-1.3627749999999998,22.1353038,-17.9326266,-1.011331,-0.1453348,-0.1166974,-134.8715608,77.5200654,3.1979100000000003,161.73295364350278,0.8763942600698843,28.5203072703284,1.0283632037460304,-116.7842438,82.4098672,-169.5701136
739.48,-23.5186132,-154.0887024,-21.4724754,-0.0044582,-0.2575442,0.8275278,-18.6172386,-7.889949400000001,173.332077,-3.6839818,23.5656454,-20.821697,-1.00968,-0.1287322,-0.1406108,-135.14459860000002,76.9099946,2.9926716,157.34522736317928,0.8666897658757255,31.661560779296423,1.0275198678339412,-116.52736,84.79994400000001,-170.3394054
759.466,-24.0776732,-150.6126342,-21.203122,0.0425532,-0.2654797999999999,0.8294926,-19.1882706,-10.819053,173.9124208,-6.550869399999999,25.7237298,-22.6419584,-1.0073654,-0.131554,-0.160126,-135.4779726,76.24046960000001,2.7844362,153.99179299539276,0.8719795138035297,34.889575017569285,1.0284609083038403,-116.289702,87.05952260000001,-171.1279846
779.453,-19.6735816,-146.547,-21.0513298,0.0925981999999999,-0.2935928,0.8206693999999999,-19.7093586,-13.662421,174.50479140000002,-7.8961722,29.7503792,-23.3912008,-0.9980472,-0.145712,-0.1826865999999999,-135.988138,75.4932346,2.4206814000000003,149.35270840637685,0.8765097962666702,38.65983539568897,1.0250388256994951,-116.2787794,89.15565560000002,-172.08411
799.438,-14.4695052,-142.583493,-20.6593464,0.1506226,-0.2870225999999999,0.8121178,-20.151258,-16.432539400000003,175.10812700000002,-8.772663,33.720775,-24.4741522,-0.9856734,-0.1431138,-0.2069658,-136.6376924,74.66908760000001,1.9306738,144.79719489855137,0.874416640748768,42.57974176320189,1.0172848438798443,-116.4864344,91.101627,-173.1774532
819.424,-11.7705158,-138.7973236,-19.990532,0.2067548,-0.3013014,0.8008822,-20.581916,-19.132198,175.7320132,-8.9334256,38.7336386,-22.5160788,-0.9684252,-0.1726238,-0.2225334,-137.5382446,73.7849062,1.178495,140.7226472546768,0.880308116083136,45.68451221884671,1.0085472018884591,-116.9563286,92.9171042,-174.5535182
839.41,-7.5874608,-136.0006562,-19.177955,0.2621686,-0.3176211999999999,0.7898872,-20.975251,-21.7782506,176.3844392,-6.2804818,44.1557426,-20.0186316,-0.9621148,-0.1966457999999999,-0.224472,-138.6147216,72.8483476,0.1806029999999999,137.55559605557372,0.8908071565940857,48.88680463411476,1.0073341738572557,-117.6394706,94.6265982,-176.2038362
859.396,-2.1434456,-133.5531038,-18.3777482,0.3171468,-0.3146642,0.7695478,-21.2982806,-24.381983,177.0648286,-3.7703256,50.9232582,-18.642260200000003,-0.9685358,-0.2014234,-0.236234,-139.8550232,71.82473300000001,-1.0480164000000003,134.82865987080172,0.889831145778074,54.359244349037695,1.0170739819232424,-118.5567426,96.206716,-178.11284500000002
879.382,0.6515198,-131.0613466,-17.647247,0.3732154,-0.2986917999999999,0.7409624,-21.595544,-26.9466722,177.7667878,-1.820286,60.890925,-16.0291108,-0.946693,-0.1942568,-0.2557464,-141.3869232,70.66646720000001,-2.6345784,132.2457045704477,0.8817776388626329,62.99167073126492,0.9996847311568784,-119.7913792,97.6131394,-180.4013662
899.368,2.2302384,-128.01053480000002,-17.3127906,0.4227270000000001,-0.3070696,0.7061116,-21.9051056,-29.460355000000003,178.486908,1.1452858,72.893219,-10.337886,-0.9533346,-0.201452,-0.2800247999999999,-143.2797974,69.3659818,-4.6846184,129.19521547434448,0.8783982282699117,73.63154855559293,1.0138262457029803,-121.37469179999998,98.8263368,-183.1715264
919.354,4.3174078,-124.783481,-17.608050000000002,0.4672775999999999,-0.2942926,0.6866985999999999,-22.1922546,-31.9211948,107.2027678,3.128001,86.47394560000001,-4.1465444,-0.9494786,-0.2022328,-0.302927,-145.52211319999998,67.8868514,-7.175003599999999,126.09361825798862,0.8811988748962858,86.62979561530162,1.0169427145040175,-123.3298586,99.8080462,-114.3777714
939.34,6.3575056,-121.5684236,-17.577194,0.5091414000000001,-0.3011435999999999,0.6509632,-22.477925,-34.3263922,35.930139000000004,4.136934200000001,97.2932632,3.5280752,-0.9293856,-0.2049915999999999,-0.3306552,-148.0370638,66.2715682,-10.0090874,122.99698062536618,0.8795825832570584,97.44506454047048,1.0075276724958775,-125.5591388,100.5979604,-45.9392264
959.326,10.3772718,-117.6665986,-16.954152,0.5454559999999999,-0.3010047999999999,0.6057672000000001,-22.7263916,-36.6632376,-35.323202800000004,4.4707936,105.8523682,10.7271974,-0.8976810000000001,-0.2070421999999999,-0.3539772,-150.6985934,64.5430274,-13.0416196,119.33381526685427,0.868953415411252,106.48842478420244,0.9869131210302556,-127.9722018,101.206265,22.2815832
979.311,12.5100328,-113.3799456,-16.5448126,0.5840714,-0.2896736,0.579643,-22.9524768,-38.9237228,-106.5777804,2.9008814000000003,109.1660736,16.0557648,-0.8957934,-0.20772,-0.3701386,-153.30577720000002,62.7694068,-16.0170116,115.26163198950964,0.8723738890429493,110.3785953953501,0.9912598030251808,-130.3533004,101.6931296,90.5607688
999.297,15.4679106,-108.586542,-16.3939608,0.6224232,-0.2853888,0.5495346000000001,-23.1264612,-41.0910362,-177.847684,-0.3279312000000001,103.8355774,18.2889366,-0.8781766,-0.1939292,-0.3927474,-155.6736666,61.07144460000001,-18.686653600000003,110.90110600241682,0.8779781794901511,105.43443400911364,0.9813527376060864,-132.54720540000002,102.1624808,159.1610304
1019.283,18.8528304,-103.147922,-16.806775199999997,0.6638466000000001,-0.2777634,0.5068075999999999,-23.2236854,-43.1609198,-177.1574526,-4.067751400000001,90.831652,16.5492204,-0.8560536000000001,-0.175901,-0.419216,-157.6431062,59.56107540000001,-20.8455754,106.1950597703706,0.8801697325680314,92.41651531165348,0.9692837471710544,-134.4194208,102.7219952,156.31187719999997
1039.269,21.376555,-96.8354266,-17.7900912,0.7030586,-0.2673662,0.4707616,-23.2306892,-45.119342800000005,-176.54186099999998,-6.309422799999999,71.55869639999999,13.651379,-0.8484576,-0.1725068,-0.4405444,-159.1548706,58.3612334,-22.4489022,100.749909644507,0.8873514320555076,73.12192554315136,0.9714516269044796,-135.9241814,103.4805762,154.0929588
1059.255,21.770219200000003,-89.520679,-19.1794112,0.7438136,-0.2677986,0.4633952,-23.1734076,-46.9516448,-176.0242066,-7.138227599999999,48.0174116,11.020457400000002,-0.8411837999999999,-0.175023,-0.4553108,-160.2152618,57.56552799999999,-23.5245294,94.10496387872308,0.9163568481164748,49.78028315847983,0.9723842658682216,-137.04185420000002,104.5171728,152.4996772
1079.241,24.154427400000003,-81.7034792,-20.0110048,0.7732634,-0.2760534,0.448069,-23.0181282,-48.645674,-175.5975068,-7.786756,23.865074,8.0484606,-0.847438,-0.1855682,-0.4780212,-160.8663482,57.1881164,-24.1152196,87.51762787868698,0.935364952407412,26.361962067698308,0.9905003727130444,-137.84822000000003,105.8337904,151.4822872
1099.227,24.0644542,-73.1905114,-20.4242388,0.7937184,-0.2569144,0.4355392,-22.7929902,-50.1976448,-175.2764314,-8.3349818,4.694730999999999,5.296623,-0.829588,-0.1917766,-0.4917113999999999,-161.21904279999998,57.139248,-24.3446694,79.70632625768707,0.9411101434808574,10.934652988221494,0.983246975556762,-138.4260526,107.33689280000002,150.931762
1119.213,21.3689056,-63.06182259999999,-20.1099138,0.7993129999999999,-0.2580208,0.4328526,-22.5496414,-51.565616,-175.06020819999998,-7.15667,-10.3238076,4.9105396,-0.8274522000000001,-0.1964032,-0.507223,-161.3789306,57.36174559999999,-24.3739048,69.55452702174756,0.9449007241654545,13.487487831834583,0.9902153967617752,-138.8292892,108.9273616,150.6863034
1139.199,18.2923374,-52.11087260000001,-18.8722952,0.7990076,-0.2463266,0.443419,-22.293644,-52.724205,-174.9429658,-6.2753762,-17.775327400000002,4.541987799999999,-0.8222985999999999,-0.1997128,-0.520913,-161.4361816,57.7116456,-24.301815,58.36365458746405,0.9464197526923877,19.390004223931108,0.9936853343059864,-139.1425376,110.4358506,150.64115080000002
1159.185,14.853991800000005,-40.7689944,-16.998310600000003,0.7981914,-0.2401064,0.4401226,-22.042490000000004,-53.6560776,-174.909494,-5.458047,-19.761272,3.97624,-0.8196996000000001,-0.1959556,-0.5313104,-161.4470734,58.0869172,-24.191722400000003,46.60144354025711,0.942586068953748,20.88321413599432,0.99629150983017,-139.4045834,111.7429948,150.71777160000002
1179.171,12.052717,-28.7135576,-15.118398,0.7918932,-0.2308227999999999,0.4204014,-21.769345,-54.34643559999999,-174.9733032,-4.1897086,-19.0664934,3.3354142,-0.805123,-0.1909413999999999,-0.5246172,-161.4214692,58.440514400000005,-24.0679824,34.61650379828978,0.9258030796708552,19.804287833969678,0.979747350034079,-139.6521242,112.78695,150.9053208
1199.157,6.7864688,-16.556333000000002,-12.7520272,0.7978995999999999,-0.2133299999999999,0.414576,-21.5239748,-54.78357080000001,-175.1281066,-1.7735880000000002,-18.3888978,3.3280328,-0.8015412,-0.192444,-0.5121686000000001,-161.3470704,58.7821822,-23.9458388,21.972312552159877,0.9241356612295404,18.771600331630356,0.97047393744469,-139.8230956,113.565753,151.1822678
1219.143,1.7411651999999995,-5.3712216,-9.8938218,0.7977102,-0.2192584,0.4187494,-21.3420042,-54.9849012,-175.33069140000003,0.7637083999999998,-16.7857766,3.265839,-0.8109404,-0.196573,-0.5026328,-161.228122,59.096353,-23.8333426,11.391636736665756,0.9272361453022416,17.117571409497874,0.9741175536438096,-139.8861178,114.0812542,151.4973488
1239.129,1.2682209999999998,5.787826,-7.5337814,0.7953486,-0.2132304,0.4175528,-21.1126662,-54.96051,-175.60125720000002,1.6600416,-15.5678996,3.0426994,-0.8123072,-0.1881416,-0.4916486,-161.100937,59.389723,-23.730543,9.584632308758794,0.9232534537135292,15.949083224692604,0.9679662156833574,-139.98827079999998,114.350233,151.87071419999998
1259.115,-0.4881244000000002,16.431918200000002,-5.43177,0.7984076,-0.1768471999999999,0.4087612,-20.8489494,-54.7160956,-175.949594,1.5005057999999998,-15.6204836,3.1904588,-0.8130838,-0.1773284,-0.4767713999999999,-160.9862336,59.6910924,-23.6366122,17.313299122185427,0.9142293730301164,16.013433514028154,0.9590941534213208,-140.1372842,114.407188,152.3129818
1279.101,-6.50227,26.3781888,-2.7061842,0.7923244,-0.1767201999999999,0.4186994,-20.6823868,-54.2672292,-176.32763659999998,1.1951197999999998,-17.227542999999997,2.8797019999999995,-0.8200006,-0.1745048,-0.468087,-160.84707640000002,60.024246000000005,-23.507614,27.30223053975032,0.9134096405686551,17.507405083621187,0.9601866218566056,-140.1646896,114.2914752,152.8200226
1299.087,-6.3657772,36.1552736,0.2546469999999999,0.7770146,-0.1899844,0.4232139999999999,-20.5121502,-53.621604000000005,-176.71362299999998,-0.9034768,-19.7796206,1.2153224,-0.8175497999999999,-0.1726998,-0.4631159999999999,-160.661554,60.39275260000001,-23.2771954,36.712283687418655,0.9049617951342034,19.837506646351105,0.9553477512697038,-140.14940380000002,114.0143566,153.4364276
1319.072,-4.3805622,46.0060746,3.579807,0.7709168,-0.1710292,0.4369376,-20.281994200000003,-52.7694266,-177.1186128,-5.3691052,-25.3107004,0.7189946,-0.8223182,-0.1749082,-0.4587557999999999,-160.4739442,60.86057039999999,-22.9433122,46.35259694392627,0.902484440901138,25.883890716467963,0.9577353415803972,-140.19195,113.629997,154.1753006
1339.058,-6.7796008,54.743799,7.0683352,0.7577178,-0.160539,0.4296278,-20.1156772,-51.7364372,-177.5061678,-6.9226074,-31.0277668,-0.3085225999999998,-0.8391368,-0.1752896,-0.4488101999999999,-160.198169,61.4328338,-22.4758036,55.613018965520304,0.8857138824082413,31.792137267010343,0.9676298923692054,-140.0824918,113.169271,155.03036420000004
1359.044,-9.2010358,63.81224139999999,10.7819448,0.7400475999999999,-0.1786103999999999,0.4301168000000001,-20.0225952,-50.51002340000001,-177.8680514,-7.5307362000000015,-38.005444,-1.8713794,-0.8290683999999999,-0.1700362,-0.4378579999999999,-159.77694100000002,62.121547,-21.8308852,65.36751139484355,0.8743984142804468,38.78953237936584,0.9528831771801828,-139.7543458,112.6315704,156.0371662
1379.03,-8.412872,73.6466118,13.951771400000002,0.7318186000000001,-0.1731565999999999,0.432906,-19.9122376,-49.0743874,-178.2350344,-10.1263924,-46.5254692,-1.3652697999999996,-0.829989,-0.1601058,-0.430612,-159.29748239999998,62.9695122,-21.0621504,75.42712887354351,0.8677264985382895,47.63430558899456,0.9486528879725398,-139.3852448,112.0438996,157.172884
1399.016,-8.852616,83.64755240000001,17.264504,0.7142282,-0.1762805999999999,0.4625628,-19.8133786,-47.4132752,-178.60243540000002,-12.3518304,-54.552066,-1.5407462,-0.8663408,-0.1569082,-0.4180906,-158.6927368,63.969437600000006,-20.1101816,85.86818346116458,0.8690000664875924,55.954173373856,0.9746621541745838,-138.8793582,111.3827128,158.4922538
1419.002,-9.4904984,92.7605544,19.9126532,0.6911432,-0.1908095999999999,0.4513275999999999,-19.7382998,-45.5612588,-178.9684356,-12.6546128,-60.980960200000005,-4.8728282,-0.9012214,-0.1610014,-0.392014,-157.7690704,65.06532899999999,-18.8105636,95.34727982454052,0.8472212396299799,62.470482523337566,0.995889772422591,-138.03077059999998,110.6265878,160.15787199999997
1438.988,-8.4828938,103.5121458,22.5619868,0.6655212,-0.2090961999999999,0.4496954000000001,-19.64778,-43.4789902,-107.34504699999998,-14.8707978,-65.665851,-7.606393399999999,-0.8877678,-0.1545908,-0.3630266,-156.59478159999998,66.2164238,-17.1984696,106.2815462049076,0.8299793017208562,67.75693200933947,0.9715031108900476,-136.94700159999996,109.695414,90.14657739999998
1458.974,-6.6700734,115.0867506,24.4688364,0.634698,-0.2019647999999999,0.4795071999999999,-19.5054212,-41.162513,-35.7589416,-17.224894799999998,-70.89886800000001,-6.8933512,-0.8849452,-0.149236,-0.3451778,-155.2626252,67.4580184,-15.3760932,117.84809713185,0.820706090202138,73.28618406847933,0.9615337249997424,-135.757204,108.62053139999998,20.382848399999997
1478.96,-6.858152,124.2153654,27.4683896,0.6120464,-0.2007758,0.5203474,-19.3913228,-38.6531204,35.8437714,-19.0357848,-76.48884000000001,-11.7236192,-0.964318,-0.162662,-0.3039888,-153.379413,68.7522568,-12.9436186,127.40095634463664,0.8280538233142578,79.68906446084131,1.0240982969878625,-133.9880902,107.4053772,-48.78739
1498.946,-5.7294608,133.5319442,29.6689796,0.5581524,-0.2334163999999999,0.5226102,-19.2659044,-35.955046,107.4412324,-24.121637,-81.85810260000001,-14.6015332,-0.9636378,-0.152836,-0.270243,-151.03115259999998,70.0835068,-9.9263728,136.90819987639844,0.7994615303807683,86.57832930140543,1.0124168763576789,-131.7652482,106.0385528,-117.3676052
1518.932,-2.3868666,143.72554780000002,31.5581398,0.501007,-0.2426555999999999,0.5311764,-19.0788678,-33.051631,179.0216858,-28.5019818,-82.70056919999999,-12.7851296,-0.945444,-0.1543414,-0.2530181999999999,-148.49049399999998,71.3965746,-6.633328800000001,147.16876846060995,0.7694401355383796,88.40365745499625,0.9908096862774404,-129.4116262,104.4482056,-185.6550146
1538.918,-4.8840374,152.4926056,32.8578626,0.4694429999999999,-0.2079473999999999,0.6096964,-18.9491624,-29.97041,178.5856264,-30.3124788,-85.0357102,-10.794508400000002,-0.9752632,-0.165329,-0.2154334,-145.59439400000002,72.72434559999999,-2.9525806,156.06885569722817,0.7970875432402139,90.9199636593444,1.012365318129182,-126.64523160000002,102.6947556,-181.538207
1558.904,-5.6892532000000005,157.7937928,36.98798359999999,0.4215067999999999,-0.2529514,0.6592714,-18.893229,-26.7625628,178.2206118,-34.546941600000004,-84.0491074,-5.648073800000001,-1.0267114,-0.185304,-0.1742994,-142.6553712,74.0648836,0.8440354000000001,162.1707728876474,0.8223692431421301,91.0474841294409,1.0577590236657497,-123.7621422,100.8274464,-177.37657639999998
1578.89,-3.9523266,163.9295748,38.5241958,0.3272168,-0.2658091999999999,0.6365228,-18.8174164,-23.4178526,177.85555440000002,-36.1402902,-76.4217902,-1.5058768,-0.9965824,-0.1622174,-0.1596923999999999,-139.8249298,75.2689744,4.5387746,168.44180016165407,0.7634701303434994,84.54985664121384,1.0222488089845252,-121.0075134,98.686827,-173.3167798
1598.876,-9.6611282,170.0210816,39.4906998,0.267961,-0.2561335999999999,0.6967928,-18.8719056,-19.944174800000003,177.4783968,-33.4442566,-68.2586806,5.6708784,-1.0076324,-0.173978,-0.1298874,-137.2250214,76.3922424,7.9175764,174.8142470087161,0.7892577048732562,76.22286165322743,1.0307580388687343,-118.3531158,96.3364172,-169.5608204
1618.862,-11.4553126,172.504422,41.2953302,0.2103537999999999,-0.2761381999999999,0.8093246000000001,-18.9901428,-16.405437,177.12135940000002,-29.1662414,-63.6188628,9.1168498,-1.0248386,-0.1854612,-0.1008928,-134.4795318,77.4517058,11.3413364,177.74786663317462,0.8806289427669522,70.57723635595303,1.0463600574597829,-115.489389,93.8571428,-165.780023
1638.848,-7.052289999999999,173.6628602,43.6256746,0.1314063999999999,-0.3000505999999999,0.8091913999999999,-19.0528256,-12.830229,176.8045228,-22.4987594,-60.3223144,11.3917346,-1.0414654,-0.1720276,-0.0947796,-131.3604644,78.4497068,14.9953502,179.19744220103684,0.8729769334611768,65.38155249233817,1.0598239698813572,-112.3076388,91.2799358,-161.8091726
1658.847,-9.4754794,177.6374482,41.6475342,0.030259,-0.2973848,0.8219008000000001,-19.1659768,-9.189909600000002,176.4198182,-17.727296799999998,-56.9930168,8.358335,-1.052778,-0.1232069999999999,-0.0940482,-127.61595599999998,79.3155332,19.1817098,182.70020475579025,0.8745708955783288,60.26875458952672,1.064127128709836,-108.4499792,88.50544280000001,-157.23810840000002
1678.82,-9.1338636,178.64410700000002,40.3214218,-0.0490492,-0.3400722,0.9662478,-19.2946904,-5.5397408,175.99825760000002,-16.5759736,-59.5217438,11.406037199999998,-1.0501048000000002,-0.1497252,-0.0601232,-123.08828739999998,80.19035919999999,24.1308204,183.36564968953255,1.025519252007645,62.83071359127253,1.062427656678948,-103.793597,85.73010000000001,-151.86743719999998
1698.806,4.2097736,175.24707940000002,40.4363532,-0.1233104,-0.3446519999999999,0.9487694,-19.1889564,-1.9552502,175.598752,-9.833895000000002,-58.4033944,10.349146599999996,-1.017192,-0.1786983999999999,-0.0742232,-117.7616622,80.9667234,29.7468352,179.9009719042905,1.0169335426804054,60.122930764070944,1.0354331298759956,-98.5727058,82.9219736,-145.85191680000003
1718.791,3.930203800000001,175.0499114,37.840277400000005,-0.2038123999999999,-0.2861954,0.8638568000000001,-19.1144562,1.6059644000000002,175.1585574,-3.9518254,-54.020308,8.9703294,-1.0249274,-0.1257882,-0.0734846,-112.1658752,81.6236342,35.5110484,179.13627376041498,0.9325748614889638,54.90243537359207,1.0352288795078892,-93.051419,80.0176698,-139.647509
1738.777,-10.3690362,174.8967222,34.1772178,-0.2905626,-0.3389841999999999,0.9762078,-19.3581374,5.144726800000001,174.6432588,-8.5588588,-55.234639,9.812499,-1.0525030000000002,-0.105684,-0.0466113999999999,-105.5479752,82.1759964,42.3904784,178.50619755226853,1.073461029171176,56.74860831812231,1.0588221264570177,-86.18983779999999,77.0312696,-132.2527804
1758.763,-0.8467601999999992,169.55200480000002,34.224944400000005,-0.3532309999999999,-0.418064,1.0177734,-19.436363,8.5811502,174.15045179999998,-8.952248999999998,-55.5733322,9.180117,-1.0078088,-0.1796826,-0.0295606,-98.0876572,82.57912300000001,50.1178886,172.9738308349521,1.155600424543259,57.03343372183764,1.0241280404190485,-78.65129420000001,73.9979728,-124.0325632
1778.749,9.5624464,164.07525619999998,33.3259654,-0.4135154,-0.3263896,0.8795411999999999,-19.3306234,11.9057288,173.6720308,0.4045476000000008,-49.4377,7.641753399999999,-0.9523892,-0.1814698,-0.0654144,-90.7160842,82.81431140000001,57.5570038,167.6983901177662,1.025240400843997,50.02645535191432,0.971728110283962,-71.3854608,70.9085826,-116.115027
1798.735,-7.247566399999999,162.5149628,29.518626,-0.4540128,-0.2792598,0.8518003999999999,-19.605116,15.172536400000002,173.111081,4.787422000000001,-47.0716126,6.7273786,-0.9913728,-0.0999942,-0.0511063999999999,-83.2858704,82.9202502,64.95905619999999,165.33296596122526,1.004827139313046,47.79031015800484,0.9977127506123394,-63.6807544,67.7477138,-108.1520248
1818.721,-16.405384599999998,160.83553780000005,26.655743,-0.5122485999999999,-0.4191292,1.021698,-20.136392,18.3789868,172.4565858,-1.049317999999999,-50.779554,8.8924722,-1.0204208,-0.0919594,0.0222754,-75.1487534,82.93235039999999,73.18439559999999,163.85278605556636,1.217347410437382,51.56297348419516,1.024798191726625,-55.0123614,64.55336359999998,-99.2721902
1838.707,8.489693,154.2160798,26.352079600000003,-0.5531233999999999,-0.4174458,0.8975579999999999,-20.1995952,21.4524054,171.8147554,-3.447824999999999,-44.3292008,8.730370400000002,-0.959467,-0.1563456,0.0116666,-68.1466614,82.82413340000001,80.3080688,156.6815440802105,1.1339386468981465,45.31208346697977,0.972191843353934,-47.9470662,61.371728,-91.5066866
1858.693,5.338639200000001,150.414914,21.6166992,-0.5863832,-0.2587606,0.7853289999999999,-20.3849228,24.4212772,171.0857178,2.726571800000001,-37.7361686,6.4933152000000005,-0.9455442,-0.1224018,-0.0051693999999999,-62.3856888,82.632448,86.053363,152.05403350927082,1.0136784221811177,38.38770319613733,0.9534478263089384,-42.000766000000006,58.211170800000005,-85.03235480000001
1878.679,-13.909779999999998,149.708841,18.1361638,-0.6105418,-0.3650868,0.8347358,-21.031329,27.347898,170.2535674,1.2364550000000012,-34.660967,6.0053278,-1.0005652,-0.081059,0.0243766,-57.30876920000001,82.4123078,91.139067,151.44351914358077,1.0967376700392486,35.1990826063346,1.0041391833603548,-36.2774402,55.06440980000001,-79.11450040000001
1898.665,-4.533205799999998,147.8303314,16.438280199999998,-0.6592458,-0.458955,0.9696158,-21.5668908,30.2088198,169.35296920000002,-4.567631999999999,-34.4769568,3.4723367999999994,-1.0385168,-0.1440507999999999,0.0952992,-52.9221428,82.0911834,95.6457244,148.8105301804704,1.259126489456989,34.951122086838986,1.0527818930735464,-31.355252000000007,51.882363600000005,-73.70724480000001
1918.651,13.784512600000005,140.0345276,16.836013,-0.685193,-0.3556016,0.7713760000000001,-21.7464188,32.9275832,168.49526959999997,-1.304718999999999,-29.202381000000003,0.0224031999999994,-0.9509070000000002,-0.2006625999999999,0.0439918,-49.7455688,81.723506,98.8688644,141.7149711269451,1.091312456882794,29.23152150746677,0.9728437079793446,-27.999150000000004,48.79592280000001,-69.6264052
1938.637,0.2002620000000005,135.9045258,12.7946922,-0.7457862000000001,-0.2840364,0.7165812,-22.2805308,35.5359942,167.543579,10.8080182,-24.085456200000003,-2.3519116000000007,-0.928279,-0.1449918,0.0197954,-47.2834946,81.36705620000001,101.128955,136.5056203468716,1.0725494621829057,26.503847757408064,0.9397427210515654,-25.0029638,45.831062,-66.414624
1958.623,-8.0390338,131.15012819999998,10.3847274,-0.7928056,-0.3923306,0.753618,-23.0654086,38.0290106,166.5147308,12.873987,-18.54201,-1.4638886000000009,-0.975551,-0.104352,0.03023,-45.330429800000005,81.0974258,102.8356704,131.8060118298338,1.162068891680575,22.6205359341789,0.981581859248122,-22.2650212,43.0684152,-63.67906039999999
1978.609,-0.0972336000000005,127.3717088,8.659105199999999,-0.8005202,-0.3530491999999999,0.7840378,-23.77998,40.422718,165.4036408,9.6277,-16.753484399999998,-2.5253360000000007,-1.015415,-0.134051,0.0763486,-43.76843720000001,80.8177734,104.2134658,127.66574231119964,1.1748155600167711,19.487153941608284,1.0270668924407795,-19.9884572,40.3950554,-61.19017499999999
1998.595,3.877825599999999,122.4731126,7.680354799999999,-0.8187416000000001,-0.3257043999999999,0.6774370000000001,-24.4909518,42.7110008,164.2359498,11.3816162,-13.7745644,-4.111615400000001,-0.9829276,-0.1453974,0.0703448,-42.718749200000005,80.5526672,105.040181,122.77495139958386,1.1114594246840144,18.335353635296126,0.996110165421255,-18.2277974,37.8416664,-59.1957688
2018.58,0.4153057999999994,120.4440736,4.445704,-0.8302210000000001,-0.286884,0.6299868,-25.398077,44.924131,162.9277222,17.6096926,-12.0381714,-5.6152462,-0.9966396,-0.1060579999999999,0.0832333999999999,-41.899535400000005,80.2943482,105.50889279999998,120.52680875359368,1.0809499093257005,22.05787464849882,1.0057169534852837,-16.5014584,35.3702172,-57.41882939999999
2038.566,-3.723951800000001,118.2009278,2.5905152,-0.8356538,-0.3265098,0.632941,-26.5209126,47.0715232,161.4883088,18.609054200000003,-11.0185028,-5.733761400000001,-1.000507,-0.0940937999999999,0.0855673999999999,-41.172264,80.0488938,105.8647598,118.28794494280037,1.0979709615611335,22.373652405547816,1.008558218542787,-14.6513514,32.9773706,-55.62354899999999
2058.552,-2.7108156,116.6785294,1.6176506,-0.8345264,-0.3108026,0.6199116,-27.7568036,49.15863040000001,159.9197662,18.0642598,-12.374960599999998,-6.738928400000001,-1.0060462,-0.1203733999999999,0.1264257999999999,-40.4256064,79.76799919999999,106.2502486,116.721225737342,1.085045142046302,22.910047751014726,1.0210789366487,-12.6688028,30.6093688,-53.66951759999999
2078.538,-2.9222996,114.5614196,1.1198906,-0.8562796,-0.2988659999999999,0.5664794,-29.1116674,51.1741134,158.24137879999998,19.733365400000004,-12.894305,-9.6762622,-0.9730991999999998,-0.1298069999999999,0.1297118,-39.90296540000001,79.43537140000001,106.3750686,114.6041572137564,1.0693149909902695,25.48134340269545,0.990251009264257,-10.791298,28.261258,-51.8663102
2098.524,-4.1002794,113.7377806,-0.4017336,-0.8770545999999999,-0.2783667999999999,0.5189514,-30.676066400000003,53.1316596,156.371811,23.496546200000004,-12.4855486,-9.3842624,-0.9642688,-0.0953893999999999,0.13795,-39.2739462,79.108818,106.5296034,113.81237374230084,1.0564200879789063,28.214198339909476,0.9787459623343536,-8.5978798,25.9771584,-49.84220760000001
2118.51,-4.283156,114.3003904,-0.7685563999999998,-0.8920628,-0.2954557999999999,0.5362982,-32.4538582,55.06883380000001,154.2912812,23.313375,-11.657212,-10.628875000000004,-0.9791704,-0.1076251999999999,0.1605684,-38.8171294,78.7703796,106.5126372,114.38319522487876,1.0819824066133052,28.149192337777546,0.9980681675064884,-6.3632712,23.7015458,-47.77864400000001
2138.496,0.1243472,114.1573118,-0.4743747999999999,-0.9075624,-0.2868567999999999,0.5099775999999999,-34.335181,56.968112,152.0059174,22.394258,-11.9518732,-12.411085600000002,-0.9981822,-0.1040569999999999,0.1857656,-38.506156,78.4095366,106.3657698,114.15836513843144,1.0798303043079314,28.25570933687508,1.0206392221491392,-4.170974999999999,21.4414246,-45.64014760000001
2158.482,2.800859,111.4463346,0.0033714,-0.931951,-0.2784589999999999,0.4651222,-36.3183234,58.7939352,149.5662264,19.7610424,-10.8930194,-13.5721226,-0.970556,-0.1157711999999999,0.1579372,-38.4662788,78.06028280000001,105.9991026,111.48152456025784,1.0781515394483467,26.331714343217477,0.9901141747441452,-2.147955399999998,19.2663476,-43.567123800000005
2178.468,3.5032524,105.6297162,-0.0125935999999998,-0.9635562,-0.2806688,0.4244595999999999,-38.3997762,60.49159999999999,147.0384524,19.900984600000005,-4.883935799999999,-12.2020604,-0.9418776,-0.1129106,0.1238707999999999,-38.716056,77.8356596,105.33653239999998,105.6877943779196,1.089670352851742,23.849366762100985,0.9566745486667658,-0.3162797999999995,17.3440596,-41.70192000000001
2198.454,0.0721477999999997,96.8073988,0.1211762000000001,-0.9752504,-0.2634012,0.3909044,-40.5684996,62.0129852,144.50638759999998,16.821683,3.4223634000000005,-10.7715892,-0.93716,-0.1083523999999999,0.0960106,-39.4538138,77.770439,104.24132219999998,96.80750152441044,1.0831896347366696,20.265949868873783,0.9482758794244004,1.1146858000000008,15.757453800000002,-40.265065400000005
2218.44,-6.3118246000000005,87.90380379999999,0.6209896,-0.9790332,-0.27537,0.4118902,-42.8350776,63.3451294,142.02604399999998,12.004410200000002,9.481276,-8.8285332,-0.9502776,-0.1077333999999999,0.1041898,-40.4846678,77.8197004,102.945233,88.13230667793374,1.0972639520453955,17.661921110160762,0.96202365717344,2.3504098,14.474571000000005,-39.080811
2238.426,-7.6848274,78.44866540000001,2.1391252,-0.9777287999999998,-0.2876548,0.4402237999999999,-45.022432,64.50458,139.68601719999998,5.656136000000003,14.063157800000004,-7.7628298,-0.966762,-0.1310725999999999,0.1258476,-41.8331168,77.94724719999999,101.4549118,78.85318973783004,1.110178311983674,17.03014410573102,0.9836901999819454,3.1893152,13.442667200000002,-38.2311054
2258.412,-6.663167200000001,68.137416,3.1201556000000004,-0.9746866,-0.2892727999999999,0.4482406,-46.9967042,65.4835754,137.56897,2.9889222000000037,17.624597400000003,-7.320682400000001,-0.976757,-0.1372621999999999,0.1417711999999999,-43.4176092,78.1157272,99.777762,68.53350003655456,1.111131115812963,19.317155076030463,0.9964909541723296,3.579095,12.6321518,-37.791208000000005
2278.398,-2.839183200000001,57.8658494,3.781741,-0.9692376,-0.281068,0.4397928,-48.6999422,66.30521839999999,135.669034,1.9964476000000029,18.964592,-6.676068200000001,-0.9818162,-0.1271318,0.151535,-45.0634688,78.299849,98.0572022,58.0587551797119,1.1008353431869815,20.204243102800486,1.0015430102490257,3.6364734,11.994630600000002,-37.6118318
2298.384,-1.1497636000000009,47.6888878,4.2760026,-0.9686852,-0.2762447999999999,0.4665098,-50.1336832,66.9781326,134.0451478,2.0437940000000028,18.4940032,-6.539014400000001,-0.9819099999999998,-0.1297848,0.1540828,-46.707737,78.4656496,96.3377044,47.89400979425382,1.1100872036565956,19.72216919102596,1.0023636324542504,3.4259462,11.487517,-37.7074434
2318.369,-1.9818246000000008,34.2202764,4.445952,-0.974693,-0.303604,0.4858748,-51.2110772,67.4708176,132.83432620000002,1.3652364000000028,18.4450834,-6.5018224,-0.978364,-0.1336976,0.1359562,-48.4250718,78.6260576,94.5594116,34.564742655253,1.1306087538755571,19.60506736999346,0.9967724178869518,2.786005399999999,11.15524,-38.27491460000001
2338.356,0.6175245999999995,20.183851,3.9906108,-0.973473,-0.3284572,0.5022272,-51.7904366,67.7751892,132.1194548,1.5115536000000027,17.5560974,-6.2613352,-0.982753,-0.1589433999999999,0.1279248,-50.1353212,78.7605456,92.7876768,20.583832305449896,1.143575959165232,18.700418944256803,1.0037087315888011,1.6551153999999983,10.9853564,-39.331778
2358.341,4.797819799999999,6.3461754,3.440523,-0.9757602,-0.3082392,0.530447,-51.8155526,67.9070206,131.9227752,4.064400600000004,15.4322148,-5.697782800000001,-0.9951446,-0.1500038,0.1364898,-51.57120080000001,78.86845260000001,91.2417508,8.667768776009556,1.1526028770264631,16.945127167023426,1.0156000100569318,0.2443517999999983,10.961432000000002,-40.6810244
2378.327,4.1766256,-9.242949,2.8567738,-0.9868962,-0.3160602,0.5512424,-51.3032242,67.8322296,132.3239776,3.6131628000000022,11.6614008,-5.552885000000001,-1.0012984,-0.1485641999999999,0.1321414,-52.729053,78.92647720000001,89.9880048,10.537431573374167,1.1737658808962883,13.411850948350471,1.0208482536391783,-1.425828800000001,11.094247600000005,-42.3359728
2398.313,4.579536999999999,-26.455529,2.2109508,-1.0041622,-0.3473369999999999,0.5514058,-50.1878502,67.5210646,133.36935720000002,2.2903126000000027,8.6009178,-5.095124600000001,-1.0048705999999998,-0.1684285999999999,0.0991587999999999,-53.7539072,78.9516998,88.900305,26.939849243160783,1.197093593563795,10.25580876857602,1.0237019017564437,-3.5660570000000007,11.4306352,-44.4690522
2418.299,8.4646604,-43.7101948,0.9563452,-1.0246622,-0.343608,0.5590486,-48.473219400000005,66.94861740000002,134.9825744,4.726294400000002,6.1205716,-4.160504800000001,-1.0110584,-0.1821904,0.0816866,-54.5319184,78.9589356,88.0162092,44.5325296977708,1.2167721310643174,8.78117621147765,1.0305848488515053,-6.058699,12.010318199999997,-46.9663652
2438.285,12.5206276,-61.4701966,-0.4724112,-1.0402338,-0.3334589999999999,0.5470254,-46.2231964,66.07872540000001,137.0939758,7.143617800000003,4.8689078,-2.033597600000001,-1.012961,-0.1708559999999999,0.0675862,-55.04369959999999,78.9937606,87.3545134,62.73415622993919,1.2216865602881126,8.88105048043887,1.029489997371242,-8.8205032,12.9150352,-49.7394624
2458.271,13.3848434,-79.5807456,-1.869163,-1.0604172,-0.3340312,0.5343396,-43.6040198,64.8936082,139.60367419999997,8.324744200000001,4.827329000000001,0.3019783999999992,-1.0044799999999998,-0.1705197999999999,0.0366664,-55.468598,79.0744324,86.7605514,80.72015159435104,1.2335235258224466,9.62785865204414,1.0195104204867156,-11.8645782,14.180824199999998,-52.8431228
2478.257,13.1888498,-98.6216948,-3.8547436,-1.0834836,-0.3304831999999999,0.5327942,-40.7632476,63.35219360000001,142.39966420000002,10.397132800000003,6.6666668,3.619598599999999,-0.9930096,-0.1611215999999999,0.0052416,-55.851467,79.2343796,86.169342,99.57431140858093,1.251808897757497,12.870365601185542,1.0060097961994603,-15.088219400000003,15.882186,-56.2303222
2498.243,14.190627799999998,-118.324536,-6.11814,-1.0911666,-0.3141926,0.55774,-37.8058818,61.4124048,145.3544708,10.045829,9.6481628,7.328904399999999,-0.9752836,-0.1428744,0.0076502,-56.2735778,79.4933718,85.5460434,119.32938185557248,1.265083177680551,15.739077654579514,0.9857229429024972,-18.467696,18.080967,-59.80842740000001
2518.229,14.9511812,-137.32422780000002,-8.1816398,-1.0868226,-0.3050216,0.5768492000000001,-34.8662818,59.0761376,148.3392548,7.253284400000001,13.3596368,10.4747548,-0.9663202,-0.1208556,0.015436,-56.8809562,79.8493058,84.7916046,138.3778182728665,1.2676657839817087,18.461054090580003,0.9739707773210652,-22.0146744,20.773168200000004,-63.5476502
2538.215,13.4166678,-155.1345548,-10.359565,-1.0781108,-0.3009902,0.6083322,-32.1187206,56.3654488,151.226703,3.5462834000000023,16.2804392,11.0744564,-0.9578208,-0.1123097999999999,0.0285359999999999,-57.7992386,80.24064800000001,83.796875,156.05786636641866,1.2739647024660925,20.006809117235893,0.964804891874352,-25.680518,23.875199200000004,-67.429828
2558.201,12.8724472,-171.0576872,-13.0112002,-1.064672,-0.3172663999999999,0.6558330000000001,-29.6291016,53.29842140000001,153.9222292,-0.043955199999998,18.3020434,10.849739799999998,-0.9595362,-0.1246855999999999,0.0477366,-59.0291962,80.6303482,82.55905,172.03407679228644,1.2900780441670807,21.276361963521737,0.9687801613045964,-29.4000946,27.33192680000001,-71.3631792
2578.187,15.229163999999995,-184.8652648,-15.2230302,-1.0488856,-0.338949,0.6984636,-27.3810254,49.9203338,156.368329,-1.370165999999998,19.395841,9.6373296,-0.9601522,-0.1420699999999999,0.0632701999999999,-60.5807952,80.9960724,81.02377320000001,186.11511011785996,1.3049516569640884,21.70147747928406,0.9726660528017208,-33.1997698,31.0757386,-75.3445558
2598.173,16.8331828,-195.876828,-17.163973199999997,-1.0327554,-0.3286098,0.7256386000000001,-25.3978444,46.2917602,158.546399,0.474118200000002,20.0265352,7.870518799999999,-0.9668264,-0.1565826,0.0682007999999999,-62.4000402,81.31696000000001,79.1810714,197.34662339784316,1.3042697170045618,21.522824312008023,0.9817956750161208,-37.0021958,35.02519980000001,-79.3653276
2618.159,15.607544999999996,-204.9793702,-19.7583758,-1.0096982,-0.327632,0.7575654,-23.7281606,42.4540978,160.45325939999998,3.297048600000001,21.6980024,5.7409746,-0.9784282,-0.1511313999999999,0.0726806,-64.6112738,81.602327,76.8853806,206.52005007448963,1.3041236589313148,22.685515797067804,0.9926957803061118,-40.8831132,39.1482292,-83.56787879999999
2638.144,14.0110266,-212.6675936,-23.374997,-0.9661892,-0.3222589999999999,0.8042402000000001,-22.3517008,38.425836200000006,162.1012146,4.179053400000002,24.603494,5.1741324,-0.9950498,-0.125301,0.075698,-67.3170324,81.8954086,74.0731354,214.4066340362413,1.2977575785075115,25.48662493192885,1.0057607231767602,-44.9653316,43.4695724,-88.02807920000001
2658.13,13.445958599999996,-219.7476534,-27.0911788,-0.9037376,-0.326283,0.8325922,-21.2134726,34.2195606,163.52488699999998,2.7482522000000023,27.8938574,5.6748056,-0.993222,-0.1186178,0.0799946,-70.6109908,82.1991302,70.69678880000001,221.819198777412,1.271381932089488,28.59761509993676,1.0034735969570898,-49.3975182,47.979569600000005,-92.8280982
2678.116,12.9199298,-225.2742158,-31.1812392,-0.8198447999999999,-0.3142702,0.8464484000000001,-20.2823236,29.847027200000003,164.742337,2.1001718000000023,32.2453536,5.629788999999999,-0.9828392,-0.1214435999999999,0.08247,-74.7346694,82.4867218,66.49656680000001,227.7886445115066,1.2195844163310878,32.80042796310849,0.9937417883623492,-54.4523458,52.6396946,-98.2457702
2698.102,8.693445999999998,-229.2169952,-35.2876224,-0.7250282,-0.3131239999999999,0.8523759999999999,-19.610489,25.3465252,165.7730102,3.8504074000000026,37.604955800000006,4.170610999999999,-0.982903,-0.1202761999999999,0.0853216,-79.84999239999999,82.713089,61.25875620000001,232.08020851963383,1.1620057553847314,38.03093916772566,0.9939036407630268,-60.2395034,57.3665638,-104.514254
2718.089,3.456604999999997,-231.5301756,-39.3229514,-0.619442,-0.3058581999999999,0.8704236,-19.1784558,20.7620742,166.6494352,4.405537800000002,42.9543572,2.4938735999999992,-0.995228,-0.1281356,0.081744,-85.9552414,82.83575579999999,55.0078834,234.8711664685549,1.1112582388032946,43.25164703575111,1.006766897304118,-66.7767856,62.0736816,-111.6415518
2738.074,0.417808999999998,-231.6248014,-42.6487304,-0.520205,-0.3154064,0.864982,-18.916655400000003,16.143278600000002,167.40127560000002,5.5061984000000015,46.7200142,0.0029021999999994,-1.0139118,-0.1337986,0.0884013999999999,-92.6655792,82.8080504,48.1193154,235.5188684430226,1.0574915127366082,47.04336250834042,1.026515470445117,-73.74892379999999,66.66477180000001,-119.2819602
2758.06,-1.153494800000002,-229.1017972,-45.812439,-0.4220495999999999,-0.3057936,0.8453731999999998,-18.7687466,11.5432364,168.0400604,6.265102200000001,48.7079176,-1.9564636000000009,-1.028993,-0.1098761999999999,0.0744582,-99.593164,82.66271959999999,40.9907428,233.6402011590734,0.9931220659814984,49.14814841194894,1.0375179019769634,-80.8244174,71.1194832,-127.04931760000002
2778.046,-3.037078400000002,-225.4380674,-48.1889786,-0.3289731999999999,-0.3139991999999999,0.8371892000000001,-18.7265508,6.998557600000001,168.58891899999998,4.984489200000001,49.0465108,-3.2938712000000003,-1.0443162,-0.1146788,0.0732842,-106.26398,82.3989638,34.139494,230.55091354571977,0.9527353360275456,49.40905728428364,1.0531467735892843,-87.53742919999999,75.40040619999999,-134.449425
2798.032,-2.6866570000000016,-220.9096374,-49.6346244,-0.2368317999999999,-0.3101729999999999,0.8273348,-18.7283826,2.5469586,169.07244880000002,2.097821000000001,45.3715108,-5.1270182,-1.0493968,-0.1261898,0.063284,-111.956758,82.0376404,28.3282,226.43295246355865,0.9147565046017874,45.70843642967553,1.0588495521698444,-93.2283754,79.4906818,-140.7442488
2818.018,-0.7002570000000018,-215.6076478,-49.4192558,-0.1614178,-0.3259996,0.7978452,-18.739639,-1.8119778,169.523749,0.2434090000000011,39.565017,-7.2260226,-1.0418294,-0.1354005999999999,0.0508086,-116.32175279999998,81.6099686,23.8921874,221.19993443385263,0.8768628219510963,40.22020910894523,1.0518190600187276,-97.5821138,83.4219464,-145.6315616
2838.004,3.2715063999999985,-209.3614044,-48.585115,-0.0833112,-0.3024093999999999,0.7651148,-18.703328,-6.0440006,169.9502382,-1.112067199999999,33.991832,-9.1252206,-1.0324084,-0.1294814,0.0091733999999999,-119.5642944,81.16305700000001,20.6185724,214.9497936868719,0.8269176854033538,35.2129377810515,1.0405367310211011,-100.8609664,87.2070576,-149.33166580000002
2857.99,3.3064807999999983,-203.270102,-47.606742,-0.0128968,-0.2780011999999999,0.7536584,-18.684948400000003,-10.1477036,170.35447100000002,-2.211110199999999,27.9406138,-9.970184200000002,-1.0353956,-0.1271165999999999,-0.0034842,-121.8664748,80.7316086,18.3189902,208.7967170868013,0.8034002604818098,29.74847022653811,1.0431753534974644,-103.1815264,90.8793122,-152.03548080000002
2877.976,1.824795399999998,-196.4223878,-46.6849564,0.0589998,-0.2580336,0.7331468,-18.720741,-14.1087598,170.7377962,-5.008878799999999,19.1318844,-11.6673732,-1.0400258,-0.1147297999999999,-0.0259324,-123.09495239999998,80.35597680000001,17.1665484,201.90237606669055,0.7794655511818595,22.961826253940057,1.0466561426960814,-104.3742114,94.4647366,-153.5712478
2897.962,1.689881799999998,-188.313208,-45.622612,0.118486,-0.2717648,0.7050506000000001,-18.7957548,-17.9166056,171.104358,-9.1291948,13.3049502,-11.310277200000002,-1.035557,-0.1011509999999999,-0.0551296,-123.86229699999998,80.0465772,16.568916800000004,193.76827070873023,0.7648472967039892,19.704980788157773,1.041944863150714,-105.0665422,97.9631828,-154.5354412
2917.948,4.448555799999999,-178.8565124,-44.3806008,0.1807318,-0.2597286,0.680214,-18.8410288,-21.5328542,171.4478028,-11.6923492,9.6868724,-9.057450800000002,-1.0292264000000002,-0.1064543999999999,-0.0900992,-124.4934066,79.80269139999999,16.1640652,184.33415148573533,0.7502093141152008,17.68004360014542,1.0386324602942856,-105.6523778,101.3355456,-155.2837376
2937.933,6.007976399999999,-169.00487379999998,-41.770691,0.234171,-0.2765893999999999,0.6645866,-18.887969,-24.9524448,171.7937684,-13.0666866,8.451387,-9.008702,-1.0186848,-0.1333616,-0.1102296,-124.9908188,79.55592019999999,15.9230408,174.1939544737255,0.7569762891484251,17.98112768018715,1.033273730829232,-106.1028498,104.508365,-155.87072759999998
2957.919,8.535422399999998,-157.9882936,-38.3249352,0.2900086,-0.2599167999999999,0.6514408,-18.9038252,-28.1562088,172.1427614,-12.763132199999998,11.4134722,-11.8585048,-1.0056742,-0.1575034,-0.1439982,-125.54545,79.21401820000001,15.617343799999995,162.79421061042194,0.7589709130795725,20.82760253381249,1.0280677989123286,-106.6416248,107.370227,-156.5254176
2977.906,7.4553455999999985,-146.9740082,-34.058813,0.335923,-0.2546018,0.6285994,-18.9639532,-31.131877999999997,172.51338520000002,-10.956326999999998,21.0145608,-15.244568,-0.9985768,-0.1516477999999999,-0.1659858,-126.5949922,78.6992722,14.768141,151.05278550016243,0.7568378585751376,28.17888784985045,1.0235741138504433,-107.63103900000002,109.8311502,-157.7452442
2997.891,8.733340199999999,-136.00706180000003,-30.3012748,0.370356,-0.2521096,0.6346292,-19.0059952,-33.8804158,172.89169020000003,-8.7886968,32.878626600000004,-16.8220746,-0.9864906,-0.1619403999999999,-0.1909868,-128.280733,77.9955004,13.220255,139.6150398238781,0.776837845783018,37.96350184575342,1.017774216029646,-109.2747378,111.8759162,-159.6714352
3017.877,8.827567599999998,-127.0444046,-26.7002192,0.4063507999999999,-0.2277393999999999,0.6069441999999999,-19.06366,-36.4465062,173.2902558,-5.548575599999998,49.56057199999999,-18.5889698,-0.9553854000000002,-0.1602599999999999,-0.2230433999999999,-130.6462176,77.02549619999999,10.8988828,130.1195926647064,0.7650931112528983,53.22205169270921,0.9940789145820972,-111.5825576,113.4720024,-162.39137300000002
3037.863,3.672761999999998,-119.2116972,-24.5691874,0.4537174,-0.2015822,0.5989869999999999,-19.2269078,-38.8574128,173.6856202,-0.3532167999999977,67.75053519999999,-14.0608028,-0.9324474,-0.1688314,-0.2503532,-133.82525040000002,75.826633,7.6180106,121.7725868145596,0.7779976147705081,69.19512957842284,0.9801218904518764,-114.5983426,114.6840458,-166.06760960000005
3057.849,1.206974399999999,-112.0578444,-21.964096,0.4992371999999999,-0.2342189999999999,0.5671148,-19.4824882,-41.1174798,174.1166016,6.155195200000002,88.2098054,-7.162848600000001,-0.9205436,-0.1862977999999999,-0.2815452,-137.6991884,74.35885640000001,3.4597866,114.1964920296332,0.7910218190441272,88.71393687985272,0.9804973683946532,-118.21670020000002,115.4763362,-170.656815
3077.835,4.543194599999998,-104.81159499999998,-19.8417136,0.551419,-0.2291083999999999,0.5457596,-19.697029,-43.2300042,174.5648164,14.5018258,108.3844666,2.2448548,-0.9033052,-0.2027564,-0.3151705999999999,-142.0543702,72.6171342,-1.4042064000000003,106.76986776334375,0.8089543333858346,109.37337392973276,0.9779585621039164,-122.3573412,115.8471384,-175.9690228
3097.821,5.897371199999998,-97.2562086,-17.1791518,0.6195152,-0.2152596,0.5055888000000001,-19.9166682,-45.1928772,175.0400972,21.782216400000003,121.736052,10.9436072,-0.8960480000000001,-0.1991402,-0.3355804,-146.4299042,70.6852692,-6.4834836,98.93771957592688,0.8281037453777396,124.15270374176724,0.977329546480715,-126.513236,115.87814640000002,-181.5235808
3117.807,7.378253399999998,-88.3236388,-14.805781599999998,0.6817312,-0.2271755999999999,0.4677936,-20.1204028,-46.9684402,175.5185762,23.6546488,124.53134920000002,17.5572236,-0.8974857999999999,-0.1999977999999999,-0.3461084,-150.4279054,68.703836,-11.2469224,89.85941777518022,0.8574363151218637,127.9681813731995,0.98248201294326,-130.3075026,115.67227619999998,-186.7654986
3137.793,11.5247672,-77.74702599999999,-12.0079768,0.7420504,-0.2093521999999999,0.4182526,-20.2438406,-48.5245986,175.98852860000002,24.550125,118.1111144,19.8163258,-0.9011638,-0.1928783999999999,-0.3557792,-153.7197054,66.798165,-15.3196208,79.50856442980346,0.8771558454412534,122.25232411098472,0.9878649253666414,-133.4758648,115.3227636,-191.3081494
3157.779,12.236948799999997,-65.40544200000001,-10.156067,0.795158,-0.1956101999999999,0.37713,-20.3029974,-49.83241339999999,176.3893616,22.8652892,102.2488546,18.852203,-0.8916297999999999,-0.1704153999999999,-0.3631968,-156.190146,65.126052,-18.505126,67.3109237498467,0.901535707672214,106.456823525619,0.9777305479197425,-135.8871486,114.9584654,-194.8944876
3177.765,12.7186552,-51.44938019999999,-9.2051208,0.8349294,-0.1916489999999999,0.3465332,-20.2686068,-50.8684996,176.6758514,18.578857,79.19224679999999,14.904470999999996,-0.8907883999999999,-0.1627926,-0.3595904,-157.82023639999997,63.8198326,-20.7091868,53.7916086578867,0.9240788391082224,82.69660897792846,0.9743257463299836,-137.55162959999998,114.6883322,-197.3850382
3197.751,11.683272,-37.559297,-8.134445,0.8684038,-0.1707846,0.3209128,-20.162973,-51.6291748,176.8431152,13.5481916,54.4441024,8.9423018,-0.8963488,-0.1631588,-0.3534596,-158.736017,62.9184486,-22.032695,40.16676276747005,0.9414231591879604,56.81266182158938,0.9772387907318456,-138.57304399999998,114.5476234,-198.8758102
3217.737,8.969595199999997,-22.5884512,-6.709447999999999,0.8844841999999999,-0.1692911999999999,0.3163292,-20.0193344,-52.099085200000005,176.8902008,9.877127600000003,31.222935800000005,4.175055799999999,-0.9009248,-0.1590392,-0.356619,-159.1304994,62.40769339999999,-22.7004342,25.213259569745208,0.954482044472142,33.013034706471885,0.9819043097739616,-139.11116499999997,114.5067786,-199.590635
3237.723,7.976175999999998,-6.863845,-5.3270108,0.8755642,-0.1742297999999999,0.318664,-19.7930584,-52.2639252,176.80620720000002,4.462637200000001,11.327448999999998,-0.0435100000000007,-0.889988,-0.1634897999999999,-0.36397,-159.17015999999998,62.2314704,-22.851810800000003,11.794439191005123,0.9479005414207126,12.174897319752835,0.9753367191632026,-139.3771016,114.4953956,-199.658018
3257.709,6.199420399999998,7.8096552,-2.8910592,0.8598416,-0.1583493999999999,0.3332442,-19.536086,-52.1383742,176.6373658,-0.5253945999999978,-6.297480800000001,-2.8815736000000003,-0.8816295999999999,-0.1751192,-0.3647669999999999,-158.9429658,62.35910320000001,-22.593992,10.381799022169895,0.935656884976838,6.945341627615935,0.9700476535169804,-139.40687979999998,114.4974774,-199.2313578
3277.695,2.746216999999999,21.9349364,0.7866402000000001,0.8347334,-0.1582275999999999,0.3565736,-19.3257824,-51.73570099999999,176.4359406,-5.948573399999998,-22.386982,-4.7767420000000005,-0.8773934000000001,-0.1840444,-0.3763708,-158.5180544,62.7607754,-21.9932866,22.120170557375683,0.921390554919183,23.651210385476585,0.972289308090735,-139.192272,114.4964764,-198.4292272
3297.681,1.4628357999999984,35.297392200000004,4.9952256,0.8025586,-0.1522791999999999,0.3730133999999999,-19.1334556,-51.052771,176.22390760000002,-11.543564399999998,-35.138183000000005,-6.871798000000001,-0.8651679999999999,-0.1818924,-0.3897552,-157.9288638,63.3663036,-21.0832818,35.679098412001366,0.8980135064497415,37.61871065508812,0.9661830206171084,-138.7954082,114.4190746,-197.3071894
3317.667,-1.7215652000000012,48.2969322,9.2223916,0.7776502000000001,-0.1328339999999999,0.3909645999999999,-19.0031628,-50.096306000000006,176.00816960000003,-16.724975399999998,-46.254324,-8.668629200000002,-0.8602930000000001,-0.1745333999999999,-0.3918166,-157.17746300000002,64.151389,-19.8788876,49.19969464837153,0.8804760210075003,49.94329207245627,0.9612940245315792,-138.1743002,114.247695,-195.8870572
3337.652,-5.2428658000000015,61.478492,13.7999122,0.7433736000000001,-0.1533242,0.4053853999999999,-18.960329,-48.8638598,175.8059662,-21.3951232,-56.9557884,-9.213072,-0.8629894,-0.168313,-0.3935338,-156.2701174,65.1145452,-18.4030146,63.22602468223495,0.8604940104473477,61.53530551387501,0.9633010029185064,-137.30978839999997,113.978405,-194.2089808
3357.639,-4.508129000000002,73.2084624,17.724432200000003,0.716287,-0.1458981999999999,0.4259166,-18.9087882,-47.3850422,175.6073914,-24.231573399999995,-64.5822464,-10.2518678,-0.8655314000000001,-0.166285,-0.3835462,-155.1461152,66.1939604,-16.637073800000003,75.45831757245355,0.8460250003917142,69.73619213076219,0.9611987271867354,-136.237327,113.5790026,-192.2444652
3377.624,-4.394148000000002,83.7311278,22.8426474,0.6938342000000001,-0.1360663999999999,0.4294293999999999,-18.8822116,-45.666363,175.44932260000002,-25.6921474,-71.07724139999999,-11.40754,-0.8664182,-0.1620892,-0.3592852,-153.7213318,67.36535940000002,-14.5272522,86.90222574564223,0.8272421482751953,76.43423743263747,0.9518609462452592,-134.83912019999997,113.0317224,-189.9765748
3397.61,-8.463994800000002,95.5721648,26.2924728,0.6622336000000001,-0.154554,0.4302434,-18.9336818,-43.707351,175.2803924,-26.344449200000003,-77.88645779999999,-10.608338,-0.8925922,-0.1595226,-0.3383649999999999,-151.9798278,68.6454148,-12.0798178,99.48352636729123,0.8047047055464012,82.9027571761326,0.9678115357013471,-133.046146,112.3527658,-187.3602102
3417.596,-9.152151600000002,109.31535019999998,29.9368962,0.6267218,-0.1888308,0.4289654,-18.9892738,-41.4648468,175.0878236,-26.0083642,-83.5934982,-11.7391712,-0.9149074,-0.1606603999999999,-0.309462,-149.7327972,69.98441319999999,-9.1231704,113.70939021183604,0.7825909531939659,88.32958785218096,0.9790985875523056,-130.7435234,111.44926,-184.210994
3437.582,-8.079615,120.8363204,32.4853584,0.5997918,-0.1795899999999999,0.4803954,-19.0027824,-38.9823432,174.8596894,-26.972336599999995,-88.5794754,-13.8301294,-0.9386294,-0.1558059999999999,-0.2654463999999999,-146.83810720000002,71.3487198,-5.486599,125.38737981446192,0.7891657061659484,93.62212816969956,0.9878068897579728,-127.8353248,110.331063,-180.3462884
3457.568,-5.837999000000001,132.30441739999998,37.4365066,0.5646564,-0.1967393999999999,0.494865,-18.998672000000003,-36.2544456,174.6638946,-30.817587999999997,-91.5793732,-13.154807600000002,-0.9714218,-0.172306,-0.2234604,-143.442981,72.71582179999999,-1.2706888000000007,137.62279288798518,0.7761666121383475,97.51694359871846,1.0115751190689697,-124.444309,108.9702674,-175.9345834
3477.554,-7.233275000000002,146.4581298,39.7574966,0.5190737999999999,-0.2187525999999999,0.4806156,-19.0033248,-33.2373218,174.41816699999998,-35.3392994,-90.4985688,-8.9724508,-0.9784364,-0.1621728,-0.2038766,-139.91288160000002,74.05566859999999,3.1600749999999995,151.93078222545387,0.7404604410882192,97.5672173954428,1.012523320191866,-120.9095568,107.2929904,-171.258092
3497.54,-6.547714800000001,160.0201598,41.96712720000001,0.455734,-0.2415401999999999,0.5581072,-18.986108800000004,-29.929662,174.1285584,-36.9197198,-87.5971574,-4.770481600000002,-1.007335,-0.160322,-0.1651768,-136.1177064,75.343283,7.873885199999999,165.56135985470962,0.7599465729009375,95.1792266693044,1.0333006925223849,-117.1315976,105.272945,-166.2546732
3517.526,-1.4990530000000015,167.4105774,45.24854739999999,0.3874064,-0.2227632,0.6529554,-18.885162200000003,-26.4565988,173.863147,-38.47758939999999,-80.397185,0.0822173999999988,-1.0154952,-0.1860546,-0.1245338,-132.333818,76.51555019999999,12.5823978,173.42427634880949,0.7912382172420389,89.13046057134495,1.0398824369834505,-113.4486558,102.972149,-161.2807492
3537.512,-1.0427486000000017,174.9117096,49.9189728,0.3304028,-0.2273364,0.5972882,-18.8221076,-22.8147292,173.6602906,-35.40953,-68.9500726,5.027471799999999,-1.0172092,-0.2030662,-0.1099168,-128.83912360000002,77.5225876,16.9083972,181.89859077311365,0.7194449547199842,77.67382312636585,1.043087791640435,-110.01701599999998,100.3373168,-156.75189340000003
3557.498,-9.151697600000002,185.8688476,50.1988824,0.250549,-0.2475067999999999,0.6142917999999999,-18.915227,-18.9533376,173.39145520000002,-27.537810399999994,-62.1536782,9.928663,-1.0298500000000002,-0.1587915999999999,-0.09329,-125.3304032,78.4657258,21.0723768,192.74571297780636,0.7080881534063961,68.7021765621954,1.0461877550566916,-106.4151762,97.4190634,-152.31907840000002
3577.484,-9.466550000000002,191.742691,51.2211258,0.1464338,-0.2487381999999999,0.7809858000000001,-19.027986,-14.9725872,173.09279800000002,-20.2161188,-60.0639414,11.7601158,-1.0565016,-0.1493015999999999,-0.0372162,-121.1789002,79.34428720000001,25.7266564,198.69191943570175,0.8326177812918242,64.45672066951403,1.067647715357252,-102.1509142,94.3168744,-147.3661416
3597.47,-3.9896766000000015,193.3409088,55.414174,0.0624588,-0.2856704,0.7887941999999999,-19.0623204,-10.9483706,172.8611206,-16.2040816,-56.9193528,11.3358822,-1.0234042,-0.1889986,-0.024237,-116.4058138,80.0896484,30.9186784,201.1649950043118,0.8412520247150909,60.25684366877013,1.0409918633440898,-97.3434934,91.038019,-141.94244220000002
3617.456,-1.4805644000000016,199.4020904,55.939177,-0.0196015999999999,-0.3030628,0.698343,-19.060066,-6.810641800000001,172.6024626,-9.389914999999997,-54.70901560000001,10.2589974,-1.0102068,-0.1534202,-0.0334708,-111.1440662,80.7208144,36.4601792,207.1052323102187,0.7615209971598945,56.449038249393375,1.0223384131425952,-92.0840002,87.53145620000001,-136.1422834
3637.442,-3.264119600000002,206.4147552,53.9262468,-0.1259176,-0.2885934,0.7860132,-19.1046148,-2.5521680000000004,172.249948,-3.713281199999997,-60.015419,11.2279508,-1.021718,-0.1146848,-0.0162756,-104.5078448,81.3167448,43.2719006,213.36763047607187,0.8467338088723988,61.16948466501131,1.0282631813064205,-85.40323,83.8689128,-128.97804739999998
3657.428,-2.936639600000002,206.4743836,54.51323319999999,-0.2495455999999999,-0.3271396,0.9595924,-19.1654394,1.7159249999999997,171.90336899999997,-4.846296399999997,-63.756395,8.742845399999998,-1.011377,-0.1502796,0.029352,-96.5984758,81.7122298,51.3827012,213.56963157026289,1.044083760291903,64.5352759185314,1.0229022114597075,-77.4330364,79.99630479999999,-120.5206678
3677.414,5.733416199999998,203.038678,56.1650772,-0.339295,-0.3627416,0.8622401999999999,-19.0695886,5.9278284,171.6139556,-4.562465999999997,-58.63381879999999,6.082711399999999,-0.9632686,-0.1974752,-0.0017635999999999,-88.873874,81.9077362,59.29159159999999,210.7417678634021,0.9950682026331662,59.124784828767694,0.9833035953590124,-69.8042854,75.9799078,-112.32236400000002
3697.399,6.656797599999997,204.2587036,53.0662184,-0.4166296,-0.3001782,0.7840922000000001,-18.9766112,10.143059999999998,171.26474,4.372462600000003,-51.8986854,3.372149199999999,-0.9465236,-0.1677162,-0.0167584,-81.68846140000001,81.9335434,66.4672394,211.1443925040789,0.9372767752655776,52.1916024439146,0.961413799084432,-62.7118502,71.7904834,-104.7975006
3717.385,-2.1794810000000013,205.9613372,49.4956282,-0.5204907999999999,-0.3107272,0.8841008,-19.110140800000003,14.369842,170.8273714,11.993955800000004,-51.1563378,4.957241399999999,-0.9838702,-0.1297191999999999,-0.0022387999999999,-74.379268,81.881253,73.6092042,211.8363513884104,1.0719590898281146,52.7768899722022,0.9923873505451992,-55.2691272,67.511411,-97.2181672
3737.371,3.793755799999999,200.737088,48.1448118,-0.6298514,-0.4012518,1.0043446,-19.166514,18.4921342,170.37631240000002,9.227468200000004,-44.542127400000005,3.467119799999999,-0.9870266,-0.1451276,0.0410173999999999,-68.15521779999999,81.68723600000001,79.7062576,206.4647524035209,1.2515685632974167,45.61982247233536,0.9984818258196192,-48.9887038,63.1951018,-90.6700548
3757.357,19.868969,194.1162658,46.1868688,-0.6600192,-0.3291712,0.8229238000000001,-18.9272552,22.4687346,169.92540300000002,11.001784600000004,-35.3000946,4.1536198,-0.943711,-0.1690264,0.0029025999999999,-63.360299,81.4741408,84.32525480000001,200.5221369994037,1.1050713116738304,37.2073715894673,0.9587329140614292,-44.43304379999999,59.0054062,-85.60014819999999
3777.343,6.824633799999998,192.8963746,39.5481158,-0.7271673999999999,-0.2812719999999999,0.7658306,-19.0273296,26.3797744,169.338736,16.9658018,-30.006852,2.835441999999999,-0.9718658,-0.1233207999999999,-0.0071204,-59.3589692,81.2484236,88.02260140000001,197.02700430057257,1.0928782519124076,34.58741576068023,0.9796845681230464,-40.3316396,54.86864919999999,-81.3161346
3797.329,-5.173749400000001,191.0297456,33.0477112,-0.8063714000000001,-0.3430693999999999,0.8613344,-19.49225,30.208430799999995,168.5715638,14.511455800000002,-27.9886544,5.1269328,-1.0169434,-0.0884544,0.0211823999999999,-55.6241744,81.0575378,91.5015366,193.9362849041234,1.2287507463182594,31.941079576208896,1.0210028177006565,-36.1319244,50.849107,-77.0700272
3817.315,2.3096095999999977,183.9833468,29.4471038,-0.8298216,-0.3581316,0.9205984,-19.9051388,33.858668,167.7115052,8.029515600000002,-22.0808338,5.494833799999999,-1.015707,-0.136543,0.0760312,-52.721636,80.8918702,94.2710892,186.33930910691245,1.2901021451139751,24.12943307588241,1.027660179276905,-32.8164972,47.0332022,-73.440416
3837.301,5.120088599999997,176.68405479999998,25.0521084,-0.8412796,-0.2876169999999999,0.7356032,-20.3590942,37.333906,166.74820259999996,9.567694800000002,-17.788530599999998,5.0710262,-0.956528,-0.1326514,0.0371683999999999,-50.3830588,80.7503298,96.4408906,178.52472843594134,1.153944093929771,20.825174943182827,0.9663972778648128,-30.0239646,43.4164238,-70.30731199999998
3857.287,-8.638864800000004,172.028641,18.8208774,-0.9031306,-0.3018046,0.6718466000000001,-21.2417506,40.6713078,165.59768979999998,11.317252400000005,-12.2286884,3.552398399999999,-0.957699,-0.1070844,0.0159581999999999,-48.6879126,80.646387,97.9248306,173.27062282869937,1.1653792306236972,17.03644787688804,0.9637993087108956,-27.446162,39.9750792,-67.67285919999999
3877.273,-10.848952400000003,166.369501,14.357922800000004,-0.9366512,-0.3622733999999999,0.70109,-22.3514506,43.8551184,164.25934139999998,12.256256600000004,-7.350432,4.959370999999999,-0.9575176,-0.112054,0.0058309999999999,-47.324571000000006,80.6288194,99.0552246,167.33995511621612,1.2247794392906015,15.127459705691129,0.9640695274650892,-24.9731204,36.773701,-65.2041168
3897.259,-5.431470800000004,158.3701662,12.267922600000002,-0.9384802,-0.3519856,0.7010768,-23.5095262,46.8484206,162.7854918,13.080110600000005,-0.7578789999999997,3.7715308,-0.9704768,-0.1515344,0.0426599999999999,-46.6717292,80.65838319999999,99.4511856,158.93744789125836,1.2231711359812412,13.634079303796868,0.983162127688816,-23.162203,33.8099626,-63.33430619999999
3917.245,-4.884801200000004,150.5638246,9.600447,-0.9500208,-0.3500818,0.6130036000000001,-24.836805,49.6596634,161.1370634,14.316399600000002,4.2207826,1.1903973999999993,-0.9425238,-0.1679835999999999,0.0214344,-46.7270568,80.712294,99.107634,150.9486506847375,1.1835836264230932,14.973020711709102,0.9576163307602684,-21.8902518,31.0526306,-62.02942939999999
3937.231,-6.162062200000002,147.09903880000002,5.7679592,-0.9537412,-0.336568,0.5657386000000001,-26.454947800000003,52.3487726,159.21399820000002,19.072326200000003,7.860107400000001,-0.3748210000000007,-0.9894478,-0.152714,0.0560848,-47.0457016,80.7975158,98.3990936,147.34099083341826,1.1588617081996453,20.631902621929523,1.0027332743615722,-20.5907538,28.448743200000003,-60.8149046
3957.216,-5.790695600000003,144.86718760000002,1.4921972000000003,-0.9626218,-0.3410959999999999,0.5836118,-28.415251,54.927663,156.9160826,23.412881200000005,7.594725799999999,-1.214013000000001,-1.0165556,-0.1301722,0.0850997999999999,-47.3470872,80.87572320000001,97.6205658,144.99055435147886,1.176261001712834,24.643796250307467,1.028383228910429,-18.9318362,25.948060200000004,-59.2955168
3977.202,-1.2304608000000024,142.23050840000002,-1.5447846,-0.956465,-0.3361155999999999,0.5659715999999999,-30.668057999999995,57.3706416,154.22012020000005,24.2340262,3.474835,-3.032915000000001,-1.0340938000000002,-0.1288919999999999,0.1339086,-47.4119866,80.87055819999999,97.063301,142.24421926026804,1.161086923875607,24.669030737682757,1.0506639082106133,-16.7439286,23.4999166,-57.1568192
3997.188,-0.7198812000000021,139.2171906,-4.8437766,-0.9755845999999998,-0.3194001999999999,0.4831638,-33.3130058,59.6608332,151.10850220000003,22.7647622,-1.3555644000000004,-6.465084,-1.0116194,-0.113687,0.1230887999999999,-47.3539276,80.75495000000001,96.6582824,139.30328983641968,1.1345611738234478,23.70378163905819,1.0254020660749616,-14.0409218,21.0941168,-54.4502198
4017.174,-5.599136000000003,137.41018060000002,-8.182844,-1.004841,-0.2990647999999999,0.41623,-36.5306802,61.80747240000001,147.506961,23.110068200000004,-5.7242824,-8.876780200000002,-1.0144776,-0.0963302,0.1231421999999999,-47.0553604,80.5526352,96.4872374,137.76743807010223,1.1280038132825791,25.40944485664166,1.0264542414324371,-10.524680199999995,18.7451628,-51.019723600000006
4037.16,-11.473881200000005,134.7744064,-9.846276,-1.0327084,-0.3179496,0.4235004,-40.348333,63.7901704,143.4238738,21.0851712,-7.897636,-11.4749676,-1.003595,-0.1161424,0.1054562,-46.880992000000006,80.2835724,96.232135,135.61983527984486,1.1605736410805132,25.271168954815987,1.0157819604724234,-6.532658999999997,16.493402,-47.1917388
4057.146,-9.537993600000004,129.9691466,-9.6248146,-1.0442128,-0.3291634,0.4101158,-44.5339874,65.5731758,138.95012820000002,18.088630800000004,-8.3592744,-13.3244566,-1.0040256,-0.1237708,0.1052973999999999,-46.8745032,79.98062279999999,95.8674454,130.67359888642503,1.169155201413841,23.97117386359057,1.0170910278017204,-2.340515799999999,14.407447,-43.08268280000001
4077.132,-5.621827600000002,122.9214782,-8.694706,-1.0507046,-0.2897028,0.3654913999999999,-48.9109886,67.146009,134.2323838,15.259238400000005,-4.2268874,-14.8563588,-0.9928048,-0.1389564,0.0830968,-47.4430328,79.7138244,94.9794328,123.35676982178008,1.1495615826318135,21.712262213658228,1.0059201410520815,1.4679558000000028,12.5678154,-39.25295100000001
4097.118,-5.335654000000003,114.0299498,-8.2136908,-1.0571768,-0.2802137999999999,0.3195662,-53.4603302,68.477391,129.36925360000004,14.891722000000003,0.831879,-13.553067000000002,-0.9879286,-0.1230632,0.0632531999999999,-48.3216088,79.5476592,93.7851488,114.44982905865888,1.139414374295462,20.152941023642533,0.9975712692346548,5.138721400000003,11.070268199999996,-35.584104800000006
4117.104,-4.763585800000003,103.3270262,-7.3982692,-1.0554456,-0.2844112,0.287687,-58.0123412,69.5533188,124.5280412,11.349307400000004,6.077641,-12.7266074,-0.9871296,-0.1289305999999999,0.0486203999999999,-49.6578126,79.4629226,92.2000018,103.70101484636068,1.1303180770092107,18.102790793087973,0.9967005017098568,8.354528600000004,9.9096038,-32.32803940000001
4137.09,-3.775016400000003,91.705464,-6.568258800000001,-1.0520246,-0.2748649999999999,0.2988064,-62.4295624,70.3818314,119.84021479999998,8.037477200000001,10.7886676,-10.8609198,-0.9903594,-0.1439568,0.0522305999999999,-51.30553139999999,79.4542678,90.3667406,92.01785098522645,1.127648789256265,17.29034317837103,1.002129401330467,11.124031000000002,9.072436399999996,-29.473474200000005
4157.076,-5.959926000000003,79.59625839999998,-5.7651158,-1.0442462,-0.2557007999999999,0.32974,-66.6144554,70.988887,115.475046,7.393676000000002,13.8374104,-9.221615200000002,-1.0011662,-0.12747,0.0839877999999999,-53.0072862,79.4997482,88.489194,80.02700562555401,1.1245272308552958,18.19831196204404,1.012737039646166,13.607169200000005,8.510861199999999,-26.985852
4177.062,-8.120991600000004,67.14292739999999,-4.909756,-1.0360232,-0.2608719999999999,0.3551338,-70.40545180000001,71.41333,111.593181,2.8297804000000037,12.627576,-6.915574600000001,-1.0117918,-0.1003363999999999,0.1229931999999999,-54.4297212,79.55635520000001,86.9847186,67.81024191365546,1.1258411465320852,14.672712932384568,1.024166669521343,15.975730600000002,8.1430252,-24.6084624
4197.048,-3.582824600000003,54.2550078,-3.0389310000000003,-1.02567,-0.2715579999999999,0.3618456,-73.5265792,71.7158278,108.3405992,-2.7167433999999973,10.4310544,-7.153663200000001,-1.0049536,-0.1347734,0.1183277999999999,-55.8371224,79.5620392,85.60952019999999,54.45803526675551,1.1210151357155531,12.936865454051734,1.0208315609116716,17.6894568,7.846211399999999,-22.731079
4217.034,3.142251799999997,40.410528,-0.950489,-1.0225524,-0.2654716,0.3709151999999999,-75.8054154,71.93673220000001,105.852858,-0.7265489999999971,9.269631400000002,-6.3059292000000005,-0.9953926,-0.1525662,0.0984313999999999,-57.0501228,79.5607972,84.3910876,40.543654854397474,1.1196725712204258,11.234708844321672,1.01181599810596,18.7552926,7.624064999999999,-21.4617704
4237.02,8.232773999999997,25.190882,0.9981506,-1.0164172,-0.2715307999999999,0.3724146,-77.1102508,72.08911719999999,104.2975754,2.811038800000003,8.608771800000001,-4.0333462,-0.9934952,-0.1314862,0.0988635999999999,-57.964199,79.5954438,83.4034412,26.520848559072924,1.1160311528347406,9.9136659520399,1.0070230109676936,19.1460518,7.506326599999999,-20.8941342
4257.006,16.0472026,9.1748024,3.0436302,-1.0099996,-0.3049152,0.3747844,-77.2894546,72.190541,103.761145,0.809311400000003,7.308354400000002,-3.270915800000001,-0.9901474,-0.1496438,0.0875093999999999,-58.7841032,79.62341,82.5530094,18.7337501627102,1.1196141378504294,8.047727576705054,1.005207956441631,18.5053514,7.432868999999997,-21.2081356
4276.992,26.394270399999996,-7.2651542,5.1863324,-1.0087972,-0.3185798,0.374348,-76.2473496,72.24568020000001,104.2898116,1.9574948000000032,6.397835200000001,-3.1383698000000004,-0.9804306,-0.1849842,0.060603,-59.5679312,79.6361282,81.7183246,27.862842985980148,1.122185949297121,7.39009107791901,0.999567926293656,16.6794184,7.390447999999997,-22.571487
4296.978,34.3368652,-24.3109594,6.842607799999999,-1.0193278,-0.3071658,0.3772926,-74.0103074,72.2259964,105.9085524,7.971723200000002,5.9722164000000015,-1.7693552000000008,-0.9792492,-0.1795492,0.0481099999999999,-60.1028692,79.66837159999999,81.01414359999998,42.62469167297331,1.129482048798138,10.116637649417632,0.9967354127456692,13.907438199999998,7.442375199999998,-24.8944088
4316.963,36.5477152,-41.9911514,7.602158399999999,-1.0385388,-0.2916912,0.384118,-70.71763539999999,72.0748978,108.5935272,12.207960200000002,4.604682,0.0194933999999992,-0.9920714,-0.1392522,0.0523439999999999,-60.327622,79.7320434,80.5394044,56.18527471301287,1.1450734619171297,13.047519632426374,1.003163362687653,10.390013399999996,7.657145599999998,-28.054122800000005
4336.949,38.492787,-60.7903318,8.381512,-1.0589078,-0.3107433999999999,0.3932723999999999,-66.42304019999999,71.731691,112.2984434,10.3238028,3.1338614000000007,1.1428537999999997,-0.992483,-0.1497426,0.0323075999999999,-60.466014,79.80003359999999,80.1932664,72.43900078540292,1.1715418772481674,10.84933667722927,1.0042355961434148,5.957026199999996,8.068342599999998,-32.105177000000005
4356.956,42.2833746,-80.7203398,9.8964328,-1.0816396,-0.3021189999999999,0.395012,-61.18791439999999,71.1286712,116.929164,10.889173800000002,3.653370200000001,3.1231322,-0.986118,-0.167387,-0.0038818,-60.6698172,79.90770119999999,79.77395779999999,91.6602226004078,1.1904850249344423,11.9027381137086,1.000231066336294,0.5180971999999968,8.77903,-37.1552062
4376.921,41.353955,-101.6061782,11.54331,-1.1078164,-0.2818268,0.4091218,-55.3101998,70.1768752,122.2845702,14.142349400000004,5.5053784000000014,6.042405199999999,-0.987883,-0.1591962,-0.0153296,-60.8593946,80.0906938,79.3047942,110.3050907633382,1.214110443305073,16.33480634962821,1.000745346439143,-5.549194800000002,9.9138186,-42.979776
4396.907,38.760768,-122.572609,12.9321752,-1.1355478,-0.2827043999999999,0.4368667999999999,-49.1345254,68.8029724,128.04666279999998,14.185477200000005,7.526982800000002,9.7897076,-0.988257,-0.1312508,-0.012452,-61.0463582,80.3731384,78.8389526,129.20403541848142,1.2490969477212088,18.807488092691,0.9970123985455948,-11.9118328,11.570166,-49.2077102
4416.893,37.4434456,-143.53614199999998,14.386469599999998,-1.1582172,-0.2843698,0.4666387999999999,-42.9406658,66.960392,133.9011184,8.068253000000002,9.7127708,12.969885200000002,-0.9783276,-0.1383972,-0.0144644,-61.4463796,80.7264298,78.28366539999999,149.03558697907033,1.2806580477212954,18.101175243241,0.988174021494676,-18.5057138,13.766037800000005,-55.617453
4436.879,33.9597714,-163.93791499999998,15.3103602,-1.1801146,-0.2708079999999999,0.4901894,-37.09001,64.6145286,139.5218186,5.232446000000001,12.5989392,14.9382496,-0.9694326,-0.1421195999999999,-0.0173828,-62.1736318,81.1360458,77.4571318,168.1169627894259,1.30625154157594,20.23025114080675,0.9799488294716004,-25.083621800000003,16.5215172,-62.0646868
4456.865,27.507780200000003,-181.7630706,14.963396799999998,-1.1939734000000002,-0.2611411999999999,0.520412,-31.912242799999994,61.78462520000001,144.63885799999997,5.1722480000000015,15.8280392,15.1841836,-0.977857,-0.1250004,0.0003237999999999,-63.2746794,81.57679600000002,76.2540496,184.44076298168565,1.328380915245699,22.535270264382223,0.9858141393262728,-31.3624366,19.7921708,-68.3848084
4476.851,23.533695,-196.721524,13.6981684,-1.1960646,-0.2600905999999999,0.5643022,-27.5160568,58.5232056,149.08796999999998,3.3118010000000018,18.286638000000004,14.3690742,-0.9805644,-0.106362,0.0132617999999999,-64.8028472,82.0213928,74.65718999999999,198.5971616684145,1.3478333059048364,23.491263239165125,0.986405237684087,-37.28679040000001,23.4981872,-74.43078
4496.837,19.0862096,-210.2584746,11.3326226,-1.1808082,-0.2456036,0.6111441999999999,-23.913019,54.874073,152.86019900000002,0.2030164000000021,21.3861746,13.3872366,-0.9769996,-0.1083478,0.0225337999999999,-66.99868860000001,82.4575502,72.45053399999999,211.4269090560802,1.3520822337098584,25.231483972702318,0.9832472915332336,-43.0856696,27.583477200000004,-80.409665
4516.823,13.912288999999998,-222.463501,7.5202438,-1.149946,-0.2467035999999999,0.6541644000000001,-21.0824984,50.8756042,155.9849242,1.042302800000002,24.8598212,12.320595999999998,-0.9667842,-0.1142221999999999,0.0259615999999999,-70.00315559999999,82.87580879999999,69.4134986,223.0249204219295,1.3457969874376745,27.764981379753763,0.9738544064782167,-48.92065720000001,32.0002046,-86.5714256
4536.809,10.115904999999996,-231.9412202,2.7157271999999995,-1.0933221999999998,-0.2425495999999999,0.721254,-18.9078026,46.5959884,158.5389464,4.244330400000003,28.932801,11.1952782,-0.9683688,-0.1186801999999999,0.0433623999999999,-73.93261120000001,83.26056839999998,65.3801872,232.177596542084,1.3320627139849683,31.312227136142205,0.9765774011409644,-55.02480860000001,36.66458,-93.1587592
4556.795,8.221938599999998,-240.2901338,-2.4153704000000005,-1.0154728,-0.2505507999999999,0.792805,-17.244559199999998,42.0715958,160.6202056,9.283493800000002,32.7247304,11.3751158,-0.968256,-0.119292,0.0674827999999999,-78.7135178,83.61824959999998,60.38762119999999,240.44288862458228,1.312440657304352,35.86759674623785,0.977908068836657,-61.46895859999999,41.5466538,-100.2325844
4576.78,8.730276999999997,-246.884015,-7.908378400000001,-0.9345,-0.2483507999999999,0.8373496000000001,-15.957404000000002,37.3521446,162.3035278,12.967478200000002,37.6546964,10.3774694,-0.9827218,-0.1120962,0.0812773999999999,-84.60161280000001,83.91308000000001,54.2036788,247.1648782653687,1.2791101291447895,41.15487240888476,0.992428188838084,-68.6442088,46.5609354,-108.099849
4596.766,8.253436599999997,-251.264676,-13.235004800000002,-0.8408542000000001,-0.2416749999999999,0.8779530000000001,-14.982371600000002,32.4894748,163.661377,16.399536400000002,42.2522532,8.1901848,-1.0011228,-0.0896503999999999,0.1060947999999999,-91.5824508,84.08634959999999,46.8452262,251.74833062634443,1.2394531300100218,46.05732104313044,1.0107126997752822,-76.60007920000001,51.5968748,-116.8161508
4616.752,7.344225199999997,-253.8384216,-18.3374364,-0.7389278000000001,-0.2409043999999999,0.9158842,-14.2572728,27.527553599999997,164.756946,15.904754400000002,45.3799906,6.629285,-1.0116691999999998,-0.0835204,0.114036,-99.2781556,84.125972,38.768906,254.6058591193292,1.201204849874425,48.54124204211953,1.021496175587946,-85.02088280000001,56.5984184,-125.98804
4636.739,6.601210199999997,-255.4432372,-22.4328408,-0.6430254,-0.2541667999999999,0.916003,-13.7196554,22.498584999999995,165.6567934,14.523116000000003,47.519472,3.7634292,-1.0252162,-0.0777696,0.1277653999999999,-107.1772628,83.98984680000001,30.5070192,256.51131700897366,1.1476689083862124,49.83156145307563,1.036069671819304,-93.4576074,61.4912618,-135.1497742
4656.724,6.188771399999998,-255.395294,-26.1755932,-0.5416794,-0.2446161999999999,0.8851782,-13.322372,17.446864599999998,166.3980166,7.877859000000003,47.594703800000005,0.0666916,-1.0339766,-0.080059,0.1096347999999999,-114.6571854,83.677124,22.793817,256.8077467058963,1.0662054696173904,48.24231482840688,1.0428503450637585,-101.3348134,66.2302594,-143.6041996
4676.71,2.355252399999997,-254.2492278,-29.1429462,-0.4268151999999999,-0.2613676,0.8870091999999999,-13.1060518,12.399082999999996,167.02197900000002,3.5761460000000023,43.6938756,-2.661138,-1.0423068,-0.0925274,0.1169193999999999,-120.9481752,83.25715779999999,16.362476199999996,255.9248490553039,1.018464313643556,43.920669856192255,1.052917342992013,-107.8421234,70.8580748,-150.65950279999998
4696.7,4.855267999999997,-252.5155304,-31.2645804,-0.3151098,-0.3002312,0.8734066,-12.9169096,7.367972599999997,167.5630434,0.804075800000002,36.9509258,-6.115135799999999,-1.0459292000000002,-0.1268668,0.1069205999999999,-125.4570848,82.78573739999999,11.7832046,254.48996190053,0.9758442746837428,37.46214544338982,1.0590066529815765,-112.5401752,75.4177648,-155.7798388
4716.682,8.027759999999997,-249.3612244,-31.8323002,-0.2116802,-0.2710313999999999,0.8514894,-12.7166604,2.3925393999999973,168.0530518,0.1675330000000019,27.327018,-12.460647599999998,-1.0731064,-0.1385928,0.1195809999999999,-127.8497712,82.2837782,9.3544906,251.5129430087201,0.9183140667388036,30.03434232157912,1.0886068737123606,-115.1331108,79.8912388,-158.6985612
4736.668,5.140155799999997,-245.1564454,-32.153257,-0.1139436,-0.2507244,0.8072492,-12.6226362,-2.499363800000003,168.5034364,-0.4979935999999981,17.123143199999998,-17.42618,-1.089052,-0.14352,0.0909252,-128.3000978,81.8081418,8.903041199999999,247.30939298481871,0.8529344286854412,24.43607538181504,1.1022248595903834,-115.6774616,84.3075056,-159.6003952
4756.654,2.1171997999999967,-238.857895,-32.7573402,-0.0308172,-0.2538712,0.7973508,-12.6319666,-7.266995400000002,168.9140228,1.564489000000002,6.4579238000000005,-20.3079104,-1.09862,-0.1306428,0.0750367999999999,-127.2515566,81.4186064,9.929422399999998,241.10292382259215,0.837358097987904,21.367349635651017,1.108902144892001,-114.61959,88.6856018,-158.9846004
4776.64,2.4688865999999967,-231.4200288,-34.2588028,0.0324778,-0.2368732,0.7809543999999999,-12.6496044,-11.897169800000004,169.2666046,-0.5907285999999979,-2.1913716000000005,-21.344456200000003,-1.10687,-0.1042278,0.0459077999999999,-125.287102,81.1205336,11.9295628,233.95510402666105,0.8167334297372919,21.46478232458608,1.1127138703609658,-112.6374976,93.0177034,-157.3370418
4796.626,0.3846279999999968,-222.6145294,-36.8272034,0.0867128,-0.1705989999999999,0.7387462,-12.705161,-16.3613028,169.5311096,-6.953763999999998,-9.9998272,-21.5809916,-1.1170542,-0.070597,0.0064225999999999,-122.76234300000002,80.9060806,14.6300084,225.64046522941493,0.763131100466545,24.780850999044127,1.119301242712345,-110.057182,97.2673834,-154.9011012
4816.612,-4.956237000000003,-212.6549958,-41.0002838,0.1356377999999999,-0.18003,0.7216556,-12.8451,-20.653988400000003,169.6752168,-14.512701399999996,-13.632974,-21.1535166,-1.0973114000000002,-0.0467856,-0.034895,-120.226027,80.72032779999999,17.498087,216.62810250652785,0.756039164792539,29.05077875990097,1.0988625309665994,-107.380927,101.3743162,-152.17712980000002
4836.598,-0.2512300000000039,-201.4944488,-45.2623962,0.1756397999999999,-0.1894568,0.705457,-12.8448932,-24.7536282,169.68478399999998,-24.1125846,-15.216939200000002,-21.9708378,-1.047786,-0.040798,-0.0725292,-117.950972,80.5113968,20.299704,206.5157633777492,0.7512741159252593,35.99568985785052,1.051085374007573,-105.1060788,105.265025,-149.38508000000002
4856.584,5.7501475999999965,-191.35483700000003,-48.252092000000005,0.2059648,-0.1606945999999999,0.674315,-12.6628286,-28.677555600000005,169.5694154,-30.402307,-13.2293024,-20.746894,-1.0144532,-0.076541,-0.1090784,-116.211943,80.2807022,22.6861546,197.4284736888143,0.7231493431741468,39.111997181940616,1.0231675898980577,-103.5491144,108.9582578,-146.8832608
4876.57,4.926809199999996,-181.5963774,-49.7149216,0.249991,-0.1288977999999999,0.6177928,-12.4359306,-32.41675260000001,169.3479646,-29.04239,-6.5018276,-20.7609196,-0.9659358,-0.1243285999999999,-0.159038,-115.1982984,79.971376,24.3073608,188.343014639223,0.6788063690461957,36.28704950378145,0.986804264250819,-102.7623678,112.3881286,-145.0406038
4896.555,-1.1945436000000045,-171.1291838,-49.5596222,0.3104292,-0.1451082,0.6093218,-12.2907796,-35.952614600000004,169.05851760000002,-22.639246199999995,4.0889614000000005,-17.5776744,-0.9370336,-0.1584298,-0.1893348,-115.3112424,79.60317979999999,24.6521964,178.1650376338557,0.6990677605748387,28.95219700035421,0.9690096158181508,-103.0204628,115.5557944,-144.4063212
4916.542,0.3346123999999958,-160.1267546,-47.629676800000006,0.3626102,-0.1566101999999999,0.576996,-12.09698,-39.2557524,168.7443726,-14.4701018,19.2233452,-13.5965446,-0.9247036000000002,-0.1798148,-0.2236258,-116.8332258,79.15134880000001,23.3931698,167.06069440852718,0.6992405136318117,27.63669430016035,0.9682038052897955,-104.7362458,118.4071012,-145.35120279999998
4936.528,1.1754973999999954,-149.118312,-44.9949914,0.4177735999999999,-0.1247193999999999,0.5471568,-11.8582846,-42.3381796,168.4068634,-2.5522779999999985,37.3665944,-6.414194799999999,-0.9382268,-0.1939709999999999,-0.2415484,-119.8395094,78.6144668,20.371458800000003,155.76328841852572,0.6996215215240023,37.99892623451013,0.9880485345476708,-107.9812248,120.9526464,-148.03540460000002
4956.513,-2.8189840000000044,-138.14158779999997,-42.3571518,0.487542,-0.1095933999999999,0.5132454,-11.6584358,-45.20643220000001,168.0374786,10.395013600000002,59.28027099999999,-1.127879,-0.923624,-0.1888362,-0.251899,-124.18721759999998,77.8577254,15.7021082,144.51703449526497,0.7163300605926851,60.195339924418285,0.975804032584125,-112.5287818,123.0641576,-152.33537040000002
4976.499,-4.0095982000000046,-126.7072906,-39.567089800000005,0.5573062,-0.1099639999999999,0.4848578,-11.466566599999998,-47.8622458,167.6563384,20.4674774,80.04238419999999,6.637867399999999,-0.9315772,-0.1809162,-0.2511102,-129.5634552,76.878035,9.753164,132.80199156699254,0.7468395865748414,82.88402851671667,0.9816430530117962,-118.0968886,124.7402808,-157.9031744
4996.485,-2.057799800000004,-115.2884826,-37.069892800000005,0.622693,-0.0972445999999999,0.4446702,-11.1986358,-50.2955222,167.2435272,28.2972586,96.7932434,12.8616332,-0.9122838,-0.1788058,-0.270339,-135.41183940000002,75.6525926,3.1323748,121.11913850598044,0.7713200835231765,101.6616369174639,0.9681510320074446,-124.2132036,125.94811479999998,-164.1111524
5016.471,-2.019269800000004,-103.4048216,-33.9303534,0.6906882,-0.0862321999999999,0.396568,-10.894616200000002,-52.491384,166.807257,35.5955276,105.2373948,18.4860324,-0.9059104,-0.189313,-0.2748676,-141.04373479999998,74.26338820000001,-3.4439161999999994,108.8480751437613,0.8010944766755541,112.6218639665819,0.9654352709151038,-130.1491186,126.7547722,-170.25117319999998
5036.466,-5.588951600000004,-91.140193,-30.5441384,0.7661182,-0.0768865999999999,0.3644196,-10.647425,-54.4283478,166.3660766,40.9125374,101.631801,20.294234,-0.9081128,-0.2038783999999999,-0.271342,-145.7106934,72.8598208,-9.1611032,96.2845550992616,0.8518510964335022,111.42133828247064,0.9694646669551192,-135.0632684,127.2881686,-175.5271798
5056.443,-7.375991600000003,-77.9225486,-26.2453482,0.8264248000000001,-0.0916273999999999,0.3315869999999999,-10.469036,-56.07879260000001,165.96836860000002,40.1534698,88.17445080000002,19.6149402,-0.9186404,-0.2035374,-0.2728216,-149.1657256,71.6012056,-13.6267512,82.5539044173071,0.8951667269591739,98.85231808061312,0.979673049102342,-138.69668959999998,127.6799982,-179.5951198
5076.43,-6.244197400000004,-64.20717699999999,-21.646744,0.8720268000000001,-0.0855203999999999,0.2977286,-10.3056208,-57.42739340000001,165.6219728,35.066145600000006,68.7969694,15.0774858,-0.905666,-0.2006074,-0.2816042,-151.3752806,70.56897740000001,-16.7002966,68.04508141872586,0.9254116910826016,78.67647770403894,0.969420011114068,-141.06965979999998,127.9963708,-182.3222694
5096.415,-6.511676600000004,-49.373171,-16.3534144,0.8971271999999999,-0.0743817999999999,0.2702892,-10.210515,-58.4575836,165.35412,28.573226400000003,47.772534400000005,8.749203399999999,-0.9101872,-0.2030504,-0.2726472,-152.5090208,69.81517779999999,-18.5160094,52.4170402567367,0.9399075043788724,56.3488497667824,0.9716000718669384,-142.2985058,128.2727614,-183.8701294
5116.401,-8.513673200000003,-33.7545228,-11.092511,0.9121622,-0.0640001999999999,0.2667632,-10.222417599999998,-59.16141220000001,165.1675966,21.485297000000003,26.727768399999995,3.2664216,-0.9105902,-0.1993628,-0.2728204,-152.844464,69.37393159999999,-19.340706200000003,36.53620452506307,0.952522183249881,34.44794770216644,0.9712625849975072,-142.6220464,128.53534380000002,-184.5083028
5136.387,-7.504720000000003,-17.9467384,-5.227105,0.9022696,-0.0612381999999999,0.2696268,-10.3072404,-59.5330468,165.09119900000002,12.843183600000003,11.2213624,-0.5548460000000002,-0.9006124,-0.183568,-0.281004,-152.782193,69.1721494,-19.555445400000004,20.14271253226485,0.9436838239058885,17.063827037893898,0.9611259822072028,-142.4749526,128.7051962,-184.6466444
5156.373,-6.079780800000004,-2.1470046,0.3278725999999999,0.8819549999999999,-0.0427433999999999,0.2714671999999999,-10.4498378,-59.5738296,165.1155946,4.325042200000001,-0.2352020000000006,-3.6798494000000006,-0.8901438,-0.170185,-0.2878922,-152.4831726,69.14400780000001,-19.3319358,6.4560718529381775,0.9237781448726744,5.683537773188916,0.9508947563869936,-142.03333479999998,128.7178374,-184.4475304
5176.359,-7.731497000000004,13.6282366,5.6086918,0.8577764,-0.0332995999999999,0.2984445999999999,-10.6882414,-59.2954094,165.2171478,-3.1273365999999987,-9.599165,-5.9450522,-0.8911096000000001,-0.1613074,-0.2903296000000001,-152.0136566,69.26092220000001,-18.7641288,16.642184423746055,0.9088225321955216,11.716136247400394,0.9509929932145031,-141.3254152,128.5563316,-183.9812766
5196.345,-7.525161200000004,28.2977224,10.8097716,0.8290295999999999,-0.0386929999999999,0.3162652,-10.9878796,-58.726492400000005,165.3979186,-10.429021,-16.143748600000002,-7.2438002,-0.880429,-0.149037,-0.2946972,-151.48679499999997,69.4769456,-17.9756512,31.21282278419582,0.8881502703125187,20.53917571900009,0.940326374775184,-140.4989154,128.203438,-183.3735698
5216.331,-6.098901400000004,41.5073228,15.8651954,0.806747,-0.0190669999999999,0.3232635999999999,-11.3259428,-57.878239400000005,165.6589416,-17.6357168,-21.0787648,-7.7532116,-0.8659686000000001,-0.138824,-0.2922822,-150.95679,69.771416,-17.028473400000003,44.85263503285513,0.8693121577333197,28.555999766387025,0.9244471881069248,-139.6308472,127.6496554,-182.687415
5236.317,-10.084559400000003,54.2366126,20.6425158,0.7901558000000001,-0.0112083999999999,0.3360378,-11.7876154,-56.7641258,165.97655319999998,-24.3256964,-27.3911012,-7.1032846,-0.8605577999999999,-0.136604,-0.2913892,-150.40140979999998,70.17614619999999,-15.912825000000002,58.9017991505171,0.8587160296239031,37.31579534730851,0.9187644125854462,-138.61379440000002,126.940272,-181.8893782
5256.303,-14.197225400000002,66.1186728,25.5683004,0.7737288,-0.0292759999999999,0.3689074,-12.3700178,-55.4036378,166.3458678,-29.5939502,-34.832890400000004,-6.327467400000001,-0.8733357999999999,-0.1453014,-0.2944104,-149.727597,70.7075594,-14.5636796,72.29784289476765,0.8576747693037261,46.142919129120514,0.9330087888287868,-137.35757919999998,126.1111972,-180.9095474
5276.289,-12.499918800000003,77.4123862,31.5872878,0.7561692,-0.0513825999999999,0.3772852,-12.9802474,-53.79008580000001,166.7964476,-33.8777396,-40.3795318,-4.5153164,-0.8752804,-0.1536594,-0.2910088,-148.99071659999998,71.3412386,-13.0631282,84.5380521288761,0.8466263359655427,52.9017571634887,0.9351005889795814,-136.0104692,125.1313244,-179.8595758
5296.275,-12.348522000000004,88.09599920000001,37.5306026,0.7410018,-0.0565119999999999,0.3836498,-13.630548999999998,-51.9239176,167.3192352,-35.1197234,-45.3994086,-3.625693,-0.8980574000000001,-0.1692547999999999,-0.2851562,-148.0611908,72.05922860000001,-11.341654600000002,96.55017971060444,0.8363399086419827,57.51214587069857,0.9573235291249454,-134.43064180000002,123.9831462,-178.6608898
5316.261,-14.224355800000003,99.482779,43.6831116,0.7235306,-0.0847807999999999,0.3974668,-14.3432868,-49.8082674,167.8950836,-33.6270758,-51.450302,-5.3484782,-0.929547,-0.1867213999999999,-0.271843,-146.6394624,72.8464248,-9.145877,109.57814496762524,0.8298579217475965,61.69700172460591,0.986316948590036,-132.2961756,122.6546922,-177.0409606
5336.246,-12.013592600000004,111.1302568,49.824939,0.704097,-0.1086325999999999,0.4113938,-15.0217784,-47.4335054,168.5049438,-30.7601504,-55.936032,-7.8001496,-0.9413658,-0.1838502,-0.2472128,-144.6465362,73.6637526,-6.423209,122.37967531394438,0.822677631803734,64.31072120819377,0.9904971650305316,-129.62475779999997,121.097258,-174.9281528
5356.232,-8.840272600000004,122.232854,54.740274,0.6780031999999999,-0.1141285999999999,0.4250348,-15.61343,-44.8214302,169.1049316,-28.9589914,-60.26890860000001,-10.0042818,-0.9759428,-0.1836162,-0.2067098,-141.9914612,74.4991942,-3.0627712000000007,134.2219006504628,0.8083119804625192,67.60954208596772,1.0143511222403807,-126.3780312,119.3206244,-172.1677028
5376.219,-7.608132800000003,133.4282138,58.5642204,0.6444392,-0.1386279999999999,0.4352555999999999,-16.1381436,-41.9659598,169.67980040000003,-29.006035,-63.9231368,-11.5706696,-0.9978926,-0.1691804,-0.172915,-138.7476044,75.3424116,0.8982495999999994,145.9134669371567,0.7899158450189488,71.14350202067018,1.0267965943184267,-122.6094608,117.30837139999998,-168.78155080000002
5396.204,-4.002807200000004,146.2321704,61.934400200000006,0.6082768000000001,-0.1622547999999999,0.4480582,-16.535056,-38.8441984,170.202777,-31.353509799999998,-65.5351814,-10.4273812,-0.9916786,-0.156519,-0.1251048,-135.1552918,76.19644759999998,5.256301599999999,158.8576093660885,0.7727117419377811,73.3936840375227,1.0117192565341435,-118.6202358,115.040646,-164.9464754
5416.19,-2.557034000000004,158.4742708,63.858769200000005,0.5587966,-0.1581879999999999,0.475713,-16.8278176,-35.479259,170.6475402,-34.48543719999999,-65.5173958,-6.9368504,-0.9929186,-0.1443276,-0.0867578,-131.35202480000004,77.04878839999999,9.8826074,170.87590623668322,0.7507196160248911,74.36325991214332,1.007097174163725,-114.5242072,112.5280474,-160.76493280000005
5436.176,-2.7524552000000035,169.6412904,65.65929100000001,0.4979038,-0.179425,0.5269036,-17.068911399999998,-31.8837512,171.02661740000002,-38.890777400000005,-63.17803200000001,-1.3093329999999994,-1.0332334,-0.1640274,-0.0536336,-127.53824160000002,77.8905914,14.594570999999998,181.92549549974524,0.7468125121959327,74.20020651638556,1.0475460896186284,-110.46933020000002,109.7743426,-156.4320464
5456.162,-2.7586890000000035,179.74927380000003,67.96420900000001,0.4302124,-0.1842639999999999,0.5448866000000001,-17.2634824,-28.0670212,171.357547,-39.6557738,-56.195215,2.8507818,-1.0251199999999998,-0.1607036,-0.0314376,-123.9853118,78.6480728,19.0418496,192.18882772321024,0.718287781929583,68.83755908981813,1.0381160745055051,-106.7218294,106.715094,-152.3156974
5476.148,-8.984152600000005,189.292865,69.4346832,0.3478572,-0.1930371999999999,0.5820302,-17.536405600000002,-24.049423800000003,171.6243928,-36.63738579999999,-47.873665800000005,5.8283866,-1.0191484,-0.1469877999999999,-0.0004398,-120.8143218,79.30786900000001,23.0267996,201.82586298324767,0.7050015219045418,60.56530364612392,1.0296936767774385,-103.2779162,103.3572928,-148.5975932
5496.134,-12.569343800000002,196.0364104,70.8167084,0.243559,-0.2215618,0.6548458,-17.849257599999998,-19.889762,171.8273072,-33.1224344,-42.9623926,7.128238999999999,-1.0301682,-0.172013,0.0168211999999999,-117.6897094,79.887021,26.8847668,208.8139573751967,0.732962236051681,54.714482815247,1.0445659123433426,-99.8404518,99.776783,-144.9425404
5516.12,-11.893946600000003,199.5250122,73.1881302,0.1627973999999999,-0.229092,0.7047068000000001,-18.13693,-15.6361946,172.0138612,-26.9597628,-41.158180400000006,6.616922000000001,-1.0252872,-0.1942164,0.0275497999999999,-114.1184188,80.36994340000001,31.062565,212.85722647189115,0.7586816274808559,49.64482128908606,1.0438835394778674,-95.9814888,96.006138,-140.9512962
5536.106,-15.943466400000004,203.062561,75.14204120000001,0.0676426,-0.2664242,0.7431962,-18.488792,-11.299268600000005,172.180008,-17.196510999999994,-38.8229966,3.5442654,-1.0079128000000002,-0.1490904,0.0304549999999999,-110.1205184,80.7358522,35.4705422,217.10579024159887,0.7924001308523617,42.60876521095595,1.0193349139517398,-91.6317264,92.0351208,-136.7094658
5556.092,-12.795228600000003,205.8304106,76.52547320000001,-0.0690244,-0.3415666,0.8053258,-18.7661258,-6.898891000000003,172.32309279999998,-12.534487999999996,-36.397505200000005,2.6713688,-0.994393,-0.1581978,0.0371681999999999,-106.0303588,81.0212616,39.8734136,219.96823373199769,0.8774860421548368,38.587925384396925,1.0075839704288074,-87.26423299999999,87.9201526,-132.44967920000002
5576.078,-0.6234086000000048,205.9140654,77.48064600000001,-0.157433,-0.313419,0.8434626,-18.7863808,-2.4960776000000022,172.4626984,-5.992439199999997,-38.470266,0.6836072,-0.9911526,-0.2108554,0.0149255999999999,-101.3656798,81.2234054,44.723234000000005,220.00963949885315,0.9134800362617456,38.94018505965713,1.0134427708219542,-82.579299,83.719483,-127.7394644
5596.064,-2.0757494000000047,206.6564178,76.8842516,-0.2591734,-0.3279376,0.8539964,-18.831993200000003,1.9169821999999967,172.5832612,3.823702600000003,-39.74777,-0.5802358000000002,-0.9941046,-0.1602854,0.0030043999999999,-96.1899108,81.3556746,49.89048699999999,220.50481150666957,0.9508016470191246,39.93548040439414,1.0069480580514965,-77.3579176,79.43869240000001,-122.6927742
5616.05,3.709585599999996,209.3040252,74.18611999999999,-0.411054,-0.418804,0.8817637999999999,-18.7683852,6.359736999999997,172.6297028,6.034434400000003,-34.3758034,-0.7453248,-1.0155182,-0.144703,-0.0042548,-91.5982116,81.4104764,54.419370400000005,222.09348570118027,1.0591834497963228,34.90939367821862,1.025784712336502,-72.8298264,75.0507394,-118.2103324
5636.035,17.854231999999996,208.8908814,70.0455606,-0.4995794,-0.3477658,0.9058996,-18.4269922,10.765084799999997,172.6145784,8.181596600000002,-30.639834200000003,1.2206366000000002,-0.9966897999999998,-0.1762752,-0.0274938,-87.44037920000001,81.43145419999999,58.46483479999999,221.04423650515517,1.091409507854023,31.736854230340487,1.012531190925751,-69.013387,70.6663694,-114.1497436
5656.021,11.364121399999997,206.4625734,63.4661248,-0.560505,-0.2915858,0.8842446,-18.239964,15.083064799999995,172.5070404,13.492063800000002,-31.6834148,2.4456800000000003,-0.989499,-0.1246735999999999,-0.0437776,-83.0641616,81.4362806,62.6239466,216.29583090589955,1.0867735028127066,34.523266207508954,0.9982826532599473,-64.8241976,66.3532158,-109.8830938
5676.008,3.520214799999996,205.6369448,55.6480522,-0.6657164000000001,-0.357474,0.8592922,-18.2629032,19.335795,172.2410768,9.250015000000005,-28.2555104,3.503071,-1.0026104,-0.0788154,-0.0139904,-79.22395780000001,81.43338459999998,66.3249078,213.0625511265889,1.1442679191892955,29.936735825667004,1.0058007818437409,-60.9610546,62.09758959999999,-105.916169
5695.993,6.825529799999996,204.8197878,47.2590572,-0.7073927999999999,-0.3233613999999999,0.8375524000000001,-18.3082858,23.5193088,171.79054879999998,0.5000452000000031,-25.4444562,4.4684292,-1.0047828,-0.1051344,-0.0219656,-75.90934899999999,81.4173094,69.67006860000001,210.312034412966,1.143005332991741,25.83867752094085,1.0105069048861366,-57.6010632,57.8980006,-102.1204802
5715.979,-2.4766328000000035,202.3741304,39.1081566,-0.7323360000000001,-0.2738835999999999,0.8741351999999999,-18.6503176,27.6075252,171.1507936,-1.9267389999999969,-26.933334,7.036376799999999,-1.0000074,-0.0791628,0.0055929999999999,-72.2941666,81.4163512,73.366115,206.133137262868,1.1727917935950951,27.903895821215634,1.0031514494868656,-53.643849,53.808826,-97.7846786
5735.966,-5.686879000000003,198.1700654,30.9817512,-0.7942732,-0.3758834,0.8445917999999999,-19.1982532,31.5587436,170.289322,-9.462119799999996,-24.2077012,8.943031999999999,-0.987886,-0.0805564,0.0430959999999999,-68.9867426,81.435884,76.90210440000001,200.65787879079065,1.218808252048303,27.4867664495309,0.9921014805920612,-49.7884894,49.8771404,-93.3872176
5755.951,5.472779399999995,196.6492096,24.6827492,-0.801787,-0.3432719999999999,0.7309666,-19.6771098,35.434386,169.225165,-16.756719999999998,-20.0184528,8.2313046,-0.9934018,-0.1327094,0.0607095999999999,-66.416105,81.43968199999999,79.84048620000002,198.2677509297362,1.1379851623235515,27.372988384212068,1.004064030141385,-46.7389952,46.005296,-89.3846788
5775.937,-1.829244800000005,197.2703156,17.6269956,-0.8384496,-0.3094572,0.6794462,-20.535664,39.2626274,167.8792176,-14.959620399999997,-19.441904800000003,9.5748182,-0.995026,-0.1477702,0.0395833999999999,-63.88468399999999,81.460591,82.70410319999999,198.0647230764337,1.1226792191300417,26.333534672113625,1.0067172484067213,-43.34902,42.1979636,-85.17511440000001
5795.923,-8.549434200000004,196.9744568,11.6256016,-0.8977450000000001,-0.3857126,0.6952504,-21.8420152,43.0129144,166.1940644,-9.649830399999995,-19.919591000000004,9.212154,-0.9920712,-0.1548002,0.0832159999999999,-61.21330880000001,81.43828579999999,85.5995332,197.50236471839295,1.1992053258403752,23.97442624288976,1.0075183722620051,-39.3712936,38.4253714,-80.59453119999999
5815.909,-0.6264124000000045,195.1357636,7.6179382,-0.9258506,-0.3891933999999999,0.6173046,-23.3046472,46.6596102,164.181134,-6.608782599999996,-16.640768,6.4090434,-0.9537586,-0.2077484,0.0725697999999999,-59.1451866,81.3708298,87.8241242,195.28541064469968,1.178870563422923,19.017544646640648,0.9788162445773771,-35.8405394,34.7112196,-76.35700979999999
5835.895,-3.800328800000004,194.9605928,3.4660172000000005,-0.974804,-0.3182033999999999,0.5130942000000001,-25.2097676,50.2293368,161.7664184,2.430890200000004,-16.2523072,1.385964,-0.9652692,-0.1978348,0.0538905999999999,-57.3468634,81.2253372,89.5930678,195.02843002789675,1.1466306729985902,16.491440588891074,0.9868066848821202,-32.1370958,30.996000400000003,-72.17335059999999
5855.881,-13.227953800000003,193.6312624,-1.6489296000000002,-1.0677356000000002,-0.3650741999999999,0.5191888,-27.8080198,53.669079,158.81865520000002,11.595487800000004,-14.873894400000005,-1.6621270000000004,-0.971743,-0.1611252,0.0271073999999999,-55.7297912,81.049408,90.99214320000002,194.0895759930923,1.2421334441429557,18.93279530619896,0.9853834782757422,-27.9217714,27.380329,-67.82651200000001
5875.867,-8.515387000000004,188.1142336,-4.978199399999999,-1.1088588,-0.3880305999999999,0.507235,-30.88014,56.8951372,155.3016418,16.629030000000004,-11.551125000000004,-4.7843712,-0.9662266,-0.1679096,0.0195029999999999,-54.63476479999999,80.85340740000001,91.7620102,188.37266035160545,1.2796182751503666,20.80488729327594,0.9809015461954989,-23.7546248,23.9582702,-63.53963159999999
5895.853,-3.306502400000004,179.59518759999995,-6.648782199999999,-1.135189,-0.3511182,0.4372974,-34.3743484,59.843277,151.269455,20.2775972,-4.012959800000003,-7.6380088,-0.9611704,-0.1870398,-0.0153468,-54.5456138,80.6927766,91.4430252,179.74863190562377,1.2661623403572702,22.03687756899197,0.9793201462700744,-20.171265400000003,20.8494996,-59.82642979999999
5915.839,-5.346362200000003,170.3672762,-8.487244200000001,-1.1544392,-0.348422,0.374293,-38.4608744,62.4864036,146.707599,25.3513468,4.229413999999997,-9.869241,-0.9807548,-0.1783739999999999,-0.033032,-55.3795212,80.584163,90.0885086,170.6623148287023,1.2626254418590022,27.53144829596415,0.997390783305641,-16.918646799999998,18.0977594,-56.61909039999999
5935.825,-4.481899200000004,160.98221759999998,-9.8529304,-1.1480322,-0.3617998,0.3687724,-43.1028052,64.8101454,141.6002656,27.923742600000004,11.570853199999997,-9.9654946,-0.992227,-0.1628194,-0.0274114,-56.8640108,80.55606700000001,88.02293259999999,161.34572210418207,1.25891624444148,31.826578942601326,1.0058707478574571,-13.7612056,15.7459216,-53.577333
5955.81,-1.4327854000000042,150.27442639999998,-10.1030868,-1.1192738,-0.3466166,0.3636852,-48.178002,66.7913534,136.0316576,26.3739242,17.597601199999996,-9.3636374,-0.990594,-0.1685386,0.0025365999999999,-58.9350396,80.5957276,85.39529279999999,150.62047824495778,1.2268593364608025,33.0595999833674,1.004832407352351,-10.7570376,13.804374200000002,-50.63636479999999
5975.797,1.273320799999996,138.7312576,-9.8245264,-1.0951118000000002,-0.3383919999999999,0.3500522,-53.5369314,68.3999906,130.1608354,24.2145988,23.8221684,-10.216493,-0.9874684,-0.1693292,0.0140713999999999,-61.7186662,80.6619584,82.0889588,139.08452286333502,1.1984638262743186,35.4713860955837,1.0019801511353206,-8.181734799999997,12.261967800000004,-48.0718766
5995.782,1.927071999999996,126.3676894,-9.507007,-1.082905,-0.3254363999999999,0.3393368,-59.064880200000005,69.6675094,124.151201,21.42482500000001,29.395474,-11.2089616,-0.992248,-0.1606944,0.0210299999999999,-65.2038002,80.72908480000001,78.12787639999999,126.7394560225272,1.1805683179317492,38.06255165008746,1.005395964083485,-6.138919999999999,11.0615754,-46.0233246
6015.768,-0.4231234000000042,113.4430388,-10.0658314,-1.0772264,-0.3112504,0.3223916,-64.6350554,70.60290979999999,118.1872238,16.143306000000003,31.360908999999992,-10.9152574,-1.004795,-0.1302814,0.0323179999999999,-68.97638620000001,80.7829818,73.9807924,113.8895212359906,1.1667175631264322,36.92229388897948,1.013721208387671,-4.3413308,10.180072,-44.2064314
6035.754,-3.210586000000004,99.6830472,-9.7543778,-1.0717938,-0.3015848,0.3378763999999999,-70.0136518,71.2380492,112.5197922,8.353348800000003,31.7114792,-11.9400152,-1.011467,-0.1389872,0.0396051999999999,-72.9600294,80.7741744,69.77538299999999,100.2106064636172,1.16355309418455,34.89928813318009,1.0217394509951547,-2.9463775999999995,9.5361252,-42.7444092
6055.74,-2.3086726000000044,84.658293,-8.781868399999999,-1.0638891999999998,-0.3213274,0.3697978,-74.8488524,71.6235946,107.4342666,3.5359012000000027,31.702911399999994,-12.4642744,-1.012263,-0.156002,0.0262885999999999,-77.0553068,80.7098524,65.5534294,85.14386504876767,1.171265102678399,34.24814337815857,1.0245506798899506,-2.2064543999999984,9.086257799999998,-41.8808372
6075.726,2.823165599999995,68.4601286,-7.4962068,-1.05431,-0.3045015999999999,0.389587,-78.82829899999999,71.8330948,103.1620772,2.0094452000000027,30.303899799999996,-11.5151424,-1.0153216,-0.1564388,0.0336609999999999,-80.86710339999999,80.61587039999999,61.646167000000005,68.92715421604122,1.1645036844388084,32.48018961755797,1.027854129968353,-2.038804399999998,8.782775599999999,-41.5159102
6095.712,7.304603999999995,52.6188322,-6.597865999999999,-1.037602,-0.2811207999999999,0.3855034,-81.8690446,71.914511,99.7939618,1.3334528000000028,25.6357992,-9.9163492,-1.0243204,-0.1443,0.0500593999999999,-83.9407576,80.5096082,58.49688640000001,53.53158485831079,1.142041893280715,27.51919836130568,1.0356450721094177,-2.071712999999997,8.595097199999998,-41.2970754
6115.698,12.988032199999996,37.4356482,-5.2109902,-1.0264386,-0.2929862,0.4061633999999999,-83.9120546,71.926506,97.3641936,1.8262846000000028,19.7859328,-9.026693,-1.0179548,-0.1611157999999999,0.0487741999999999,-86.2328062,80.3768934,56.1287636,39.9658748865441,1.142097115161386,21.82429010810116,1.0317796268769412,-2.320751599999994,8.450387399999997,-41.23543
6135.684,21.617271599999995,21.8666094,-3.6752936,-1.0193828,-0.3030159999999999,0.4026074,-84.83329940000002,71.90594180000001,95.9340834,6.255369800000002,14.157611399999997,-7.7694834,-1.012925,-0.1812967999999999,0.0413655999999999,-87.723912,80.2380842,54.48321080000001,30.967124844365767,1.137124754689036,17.31855895249479,1.0298527555813988,-2.8906125999999945,8.332142399999999,-41.4508726
6155.67,28.058637999999995,6.922336,-2.0851584,-1.0187275999999998,-0.2667159999999999,0.3808517999999999,-84.70746,71.87546540000001,95.469197,10.523434200000002,8.480146999999995,-5.9048276,-1.0167576,-0.1665604,0.0539479999999999,-88.376175,80.1328626,53.60117339999999,28.975054575704085,1.1198175928342078,14.74864568321649,1.031721265996742,-3.6687149999999935,8.2573972,-41.8680236
6175.656,29.72670519999999,-7.093756599999999,-0.4795634000000001,-1.0180932,-0.2637052,0.3705066,-83.6903242,71.840622,95.9068466,10.718943800000002,2.066730799999996,-4.4763340000000005,-1.0221572,-0.149242,0.0597893999999999,-88.2448898,80.0587476,53.5105422,30.56514953018175,1.115046786927275,11.798504077499956,1.034723773974581,-4.554565599999995,8.218125599999999,-42.396304400000005
6195.642,31.6396036,-21.2032918,1.2836690000000002,-1.0237759999999998,-0.2716617999999999,0.3690228,-81.7774564,71.792563,97.2454988,9.569000600000004,-3.1866672000000045,-3.5973008,-1.0141022,-0.1653667999999999,0.0416925999999999,-87.5993102,79.9884748,53.967765,38.10894783673043,1.1216484559232809,10.70799670209311,1.0283422209954427,-5.821853799999997,8.195911800000001,-43.27773380000001
6215.628,33.3431106,-35.9466856,3.5620667999999998,-1.0369156,-0.2623656,0.358703,-78.9449918,71.713109,99.5157364,9.884057600000002,-6.764933400000004,-2.2688068,-1.0136256,-0.1673868,0.0346771999999999,-86.575232,79.9395978,54.8045942,49.15908410453496,1.1281389594352815,12.190422586698118,1.0279385711166986,-7.630240199999998,8.226488800000002,-44.711142200000005
6235.614,32.9384452,-50.8250894,5.9720236,-1.0473852,-0.2467255999999999,0.349051,-75.2618758,71.56235219999999,102.6933868,7.941118600000003,-8.953743800000003,-0.0989385999999999,-1.0141676,-0.1531548,0.0190085999999999,-85.3908722,79.9387036,55.846372,60.85881982580957,1.1312496981106337,11.968319911410894,1.0258428927115302,-10.128996399999997,8.376351399999999,-46.8470148
6255.6,31.196611999999995,-66.2656442,8.3183822,-1.0603788,-0.2597758,0.3603782,-70.8019752,71.28321559999999,106.7335648,5.420748200000003,-10.334938400000004,1.9412064,-1.0090321999999998,-0.1547402,-0.0017998,-84.1489028,79.97334579999999,57.0006744,73.7126833316005,1.1496778299986132,11.830627416455936,1.020829931679572,-13.346927599999995,8.690130199999999,-49.7328904
6275.586,31.6213216,-83.1926484,11.153531,-1.0747246,-0.2695596,0.3662026,-65.5234634,70.80209359999999,111.6372666,3.904303000000003,-10.404244000000004,4.0611486,-0.9927267999999998,-0.1704252,-0.03886,-83.0300614,80.03870839999999,58.0651704,89.69574115477619,1.1669617337531168,11.831517361633168,1.0079986844402524,-17.506598,9.236614799999998,-53.5720962
6295.572,31.53092,-100.7218522,13.7392046,-1.0992338,-0.2593508,0.3625506,-59.615841,70.0467484,117.2296174,5.092665800000003,-9.607524400000004,6.8627824,-0.9922832,-0.1565236,-0.0533596,-81.977707,80.1664184,59.040172600000005,106.432401878778,1.186179043013086,12.858365071689123,1.0059686045157472,-22.361866,10.119669999999996,-58.1894448
6315.558,28.0440078,-118.5698364,15.3688154,-1.1202246,-0.2526933999999999,0.3695592,-53.4249962,68.92896720000002,123.2326722,3.506537000000003,-8.323479800000005,9.615186,-0.9893984,-0.1357412,-0.0642674,-81.0692032,80.3603058,59.902915400000005,122.80664869708195,1.2063710503627647,13.191964202800625,1.0007323148588538,-27.644207,11.431338599999997,-63.3297568
6335.544,22.846905999999997,-136.856842,16.4567868,-1.1414536,-0.2738022,0.3981454,-47.2690238,67.3807876,129.3515138,-1.2831135999999972,-6.958419200000004,11.4768282,-0.9804422,-0.1300625999999999,-0.0613884,-80.34860080000001,80.59400339999999,60.672253,139.72330567148222,1.239517537277694,13.482713517899462,0.9909347723811897,-33.07957700000001,13.213215799999997,-68.6792608
6355.529,20.171147799999996,-154.6404388,17.3018436,-1.1604582,-0.2843322,0.4204888,-41.3674884,65.3782202,135.30571300000005,-7.964802199999997,-4.876168000000004,12.783849,-0.969161,-0.1432626,-0.0647846,-79.98599720000001,80.849263,61.214912600000005,156.90727933332107,1.266617094796024,15.831673433473476,0.9818320940348814,-38.6185088,15.471042799999998,-74.09080039999999
6375.515,16.496292599999997,-171.4931884,17.155992599999998,-1.1816993999999998,-0.2754538,0.4417462,-36.035429,62.91684339999999,140.8067262,-12.493445799999998,-1.7440282000000042,14.5799214,-0.9660026,-0.146531,-0.061519,-80.0580278,81.145256,61.4095606,173.13685170764185,1.291289267789847,19.279572877792464,0.978987714186833,-44.0225988,18.2284126,-79.3971656
6395.501,11.882239399999996,-187.625415,15.7269228,-1.1957814,-0.2879606,0.4845411999999999,-31.4334358,59.99331959999999,145.7072632,-16.1392164,3.268439199999996,14.907919800000002,-0.9577374,-0.142133,-0.0638132,-80.8799624,81.46075440000001,60.919884,188.65794461892744,1.321966201623839,22.21267821703087,0.9703271827285888,-49.4465266,21.4674348,-84.7873792
6415.487,9.703986199999996,-202.356372,13.488113800000002,-1.1991084,-0.3008844,0.5303776,-27.5601914,56.6487472,149.95644539999998,-17.834229599999997,9.193107999999995,14.911137,-0.9495174,-0.1429084,-0.0606668,-82.5899004,81.7830566,59.5667856,203.03742967998272,1.3452482208483607,24.998299677337037,0.9621260646690536,-55.029709,25.134309400000003,-90.3896598
6435.473,8.710739399999994,-214.9828246,11.0934026,-1.1834568,-0.295057,0.5798178,-24.3579384,52.9452536,153.59292,-15.858069999999998,16.057629199999997,14.5414038,-0.9460246,-0.160254,-0.0589992,-85.3260392,82.08587480000001,57.1363252,215.4450171972765,1.3504878051697025,26.84731390892294,0.9613140974321556,-60.9681008,29.140621200000005,-96.4565948
6455.459,6.191751799999996,-226.1256896,7.760027600000001,-1.149817,-0.3083617999999999,0.6371952000000001,-21.8024696,48.91795499999999,156.67246099999997,-11.1238498,23.268247999999996,12.6723098,-0.9489934,-0.1697254,-0.0369282,-89.0199874,82.32808980000001,53.6389544,226.34350734178597,1.3502532562787175,28.73567182144242,0.9647584550569952,-67.2175178,33.4101348,-103.0335066
6475.445,5.007809199999996,-234.294162,3.8675226,-1.089852,-0.3177192,0.6964474,-19.7929156,44.63589019999999,159.24879760000002,-5.839928999999997,30.7679828,9.8300434,-0.9627852,-0.1762218,-0.0129544,-93.6903502,82.4671448,49.0428476,234.37958578196896,1.331826510067809,32.82382198270062,0.9788653025895035,-73.8974346,37.83125460000001,-110.20595
