Timestamp (ms),Wrist Gyroscope X (deg/s),Wrist Gyroscope Y (deg/s),Wrist Gyroscope Z (deg/s),Wrist Accelerometer X (g),Wrist Accelerometer Y (g),Wrist Accelerometer Z (g),Wrist Roll (deg),Wrist Pitch (deg),Wrist Yaw (deg),Arm Gyroscope X (deg/s),Arm Gyroscope Y (deg/s),Arm Gyroscope Z (deg/s),Arm Accelerometer X (g),Arm Accelerometer Y (g),Arm Accelerometer Z (g),Arm Roll (deg),Arm Pitch (deg),Arm Yaw (deg),Wrist Gyroscope Magnitude (deg/s),Wrist Accelerometer Magnitude (g),Arm Gyroscope Magnitude (deg/s),Arm Accelerometer Magnitude (g),Difference Roll (deg),Difference Pitch (deg),Difference Yaw (deg)
0.0,-1.1730051040649414,-0.1381138265132904,-0.0599426589906215,-0.8741254210472107,0.2475774884223938,0.4116519689559936,31.73994445800781,60.829471588134766,-85.41700744628906,-0.3700092136859894,-0.7465755939483643,-1.0619240999221802,-0.9575129747390748,0.1885773986577987,-0.1963846534490585,133.17787170410156,73.93575286865234,15.688122749328612,1.1826282279750526,0.997420276533343,1.3498017371775046,0.995469469239776,101.43792724609375,13.106281280517578,101.10513019561768
9.868,-1.1617100834846497,-0.1342932563275098,-0.08465161267668,-0.8740756064653397,0.2492584437131881,0.4119009971618652,31.732388973236084,60.82983112335205,-85.42812538146973,-0.3218128681182861,-0.8131569623947144,-0.953893095254898,-0.958559975028038,0.1908958069980144,-0.1967443972826003,133.17633819580078,73.94124794006348,15.682146549224854,1.172506244031869,0.9978979752675174,1.2941019298156102,0.996988862885273,101.4439492225647,13.111416816711426,101.11027193069458
30.487,-1.1572263108359444,-0.134737055748701,-0.1185621389498312,-0.8740597665309906,0.2499520911110772,0.4121238953537411,31.723876211378307,60.83038478427463,-85.44020377265082,-0.3009793973631329,-0.826378345489502,-0.8804046312967936,-0.9592358966668448,0.1924554813239309,-0.1965365873442755,133.17425706651477,73.94625557793512,15.67583868238661,1.1710609674458277,0.99814960223433,1.2444284159162728,0.9978974135204508,101.45038085513646,13.115870793660491,101.11604245503743
51.929,-1.1575829883416495,-0.132757537998259,-0.1460795740131288,-0.8742927834391594,0.2501318656528989,0.4124476977934439,31.714623490969338,60.83113328615824,-85.4521377881368,-0.3222019619618853,-0.8250102140009403,-0.8437258489429951,-0.9595004096627237,0.1927629035587111,-0.1965526783217986,133.17363770802817,73.95136753718059,15.672534803549448,1.1742922041541448,0.9985323854557272,1.2232453824448075,0.9982141696483734,101.45901421705884,13.120234251022346,101.12467259168625
69.658,-1.1629616276423138,-0.1466711468994617,-0.1654709387198089,-0.874328316450119,0.2501948458453019,0.4125381369392077,31.70477984746297,60.83172578175862,-85.4637015024821,-0.3547852193812529,-0.8026558262109755,-0.834807055592537,-0.9594288504123688,0.192907882084449,-0.196609873274962,133.17525049845378,73.95643033345542,15.672788203557332,1.1837959301594505,0.998616633279922,1.211210859969852,0.9981846583889696,101.4704706509908,13.124704551696794,101.13648970603943
212.631,-1.1539937512079874,-0.1747177524864673,-0.2112201227620243,-0.8742895448207856,0.2509023911257584,0.4125790746013323,31.682066071828206,60.83290360768636,-85.49098879496256,-0.4532092374066511,-0.766357680261135,-0.7756711584329605,-0.9597512185573578,0.1941810831924278,-0.1964990598956743,133.1781099955241,73.9683996327718,15.672866175969444,1.1861036257935516,0.9987771076944302,1.1808337956675687,0.9987194676844952,101.4960439236959,13.135496025085445,101.16385497093201
212.737,-1.1282317344347637,-0.2136731547117233,-0.2553910943493246,-0.8742160081863404,0.2508784300585587,0.4124708874026933,31.65461371739705,60.83413522084554,-85.52255388895671,-0.651815966318051,-0.6618910297751427,-0.7480108553171159,-0.9598608231544494,0.1940067047377426,-0.1961967332164446,133.18424891153973,73.98143567403159,15.680520060857138,1.176345049168432,0.9986620292134232,1.1926793487422245,0.9987314751397092,101.52963519414267,13.147300453186048,101.20307394981384
212.828,-1.0663639032840728,-0.2587962347269057,-0.2943916906043887,-0.8740776896476745,0.250549616664648,0.4122938945889473,31.623122348785405,60.835320777893074,-85.55804908752442,-0.8349719657003879,-0.5495661196112632,-0.7316897147893906,-0.959813997745514,0.1933140765130519,-0.1958794984221458,133.19422409057614,73.9955590057373,15.695828275680544,1.136122323006188,0.9983852830776004,1.2387780035416882,0.998489869927798,101.57110174179074,13.160238227844232,101.25387736320496
212.91,-0.9603520786762236,-0.3070599484443664,-0.3246233700215816,-0.8734595060348511,0.2506995981931685,0.4120694756507873,31.589158477783208,60.8360920715332,-85.5979672241211,-0.9861556297540665,-0.4139273434132337,-0.7096152400970459,-0.9601819896697998,0.1932289475202559,-0.1948901993036269,133.20690185546874,74.01024841308593,15.716447372436525,1.059217758216208,0.9977890809083736,1.2835079122073088,0.998633601092337,101.61774337768554,13.174156341552731,101.31441459655763
212.967,-0.8221462094783781,-0.3108901804685592,-0.3589012640714645,-0.8728610754013062,0.2510231202840804,0.4122873640060424,31.55387634277344,60.83705184936523,-85.64323913574219,-1.122895897626877,-0.2918702821433543,-0.6441034638881683,-0.961365213394165,0.1932233923673628,-0.1937612104415892,133.2192572021484,74.0251284790039,15.73866024017334,0.9494141411541824,0.9974366818936086,1.3270089414538428,0.9995507788772666,101.66538085937498,13.188076629638665,101.38189937591554
213.016,-0.6697327816486358,-0.256785922050476,-0.3925139570236206,-0.8728171491622925,0.2512183862924574,0.4131169140338896,31.521648025512697,60.83885162353515,-85.68991302490235,-1.0478912764787676,-0.2272107622772455,-0.5233756494522094,-0.9629216408729552,0.1927454608678817,-0.1931598609685897,133.23027709960937,74.03788024902344,15.757828979492189,0.8176479774551351,0.9977905782999066,1.1931567073332947,1.000839463168815,101.70862907409668,13.199028625488296,101.44774200439454
301.653,-0.4969946956634521,-0.1779441298544406,-0.4348141145706176,-0.8727376079559326,0.2514257329702376,0.4140270030498504,31.49300575256348,60.84194442749023,-85.73761016845704,-0.7739924871921541,-0.2487778112292289,-0.3782978403568268,-0.9638862776756288,0.193419125676155,-0.1926423501968383,133.23692016601564,74.04876434326172,15.76677745819092,0.6839087330171268,0.998150384859268,0.8966961724065414,1.001797778774773,101.74391441345216,13.20681991577149,101.50438762664795
301.739,-0.3379841780662536,-0.0790354713797569,-0.4713124096393585,-0.872830147743225,0.252155800461769,0.4149234402179718,31.46871757507324,60.84651412963867,-85.78506866455078,-0.5223521393537521,-0.2710549195855855,-0.230111676454544,-0.9646881294250488,0.1939257544279097,-0.1923992836475371,133.23924682617186,74.05770080566406,15.7660892868042,0.5853334928392531,0.9987875028044216,0.6318812471973755,1.0026205013025216,101.77052925109862,13.211186676025385,101.55115795135498
301.80400000000003,-0.2198828274011611,0.0188052152097225,-0.5214651238918304,-0.873158950805664,0.2520217484235763,0.4154723286628722,31.446836547851564,60.85310791015625,-85.8324560546875,-0.2801021909713745,-0.3062088933587074,-0.0712565457820892,-0.9647192025184632,0.1942338436841963,-0.1931526017189025,133.23773742675783,74.06431640625,15.756338500976565,0.5662402046309807,0.999269118373561,0.4210684256456705,1.002854851556783,101.79090087890627,13.211208496093754,101.58879455566407
301.86600000000004,-0.0879088807106017,0.0688735657930374,-0.5603811454772949,-0.8737022328376771,0.252097942829132,0.4157453644275665,31.42744537353516,60.86089950561524,-85.87871826171875,-0.0174240690469742,-0.3516760573536157,0.0769263136386871,-0.9639653778076174,0.1940355032682418,-0.1939708179235457,133.2336456298828,74.068984375,15.738432846069337,0.5714005316582089,0.9998765786271988,0.3604126873848575,1.0022493224473996,101.80620025634764,13.208084869384763,101.61715110778809
301.928,0.0162608653306961,0.035687970072031,-0.5870774245262147,-0.873539981842041,0.2520846849679946,0.4158643507957458,31.408793869018552,60.86822540283204,-85.92421478271484,0.1000496280193328,-0.3715620286762714,0.1575828421115875,-0.9627639198303224,0.1940250176191328,-0.1942835170030593,133.22759338378907,74.07240051269532,15.71642707824707,0.5883858847197972,0.9997809492757768,0.415813204875457,1.0011524148541169,101.81879951477052,13.204175109863286,101.6406418609619
319.207,0.0704195445775985,-0.0326614958047866,-0.5736427533626557,-0.873292338848114,0.2522319054603576,0.4158506309986114,31.39069259643555,60.87407287597656,-85.96992553710939,0.1422207289934157,-0.3413677098602056,0.1989704680442809,-0.9624181413650512,0.1934581148624419,-0.1943102157115935,133.2228454589844,74.07492706298828,15.695545463562013,0.5788710513164491,0.999596013659976,0.4199379671384576,1.0007153346304711,101.83215286254887,13.200854187011721,101.6654710006714
329.43699999999995,0.1015965920686721,-0.1172055669128894,-0.531220617890358,-0.8732569527626037,0.251933359503746,0.4162131464481353,31.37259414672852,60.87789443969727,-86.01757080078126,0.2281826066970824,-0.3482621118426323,0.2627203130722045,-0.9624813055992126,0.1929299974441527,-0.1945806878805159,133.21762390136718,74.07671325683594,15.673192710876464,0.5534025273769119,0.9996406886753504,0.4923167308196246,1.0007266817857017,101.84502975463866,13.198818817138672,101.69076351165772
353.18100000000004,0.1591811245679854,-0.2156393805146216,-0.4562183088064193,-0.8736400270462037,0.2526173961162566,0.4170920526981353,31.356431579589845,60.87877807617188,-86.06649078369142,0.4041524356603622,-0.4452369898557663,0.3560380482673644,-0.9632156586647034,0.1924095261096953,-0.1946103674173354,133.20736389160157,74.0787579345703,15.64275951385498,0.5291258055865804,1.0005139809626815,0.6988120349565118,1.0013386170227063,101.85093231201174,13.199979858398422,101.7092502975464
378.579,0.1701477164030074,-0.3209346555173396,-0.3811799806356429,-0.8739997863769531,0.2525168019533157,0.4174685561656951,31.340659408569337,60.87704772949219,-86.11749755859375,0.6323542487621306,-0.5722499227523803,0.4471029424667357,-0.9639041018486024,0.1932420825958251,-0.1947182178497313,133.18993408203127,74.08092193603515,15.601106109619142,0.5265429480551238,1.0009597180919718,0.9629345310975388,1.0021820215954325,101.84927467346193,13.203874206542963,101.7186036682129
399.265,0.234456848502159,-0.3998348933458328,-0.2944550026208161,-0.8744668698310851,0.2526261520385742,0.417369862794876,31.327685623168943,60.87323989868164,-86.16914276123046,0.8328052791953088,-0.699998100399971,0.5409908413887023,-0.9647541809082032,0.1941641145944594,-0.1949651277065276,133.16475891113282,74.08310729980468,15.548284187316897,0.5491281310540034,1.0013540240571297,1.2150033185492128,1.0032256645429936,101.83707328796388,13.209867401123041,101.71742694854736
419.48,0.3090960496664047,-0.4936414301395415,-0.2201881325244903,-0.875451431274414,0.2526422625780105,0.4178207385540007,31.316601333618166,60.86717987060547,-86.22057067871093,0.9475449615716934,-0.8419006550312043,0.6297187435626984,-0.9646503520011904,0.1946737802028655,-0.1955712342262267,133.1308673095703,74.08546417236327,15.485060272216796,0.6226596527592028,1.0024058514028973,1.415338780340614,1.0033425586365126,101.81426597595214,13.218284301757805,101.70563095092773
430.307,0.4160250145196914,-0.6342793130874633,-0.168450654670596,-0.8756958341598511,0.2525699222087859,0.4171254932880401,31.307082519531253,60.85863739013672,-86.27105285644532,0.9903891536593435,-0.9627620464563372,0.6740496146678925,-0.9639544129371644,0.1958913248777388,-0.195756794810295,133.0884747314453,74.08812530517578,15.41292366027832,0.7770216745855718,1.002311546735974,1.536920400286495,1.0029467802918504,101.78139221191405,13.229487915039059,101.68397651672365
451.745,0.5723148334026337,-0.7820668107271194,-0.1224904780089854,-0.8753617215156556,0.2520542979240417,0.4161157345771789,31.299539413452152,60.84766387939453,-86.3202587890625,0.898852277994156,-0.9668530297279356,0.667377337217331,-0.9629926824569702,0.1969052904844283,-0.19547525703907,133.04294311523438,74.09044952392578,15.339399261474608,0.9768196774105452,1.0014698283820331,1.4792338249853088,1.0021662416989103,101.74340370178223,13.242785644531253,101.65965805053712
469.823,0.7901889044046402,-0.919887293577194,-0.069101635441184,-0.8745526599884034,0.2520772325992584,0.4162021112442016,31.295457000732423,60.83363601684571,-86.36740844726562,0.721767204105854,-0.9349534797668456,0.648797961473465,-0.9626447081565856,0.1968363440036772,-0.1947839045524596,132.9959051513672,74.09280670166015,15.26696292877197,1.214646522058836,1.0008044183015097,1.347599607102584,1.0016836576161725,101.70044815063477,13.259170684814443,101.63437137603759
491.957,0.9937596559524536,-1.0574472945928577,-0.0113722644746303,-0.8740548276901245,0.2520876538753508,0.4169525337219237,31.29423789978028,60.81634994506836,-86.41254425048828,0.6423913896083832,-0.8955516481399537,0.6599259459972382,-0.9621513724327088,0.1964891636371611,-0.1939534920454024,132.94847534179686,74.09479644775391,15.19390853881836,1.4511658633801214,1.0006844869497695,1.2845939849343553,1.000980125665631,101.65423744201658,13.278446502685547,101.60645278930664
514.965,1.235984025001526,-1.165321924686432,0.047833769544959,-0.8728933525085448,0.2519660878181456,0.4169579112529754,31.29754280090332,60.79649627685548,-86.45555877685547,0.6397362372279167,-0.8435260701179506,0.7223660230636597,-0.9623913192749022,0.196275536417961,-0.1927948009967803,132.89970275878903,74.09567932128905,15.116824684143063,1.699388056837738,0.9996417428361184,1.281644004967048,1.000945039901409,101.60215995788572,13.299183044433576,101.57238346099854
529.667,1.489456068277359,-1.2164730978012084,0.1243952593207358,-0.8719699549674989,0.2522397744655608,0.4177461779117584,31.30704574584961,60.77451309204101,-86.49559692382812,0.761969159245491,-0.7967188382148743,0.8135319864749908,-0.9627997350692749,0.1956317603588103,-0.1916079807281493,132.85102416992189,74.09532806396484,15.034555931091308,1.9271119213848973,0.999233894215134,1.370106638121896,1.0009838828818731,101.54397842407228,13.32081497192383,101.53015285491942
552.922,1.7071681666374208,-1.2342399191856384,0.1950589022785424,-0.8711790347099303,0.2525544559955596,0.4183497309684753,31.322559585571287,60.751155395507816,-86.53249725341797,1.008019863665104,-0.8126202988624571,0.9374535489082336,-0.9631324124336242,0.1956676936149596,-0.1907216835021972,132.79965942382813,74.09372528076172,14.943155364990236,2.115613221420601,0.9988759488358576,1.5985227405412057,1.001141673671975,101.47709983825685,13.342569885253901,101.4756526184082
574.1709999999999,1.9321241903305053,-1.233099675178528,0.2595643039047717,-0.8711851215362548,0.2531592285633086,0.4180924463272094,31.345137634277343,60.72734130859375,-86.56573791503905,1.3145667028427126,-0.82883629322052,1.0875747096538544,-0.9629545617103576,0.1959328633546828,-0.1904658782482146,132.74623107910156,74.09009033203125,14.84346538543701,2.306731957477347,0.998926626268806,1.896806254276108,1.0009737387354452,101.40109344482423,13.362749023437502,101.40920330047607
597.819,2.1608201026916505,-1.2207154512405396,0.285227450877428,-0.870464289188385,0.253230680823326,0.4167502951622008,31.37393264770508,60.7040657043457,-86.59656707763672,1.5578721749782565,-0.8484217739105224,1.2090831255912782,-0.9627108311653136,0.1965376555919646,-0.1902706843614577,132.69031982421876,74.0847430419922,14.737671394348144,2.4981281848271486,0.997754812055681,2.146780665230273,1.0008207271214822,101.31638717651369,13.380677337646496,101.33423847198486
693.431,2.3979909658432006,-1.181797707080841,0.3101592460274696,-0.8703337407112123,0.2539041495323181,0.4158843231201172,31.409813232421875,60.6815902709961,-86.62394104003906,1.7609627079963683,-0.8602966713905336,1.2630492067337038,-0.9621491193771362,0.1975140964984893,-0.1904059970378875,132.63473205566407,74.07826873779297,14.630695991516111,2.691320354514392,0.9974507043394072,2.3316074541805216,1.000498470734366,101.2249188232422,13.396678466796871,101.25463703155516
693.4789999999999,2.562169909477234,-1.140721302032471,0.3071044014394283,-0.8702903032302857,0.254237710237503,0.4152595472335815,31.44995635986328,60.660243835449215,-86.64897705078126,1.8110147285461424,-0.8606763935089111,1.2683469796180724,-0.9618146324157716,0.1984572631120681,-0.1904967749118804,132.57927429199216,74.0712985229492,14.52612476348877,2.8213955496039014,0.9972374425241516,2.3726024239347083,1.0003807743368751,101.12931793212888,13.411054687499991,101.17510181427002
693.519,2.6803484678268434,-1.0955301141738891,0.3101143360137939,-0.8701765108108521,0.2547943019866943,0.4149752902984619,31.49366714477539,60.63979797363281,-86.67207397460938,1.7204909682273866,-0.8348289322853087,1.2218803429603575,-0.9616830062866212,0.1985514563322066,-0.1904493564367293,132.52591186523438,74.06467529296876,14.428604888916016,2.912151273791394,0.9971618664239666,2.2693655700317565,1.0002638865615805,101.03224472045899,13.424877319335948,101.10067886352539
693.558,2.697822599411011,-1.037297520637512,0.294089460670948,-0.8694496607780458,0.2545339441299438,0.4147985327243805,31.537703704833984,60.62065383911133,-86.69529937744142,1.578822784423828,-0.8153820323944092,1.1136923670768737,-0.9614010524749756,0.1986268460750579,-0.1901880389451979,132.47589294433592,74.05945434570313,14.340156631469728,2.905291987923287,0.9963875069929888,2.0971027470900743,0.9999580480397844,100.93818923950194,13.438800506591804,101.03545600891114
700.068,2.64042031288147,-0.964669449329376,0.3036968708038329,-0.869680917263031,0.255288473367691,0.4153900134563446,31.582160263061525,60.60245437622071,-86.71777618408203,1.4523382449150084,-0.7830327343940734,0.9939060878753662,-0.9609599184989928,0.1986067640781402,-0.1904321074485778,132.43158264160155,74.05544250488282,14.261156044006349,2.827479153677806,0.9970285681790344,1.926207660739408,0.9995764099089612,100.84942237854003,13.452988128662106,100.97893222808838
710.062,2.482301950454712,-0.9259402894973756,0.2728724125027656,-0.8694179582595826,0.2550578939914703,0.4151267445087432,31.622744598388675,60.58551681518554,-86.74249145507812,1.326239542961121,-0.7580049753189086,0.8926377773284913,-0.960624318122864,0.1987529277801513,-0.1905901879072188,132.39131347656252,74.05243499755859,14.188264579772948,2.6633902730262475,0.9966304879131748,1.769261164847036,0.9993129772982576,100.76856887817384,13.46691818237305,100.93075603485107
731.4770000000001,2.3833650493621823,-0.8830359864234925,0.2540532654523849,-0.8695307874679565,0.2555562210083007,0.4149755418300628,31.661772079467774,60.56964111328125,-86.76882629394531,1.2481130599975585,-0.7143823146820069,0.8260791993141174,-0.9604306602478028,0.1982824963331222,-0.1914696621894835,132.35728149414064,74.0496728515625,14.121733665466309,2.554354042322076,0.9967935958701992,1.658473739800044,0.99920149771459,100.69550941467287,13.480031738281255,100.89055995941162
823.573,2.208677358627319,-0.861454622745514,0.1945982698351144,-0.8701025581359862,0.2555041933059692,0.4147393119335174,31.695646820068355,60.55518737792969,-86.79861145019531,1.2566934156417848,-0.6562748795747757,0.7883439207077027,-0.9602521967887878,0.1983910435438155,-0.1924669069051741,132.32990844726564,74.04626037597657,14.05992416381836,2.378703055907859,0.997180801727956,1.6221779174292488,0.9992431124855162,100.63426162719728,13.491072998046882,100.85853561401368
823.9680000000001,2.029856262207031,-0.8605854988098145,0.1527998161315917,-0.870829243659973,0.2563090407848357,0.4147400414943695,31.725186767578123,60.54132720947266,-86.83041168212891,1.2210603460669518,-0.5472654128074647,0.7925539898872376,-0.9606994605064392,0.1989315140247344,-0.1930639040470122,132.30767150878904,74.04097564697265,14.00208183288574,2.210038829928715,0.998021642060028,1.555194401892782,0.9998954304003046,100.58248474121092,13.499648437499992,100.83249351501465
824.0300000000001,1.833820025920868,-0.852185798883438,0.0853434889763593,-0.8710589003562926,0.2564986699819564,0.4145263433456421,31.748985290527344,60.52856079101563,-86.86447357177735,1.101328688263893,-0.4380006599426269,0.827078857421875,-0.961807758808136,0.1996723449230193,-0.193230931162834,132.28649963378905,74.03357208251953,13.947017974853514,2.023956529769766,0.9981819798613556,1.4452781372792982,1.0011400516354554,100.5375143432617,13.505011291503898,100.81149154663086
824.076,1.667057785987854,-0.8016220331192017,0.0378821288049221,-0.8716446948051452,0.257240445613861,0.4157557904720305,31.768725204467767,60.5167219543457,-86.89835113525392,1.0228452375531196,-0.3325105476379394,0.8772516417503355,-0.9626628232002258,0.1998655259609221,-0.1935903400182723,132.26735107421877,74.02400085449219,13.895998153686524,1.8501661010535464,0.999394815952432,1.3879287039431236,1.0020694384062692,100.498625869751,13.507278900146488,100.79434928894044
830.095,1.392333731651306,-0.7697280156612396,-0.03030231885612,-0.8719787263870238,0.2575300276279449,0.4162690532207488,31.781321868896487,60.506054382324216,-86.93203704833984,1.0087182950973512,-0.2432541525363921,0.9117615056037902,-0.9627925014495852,0.2006744569540023,-0.1931793212890624,132.2493719482422,74.01265472412109,13.8469425201416,1.591223638875409,0.9999742692044056,1.3813016414567805,1.002276353454992,100.46805007934573,13.506600341796876,100.77897956848143
852.5390000000001,1.153412710428238,-0.7562744998931884,-0.0780812846124171,-0.8718773531913756,0.258267959356308,0.4166204595565795,31.78837455749512,60.49584808349609,-86.96353515625,0.9005751726031302,-0.1553558528423309,0.9301972174644468,-0.9621798300743104,0.2014685374498366,-0.1931498706340789,132.23195800781252,73.99954986572266,13.800392837524416,1.3814516592240322,1.0002225078247369,1.3040084148118545,1.0018415391218145,100.4435834503174,13.503701782226564,100.76392799377442
879.794,0.9345138001441956,-0.7686793673038482,-0.1547214359790086,-0.8713783240318298,0.2584860277175903,0.4161563527584075,31.78898826599121,60.486331176757815,-86.99317901611327,0.7656006884574891,-0.0905235207080841,0.9372237372398377,-0.9609065103530884,0.2017460602521895,-0.1937332302331924,132.21557678222658,73.98506530761718,13.756873207092289,1.2198863615640585,0.9996505989889264,1.2135597453828866,1.0007873695060392,100.42658851623537,13.498734130859361,100.75005222320556
889.602,0.7849925076961518,-0.8310985255241394,-0.2144417372345923,-0.8709495306015015,0.2588199770450591,0.4158757197856902,31.78419425964356,60.47638381958008,-87.02110137939454,0.6335326340794564,-0.0073554730415344,0.914782564640045,-0.9592186951637268,0.2011533486843108,-0.194223095178604,132.2036492919922,73.96973052978515,13.72064697265625,1.1631522922367823,0.9992464559255873,1.112764504285043,0.9991425251380665,100.41945503234865,13.493346710205074,100.74174835205079
911.473,0.6412286400794983,-0.9644582211971284,-0.2500836592167615,-0.8704062557220459,0.2591132831573485,0.4153708994388579,31.77367637634277,60.4646336364746,-87.04896606445313,0.3775273022055626,0.0975665348768234,0.8854353880882263,-0.957974545955658,0.2009399896860121,-0.1943124735355376,132.19394958496093,73.95343200683594,13.692887763977051,1.1848610323156792,0.9986389375591648,0.9674925938307892,0.9979225658965042,100.42027320861817,13.488798370361337,100.74185382843018
929.209,0.5492122590541839,-1.1317285823822023,-0.2529668916761874,-0.8695215725898743,0.2593123590946197,0.4156015264987944,31.758336868286136,60.44979431152344,-87.07784881591797,-0.054174631536007,0.213018085360527,0.8718215131759643,-0.9576709175109862,0.200799793601036,-0.1944542187452315,132.18271545410158,73.93590270996094,13.674414367675784,1.2831351986289448,0.998015678036429,0.8991019665361405,0.9976304859738254,100.42437858581545,13.486108398437501,100.75226318359375
951.406,0.5224868726730346,-1.2911426103115082,-0.2396537968516349,-0.8688854670524597,0.2590554749965667,0.4158140122890471,31.73972778320313,60.43205841064453,-87.10927032470704,-0.4411487963795663,0.3167862164974212,0.9045011496543884,-0.9582094335556028,0.2005594521760939,-0.1941989922523497,132.16765991210937,73.91695526123047,13.663310508728026,1.41332081093539,0.9974833265757296,1.0550299034795183,0.9980494281366792,100.42793212890624,13.48489685058594,100.77258083343507
973.952,0.5971589720249176,-1.444986081123352,-0.1834179717302321,-0.8691648983955383,0.2590354561805724,0.4177447164058684,31.72047584533692,60.41056579589844,-87.14431549072266,-0.7229023587703706,0.388055459856987,0.994531865119934,-0.9590624070167542,0.2004976552724837,-0.1940615183115004,132.1465612792969,73.89611846923829,13.655363845825196,1.5742381537949433,0.9985277343402252,1.2892899173496697,0.9988292562855268,100.42608543395997,13.485552673339846,100.79967933654785
994.048,0.7118631315231324,-1.667249264717102,-0.1345590224862098,-0.8699467611312866,0.2593381214141845,0.4199562084674834,31.700067825317387,60.38420959472656,-87.18570068359375,-0.9619728979468348,0.4470425695180893,1.156958100795746,-0.9594430446624754,0.2018202412128447,-0.1947537279129027,132.11575134277342,73.871552734375,13.64320011138916,1.817849102443347,1.0002133999561484,1.569646763556204,0.9995956083588926,100.41568351745603,13.487343139648438,100.82890079498291
1009.634,0.9077120196819306,-1.9891923236846925,-0.1123730838298796,-0.8714265751838685,0.2600777125358581,0.4216525316238403,31.67827980041504,60.351923828125,-87.23564147949219,-1.2321929299831391,0.6056270843744278,1.3791195821762083,-0.9593816757202148,0.2029314172267913,-0.1961594337224959,132.07840454101563,73.84082763671876,13.627992515563964,2.1893960174556346,1.002404883228012,1.9460355608185025,1.000036440957894,100.40012474060059,13.488903808593754,100.86363399505615
1031.2330000000002,1.2110930299758915,-2.490544123649597,-0.1150234127789735,-0.8739643907546997,0.2610508072376251,0.4239816391468047,31.65317283630372,60.31095809936524,-87.29862518310549,-1.5845804968476296,0.9455602306127548,1.697175133228302,-0.9582164216041564,0.2040236437320708,-0.1985091322660445,132.03919616699218,73.79964111328124,13.614809875488282,2.771784036426548,1.0058437804153588,2.507066599345704,0.999605038716094,100.38602333068846,13.488683013916003,100.91343505859376
1053.64,1.5790460562705997,-3.284462571144105,-0.1261709626019,-0.8767541718482971,0.2622306430339812,0.4277275454998016,31.619974517822264,60.25592758178711,-87.38056030273438,-2.124931318163872,1.425683415532112,2.102124583721161,-0.9563174033164976,0.2054263865947722,-0.2020265018939971,131.99889953613285,73.74425537109374,13.606985664367675,3.646505168085487,1.0101552559773637,3.311621064331157,0.9987780953059188,100.37892501831058,13.48832778930663,100.98754596710205
1076.144,1.9243562173843387,-4.461105036735535,-0.1319563999027013,-0.8792860460281373,0.2640659940242767,0.4321382069587707,31.57202407836914,60.17991027832032,-87.4874578857422,-2.874015559852123,2.05897720515728,2.506631700992584,-0.9539543533325195,0.2070761799812316,-0.2056838554143905,131.96102111816407,73.67254333496093,13.61254608154297,4.860248706768842,1.0147010544260642,4.333884522463695,0.9976047819331124,100.38899703979493,13.492633056640614,101.10000396728518
1099.227,2.163145649433136,-6.0566726970672615,-0.0995882040262221,-0.8820472407341005,0.2663494312763214,0.4391518461704254,31.50032218933105,60.07447219848633,-87.62604858398439,-3.740860559940338,2.7938545614480974,2.8922655534744264,-0.9518846344947814,0.2089223468303679,-0.2091130703687667,131.92846740722658,73.58364685058594,13.63943878173828,6.43213814143032,1.0206878555281986,5.492254643701092,0.9967252282306418,100.42814521789552,13.509174652099603,101.26548736572266
1109.102,2.3218352675437925,-8.206054654121399,-0.043151733353734,-0.8848021936416627,0.2682540595531463,0.4492472386360168,31.3931819152832,59.92898666381837,-87.80692138671876,-4.868112292289734,3.593058681488037,3.3605877113342286,-0.9496532392501832,0.210082202553749,-0.212806041240692,131.8965771484375,73.47581726074218,13.690473709106444,8.528312498268873,1.02793883269479,6.921137026856901,0.9956215233896538,100.5033952331543,13.546830596923805,101.4973950958252
1261.2779999999998,2.6203721714019776,-10.995020809173583,0.0405961924791336,-0.8872758197784425,0.2694485926628112,0.4592436981201171,31.244188461303715,59.73261932373047,-88.03990112304687,-5.83613625049591,4.306160373687744,3.8515694427490232,-0.948310022354126,0.2112870001792906,-0.216662876009941,131.86312927246092,73.35013641357422,13.760425834655765,11.30302972488624,1.0347780915319564,8.212069816470695,0.9954279967847728,100.61894081115722,13.617517089843751,101.80032695770264
1261.3190000000002,3.1169166135787965,-14.405033121109009,0.2081775308400392,-0.8894212961196899,0.2722299373149871,0.4709536063671112,31.05198661804199,59.473070373535165,-88.3313836669922,-6.387542552947998,4.96727488040924,4.271469268798828,-0.9480442476272584,0.2119102513790129,-0.2203203499317168,131.83715148925782,73.20904205322265,13.850277557373047,14.739860456618906,1.0425817378565283,9.149861710296983,0.9961098868562068,100.78516487121583,13.73597167968748,102.18166122436524
1261.351,3.762788581848144,-18.571199207305902,0.4808745868504047,-0.8936374735832213,0.2758648931980133,0.4870435976982116,30.81177581787109,59.135537261962895,-88.68990966796875,-6.651221857070922,5.650436954498291,4.628494300842285,-0.9476553392410276,0.212792443037033,-0.2251064711809157,131.82862548828126,73.05278289794921,13.964121513366695,18.9546632330254,1.0544670879407148,9.878722056099534,0.9969975873457372,101.01684967041017,13.917245635986319,102.65403118133544
1261.3829999999998,4.683135571479798,-23.65788284301758,0.8873283632844686,-0.898113386631012,0.2799104523658752,0.5058681070804596,30.52180603027344,58.702329559326174,-89.12348419189453,-6.928871984481812,6.521036148071289,5.044466524124145,-0.9473914289474488,0.2136182701587676,-0.2298642176389693,131.84269042968748,72.87817169189452,14.10649585723877,24.133266066139782,1.0681105084918234,10.76939283036878,0.998008438611362,101.32088439941404,14.175842132568349,103.2299800491333
1261.4129999999998,5.77079849243164,-29.63451305389404,1.5836571410298348,-0.9015471577644348,0.2844778442382812,0.5268797802925109,30.18553695678711,58.15444107055664,-89.63142517089844,-6.878975162506103,7.316147155761717,5.1985258102417,-0.9482023692131042,0.2166919666528701,-0.2340985471010207,131.88838439941406,72.68971588134767,14.2793155670166,30.232671881955824,1.0822740985613004,11.30800508891313,1.0004225463013323,101.70284744262696,14.535274810791023,103.91074073791503
1261.447,6.616285276412964,-36.476728515625,2.72656655818224,-0.9052120828628538,0.2920654618740081,0.5537579572200775,29.804844055175785,57.470200653076176,-90.20911956787108,-7.154697465896606,8.188927822113037,4.931785304546357,-0.948261077404022,0.2179445892572402,-0.2387425994873046,131.98164916992187,72.49312194824219,14.506997413635252,37.17204755266633,1.1006175648994236,11.940299032872822,1.001846766584541,102.17680511474609,15.022921295166014,104.71611698150633
1261.479,7.0461373519897466,-44.350503845214845,4.360702330768108,-0.9079844975471496,0.3008646297454834,0.5851609301567077,29.377395019531253,56.6256153869629,-90.84992614746092,-8.024336261749268,9.191134433746338,4.330314712524414,-0.9467805886268617,0.2206496626138686,-0.2414848512411117,132.1242431640625,72.29138916015624,14.80534423828125,45.117967238397256,1.121324523677111,12.94675828654908,1.0016959069454074,102.74684814453126,15.665773773193344,105.65527038574217
1348.2320000000002,7.385577096939086,-53.03022171020507,6.461736408770085,-0.904371473789215,0.3070046460628509,0.6168076062202454,28.91136138916016,55.60163085937499,-91.54618133544922,-9.42300368309021,10.073589267730714,3.817834465503693,-0.9490379667282104,0.224907060265541,-0.2393605363368987,132.28681091308596,72.08665161132812,15.156369552612304,53.93055906538297,1.1369218259840923,14.31244420609069,1.0042657588529,103.3754495239258,16.48502075195313,106.70255088806152
1348.289,8.042440376281737,-62.110152511596674,9.081893336772918,-0.8941064047813414,0.3134807813167571,0.6494298529624938,28.432274856567386,54.38508712768555,-92.28129364013672,-10.79168710708618,10.264702301025393,3.2085356378555296,-0.9543245196342468,0.2275064611434936,-0.2342808032035826,132.44081970214842,71.89190399169922,15.530514755249024,63.28374735111983,1.1486755839856904,15.235462739454784,1.0086535447748586,104.00854484558103,17.506816864013672,107.81180839538575
1348.3339999999998,9.17474325180054,-71.34828231811522,12.108260488510131,-0.8794896364212036,0.3231102812290191,0.6836462569236754,27.969062576293947,52.968646392822265,-93.04039947509764,-11.803477602005009,9.802027053833008,2.8450701880455016,-0.9589800524711608,0.228064682483673,-0.2269498765468596,132.55485046386718,71.71372833251954,15.888266143798829,72.9476749152401,1.1598596807432997,15.604366127466164,1.0115149464533897,104.58578788757323,18.745081939697272,108.92866561889647
1348.377,10.952781009674071,-80.59830474853516,15.346565551757813,-0.8581939840316772,0.3319411289691924,0.7205486822128295,27.5461051940918,51.34963836669922,-93.8113381958008,-11.733066430091858,8.37786855697632,3.088691191673279,-0.9637096333503724,0.2340196728706359,-0.2142728579044341,132.57093383789066,71.55568084716796,16.147288970947265,82.77419413330475,1.1687053652517172,14.744271521117652,1.0146005728055365,105.02482864379886,20.206042480468746,109.95862716674807
1349.62,13.521481342315672,-89.62013885498047,18.62702068328857,-0.832029082775116,0.3376998138427733,0.7553760242462159,27.18820304870605,49.5335758972168,-94.58900970458986,-10.92057520866394,5.893543472290039,4.061418573856354,-0.9708046364784242,0.2397671663761138,-0.1989951413869856,132.42731079101563,71.42235931396483,16.227723159790038,92.5287287582199,1.1734165913515389,13.057102985728624,1.0195827590615991,105.23910774230959,21.888783416748034,110.8167328643799
1371.389,16.784865818023682,-98.29944091796874,22.06151641845703,-0.8047180557250977,0.3489124834537506,0.7876033973693848,26.923569946289064,47.52708892822265,-95.3583480834961,-9.273028120994567,2.498546810150147,5.221730117797852,-0.9747159671783449,0.2410947656631469,-0.1864286392927169,132.10552490234377,71.32255920410157,16.091190109252928,102.13335553087512,1.178825763998922,10.93152560800114,1.021250968298742,105.18195495605471,23.795470275878913,111.44953819274903
1392.133,19.907872467041017,-106.71707427978517,25.627838478088385,-0.7802370285987854,0.361882458925247,0.8164121079444886,26.75586540222168,45.33813217163086,-96.11150451660156,-6.921703033447265,-1.241002655029297,6.666651647090911,-0.9738615036010744,0.2445943367481231,-0.1761168938875197,131.59650329589843,71.25276062011719,15.712812194824217,111.54211506897356,1.185857270025701,9.689907360583112,1.0194360098005109,104.84063789367676,25.914628448486326,111.82431671142578
1410.111,22.752855052948,-114.9880862426758,29.30207473754883,-0.7552340817451477,0.3727218735218047,0.8420593118667602,26.6799845123291,42.972129821777344,-96.84572723388672,-4.47259361743927,-5.03407392501831,8.299147305488585,-0.9721503806114196,0.2526949697732925,-0.1662072974443434,130.89016510009765,71.20672363281251,15.079945678710937,120.82451727500676,1.1909508797312185,10.687461810341414,1.018113930754022,104.21018058776855,28.234593811035168,111.92567291259766
1431.047,25.51855453491211,-123.05205505371092,33.112701416015625,-0.7315802526473998,0.3850422191619872,0.8591473627090455,26.698853836059573,40.43687576293945,-97.5577944946289,-2.7852301970124245,-8.46159652709961,10.195176753997805,-0.9730887532234191,0.2581179511547088,-0.1598080855607985,129.9896664428711,71.17326446533204,14.210145187377927,129.95943933996867,1.1923092583095751,13.538750019223755,1.0193454873441197,103.29081260681154,30.73638870239259,111.76793968200683
1453.473,28.352822494506835,-130.72718170166016,37.08005905151367,-0.7093314886093139,0.4011222362518309,0.873910038471222,26.818876724243164,37.7411653137207,-98.24202636718748,-1.0882460719347,-11.568146190643311,12.27186252593994,-0.9752338719367982,0.2637283593416213,-0.1580850094556807,128.91379974365233,71.1403692626953,13.121178398132324,138.81069612363314,1.194892867368932,16.899848983252653,1.0225578823267,102.09492301940917,33.3992039489746,111.36320476531981
1476.6,30.81686935424805,-138.06609527587892,40.96488296508789,-0.6852426099777222,0.4151469647884368,0.8871064782142639,27.02862380981445,34.89415000915527,-98.90546874999998,0.6298474243283272,-14.604442062377933,14.503428783416748,-0.9784638857841492,0.2744176721572876,-0.1545606356859206,127.65492797851562,71.0989404296875,11.804373989105224,147.27541457374417,1.1953503003688275,20.59213156054827,1.027903509420839,100.62630416870117,36.204790420532234,110.70984273910521
1497.432,33.36034103393555,-145.00153656005858,44.6920816040039,-0.6552102017402649,0.4281962215900421,0.8988008403778076,27.32568481445313,31.904852142333983,-99.55598876953124,2.343168543577194,-17.66475317001343,16.928325767517087,-0.98380211353302,0.2838767653703689,-0.1503477650880813,126.20880432128908,71.04229583740235,10.254691371917724,155.35681548222283,1.19184536048615,24.578489715039293,1.0349188697555771,98.88311950683595,39.13744369506837,109.81068014144897
1519.96,36.0453360748291,-151.48673828125,48.20595672607421,-0.6238939428329469,0.4416757059097289,0.9065457653999328,27.71094596862793,28.785683555603025,-100.20117553710938,4.465900864303112,-21.09963218688965,19.71621536254883,-0.9913334345817568,0.287751350402832,-0.1466433510184287,124.56613830566408,70.96511444091797,8.45114902496338,163.00709307179076,1.185810400468409,29.22101807217229,1.042615504669017,96.85519233703616,42.17943088531494,108.65232456207276
1529.725,38.66274826049805,-157.40666259765626,51.48948013305663,-0.5872577893733979,0.4542841708660125,0.9146912717819214,28.17974563598633,25.548473701477054,-100.84949310302736,7.831368201971054,-25.24426700592041,22.32352886199952,-0.9975182175636292,0.2924764007329941,-0.1417778179049491,122.7295816040039,70.87104156494141,6.368162593841553,170.06713996995268,1.1780941990151634,34.59686814487072,1.0491358296269055,94.54983596801756,45.32256786346436,107.2176556968689
1552.127,40.40901519775391,-162.7877911376953,54.56341598510742,-0.5431702780723572,0.4666912567615508,0.9180506229400636,28.71377304077149,22.204118118286136,-101.50812103271484,11.576446726620198,-29.81895179748535,24.21503707885742,-0.9983542966842652,0.2966874575614929,-0.1326173400878905,120.7075128173828,70.77038635253908,4.005182113647462,176.3800437030961,1.1643245365444792,40.119222647572194,1.0499152861418029,91.99373977661132,48.566268234252945,105.5133031463623
1575.858,41.885781402587895,-167.57094909667967,57.5698275756836,-0.4955501925945282,0.4777714538574218,0.9154242086410525,29.30947288513184,18.76352361679077,-102.179697265625,15.58261167705059,-34.42504951477051,25.88878429412842,-0.9953815865516664,0.2985809421539306,-0.1239987578988074,118.51823211669924,70.65892791748047,1.37333402633667,182.06791785474263,1.145354546534655,45.80535965364823,1.046570959765313,89.2087592315674,51.8954043006897,103.55303129196166
1595.999,42.91003860473633,-171.75380432128907,60.42360763549805,-0.4435880625247955,0.4877105236053466,0.910059516429901,29.959372940063474,15.238215799331666,-102.86808227539063,19.500753975808617,-38.90322685241699,27.069878845214845,-0.991264102458954,0.3036123049259185,-0.1126124671101569,116.17996978759766,70.53537628173828,-1.5076902770996092,187.06055990396328,1.1237616506601962,51.24957371383926,1.042816628307595,86.22059684753418,55.29716048240661,101.36039199829102
1619.773,43.09307113647461,-175.08248229980467,63.02770858764649,-0.3822924429178237,0.4979820394515991,0.9019747734069824,30.650465469360352,11.64202212333679,-103.5756271362305,22.67472724914551,-42.75426475524903,27.503069915771484,-0.9854040360450744,0.3147968113422393,-0.0999498142302035,113.73234313964844,70.396826171875,-4.580583248138427,191.0062314115536,1.0989504608448135,55.66407517759444,1.0392824986738765,83.08187767028808,58.75480404853822,98.99504388809207
1633.774,42.20017303466797,-177.56052917480469,65.37679000854493,-0.3179918757081031,0.5075575590133667,0.8871182775497436,31.365953903198243,7.991276483535768,-104.30354064941407,24.399796543121333,-45.76328796386719,27.60362998962403,-0.9769656658172609,0.3239065301418304,-0.0848961249366401,111.20439178466798,70.23593780517578,-7.783947410583496,193.8626338333769,1.070379534133005,58.75022540564094,1.0327558784550883,79.83843788146973,62.24466132164001,96.51959323883058
1742.523,40.74571029663086,-179.22437683105468,67.37406051635742,-0.2521067367494106,0.512967494726181,0.8718917059898377,32.09622024536133,4.302183065414428,-105.05448822021484,25.391060562133788,-47.89592117309571,28.01697097778321,-0.9694037532806395,0.3340798151493072,-0.0699324446171521,108.62804260253908,70.0348876953125,-11.069555950164794,195.75713061985417,1.0425394977332805,61.0219295356947,1.0277370804709334,76.53182235717776,65.73270462989808,93.98493227005004
1742.569,38.06213005065918,-180.11972412109375,68.86848327636719,-0.1844124442338943,0.5179485142230987,0.8579639530181884,32.82105880737305,0.5911475086212157,-105.83340087890626,25.50076690673828,-49.156145629882815,28.445622100830075,-0.9656526637077332,0.347067060470581,-0.0544917550496756,106.04523559570312,69.78327545166016,-14.374472217559816,196.5571386397337,1.019009694582358,62.25567590767349,1.0275747966731783,73.22417678833007,69.19212794303894,91.45892866134645
1742.6029999999998,34.06045486450195,-180.2398590087891,69.86671630859375,-0.1206988282501697,0.5200782525539398,0.8385853028297424,33.51948036193848,-3.1256833553314207,-106.64288513183594,24.46461948394776,-49.34187026977539,29.17902328491211,-0.9621509289741516,0.3560078954696655,-0.0419537961855529,103.50390014648436,69.47059783935546,-17.625043258666995,196.2851991588527,0.9941201668020696,62.32618364760627,1.0267600268694443,69.98441978454588,72.59628119468688,89.01784187316895
1742.634,29.2663920211792,-179.7860418701172,70.51503295898438,-0.0636364212632179,0.5179070997238158,0.8164334321022034,34.179095611572265,-6.835764360427857,-107.48425994873048,22.64330202102661,-48.80093124389649,29.91093658447265,-0.9573394870758056,0.3570395612716674,-0.0302449754066764,101.03809875488282,69.09926300048828,-20.76806266784668,195.325145402397,0.9689380305828168,61.55415618824845,1.022199051244415,66.85900314331056,75.93502736091614,86.7161972808838
1742.6699999999998,23.60933664321899,-178.86705993652342,70.73025421142577,-0.0088144592940807,0.5097966110706329,0.7968131518363953,34.785177612304686,-10.530240163803102,-108.36025512695312,20.51239906311035,-47.53094161987305,30.187695236206054,-0.9539252519607544,0.3590456581115722,-0.0231877448409794,98.6935125732422,68.67811737060546,-23.74721523284912,193.78749899795287,0.9459817536777332,59.92700451607879,1.0195218695290311,63.908334960937516,79.20835753440856,84.613039894104
1749.294,17.134116287231446,-177.53968811035156,70.55342498779297,0.0428374198079109,0.5026666939258575,0.7744785690307617,35.327492218017575,-14.199376420974732,-109.27315979003906,17.76888528823853,-45.66302764892578,29.53835357666016,-0.9543001914024352,0.3570909774303435,-0.0207243743352591,96.50094299316406,68.23090698242187,-26.51667766571045,191.8116382620549,0.924297518987305,57.213282640248245,1.0191331223959266,61.173450775146485,82.4302834033966,82.75648212432861
1768.154,9.92839277267456,-175.79871215820313,70.02332244873045,0.0911225436627864,0.4923291790485382,0.7480817222595214,35.793313140869145,-17.833344583511355,-110.22321441650392,14.96246208190918,-42.703079528808594,27.844495925903324,-0.9519872021675108,0.3492984807491301,-0.0214276248216628,94.51438385009764,67.78573303222656,-29.012134246826168,189.4914928599438,0.9001764280878253,53.129504290591385,1.0142722538105209,58.7210707092285,85.61907761573792,81.21108016967776
1872.14,2.6738978958129884,-173.73051818847654,69.08970046997071,0.14145261824131,0.478041306734085,0.7160082387924195,36.18599502563477,-21.421941833496096,-111.21349395751956,13.220841960906984,-39.43748893737793,24.95940971374512,-0.9487057995796204,0.342080430984497,-0.0223718211241065,92.75942260742188,67.37259948730468,-31.22354736328125,186.98350031760577,0.8724678401923911,48.508538723607,1.008742887855451,56.573427581787115,88.79454132080077,79.98994659423832
1872.204,-4.084721584320069,-171.23138305664062,67.85278106689454,0.1955847223103046,0.4617611253261565,0.6838515830039977,36.5159001159668,-24.95504898071289,-112.2428747558594,12.890506591796877,-35.5971322631836,21.221712455749515,-0.9466688585281372,0.3398520350456237,-0.0246833682432769,91.27352630615232,67.01254791259765,-33.13859588623046,184.23048442758687,0.8480151579074227,43.40140625728917,1.0061265338412717,54.75762619018552,91.96759689331054,79.10427886962894
1872.264,-10.422126579284669,-168.2367041015625,66.28170501708985,0.250141127705574,0.4491465961933135,0.648631181716919,36.79282165527344,-28.416957435607912,-113.31096130371093,13.465637683868408,-30.701941871643065,16.786219234466554,-0.9442389583587646,0.3367408335208892,-0.0261113034375011,90.09774627685547,66.72703125,-34.7307544708252,181.12281399471425,0.8276627686064794,37.49279649626767,1.0028277018561031,53.30492462158203,95.14398868560791,78.58020683288572
1872.309,-15.902982349395751,-164.63323181152344,64.62045669555664,0.3039876216650009,0.432139298915863,0.6077976381778717,37.03070907592773,-31.797509002685548,-114.4121319580078,14.696887245178225,-25.09072041511536,11.924277648925782,-0.9373391103744506,0.3346348059177398,-0.0264352992177008,89.25227050781248,66.52886169433594,-35.98732482910156,177.57479913505273,0.8053389452694041,31.42819026122312,0.9956324051646268,52.22156143188475,98.32637069702149,78.42480712890625
1872.359,-20.880756225585937,-160.28841369628907,62.88023254394532,0.3599868875741959,0.4140287148952484,0.5677263605594635,37.23477127075196,-35.083896484375,-115.53815612792968,16.15519376754761,-19.57000548362732,6.577151584625244,-0.9295827460289002,0.3351668286323547,-0.0259884916245936,88.71391174316406,66.4314340209961,-36.93935539245605,173.44251263921916,0.7895084270970523,26.215154458125,0.988502041690872,51.4791404724121,101.5153305053711,78.59880073547363
1893.826,-26.01432020187378,-154.97649658203127,61.1683462524414,0.4157141876220702,0.4011363136768341,0.5365202331542969,37.39175430297852,-38.26294960021973,-116.67457641601564,16.52995616912842,-13.742172880172728,1.025303077697754,-0.9223007941246032,0.3379737198352813,-0.0267829750478266,88.46206634521484,66.44040008544923,-37.586876983642576,168.6298488751755,0.7884050916403689,21.52064155230968,0.9826404825237884,51.07031204223632,104.70334968566895,79.08769943237306
1915.88,-31.822653579711915,-148.71662292480468,59.19357788085938,0.4667821860313415,0.387648570537567,0.498437928557396,37.47986999511719,-41.318900985717775,-117.81088287353516,15.04594738006592,-7.763052968978881,-4.3998924827575685,-0.9151738548278808,0.3398817729949951,-0.0286027548462151,88.45851989746095,66.55558074951172,-37.930927734375,163.1967979996858,0.7852371565715703,17.492986532399517,0.9766682762123164,50.978649902343754,107.8744817352295,79.87995513916016
1935.719,-36.66178581237793,-141.35950958251954,57.12572021484375,0.5168501889705658,0.3692011094093322,0.4528864657878875,37.50215362548828,-44.23956321716308,-118.92734619140626,12.17236068725586,-2.7885550594329835,-9.345451927185058,-0.9053432416915894,0.3438259923458099,-0.0328044815361498,88.63007995605469,66.76550048828126,-38.02118759155273,156.81181523860923,0.7800959735326383,15.597431703439772,0.9689885614898002,51.1279263305664,111.00506370544434,80.90615859985353
1958.196,-40.77273414611816,-132.90647003173828,54.50158889770508,0.5665275883674622,0.3522828698158263,0.4105655652284622,37.45952239990235,-47.00330383300781,-120.01166748046876,8.429012794494628,1.6425494670867915,-12.879800128936768,-0.8958916115760804,0.3520284616947173,-0.0375076610594986,88.93881622314453,67.0390399169922,-37.88180725097656,149.32169573917187,0.7833395254284656,15.480163978554646,0.9633029856559616,51.47929382324218,114.04234375000001,82.12986022949221
1968.251,-42.93847244262695,-123.23704559326173,51.25338882446289,0.6121643090248108,0.337654560804367,0.364036630988121,37.37558441162109,-49.58521957397461,-121.0499984741211,3.8411279678344727,5.397710638046265,-14.94487781524658,-0.887826316356659,0.3623986768722534,-0.0441303086280821,89.3436016845703,67.34450592041016,-37.53978546142578,140.20696019903392,0.7882121620331644,16.347443748488857,0.9599561725171644,51.96801727294921,116.92972549438477,83.51021301269532
1991.007,-43.05441993713379,-112.37275329589843,47.43924095153808,0.6538481056690216,0.3198291397094726,0.3128322505950927,37.26819900512696,-51.95833251953125,-122.02249298095704,-0.5199888229370118,8.13654990196228,-15.547664623260498,-0.8799766659736633,0.369551726579666,-0.0528893592208622,89.80830810546875,67.6533251953125,-37.04004898071289,129.3514605309194,0.792257559703068,17.555731483492444,0.955889478755222,52.540109100341795,119.61165771484374,84.98244400024416
2010.803,-41.43432029724121,-100.22220916748049,43.19259704589844,0.694156756401062,0.3039963972568511,0.2694184842705726,37.14365264892579,-54.093400421142576,-122.90335662841798,-3.819305591583252,9.255667600631714,-14.9185237121582,-0.8710579872131348,0.3763370430469512,-0.0610235753655432,90.27749908447264,67.94027099609374,-36.46564910888672,116.73429037122698,0.8042721751180015,17.967104042819734,0.9508393470021708,53.13384643554685,122.03367141723632,86.43770751953126
2033.849,-39.41237495422363,-86.95452072143556,38.47521278381348,0.7287187004089356,0.2913543707132339,0.2358245158195494,36.98204574584962,-55.962349243164056,-123.66840362548828,-5.794073371887207,9.10539397239685,-13.149236297607422,-0.8660133528709411,0.3806697857379912,-0.0668908356130122,90.71138763427734,68.18511474609375,-35.88752746582031,102.93087958521778,0.8194702654281713,17.011228669372763,0.9483475085714014,53.729341888427726,124.1474639892578,87.78087615966797
2053.822,-37.11738166809082,-72.57472492218018,33.547991561889646,0.7586824512481689,0.2775993341207504,0.2053862878680228,36.75251190185547,-57.54071975708008,-124.28333618164064,-6.57572767391801,6.895132503509521,-11.48380123138428,-0.8633750867843627,0.3825937664508819,-0.0715728530287741,91.02943756103517,68.39227630615235,-35.41818756103516,88.14906952011158,0.8335730198251504,14.921820847484655,0.9470571281066714,54.276925659179696,125.93299606323244,88.86514862060548
2075.709,-34.90840278625488,-57.39529602050781,28.51722959518433,0.786116919517517,0.2596504586935043,0.1823611521720885,36.421447296142574,-58.81207427978516,-124.71841522216796,-6.00320478707552,2.89991283416748,-9.559029865264892,-0.8624110579490661,0.3820343577861785,-0.0730686289072035,91.16117218017578,68.55928802490234,-35.1618620300293,72.97978469517147,0.8477344877218275,11.654313112593202,0.9460666508932148,54.73972488403321,127.3713623046875,89.55655319213867
2098.1580000000004,-31.88620864868164,-41.71427745819092,23.28262067317963,0.8075486755371093,0.2435369318723678,0.1644586792588233,35.98671035766601,-59.76460327148438,-124.9577423095703,-4.416397575587034,-2.5427196502685554,-7.775108051300049,-0.8631736493110657,0.3829647278785705,-0.069170427173376,91.04250610351563,68.68912750244141,-35.20799133300782,57.43597889178321,0.8593554315480307,9.296359286027176,0.9468449079228538,55.05579574584962,128.4537307739258,89.7497509765625
2108.12,-28.052263193130493,-25.70886116027832,17.962197446823122,0.8224411845207215,0.2293513506650924,0.1539732033014296,35.453116455078124,-60.39211395263671,-124.9920443725586,-2.0627951294183733,-8.796791648864746,-6.33602732181549,-0.8665221166610717,0.3829915571212768,-0.0635818424820899,90.64391418457032,68.78883239746094,-35.60446823120117,42.07749457291617,0.8675939668892662,11.035574714634532,0.949518700280506,55.190797729492196,129.18094635009766,89.38757614135743
2133.817,-23.70350642204285,-9.550149421691897,12.471167073249818,0.8327037239074707,0.2147323781251907,0.1507560548186301,34.83336952209473,-60.68938690185547,-124.82624542236329,0.6322268800437447,-15.350148735046384,-5.182557392120362,-0.8701482582092286,0.3828811645507812,-0.0561412091925739,89.95446075439453,68.86220092773438,-36.37013320922851,28.43574473871537,0.8730594905784753,16.213749663125967,0.9523170757693684,55.121091232299804,129.55158782958983,88.45611221313477
2158.011,-18.905084981918336,6.439917984008791,6.812607860565185,0.8366422653198242,0.2029625672101974,0.1552439522743224,34.155865325927735,-60.6599057006836,-124.48240356445312,3.668355650305748,-21.378276100158693,-3.835549273490906,-0.8743454909324646,0.3819042766094207,-0.0464083101600407,89.00563140869141,68.90280487060548,-37.47802154541016,21.101810530761306,0.8747941292245811,22.027232246043148,0.9552406216542552,54.84976608276368,129.56271057128907,87.00438201904296
2177.956,-13.732716875076292,22.126159858703616,1.0249586439132687,0.8325726175308228,0.1984151530265807,0.1657154646515845,33.45305854797363,-60.30586471557617,-123.9883984375,6.832518668919802,-26.592951393127443,-2.400000658035278,-0.8778784656524659,0.3806447720527648,-0.034926065057516,87.84559906005859,68.90539245605468,-38.87922454833984,26.06156179290959,0.8717840051511486,27.56135661241925,0.957486748194371,54.392540512084956,129.21125717163085,85.10917388916016
2266.154,-9.389037284851074,37.56556854248047,-4.738773288726807,0.8242794585227966,0.1951265496015548,0.1849930012226104,32.732708129882816,-59.63045608520508,-123.37009826660156,9.647141396701336,-30.498099861145025,-0.7476099443435669,-0.8808077740669249,0.3773522686958312,-0.0238041146844624,86.54278686523438,68.86428466796875,-40.4933918762207,39.010023498301976,0.8670256089663047,31.99625529491231,0.9585320575872948,53.81007873535156,128.49474075317383,82.87670639038086
2266.205,-5.88942904472351,52.35220653533936,-10.552915034294127,0.810191855430603,0.1909562522172926,0.2104364186525344,32.01068321228028,-58.64469467163086,-122.66348205566403,11.840814589112998,-32.7731209564209,1.2868178272247313,-0.8821777105331421,0.3744517505168914,-0.0116357740759848,85.17613037109376,68.77065399169922,-42.222825164794926,53.72897653327014,0.8585794192515112,34.87030609958004,0.958429453671478,53.165447158813485,127.41534866333008,80.4406568908691
2266.252,-3.121203815937042,66.30832740783691,-16.327493333816527,0.7910203576087952,0.1918871438503264,0.2388704401254653,31.30649223327637,-57.36425598144532,-121.90543884277344,13.343906955718996,-33.426380386352534,3.587008481025696,-0.8837092065811157,0.3717651391029357,0.0018475121259689,83.8220669555664,68.6207144165039,-43.970841827392576,68.36024601660924,0.8482882583723034,36.169730278493496,0.9587255570545232,52.515574722290026,125.98497039794921,77.93459701538086
2266.291,-0.953578691482544,79.47108474731445,-21.92259447574616,0.7679984140396118,0.1968706583976744,0.2648784869909286,30.63407524108887,-55.79828811645508,-121.12360961914064,13.907628593444825,-32.42202026367188,5.777482948303222,-0.8856240892410276,0.3669869029521941,0.0169629767537116,82.54856781005859,68.4217465209961,-45.64417221069336,82.44490749454268,0.8359068327127709,35.748969779408874,0.9587998524002752,51.91449256896972,124.22003463745118,75.47943740844727
2270.677,0.5454390454292296,91.87414291381836,-26.97510400772095,0.7430185675621034,0.1994134831428526,0.2953905165195464,29.99437522888184,-53.96673095703126,-120.3316149902344,13.63815803527832,-29.883394966125486,7.50882707118988,-0.8894556999206543,0.3605662703514098,0.0315402928739785,81.41619110107422,68.18975158691407,-47.15986114501953,95.75391311131033,0.8240739567847593,33.695684193702235,0.9602782240116888,51.42181587219238,122.15648254394533,73.17175384521487
2293.294,1.803495688438416,103.21332565307618,-31.54357231140137,0.7152221727371215,0.2022883284091948,0.3341306990385055,29.39872360229493,-51.893447418212894,-119.54599853515626,13.401260070800785,-26.525312499999995,8.628411407470702,-0.8948220658302306,0.3571803510189056,0.0468872053921221,80.4602816772461,67.94014923095703,-48.48023651123047,107.94091042431864,0.8149273883146617,30.94568561406365,0.9646153340478024,51.06155807495117,119.83359664916992,71.06576202392579
2397.11,2.341818664073944,113.43080139160156,-35.76121658325196,0.6856732678413391,0.2116756486892699,0.3696459662914276,28.8509162902832,-49.59799728393555,-118.78541992187502,13.49436233520508,-22.588295993804927,8.784539585113524,-0.9005237221717834,0.3553715634346007,0.0610457634180783,79.70524993896484,67.69645263671876,-49.58585632324219,118.95753624932982,0.8072128287358713,27.73981013741752,0.9700301580483834,50.85433364868164,117.2944499206543,69.19956359863284
2397.169,2.8577697229385377,122.6103414916992,-39.29457389831544,0.6523944652080537,0.2236995232105254,0.402440600991249,28.35495254516601,-47.100928497314456,-118.05199005126954,14.151959533691404,-18.405431585311888,8.070672750473022,-0.908433620929718,0.3539935278892516,0.0727108481153845,79.16382995605468,67.47992370605468,-50.47492233276368,128.78480588311112,0.7985101453612949,24.57994363561608,0.977675779006832,50.80887741088867,114.58085220336913,67.57706771850586
2397.2090000000003,3.000169785022736,130.75933166503904,-42.09366302490235,0.6154184687137605,0.2350360763072966,0.451455043554306,27.900536880493167,-44.42751922607422,-117.34147277832032,15.11442981719971,-13.463017768859862,6.040597400665283,-0.91399831533432,0.3576626563072204,0.0802112923562526,78.86439727783203,67.31876159667969,-51.12337142944336,137.40043778343895,0.7986197500378635,21.123154430638813,0.9847585224673978,50.96386039733886,111.7462808227539,66.21810134887696
2397.2470000000003,2.3503216361999515,137.48718475341798,-44.837645568847655,0.5729197549819947,0.2490355557203292,0.5070525372028352,27.48534164428711,-41.59844757080078,-116.67178527832031,15.633416137695312,-7.883863534927367,2.877179765701294,-0.9179044651985168,0.3657015252113342,0.0861468525230883,78.81359802246092,67.23606506347656,-51.513994445800776,144.63286086976117,0.8045856257387367,17.743651478088456,0.9918202926805368,51.32825637817381,108.83451263427733,65.15779083251954
2397.288,1.1587572169303892,142.75660156249998,-47.30421569824219,0.5251999890804291,0.267454628944397,0.5507618689537048,27.10620475769043,-38.63822685241699,-116.0533218383789,15.040267219543455,-1.816100749969482,-0.8746520614624025,-0.9221785402297972,0.3720744001865386,0.0870531730353831,79.009443359375,67.24656311035156,-51.62526641845703,150.39441090275923,0.8066632775621101,15.174744683121808,0.998213841954749,51.90323860168456,105.88478996276855,64.42805541992188
2416.633,0.4981205320358277,147.0131576538086,-49.054623413085935,0.4722708612680435,0.2857135391235351,0.6020748293399811,26.76358245849609,-35.5723282623291,-115.4745736694336,13.339525780677794,4.71511414527893,-4.974869089126587,-0.927785587310791,0.3740158283710479,0.0866794160008429,79.44937866210937,67.36023620605468,-51.43575942993164,154.98216905698442,0.8168023585703722,14.997485519590414,1.0040852837543022,52.68579620361328,102.93256446838379,64.03881423950196
2437.888,-1.0127754306793213,150.16966918945317,-50.57942245483398,0.4150845557451247,0.3012417864799499,0.667635396718979,26.43637664794922,-32.424594192504884,-114.93616668701172,9.772430543899535,12.057202205657958,-9.637207126617431,-0.9255231046676634,0.3777591443061828,0.083199484348297,80.13984619140625,67.58569061279296,-50.89917663574219,158.46208768789884,0.8418900315907462,18.268888443602407,1.003103754641778,53.70346954345703,100.01028480529784,64.03699005126953
2447.857,-2.767172498703004,151.7487548828125,-52.08735778808593,0.3548910439014434,0.3130707263946533,0.7214720559120178,26.12641136169433,-29.2276847076416,-114.45224456787112,5.013257975578308,18.34923457145691,-13.283433485031129,-0.9262943315505984,0.3765042769908905,0.0755483154952525,81.03092224121094,67.89898132324218,-50.045244140625,160.46318796990658,0.862834202050803,23.200792444209643,1.0027383543224888,54.904510879516614,97.12666603088378,64.40700042724612
2474.3050000000003,-3.7725524520874014,152.20188049316403,-53.071262054443366,0.2950812047719954,0.3276992821693419,0.7629346752166748,25.841315536499025,-26.008298950195314,-114.01724548339844,0.7988768005371096,23.22315540313721,-16.0634631729126,-0.9301471209526062,0.3687216782569885,0.064932888150215,82.08760223388671,68.27903869628906,-48.92487609863281,161.2333818838721,0.8812088603685095,28.24868138742438,1.002669248853579,56.24628669738769,94.28733764648437,65.09236938476563
2492.877,-4.8825046253204345,151.85056335449218,-53.85302474975585,0.2340261096972971,0.3417283248901366,0.8135128903388977,25.572062606811524,-22.788034400939942,-113.62824279785156,-2.579178595542907,27.532095079422,-18.491341533660894,-0.930770981311798,0.3599248707294464,0.0548795534297823,83.31734954833985,68.71256225585937,-47.54917404174805,161.19113101281576,0.9128798884846886,33.265569789266074,0.999445995342614,57.74528694152832,91.5005966567993,66.07906875610351
2515.4550000000004,-6.981626110076904,150.33252990722656,-54.77926651000977,0.1745606213249265,0.3502176451683044,0.8590602803230286,25.29967514038086,-19.58763006210328,-113.29620635986328,-5.777407569885254,30.87821571350097,-20.29885131835937,-0.9299027347564698,0.3555631434917449,0.04071571752429,84.70588806152344,69.17737182617188,-45.939731750488285,160.1542403148376,0.9439853678597234,37.40168457065705,0.9963945075976736,59.40621292114258,88.76500188827515,67.356474609375
2535.181,-8.582466373443603,147.683173828125,-55.699130096435546,0.1225414371769874,0.354496567249298,0.8861036705970765,25.031083984375,-16.426050148010255,-113.02887603759766,-7.789594788551331,32.48266151428223,-21.471502456665043,-0.9370918703079224,0.3450423610210418,0.0268646373227238,86.20919677734375,69.6575555419922,-44.17027740478516,158.07078052093982,0.9622182367127272,39.7092747826982,0.998958013649551,61.17811279296875,86.08360569000246,68.85859863281249
2557.732,-9.079572772979736,144.67351501464844,-56.32964294433594,0.0761572761461138,0.3632869887351989,0.9092890858650208,24.778860015869142,-13.30846640586853,-112.81937286376952,-8.666885118484497,33.394877700805665,-22.85504623413086,-0.9454623460769652,0.3323699724674224,0.0180685789883136,87.81439178466796,70.15482177734376,-42.27856842041016,155.51814448053938,0.9821323783317244,41.3846093695837,1.0023449106939244,63.03553176879882,83.46328818321228,70.54080444335935
2567.748,-10.00111930847168,141.3231509399414,-56.83576156616211,0.0326940723229199,0.3697765290737152,0.9372087526321412,24.528640213012697,-10.244540457725524,-112.6649969482422,-9.099922046661378,34.20463668823242,-24.11428611755371,-0.949487648010254,0.324462924003601,0.009091709665954,89.53542083740236,70.66105224609375,-40.25989822387696,152.65175784058752,1.0080495175481978,42.828314783429576,1.0034369147891962,65.00678062438966,80.90559270381927,72.40509872436525
2590.29,-11.391375551223756,137.63264953613282,-57.11293869018554,-0.0034463435038923,0.3738763618469238,0.954466063976288,24.26651016235352,-7.238889579772949,-112.56288299560546,-9.732987966537475,34.09780448913575,-24.81963890075684,-0.954932496547699,0.3182078421115874,0.0011805383954197,91.324091796875,71.16172760009765,-38.16377563476563,149.44697193691772,1.025085790806714,43.28285804911745,1.0065553623199457,67.05758163452148,78.4006171798706,74.39910736083984
2617.9260000000004,-11.488544044494628,133.9592303466797,-56.93120254516602,-0.0321351654548197,0.3754671466350555,0.9572988128662112,24.01195274353028,-4.294442944526672,-112.50280822753908,-10.061856398582458,33.355396118164066,-24.7968709564209,-0.9630988812446594,0.3087108278274535,-0.0038106603361666,93.1446841430664,71.6431021118164,-36.03602241516114,146.00761576909542,1.0287999145490516,42.76339805972766,1.0113734974799486,69.13273139953611,75.93754505634308,76.46678581237794
2629.854,-9.48953803062439,130.66832916259764,-56.147015228271485,-0.0621357109211384,0.3823856604099273,0.964081690311432,23.80410514831544,-1.4129398822784425,-112.46799072265624,-9.709316797256468,32.27304954528809,-24.337107467651368,-0.9714292907714842,0.3015661478042601,-0.0061436574626713,94.98312622070311,72.09663360595702,-33.905525360107426,142.53684049123365,1.0390058447634254,41.57060691779852,1.0171798036715576,71.17902107238767,73.50957348823546,78.5624653625488
2651.218,-8.76770658493042,127.62005493164062,-55.16765167236328,-0.0947646906878798,0.3940921998023986,0.9712925386428832,23.617699813842776,1.4038939714431762,-112.45009094238284,-8.724586110115052,31.191372528076176,-23.589955215454104,-0.9751018643379212,0.2996705186367034,-0.0123659639060496,96.85621337890623,72.51342193603514,-31.77020805358888,139.30980184666694,1.0524724244224168,40.06876726385737,1.0201857588883536,73.23851356506346,71.10952796459196,80.67988288879397
2678.261,-8.366128864288328,124.77357910156248,-53.91234100341797,-0.1272975698858499,0.3991569066047667,0.9660596799850464,23.44388870239258,4.157095499038697,-112.44164276123048,-8.343507623672485,29.856303176879884,-22.365602226257323,-0.9810699343681336,0.2987080395221709,-0.0171934774052351,98.72266082763672,72.88480285644532,-29.660049819946288,136.17994957576013,1.052996777146986,38.226079079591926,1.02568042033645,75.27877212524413,68.72770735740662,82.7815929412842
2687.773,-5.37633201599121,122.25340393066406,-52.35207809448242,-0.1606201360002159,0.4010063195228576,0.9549249720573424,23.333732223510744,6.846970801353455,-112.4319012451172,-7.622308745384215,28.44405525207519,-20.93987331390381,-0.9889964318275452,0.2967403042316436,-0.0233922357484697,100.57238403320312,73.21017639160156,-27.590018997192384,133.0997362859561,1.0480871140533654,36.13367078218608,1.0328194164598266,77.23865180969239,66.36320559024811,84.84188224792481
2790.358,-1.705832653045654,120.04761779785156,-50.70124374389648,-0.2023251265287398,0.4123153269290924,0.9562451314926148,23.30232620239257,9.477491226196287,-112.41232482910156,-5.90984940648079,26.9817919921875,-19.97701602935791,-0.99177907705307,0.2941976761817931,-0.0308110544551163,102.4169662475586,73.50019348144531,-25.568382492065428,130.32634622806415,1.0608223871830964,34.08848175783395,1.0349528160392834,79.11464004516603,64.02270225524902,86.84394233703614
2790.418,-0.820562560558319,117.83730407714845,-49.24723495483399,-0.2473619550466537,0.4218383228778838,0.9503477311134338,23.29461799621582,12.05213011264801,-112.38359558105468,-4.65708485364914,25.868479232788086,-18.6663314819336,-0.9883146905899046,0.2935145795345306,-0.0422761520557104,104.25835571289062,73.74655822753905,-23.58321403503417,127.71684973323902,1.0687826334130714,32.23815422980512,1.0318449539866874,80.9637377166748,61.694428114891046,88.8003815460205
2790.473,1.4667485475540158,115.51852111816406,-47.71444854736329,-0.2889935046434401,0.4163012528419494,0.9325758075714112,23.337287521362303,14.571494140624996,-112.34372619628908,-4.347725290060044,24.38696723937988,-16.65991575241089,-0.9893125653266908,0.2923325943946838,-0.0517821478750556,106.02275787353516,73.94160705566406,-21.68973133087158,124.99339451670414,1.0613772259245742,29.852632701486208,1.0328983921457902,82.68547035217286,59.37011291503907,90.6539948654175
2790.514,5.845068337917327,113.45999969482423,-46.22129638671876,-0.3303205168247222,0.4195691680908203,0.9194297909736632,23.478427505493165,17.04068082809448,-112.28613525390624,-3.502987108230592,22.18578327178956,-14.805340805053712,-0.9900010013580324,0.2884022951126098,-0.0614124420285224,107.66393310546876,74.09789184570313,-19.94976940155029,122.65294368376708,1.063250239208837,26.901264178789727,1.0329808103503346,84.18550559997558,57.05721101760865,92.33636585235595
2790.562,8.266481199264527,111.39670928955076,-44.94250518798829,-0.3760737568140029,0.42419939994812,0.9166328287124632,23.677591857910155,19.462124290466303,-112.21183532714844,-2.464635667800904,19.5440855884552,-13.110073108673095,-0.9862409901618956,0.28141974568367,-0.0718618993461131,109.15371307373049,74.22570617675783,-18.397200241088864,120.4051092127358,1.077771935130042,23.6626230029262,1.0281208569588542,85.47612121582033,54.76358188629152,93.81463508605957
2810.7090000000003,8.916051523685457,109.12764831542968,-43.82945175170899,-0.4162446320056915,0.4204807305335998,0.9015045118331908,23.89892868041992,21.832913551330567,-112.1243246459961,-1.858391444683076,16.22663873076439,-11.20336696624756,-0.9859759402275085,0.2723256403207779,-0.080599105209112,110.42659576416015,74.33164123535155,-17.087881698608395,117.9379516630864,1.0783200004076818,19.805879294816,1.0260633629772338,86.52766708374023,52.49872768402099,95.0364429473877
2832.585,10.969647588729858,106.87353515625,-42.61642959594727,-0.4516189646720885,0.4125928533077239,0.8799198436737059,24.17163536071777,24.152441902160646,-112.01996643066408,-0.56718987941742,11.864437844753263,-9.558066940307617,-0.9894008183479308,0.2636712956428527,-0.0860774289071559,111.41761047363282,74.43271697998047,-16.10485626220703,115.57874266715945,1.0716582865554007,15.246089117105685,1.0275436026080853,87.24597511291505,50.28027507781982,95.91511016845706
2922.74,12.683841531276704,104.91496887207032,-41.43605133056641,-0.4866518831253051,0.4121623802185057,0.8689805054664612,24.491220855712893,26.42293525695801,-111.89447021484376,1.7895687651634211,7.157873421907425,-8.620934000015257,-0.9880436301231384,0.2549385505914688,-0.0915899351239203,112.137197265625,74.54780090332031,-15.458365020751952,113.51201204844956,1.0778845030417388,11.347167546216822,1.0245060252729563,87.64597640991211,48.124865646362295,96.43610519409181
2922.783,12.337121663093567,102.70572784423828,-40.465666503906256,-0.5230022883415222,0.4061336088180541,0.8583022594451905,24.811636047363283,28.64210922241211,-111.7543325805664,4.367511844635009,2.830880951881409,-7.687797727584838,-0.9846788835525512,0.245458618402481,-0.0964808592200278,112.6117904663086,74.67692687988281,-15.12212989807129,111.0771860849476,1.0840473561568995,9.28392592479123,1.0193875579278904,87.80015441894533,46.034817657470704,96.6322026824951
2922.815,11.799405930042267,100.42599700927734,-39.56287734985352,-0.552991601228714,0.3995349323749542,0.8345469069480898,25.13124298095704,30.809144973754883,-111.60095092773436,7.3572991275787345,-1.195153475999832,-6.728223409652711,-0.98486554145813,0.238075845837593,-0.0983634293079375,112.85928863525392,74.8190786743164,-15.084498977661132,108.58097494408884,1.0779129895840294,10.041276439480392,1.017995877864011,87.72804565429688,44.00993370056152,96.51645195007323
2922.853,11.850668468475344,98.40169952392576,-38.7093424987793,-0.5816618359088898,0.3931916451454162,0.8104100990295411,25.46356704711914,32.92954864501953,-111.43127532958984,10.529748047590257,-4.70274573802948,-5.878914823532105,-0.9839803862571715,0.235375314950943,-0.0983742690086363,112.91002655029295,74.97154876708984,-15.317475433349609,106.40369358736795,1.07223816840016,12.944228479311958,1.016511896747919,87.44645950317381,42.04200012207031,96.11379989624022
2932.779,11.276064758300782,96.60333709716797,-37.96932968139649,-0.6105419290065766,0.3887146604061126,0.7971818590164185,25.796273269653323,35.00647735595703,-111.24453643798827,13.419944293498991,-7.222878359556198,-5.253098669052124,-0.9800496459007264,0.2316507267951965,-0.0999704271554945,112.83247192382812,75.13097564697266,-15.74163459777832,104.40797082214095,1.0767355527865623,16.120171285205334,1.012004670918338,87.0361986541748,40.12449829101563,95.50290184020996
2954.914,9.64059367656708,94.53864410400392,-37.31890014648438,-0.6411539220809936,0.3833594858646392,0.7800263476371765,26.10727256774902,37.03779090881348,-111.04393157958984,15.756887603998184,-8.875907518863679,-4.693147192001343,-0.9756634092330932,0.224986890554428,-0.1015463301539419,112.6778335571289,75.29327362060546,-16.292431983947754,102.09405753325434,1.080038865138859,18.68386661840216,1.0064044148380042,86.57056098937989,38.255482711791984,94.75149959564209
2974.812,8.058119702339173,92.21353912353516,-36.48393730163575,-0.6686935830116272,0.3771657526493072,0.7581709790229798,26.39849342346192,39.01755142211914,-110.8276156616211,17.61489749908447,-9.661982427835463,-4.4123077297210695,-0.9706473469734191,0.2188762712478637,-0.104547762274742,112.5070852661133,75.45624725341796,-16.89718250274658,99.49546608692611,1.0789941363905136,20.56956435709833,1.0004965411727127,86.10859184265138,36.438695831298816,93.93043315887451
2997.315,6.374464259147645,89.48383270263672,-35.3360433959961,-0.6996376466751099,0.3720773494243621,0.7393470931053162,26.66946876525879,40.93704849243164,-110.59110260009766,18.58244686126709,-9.66366849899292,-4.371486787796021,-0.9636560940742492,0.2148540747165679,-0.1100198769569396,112.36723297119144,75.61645782470703,-17.489506912231445,96.41901302455004,1.0837751218232616,21.39634821520061,0.9934282633357936,85.69776420593266,34.679409332275384,93.10159568786621
3007.452,4.0434527444839485,85.96801849365235,-33.91079154968262,-0.7316933703422547,0.3677733933925628,0.7260073065757752,26.90362655639648,42.7792057800293,-110.3399151611328,18.60855541229248,-8.806854181289674,-4.528749742507935,-0.9564721632003784,0.2133706146478652,-0.1189606699347495,112.3114614868164,75.76894622802733,-17.99603645324707,92.50292696638228,1.094403520778191,21.079577541618924,0.9871766099152388,85.40783493041992,32.98974044799803,92.34387870788572
3030.083,1.2346770238876346,81.47773223876952,-32.25948463439941,-0.762209575176239,0.3641398394107819,0.7090533542633057,27.08698478698731,44.52529846191406,-110.0815921020508,17.265123796463012,-7.271046075820924,-4.762583112716674,-0.9534942603111268,0.2129489642381667,-0.1266005691885947,112.3614776611328,75.91055877685547,-18.36660560607909,87.64028541146469,1.1028680421194994,19.329635502239515,0.9851529170312836,85.2744928741455,31.385260314941405,91.71498649597171
3047.78,-1.5094480371475216,76.16536956787108,-30.340795440673823,-0.7880830144882202,0.3600404524803161,0.6924671864509582,27.215150985717777,46.15750457763672,-109.82507354736327,14.70408191680908,-5.254053525924683,-5.120538959503174,-0.954962627887726,0.2149049705266951,-0.1326608714461326,112.5280178833008,76.03984222412109,-18.565080032348632,82.00003550462674,1.1091504719641865,16.432742397582434,0.9877938417666706,85.31286689758304,29.882337646484366,91.25999351501464
3069.896,-4.2808598089218135,70.27458709716798,-28.21288475036621,-0.8093849968910216,0.3566530334949492,0.6817071318626404,27.28176582336426,47.661455078125,-109.58013122558592,11.461604738235474,-3.3349819278717043,-5.5137420082092286,-0.9594477319717408,0.2188672631978987,-0.1361761200428008,112.78591186523438,76.15814758300782,-18.60347869873047,75.84728220785856,1.1167050072090732,13.148834114394472,0.9934720755790608,85.50414604187011,28.496692504882816,90.97665252685545
3087.878,-6.871238179206847,63.85305374145507,-26.124584732055663,-0.8236953210830688,0.3528416240215301,0.6757002687454223,27.279647521972656,49.02539825439453,-109.36356079101564,7.691518383026123,-1.4916975688934329,-5.907531814575195,-0.9648576664924622,0.223563008904457,-0.1360792708396911,113.1120571899414,76.26654266357421,-18.49406311035156,69.33195737642848,1.1222932089248898,9.812418092075442,0.9997241136893495,85.83240966796873,27.241144409179682,90.86949768066408
3109.934,-9.095207362174987,57.11013442993165,-24.037398681640624,-0.831635615825653,0.3504171168804168,0.6686391472816468,27.210849304199225,50.24293334960937,-109.18423645019531,3.793847417831421,0.1889779376983642,-6.253640880584717,-0.9714417457580566,0.2243132513761519,-0.1321211060881613,113.48699066162108,76.36828521728516,-18.25384735107422,62.62656614365795,1.1231599452393344,7.316899285492678,1.0057193877112844,86.27614135742185,26.12535186767579,90.9303890991211
3133.129,-10.873883271217345,50.2219506072998,-21.89049591064453,-0.8344668316841126,0.3475208902359008,0.6649145817756652,27.07949440002442,51.309644165039074,-109.0493130493164,0.5682062244415278,1.5080472660064697,-6.421816577911377,-0.9749981355667112,0.2236876928806304,-0.1272578316926955,113.89171081542968,76.46315704345703,-17.91594932556152,55.85409091026428,1.1221484141543765,6.620935963316748,1.0083908488438147,86.81221641540526,25.153512878417956,91.13336372375488
3147.653,-12.128508625030516,43.25944522857666,-19.69065929412842,-0.8344162034988404,0.3457348608970642,0.6641685056686402,26.89381301879883,52.22302154541016,-108.96102233886718,-1.739920835494996,2.319118661880493,-6.187516822814941,-0.9756339979171754,0.224130606651306,-0.1233330681920051,114.29433319091795,76.54649108886717,-17.531698150634764,49.05305685060932,1.1211167640451396,6.833081319162672,1.0086165140624,87.40052017211912,24.32346954345701,91.42932418823241
3169.886,-12.749148712158204,36.06796173095704,-17.400076313018797,-0.8343933916091919,0.3469879460334777,0.6630297660827636,26.66709167480469,52.97926162719726,-108.9172360229492,-3.514471654891969,2.9503267765045167,-5.634298644065857,-0.9745778274536134,0.2258708178997039,-0.1195000997185706,114.67942565917969,76.61305786132813,-17.127241325378417,42.02619792473957,1.1208128467167862,7.266447571662578,1.007521633502544,88.01233398437499,23.63379623413087,91.78999469757078
3192.407,-12.967540130615234,28.603051738739016,-14.81794340610504,-0.8343885254859924,0.3498749268054962,0.6641394758224488,26.410743942260744,53.57131332397461,-108.91060485839844,-4.873612203598023,3.434690809249878,-4.857702722549439,-0.9733132147789002,0.2249729633331298,-0.1171862772107123,115.04185638427734,76.66103729248047,-16.716793251037597,34.72553977398522,1.1223626504902755,7.690674392201856,1.0058250702088476,88.63111244201659,23.089723968505865,92.19381160736084
3215.78,-12.813443832397462,20.75168460845948,-11.850133600234988,-0.8355426859855651,0.3529093277454376,0.6693009662628173,26.135997619628903,53.98936508178711,-108.93118804931642,-5.84544493675232,3.700246620178224,-3.828709213733673,-0.9712651467323304,0.2247859269380569,-0.1170417237281798,115.36710876464844,76.68685760498047,-16.323416328430177,27.115354013517813,1.1272268436983084,7.90696312133001,1.0037845701641563,89.23111114501953,22.69749252319336,92.60777172088623
3314.94,-12.131707572937012,12.350846500396733,-8.440943484306338,-0.838979709148407,0.3564480519294738,0.67807523727417,25.858056488037107,54.22084136962891,-108.96803741455078,-6.711118106842041,3.902486228942871,-2.667681708335876,-0.9710134220123292,0.2267491018772124,-0.1179158601164816,115.64663787841796,76.68786407470702,-15.958084678649902,19.26061434162662,1.136102193242969,8.208838572420685,1.004084842529368,89.78858139038086,22.467022705078115,93.00995273590088
3315.01,-11.153887138366697,3.2882105255126968,-4.620007305145265,-0.8439476823806762,0.362071932554245,0.6887657952308655,25.587986068725588,54.25160552978516,-109.01378662109376,-7.83004454612732,4.203618144989013,-1.449222676753998,-0.9727787494659424,0.2293803519010543,-0.1190241017937659,115.87912139892578,76.66253662109375,-15.617109298706056,12.512633386106623,1.1479294819888923,9.004457200189087,1.0065190400874626,90.29113533020019,22.41093109130859,93.3966773223877
3315.064,-10.126134071350098,-6.427348880767822,-0.4204970216751114,-0.8490701794624329,0.3654300510883331,0.7026155400276185,25.32818496704101,54.06796493530273,-109.06592712402345,-9.06771535873413,4.405746021270752,-0.2302329540252685,-0.9752232098579408,0.2287512004375457,-0.1217578914761542,116.06114166259763,76.6134585571289,-15.302032012939454,12.001092559067374,1.1610890960555489,10.084000547604363,1.0090651142934048,90.73295669555662,22.54549362182616,93.763895111084
3315.119,-8.785416073799132,-16.752326507568363,4.115965061187742,-0.8541947770118714,0.366774673461914,0.7166086339950561,25.087599716186524,53.65843658447265,-109.12352264404296,-10.26569577217102,4.574174575805664,1.0633165335655212,-0.9772901797294616,0.229396703839302,-0.1254006701707839,116.18837615966795,76.53900512695313,-15.017730903625488,19.358851913036165,1.1737547923155478,11.28885400681888,1.0116542251220333,91.10077644348144,22.880568542480475,94.10579174041747
3315.17,-6.948708562850951,-27.6335263633728,8.86222324848175,-0.8592089128494262,0.3674101531505584,0.7332664799690247,24.87622886657715,53.01271224975586,-109.19061035156248,-11.686827583312988,4.872510356903076,2.40626558303833,-0.9788927245140076,0.2331827104091643,-0.1289262747764586,116.2602993774414,76.43594787597655,-14.7594909286499,29.84016305036868,1.1878172869613297,12.888499144443772,1.0145083177914098,91.38407051086425,23.423235626220695,94.43111942291259
3337.808,-5.0509306955337525,-38.99154468536376,13.674411993026732,-0.8619371056556702,0.3697134602069855,0.7488732647895813,24.695505905151368,52.1234164428711,-109.27402709960936,-13.68706199645996,5.321414623260498,3.746047956943512,-0.9801094913482666,0.2358005225658416,-0.1314933067560195,116.27557037353516,76.30414520263672,-14.516637649536133,41.62741886301429,1.2001811461112455,15.155394913472556,1.0166154588608785,91.5800644683838,24.18072875976562,94.75738945007322
3347.274,-2.9762056541442865,-50.64773435592652,18.577039771080017,-0.8609821224212647,0.3680347907543182,0.7669612526893616,24.54669486999512,50.98550933837891,-109.37641998291016,-15.720311183929445,5.979591808319092,5.0331491136550905,-0.9795908451080322,0.2349421381950378,-0.1323634326457976,116.25078033447268,76.14487518310547,-14.271441879272462,54.0292254445735,1.2103591968756362,17.55608988112048,1.0160295814694096,91.70408546447756,25.15936584472656,95.1049781036377
3466.211,-0.6029862356185909,-62.41870384216308,23.45395647048949,-0.8558971333503724,0.3669841253757476,0.7875360584259032,24.43601448059082,49.597558746337896,-109.49789337158204,-17.64123668670654,7.000718383789062,6.409179012775423,-0.9793087792396544,0.2356076729297637,-0.1306140139698981,116.20433532714844,75.95356567382814,-14.006850128173827,66.68242838901135,1.2196107143167427,20.032495235075533,1.0156853259177123,91.76832084655763,26.35600692749024,95.49104324340821
3466.266,1.681331024169922,-74.1685057067871,28.1796142578125,-0.8469771575927734,0.3685153317451476,0.8087913036346436,24.36179595947266,47.9619384765625,-109.63832336425784,-19.07190687179565,8.017721881866455,7.869473438262941,-0.9795784521102906,0.2370169204473494,-0.1272279131412505,116.13963256835936,75.72919738769532,-13.729562950134277,79.35921353258017,1.2277284830328716,22.13481664927298,1.015843445762887,91.7778366088867,27.76725891113282,95.90876041412356
3466.311,3.709769415855408,-85.76243591308594,32.75846298217773,-0.8333779644966125,0.3707372999191284,0.8289378690719605,24.319561614990235,46.08392959594727,-109.7963088989258,-19.717296142578125,8.87735538482666,9.223034496307374,-0.979915735721588,0.23422290623188,-0.1221102702617644,116.0662841796875,75.47789947509766,-13.44614849090576,91.8807634917108,1.232518952406577,23.50837236226092,1.014892179998393,91.74672256469727,29.39396987915039,96.35016040802005
3466.354,5.791180429458619,-97.02672988891602,37.16217582702637,-0.8150681877136231,0.371545889377594,0.8515216135978697,24.309625930786133,43.971429443359376,-109.97006622314451,-19.058425102233887,9.376371383666992,10.697227878570557,-0.9799621629714966,0.232938801050186,-0.1153405940532683,115.97850463867186,75.20052459716797,-13.188785476684568,104.06128672999408,1.235909202555138,23.78172811189244,1.0138489919741662,91.66887870788574,31.229095153808593,96.78128074645994
3466.394,7.654417729377746,-107.8055108642578,41.29798858642578,-0.7931946301460266,0.3764924013614654,0.8721975302696228,24.33072235107422,41.6366089630127,-110.1583123779297,-17.60405364990234,9.216149730682377,12.296272869110108,-0.9825316381454468,0.2349136465787886,-0.108829797208309,115.84418823242189,74.89947875976563,-13.006286163330078,115.6984967264656,1.2375915244473212,23.36746557157216,1.0160692722772997,91.51346588134767,33.26286979675293,97.15202621459963
3469.415,9.064857025146484,-117.97819580078126,45.286612319946286,-0.7672652959823608,0.3831741070747375,0.8877822947502135,24.378281173706057,39.09353492736817,-110.35741882324218,-15.66403678894043,8.279499497413635,13.791662044525143,-0.9842557668685912,0.2369750428199767,-0.1021402958035468,115.62912567138672,74.58329223632812,-12.9435791015625,126.69610717267892,1.23437264779457,22.45266359261964,1.017521117992371,91.25084449768066,35.48975730895995,97.41383972167968
3487.329,10.3068718624115,-127.4036102294922,49.18694137573242,-0.7356168794631958,0.3885348916053771,0.9055600070953368,24.451370849609376,36.35604972839356,-110.56359741210936,-13.405205478668211,6.601472978591919,15.22151802062988,-0.985282106399536,0.2405450636148451,-0.0942039658129214,115.29912658691406,74.25842834472657,-13.042465591430664,136.95717107547262,1.2296871479349851,21.330109944975803,1.0185858549947857,90.84775573730468,37.90237861633301,97.52113182067869
3509.649,11.175422897338867,-136.01313385009766,52.86445968627929,-0.6980636858940125,0.3948827910423278,0.92294410943985,24.54546348571777,33.440342636108404,-110.77436340332032,-10.831448440551757,3.853224368095398,16.826328926086425,-0.987912380695343,0.2482589960098265,-0.0847681945562361,114.79250274658202,73.92804931640624,-13.373028602600098,146.35270327049378,1.2227228456911363,20.378737902040648,1.0221492297308017,90.24703926086424,40.48770668029784,97.40133480072022
3529.784,11.719781761169434,-143.7935125732422,56.304248352050784,-0.6553034663200379,0.4014019703865051,0.9333738756179808,24.65822937011719,30.36443519592285,-110.98664001464844,-7.948968029022216,-0.2015097999572752,18.41316997528076,-0.9926034450531006,0.2554661917686461,-0.0763586586713789,114.05325866699218,73.60095001220702,-14.001421623229978,154.86799516094348,1.2090214913256736,20.056707792269325,1.0277914277819944,89.39502929687498,43.23651481628417,96.98521839141847
3547.214,12.399870376586914,-150.72604553222655,59.57308593749999,-0.6078521645069122,0.4064226579666137,0.941257529258728,24.794636154174807,27.14521286010742,-111.1980142211914,-4.27117504119873,-5.571611399650573,19.88336009979248,-0.9965314269065856,0.262310910820961,-0.0654464791342615,113.03375457763671,73.28561309814452,-14.99467872619629,162.54553256012835,1.1919015761339653,21.08634151955466,1.0325527300720625,88.2391184234619,46.1404002380371,96.20333549499512
3569.777,13.245139083862304,-156.87753295898438,62.502451171875,-0.5556634950637818,0.4091503429412841,0.948702027797699,24.95682472229004,23.79873954772949,-111.4112322998047,0.33655553817749,-12.175289058685305,21.407471694946288,-1.0007787370681762,0.2715213155746459,-0.0544714514538644,111.69151306152344,72.98302185058594,-16.41892433166504,169.38875540938574,1.1731161325388608,24.629875713505875,1.0383877139116444,86.7346883392334,49.18428230285645,94.99230796813966
3592.342,14.46597568511963,-162.25827270507813,65.04516006469727,-0.5000501942634583,0.4126293313503265,0.9501646661758424,25.15305625915527,20.3425772857666,-111.6291845703125,5.679082794189453,-19.675149197578428,23.07274887084961,-1.0066904520988464,0.2819439351558684,-0.0432556645106523,110.00482513427735,72.68785400390625,-18.31528259277344,175.40776596718877,1.1502721654993613,30.84988197364006,1.0463217007356842,84.85176887512208,52.34527671813966,93.31390197753906
3615.478,16.0336332321167,-166.83814697265626,67.25406356811524,-0.443938403725624,0.4172138047218322,0.9472930169105528,25.39191421508789,16.795048131942746,-111.85457672119142,11.587035503387453,-27.323942670822145,24.579207077026368,-1.009589259624481,0.2920551109313964,-0.0334364701341836,108.00370147705078,72.39357421874999,-20.66776836395264,180.5966603963533,1.12628270209589,38.53562838945901,1.0515154104934896,82.61178726196289,55.59852608680724,91.18680835723879
3627.531,17.716178398132325,-170.64751098632811,69.11871704101563,-0.3864210999011993,0.4211509180068969,0.9421608066558838,25.67645835876465,13.17238868713379,-112.09125122070311,17.451440048217773,-34.44793944835663,26.02619827270508,-1.0069315123558042,0.3031299519538878,-0.0224448126088827,105.74048431396484,72.08587127685546,-23.42392604827881,184.9644101665491,1.1019783790008633,46.56797492402199,1.0518092070141625,80.0640259552002,58.91348258972167,88.66732517242431
3649.649,19.52885707855225,-173.7170965576172,70.62788116455077,-0.3252767074108124,0.4244913458824156,0.9336966967582704,26.009982299804687,9.489379835128783,-112.34366485595704,22.66750883102417,-40.49243438720704,27.40581787109376,-1.0003523135185242,0.3165589261054992,-0.0121296930592506,103.2900714111328,71.7468881225586,-26.495387382507328,188.53992546141765,1.076005279099684,53.89371069420241,1.0493147451135156,77.28008911132811,62.257508287429815,85.84827747344971
3673.077,21.45089584350585,-175.93560791015625,71.93657135009765,-0.263919157385826,0.4307144200801849,0.9242395710945128,26.39753135681152,5.762270755767823,-112.6124252319336,26.76162548065185,-45.14254814147949,28.629664306640628,-0.9920826435089112,0.3298671066761017,-0.001086967466399,100.73550415039062,71.36341522216796,-29.773432998657228,191.2808128402137,1.0532744267650398,59.78036407871234,1.0454862319116234,74.3379727935791,65.60114446640013,82.83899223327637
3695.137,22.702542877197267,-177.49097900390626,73.00700622558593,-0.2046650651842355,0.4330208921432494,0.912023696899414,26.828155212402343,2.0019671344757084,-112.90075805664064,29.030504989624024,-48.44318107604981,29.19855209350586,-0.9796264100074769,0.3399124419689178,0.009198818905279,98.14855865478516,70.93585571289063,-33.14579681396485,193.2575381165734,1.030136935385523,63.57725581587106,1.0369633502003155,71.32040344238283,68.93388857841492,79.75496124267579
3716.957,23.9907421875,-178.3830780029297,73.98612426757812,-0.142903092354536,0.4316297066211699,0.894833745956421,27.30386680603028,-1.7821128654479983,-113.20898895263672,29.46537010192871,-50.59622802734376,29.794893264770508,-0.9699958443641664,0.3472107577323913,0.019577954513952,95.5778237915039,70.45717193603517,-36.52339553833008,194.60222201363453,1.0037195476550045,65.69567710662298,1.030451621703709,68.27395698547363,72.23928480148317,76.68559341430664
3727.052,24.89817085266114,-178.5630517578125,74.88031982421874,-0.0814767187088727,0.4304017293453216,0.8767030525207519,27.82048736572266,-5.578019075393678,-113.53691650390624,28.733526382446293,-51.67955596923828,29.85891426086426,-0.9630302214622498,0.3552203702926635,0.0290566864144056,93.07575103759766,69.93401397705078,-39.82625312805176,195.22229550399416,0.980047114486958,66.24157912056454,1.026865624093957,65.255263671875,75.51203305244447,73.71066337585448
3749.417,24.676244735717777,-178.18622314453123,75.5615133666992,-0.0230181741714477,0.4281607532501221,0.8578609156608582,28.3586875152588,-9.373210678100588,-113.88695892333983,26.61063934326172,-51.77414779663086,29.572307434082035,-0.9558606791496278,0.3634455108642577,0.0356901551689951,90.67993225097656,69.37319458007812,-42.98612564086914,195.1122483982889,0.9590499557293068,65.29326055038443,1.0232478020928049,62.32124473571776,78.74640525817871,70.9008332824707
3847.024,23.38246517181397,-177.49576782226563,75.79143432617187,0.0342578392475843,0.4204224741458892,0.833773922920227,28.90227409362793,-13.159249982833863,-114.26747833251952,23.716303939819333,-51.28934219360351,29.35841232299805,-0.9516502332687378,0.3707773387432098,0.039405305078253,88.41302215576172,68.77691925048828,-45.96058578491211,194.411493460508,0.9344022746433406,63.67869399842942,1.0220894185315932,59.51074806213379,81.93616923332215,68.3068925476074
3847.075,21.34515606045723,-176.3711358642578,75.57296722412109,0.092757242321968,0.4154132497310637,0.8042389917373656,29.441800537109373,-16.9189545249939,-114.68496673583986,21.263017959594727,-50.04641998291016,29.374110412597656,-0.9495200109481812,0.3781365358829498,0.0422649808228015,86.31578491210938,68.14595062255859,-48.71209075927735,193.06389260644212,0.9099299038310774,61.8028999998168,1.022918285868692,56.873984375000006,85.06490514755248,65.9728759765625
3847.114,17.757800981998447,-174.9405487060547,74.66563659667969,0.1498137409240006,0.4079535257816314,0.7749637055397034,29.953323593139647,-20.638986072540284,-115.15045593261718,19.03445537567139,-48.30529510498047,28.98693283081055,-0.944349353313446,0.3885396075248718,0.044726247191429,84.40828247070313,67.49182037353515,-51.22341369628906,191.03531706383296,0.8885037878766393,59.463890736863135,1.0221346119308032,54.454958877563485,88.13080644607544,63.92704223632812
3847.154,13.408232578039172,-173.24735107421876,73.04350814819335,0.2060526879131793,0.3976021564006805,0.7444993138313294,30.42885025024413,-24.30869213104248,-115.67510070800782,16.654232635498047,-45.95169776916504,28.65672996520996,-0.9401608467102052,0.3951204347610473,0.0460131491720675,82.69838775634767,66.82317474365234,-53.47741744995117,188.49344667042297,0.8688063151623827,56.6580105973104,1.0208524798174023,52.269537506103546,91.13186687469482,62.19768325805665
3856.787,8.585389828681947,-171.14821960449217,70.76513595581055,0.2606492688506841,0.3838097143173217,0.7095306372642517,30.867611846923825,-27.91631633758545,-116.26798889160156,14.83991060256958,-43.25888153076172,27.93155597686768,-0.938510251045227,0.3956062352657318,0.047951155155897,81.18664855957032,66.15873626708984,-55.47933624267578,185.39990954459032,0.8477509441890085,53.5884838120433,1.0196102676900058,50.31903671264649,94.07505260467528,60.78865264892578
3866.81,3.372646337747576,-168.4861083984375,67.98651962280273,0.3141389098763465,0.3699034917354583,0.6701384091377258,31.2697501373291,-31.44635902404785,-116.9347982788086,13.35767991542816,-39.82343475341797,25.98690021514893,-0.9322591853141784,0.3944915628433227,0.0520684236288069,79.87797058105468,65.53018768310547,-57.2291374206543,181.7171161915996,0.8274039734603803,49.39283906676026,1.0136280888454166,48.608220443725585,96.97654670715332,59.7056608581543
3969.914,-1.791385073661803,-165.2628698730469,64.71160598754884,0.3646039485931396,0.3518424820899963,0.6324566566944122,31.644878540039063,-34.88909622192383,-117.68178802490232,11.181053001880644,-35.5413049697876,23.370328369140623,-0.9252476906776428,0.3941652131080627,0.0563559062778949,78.7641030883789,64.95899871826171,-58.71966186523438,177.4897663772352,0.8103891621499091,43.981502398937806,1.0072862018816888,47.119224548339844,99.84809494018555,58.96212615966794
3969.95,-6.460146099328993,-161.37656860351564,61.10978469848633,0.4112318974733353,0.3329438757896422,0.5938967382907867,32.00994682312012,-38.23123054504394,-118.5117578125,8.669291286468507,-30.29936111450196,19.946386680603027,-0.9181650614738464,0.3888698744773864,0.0596581417322158,77.84691955566406,64.4716194152832,-59.9366567993164,172.68044523849602,0.7954097269192675,37.29700037494664,0.9989023742399812,45.83697273254394,102.70284996032714,58.57510101318359
3969.983,-11.104427373409273,-156.7165002441406,57.36584503173829,0.455090935230255,0.3141836327314376,0.5524650371074676,32.371167755126955,-41.45933547973633,-119.42461791992189,5.982011821269989,-24.785226726531985,15.702480554580688,-0.9081331205368044,0.382034341096878,0.0636091305315493,77.10357055664062,64.08849853515626,-60.90162643432617,167.25492498658585,0.7816883852477448,29.944278666923903,0.9872700359477236,44.732402801513665,105.5478340148926,58.52299148559572
3970.012,-15.564903486967086,-151.24598144531248,53.65799057006835,0.4966726016998291,0.296151179075241,0.5090564382076262,32.73260620117188,-44.56206108093262,-120.41484130859376,2.934816470146179,-18.722720308303835,11.326077919006348,-0.8964582848548888,0.3760923862457275,0.0675997011363505,76.52857513427735,63.81621765136718,-61.61292663574219,161.23521040992242,0.7704074580555197,22.07789492872492,0.9745012360539612,43.79596893310546,108.3782787322998,58.801914672851574
3970.917,-19.28394409179688,-144.9521026611328,50.02567321777344,0.5354580450057983,0.2763372582197189,0.4688142168521881,33.102867126464844,-47.5275146484375,-121.471904296875,-0.2635642886161802,-12.411579856872558,7.428014287948608,-0.8880913162231445,0.3696425116062164,0.0685275599360464,76.1212338256836,63.64963165283204,-62.06731552124023,154.54950839944652,0.763455544327601,14.466933916339254,0.9643846736693288,43.01836669921876,111.17714630126954,59.404588775634764
3986.878,-22.43519390106201,-137.6585952758789,46.61661895751953,0.5738336324691773,0.2579872101545333,0.4279756557941436,33.482343444824224,-50.34228973388672,-122.57911346435546,-3.14759213924408,-6.325093641281127,3.4099919319152834,-0.8807987737655638,0.3617618036270141,0.067756948173046,75.86841003417969,63.5922265625,-62.28533447265626,147.058953966554,0.7609241751373901,7.84488309802851,0.9546041517069346,42.386066589355465,113.93451629638673,60.2937789916992
4009.236,-25.27435871124268,-129.3026281738281,43.458495407104486,0.6122113490104676,0.2426412850618362,0.3842823547124862,33.8610043334961,-52.99126724243164,-123.714736328125,-5.8438842225074765,-0.3846718025207522,-0.409090223312378,-0.8721778702735901,0.3565249383449553,0.0663149802386759,75.76506683349609,63.63788269042969,-62.27774078369141,138.73212924183474,0.7624634136908137,5.870801479571265,0.9445644211280168,41.904062499999995,116.62914993286134,61.43699554443359
4031.783,-27.603614501953125,-119.96594146728516,40.402263412475584,0.6504111433029175,0.2270806938409804,0.3404951912164687,34.2253190612793,-55.45600524902344,-124.8528353881836,-8.356625394821167,5.490616025924683,-3.769906024932861,-0.864246597290039,0.3580009388923644,0.0632893009483813,75.81885711669922,63.77347930908204,-62.0406901550293,129.5612964374608,0.7684642295445175,10.68607709921354,0.9375992687655852,41.59353805541992,119.22948455810548,62.812145233154304
4054.846000000001,-28.94409210205078,-109.69774063110351,37.1992847442627,0.6890747165679931,0.2139659386873244,0.2986547309160232,34.57187042236328,-57.71473571777344,-125.97015411376952,-10.541754891872404,10.678939228057862,-6.905984735488891,-0.8585865139961243,0.3652320897579192,0.0583767692744731,76.01589874267579,63.98819030761719,-61.597788085937495,119.39489751520202,0.7808969434119525,16.518503697480423,0.9348652997067968,41.444028320312505,121.70292602539064,64.37236602783203
4076.045,-30.2294841003418,-98.43485549926756,33.79039077758789,0.728429172039032,0.2067710036039352,0.2565186357498168,34.87673645019531,-59.74683822631836,-127.0410775756836,-12.261980543136596,14.55092411994934,-9.894559440612792,-0.8517227673530579,0.3749136996269225,0.0546338720619677,76.31565979003906,64.26995178222656,-61.00444198608399,108.37450343617084,0.7994780279005769,21.44732771486004,0.9321892589876698,41.438923339843754,124.01679000854492,66.03663558959961
4087.396,-31.752696533203125,-86.37494125366212,30.034463043212888,0.7671209979057312,0.2013880831003188,0.2145659714937209,35.10495132446289,-61.53090103149414,-128.03734985351565,-13.16234375,16.559834713935853,-12.089726781845092,-0.8453414392471315,0.3875194716453552,0.0520650036633014,76.66751098632814,64.59209381103514,-60.3348812866211,96.803580429638,0.8216266436561986,24.36466524304616,0.9313883478008336,41.56255966186525,126.12299484252928,67.70246856689455
4109.848,-32.890907745361325,-73.56162528991698,25.88185745239258,0.8050070691108704,0.1959997189044951,0.1760952809453009,35.22986312866211,-63.0484066772461,-128.9271990966797,-12.955227856636046,16.052325439453124,-13.07399209976196,-0.8452988505363465,0.4026517152786255,0.0507340778410434,77.00159240722657,64.91914138793945,-59.69069091796875,84.63447921972458,0.8470311795325596,24.42221018368548,0.9376739823570178,41.77172927856446,127.96754806518555,69.23650817871093
4131.598999999999,-33.102480163574214,-60.02523534297943,21.445276165008544,0.8399914455413817,0.1944204699993132,0.1424315328896044,35.23561431884766,-64.2860791015625,-129.67776947021486,-11.563771505355836,13.031724944114686,-12.939550046920775,-0.8492400336265563,0.4151492488384246,0.0501864771544932,77.24561004638672,65.22034484863282,-59.17739700317382,71.82411113792759,0.8738831096312232,21.70204188236461,0.9466130233703324,42.00999572753906,129.5064239501953,70.50037246704103
4154.438,-32.552044525146485,-45.91293559074402,16.953500423431393,0.8711252093315125,0.1931356698274611,0.1149292972683905,35.10092575073243,-65.23621017456055,-130.2533547973633,-9.246315069198609,7.843925266265868,-11.696360069513322,-0.8546281814575195,0.4235724890232086,0.0522387249767779,77.3320394897461,65.46694000244142,-58.88881393432617,58.77971107392598,0.8996495210153672,16.847146488867455,0.9552653382102286,42.231113739013665,130.703150177002,71.36454086303712
4177.471,-30.537772312164304,-31.40863144397736,12.550937252044674,0.8964486694335937,0.1897396469116209,0.0939907060563563,34.82087524414062,-65.89434204101562,-130.62056884765624,-6.2284660625457775,1.127041039466858,-9.30423253297806,-0.862520956993103,0.4307236361503601,0.0559392221271991,77.21709625244141,65.63126983642579,-58.88786651611328,45.56954786782457,0.9211164982587052,11.25312196790981,0.965709298165386,42.396221008300785,131.5256118774414,71.73270233154297
4186.737,-26.63027074813843,-16.682213191986087,8.39626390457153,0.9136186575889588,0.1868787539005278,0.0812544062733649,34.408479614257814,-66.26141662597657,-130.7546942138672,-2.9480861568450933,-6.20431043624878,-6.309798191785812,-0.8714110350608826,0.4350384855270386,0.0608190023899077,76.88385162353515,65.70047760009766,-59.198561553955074,32.52637091126587,0.9360689070217544,9.327284342111088,0.9758660906944362,42.475372009277336,131.9618942260742,71.55613265991212
4211.523999999999,-21.221082429885865,-2.098420825004577,4.54067708969116,0.9213717913627624,0.1835496628284453,0.0793906696140765,33.88678894042969,-66.34327239990236,-130.64922180175782,0.3207534217834469,-13.238829941749572,-3.3618681573867795,-0.8766942071914674,0.4358562386035919,0.065826277732849,76.34611572265625,65.67727844238281,-59.80563125610352,21.802647955871542,0.9428251879671188,13.662783702152426,0.9812728939968276,42.45932678222656,132.02055084228516,70.84359054565431
4231.491,-15.143579788208006,12.13317316055298,0.8228797721862765,0.920402307510376,0.1780039751529692,0.0860079535841941,33.28125938415527,-66.14630554199218,-130.3176181030273,3.521008367538452,-19.30324912071228,-0.6165645992755888,-0.8796868944168091,0.4334480261802673,0.0724100178480147,75.64426940917969,65.57001617431641,-60.66327667236328,19.42212735168984,0.941394280267532,19.63143088125863,0.9833460399538964,42.363010025024415,131.71632171630858,69.65434143066403
4254.06,-9.265718488693237,25.962559199333192,-2.8813149070739774,0.9095654129981996,0.1736128610372542,0.1003078876435756,32.61583030700684,-65.6789274597168,-129.7891439819336,6.703151693344116,-23.9599134016037,1.7338645505905153,-0.8786051487922668,0.4287178337574005,0.0790641510486601,74.83920318603516,65.3923013305664,-61.70479019165039,27.71660143098932,0.931403424066952,24.940248176714785,0.9808145229588338,42.223372879028325,131.07122879028321,68.0843537902832
4275.789,-4.0253347969055175,39.16120381355286,-6.637097873687746,0.892001039981842,0.1688949191570281,0.1190314656496047,31.91695129394531,-64.94945373535157,-129.10500549316404,9.33247504234314,-26.946866645812985,3.54212573170662,-0.8754249858856202,0.4207893598079681,0.085554268658161,73.9903335571289,65.16329284667968,-62.85322174072267,39.92310449525082,0.9156199205240348,28.7363074722972,0.9750651896801932,42.073382263183596,130.11274658203126,66.25178375244138
4363.853,0.442902479171753,51.7762046289444,-10.416082210540772,0.8701610803604126,0.1616828003525733,0.1454710872471332,31.208297348022462,-63.9675439453125,-128.3059194946289,11.220978403091433,-28.16377983093262,4.767731597423554,-0.870086932182312,0.4122887527942657,0.0913573974370955,73.1556167602539,64.90308792114257,-64.02910491943359,52.81539829444746,0.896930025659033,30.68941373296274,0.9671501741206264,41.947319412231444,128.87063186645508,64.27681457519532
4363.904,3.672307033538819,64.0209511566162,-14.321038837432862,0.8456305575370788,0.1575887799263,0.1728373539447783,30.50502281188965,-62.73830749511718,-127.43271850585938,12.23568977832794,-27.68996040344238,5.635461715459824,-0.8661355209350585,0.4031608259677887,0.0983465507626532,72.38239440917968,64.62886123657226,-65.16063110351563,65.70586107288814,0.8773813391665926,30.79292841290187,0.9604173240146108,41.877371597290036,127.36716873168945,62.27208740234376
4363.952,5.822235193252562,75.95956329345702,-18.15656127929688,0.8186696362495421,0.1570169064402579,0.2006603872776031,29.81439758300781,-61.26737731933595,-126.51412445068358,12.398045387268066,-26.101669540405272,6.215548486709595,-0.8630190229415893,0.3946980917453765,0.1051489439606665,71.69517639160156,64.35326141357422,-66.20172760009766,78.31611836567946,0.857402398671373,29.55743096434325,0.9548008787189822,41.88077880859375,125.62063873291017,60.31239685058593
4363.996,7.240758419036865,87.78811813354493,-21.722816963195804,0.7929647612571717,0.1584077817201613,0.2246674957871436,29.13582077026367,-59.55220809936524,-125.56279083251952,11.845462131500245,-23.92077423095703,6.274342460632324,-0.8622052884101867,0.3892111897468566,0.1125100743770598,71.09457702636719,64.08955322265624,-67.13559982299805,90.7252062258808,0.8392625462680983,27.420535848712326,0.9526498970886358,41.95875625610352,123.64176132202147,58.42719100952148
4369.494000000001,8.197459516525267,99.5273141479492,-25.04141586303711,0.76542644739151,0.159051549732685,0.2581098192930221,28.473053283691407,-57.5972036743164,-124.59023590087892,10.852022457122803,-21.372266235351564,5.869823849201202,-0.8625944638252259,0.3894838070869445,0.1197412687540053,70.57898254394532,63.847186431884765,-67.95424255371094,102.9560931293297,0.8232834995639311,24.677823799218952,0.9539941385814108,42.10592926025391,121.44439010620115,56.63599334716798
4386.636,8.588786373138428,110.89066680908203,-28.452439422607423,0.7358055448532105,0.1661944353580474,0.290633024573326,27.84076217651367,-55.40395217895508,-123.62261260986328,10.103682193756104,-18.33496768951416,5.3934113931655885,-0.866189260482788,0.3902054917812347,0.1270268556475638,70.16551605224609,63.63265350341796,-68.64315795898438,114.8043925371473,0.8083921976079123,21.618147943426624,0.9584779511536308,42.32475387573242,119.03660568237305,54.97945465087891
4494.114,8.594162063598633,121.8934606933594,-31.90898284912109,0.7015113413333893,0.1810066089034079,0.3201730388402938,27.2443611907959,-52.97505416870117,-122.67393341064454,10.201293087005617,-15.48384090423584,4.778551118373871,-0.8702118420600892,0.3920204198360443,0.1323424538969992,69.85992309570312,63.44814605712891,-69.21463287353515,126.29354127525464,0.7920810118203255,19.14811376051405,0.9635679450529274,42.615561904907224,116.42320022583007,53.459300537109385
4494.165,7.731120204925537,132.4629830932617,-35.20025810241699,0.6634745848178863,0.1936307394504546,0.3521585619449615,26.674481658935548,-50.31667236328125,-121.7518002319336,11.01504789352417,-12.167476806640623,3.363583650588989,-0.8732990527153014,0.3987738633155823,0.1381532272696494,69.6798190307617,63.3097850036621,-69.66456817626951,137.27807647277666,0.7756977766569528,16.75387916010135,0.969926875461288,43.00533737182616,113.62645736694336,52.08723205566409
4494.212,7.674469528198242,141.86088928222654,-38.685969924926766,0.6218066668510437,0.1991252052783965,0.4033952188491821,26.16809959411621,-47.45021041870117,-120.8812762451172,11.264468269348146,-7.734868507385253,1.8481469559669488,-0.8801488852500915,0.4065831756591797,0.1418306806683539,69.6537368774414,63.22805938720703,-69.9483737182617,147.24134493923816,0.7674777396823623,13.788839087774624,0.9798407426285818,43.48563728332519,110.6782698059082,50.9329025268555
4494.252,7.943780193328857,150.36946228027344,-42.38684616088868,0.5748442375659943,0.2197143816947936,0.4474280250072479,25.74452423095703,-44.387156066894526,-120.07767242431642,11.425083637237549,-2.184715576171875,-0.0600024890899661,-0.8896171092987061,0.4076855993270873,0.1441095721721648,69.81287536621093,63.22184494018554,-70.028369140625,156.43121030563353,0.760862763281422,11.632244777571444,0.98913786594555,44.068351135253906,107.60900100708007,50.049303283691415
4494.3,7.153616676330567,158.17792358398435,-45.843797302246095,0.5192759215831757,0.2424519237875937,0.4904016518592834,25.375128784179687,-41.14470832824707,-119.33378631591798,10.995555456876756,3.869654655456543,-2.812571737766266,-0.8945062732696533,0.4130400621891021,0.1474963259696959,70.15410858154297,63.30536209106445,-69.89483154296875,164.84260217547555,0.7542706399102881,11.991122830570548,0.9962423059007782,44.778979797363284,104.45007041931152,49.43895477294923
4513.851,6.681515560150146,164.63968749999998,-48.98288497924805,0.4635028994083404,0.2472714120149612,0.5473580408096314,25.06487159729004,-37.7520344543457,-118.65083099365232,8.421186635494234,11.300080871582033,-6.3450085020065305,-0.8956306290626527,0.4231093084812164,0.1520380824804305,70.68097259521485,63.49633850097656,-69.49636322021485,171.9016939159368,0.7586691728275039,15.455333867136485,1.0021433476119783,45.61610099792482,101.24837295532225,49.154467773437474
4536.324,8.835320892333986,169.60314819335937,-52.22390365600586,0.4054322743415832,0.2568907132744789,0.6101904320716858,24.87039772033692,-34.23695999145508,-118.03800659179689,2.8996074259281155,19.24961673736572,-9.383024871349336,-0.9006168794631957,0.4262995219230651,0.1533122438192367,71.36987426757813,63.79013732910156,-68.79459442138672,177.68125079884177,0.7763378974623678,21.610104661855026,1.0081402134974815,46.4994765472412,98.02709732055663,49.24341217041017
4546.576,9.96348705291748,173.6919696044922,-55.29139785766601,0.3364199598133564,0.2856702315807342,0.6543066501617432,24.762632446289064,-30.61856174468994,-117.48683502197268,-3.2524272203445435,26.57734169006348,-12.809503269195556,-0.9017662286758424,0.4230291295051575,0.1532782661914825,72.19060760498047,64.18878952026367,-67.81030746459962,182.55221186388349,0.7892420813781361,29.681926287516376,1.0077847996853344,47.42797515869141,94.80735126495361,49.67652755737306
4568.947999999999,9.459420337677004,176.301455078125,-57.909050445556645,0.2646948878467082,0.2985950323939323,0.7025899612903596,24.700752410888672,-26.93005489349365,-116.99128540039062,-10.184191995859146,32.9924866104126,-16.139579734802247,-0.8951630759239195,0.424901885986328,0.1507410922646521,73.11339935302735,64.67685470581054,-66.56211227416992,185.8094233866921,0.8079944496891696,38.11440637557951,1.0022880933690932,48.41264694213868,91.60690959930419,50.429173126220704
4591.401,10.710846405029296,177.2935650634766,-60.368081512451184,0.1982595241069793,0.3025629949569702,0.7588860785961151,24.71803092956543,-23.20256118774414,-116.55548095703124,-17.92353096485138,38.23795391082764,-18.41701305389405,-0.895477590560913,0.4176512777805328,0.1423466104269027,74.10652496337892,65.23081130981446,-65.06991790771484,187.5954042857215,0.8406897674549433,46.07147112218004,0.9982861626450196,49.38849403381349,88.4333724975586,51.4855630493164
4611.277,11.8199711227417,177.2421075439453,-62.47168334960937,0.1273693592846393,0.3244762650132179,0.8040161728858948,24.80399078369141,-19.458542213439937,-116.17174743652345,-24.47267462134361,41.34657180786134,-20.18920871734619,-0.9042858815193175,0.395962455868721,0.1291415271162986,75.12944183349609,65.8359341430664,-63.406860809326176,188.3007902917452,0.8763274539255224,52.11578409673366,0.9955886479860484,50.32545104980468,85.29447635650634,52.76488662719727
4633.746999999999,8.809744567871094,176.28703674316407,-63.96123901367188,0.0549849608540535,0.3483584070205688,0.8396073794364931,24.867244415283203,-15.720870771408078,-115.82965576171875,-27.772219202518464,42.75189682006836,-22.45725929260254,-0.9071239471435548,0.3734050869941711,0.114418325126171,76.18792572021485,66.48943725585937,-61.64048110961913,187.73857094161784,0.9106686978623156,55.70771343433232,0.9876217735545856,51.32068130493165,82.21030802726744,54.189174652099624
4657.138,4.882955741882324,174.16347290039062,-64.63030899047853,-0.0062413637340068,0.3525108993053436,0.8793342781066894,24.883668518066408,-12.01720049858093,-115.52357147216796,-29.27292499661446,43.5850584411621,-23.93604225158692,-0.9099440169334412,0.3568668097257613,0.0987920388579367,77.32422607421874,67.16694305419921,-59.76675354003906,185.8328156965476,0.9473814761772232,57.70178139231653,0.9824010895650092,52.440557556152335,79.18414355278014,55.7568179321289
4667.7,3.0088827896118167,171.314462890625,-64.76656661987303,-0.0600645604729651,0.3577138638496399,0.909439127445221,24.88922996520996,-8.36467173576355,-115.24922058105469,-29.40144523620605,44.11280166625976,-24.75288326263428,-0.925780942440033,0.3364222908020019,0.0845830534398554,78.5727993774414,67.8552651977539,-57.77919570922852,183.1731604872052,0.9791049414354795,58.50717462532261,0.9886377516880648,53.683569412231435,76.21993693351745,57.47002487182617
4695.0380000000005,0.8604397964477535,168.19181091308593,-64.07387222290039,-0.1118479917943476,0.3748385107517242,0.9267615890502928,24.87315650939941,-4.773027486801146,-114.99192260742186,-27.71037590026856,44.3815786743164,-26.25469833374024,-0.940533163547516,0.3196737259626387,0.071989582479,79.96284759521485,68.56161010742188,-55.6865267944336,179.98524027403784,1.005932863241888,58.539718505937685,0.9959801317240397,55.089691085815446,73.33463759422303,59.30539581298826
4713.8730000000005,-2.5646849441528325,164.90896545410155,-62.95620147705078,-0.1584984058141707,0.3886305236816406,0.9385132884979248,24.80799118041993,-1.2476796627044675,-114.74614715576172,-24.76383716583252,44.96120880126953,-27.432167320251462,-0.9468581342697144,0.3173254740238189,0.0628664289414881,81.54695037841796,69.2689584350586,-53.45933273315431,176.5361940238427,1.0280868743787603,58.20035852066117,1.000593809087894,56.73895919799803,70.51663809776306,61.28681442260741
4737.456,-3.5113809585571287,161.50021667480468,-61.55228897094727,-0.1983103288710116,0.3908684229850768,0.9467729592323304,24.73933746337891,2.2098993968963625,-114.5089547729492,-22.6235139465332,45.76980865478516,-27.617849044799804,-0.9572707724571228,0.3236558586359023,0.0539749550074338,83.34058715820312,69.95178649902344,-51.06391006469727,172.86796713043157,1.0433044363738293,58.04691510705783,1.0119455234339714,58.60124969482421,67.74188710212708,63.44504470825193
4756.861,-1.795409202575684,158.21527893066406,-60.26737121582032,-0.2385592867434024,0.4018119978904724,0.9483393549919128,24.717243652343747,5.604490690231323,-114.27911651611328,-21.00110752105713,45.603540954589846,-27.5558850479126,-0.9700079369544984,0.3267191934585571,0.0450277434289454,85.28384826660157,70.6026516723633,-48.55541259765626,169.31465977456887,1.0572184954713624,57.27177546996189,1.0245429843628988,60.56660461425782,64.99816098213196,65.72370391845702
4766.339,-0.8757497787475585,155.07832580566406,-59.08187545776367,-0.2843627321720122,0.4231290996074676,0.9510889887809754,24.72484519958496,8.941328039169312,-114.05341583251952,-18.82439811706543,44.072082901000975,-27.376983642578125,-0.9719928598403932,0.3305555230379104,0.0351336612924932,87.30951446533203,71.21419494628907,-46.01816604614258,165.95397578837745,1.0791064187388453,55.19244231838694,1.0272640593087,62.58466926574707,62.272866907119756,68.03524978637694
4788.903,-1.342162780761719,151.6656317138672,-58.34642425537111,-0.3321825277805328,0.4341577434539795,0.9440322828292848,24.732765808105466,12.217131185531615,-113.84100524902342,-16.490028848648073,41.6167407989502,-26.342239303588872,-0.9692673492431642,0.3375428760051727,0.0253379935771226,89.36279693603515,71.76795959472656,-43.51361145019531,162.5071397431024,1.090887312689806,51.94023236070276,1.0266724898278066,64.63003112792968,59.55082840919495,70.32739379882811
4888.853,0.7884944915771485,147.90366455078126,-57.75741531372071,-0.3779773545265198,0.4346380972862243,0.9396259999275208,24.788613815307617,15.42559950828552,-113.6468521118164,-14.962146644592284,38.15524017333985,-24.715077896118167,-0.9708439922332764,0.3388337492942809,0.0107542460039257,91.36133361816404,72.25810882568359,-41.11517150878906,158.78297999103964,1.1021225775235934,47.85941140790096,1.0283297237381492,66.57271980285643,56.83250931739807,72.53168060302734
4888.906000000001,3.739584808349609,143.81792755126952,-57.42992294311525,-0.4274176001548767,0.4437061524391174,0.9353480148315432,24.90794769287109,18.558711128234865,-113.47465911865234,-13.008041219711302,33.69101737976074,-22.882777366638187,-0.9722049784660338,0.3309596204757689,-0.0022826254740357,93.22904052734376,72.68934173583985,-38.91108749389649,154.9057030226234,1.120016456791501,42.754125981806446,1.026996592457181,68.32109283447267,54.130630607604985,74.56357162475585
4888.945,5.047089958190918,139.38896545410157,-57.15688873291016,-0.4763640129566192,0.4505947494506836,0.9250409173965456,25.05741958618164,21.607771148681643,-113.32555755615232,-10.302577915191648,29.002324142456057,-21.13181907653809,-0.9720524406433104,0.3223462784290313,-0.0129505008086561,94.94117248535156,73.0700912475586,-36.939151535034185,150.73707817599842,1.1338690400264488,37.33405542994524,1.0241878665795932,69.88375289916992,51.46232009887695,76.38640602111813
4888.984,6.182643935680389,134.72283660888672,-56.75237304687501,-0.517460925579071,0.4459487116336822,0.9099113368988035,25.231580963134764,24.56397403717041,-113.19857116699218,-8.188006820678709,24.8557438659668,-19.526850929260256,-0.9747014689445496,0.312687364220619,-0.0231009159609674,96.50299560546874,73.40958984375,-35.18116394042969,146.31917043378786,1.1377937879624136,32.651942760570606,1.02388963937728,71.27141464233398,48.84561580657959,78.01740722656248
4889.03,8.467224926948546,130.05009277343748,-55.93789031982423,-0.5559294044971466,0.4408561205863952,0.9024911403656006,25.45293846130371,27.42188091278076,-113.08515167236328,-6.746059608459471,21.504336242675784,-18.15140548706055,-0.9777149224281312,0.2988730669021605,-0.0325048759207128,97.9394775390625,73.71753875732422,-33.59650100708008,141.82301682652192,1.1479990767772597,28.93819826172044,1.0228920503243588,72.48653907775878,46.295657844543456,79.4886506652832
4909.879,9.26631225824356,125.1821728515625,-54.838115234375,-0.5946327650547027,0.4395213460922241,0.8887282180786134,25.693862380981443,30.1747999572754,-112.98011016845705,-5.251456184387206,18.94117603302002,-17.15713954925537,-0.9795668506622316,0.2856835108995437,-0.0376834685727952,99.28422454833984,74.0031802368164,-32.14449195861816,136.980508924315,1.1561163369473286,26.09048445473969,1.0210711665304673,73.59036216735839,43.82838027954101,80.83561820983888
5017.504,8.89316379547119,120.16146911621097,-53.26955795288086,-0.6275217604637146,0.4338851296901702,0.8691220378875733,25.93223045349121,32.816059112548835,-112.87624114990231,-4.077227439880369,16.977332916259765,-16.65118492126465,-0.980044515132904,0.2745078134536742,-0.0441132759675382,100.56767181396484,74.27696990966797,-30.78787673950195,131.7403234661071,1.1564657290052238,24.12707143082604,1.0187186914972135,74.63544136047362,41.46091079711913,82.08836441040036
