Timestamp (ms),Wrist Gyroscope X (deg/s),Wrist Gyroscope Y (deg/s),Wrist Gyroscope Z (deg/s),Wrist Accelerometer X (g),Wrist Accelerometer Y (g),Wrist Accelerometer Z (g),Wrist Roll (deg),Wrist Pitch (deg),Wrist Yaw (deg),Arm Gyroscope X (deg/s),Arm Gyroscope Y (deg/s),Arm Gyroscope Z (deg/s),Arm Accelerometer X (g),Arm Accelerometer Y (g),Arm Accelerometer Z (g),Arm Roll (deg),Arm Pitch (deg),Arm Yaw (deg),Wrist Gyroscope Magnitude (deg/s),Wrist Accelerometer Magnitude (g),Arm Gyroscope Magnitude (deg/s),Arm Accelerometer Magnitude (g),Difference Roll (deg),Difference Pitch (deg),Difference Yaw (deg)
0.0,17.259824752807617,8.344249725341797,-11.98216724395752,-0.8172362446784973,0.3458692133426666,0.535675048828125,33.54655456542969,56.80883026123047,-86.92784881591797,9.026155471801758,9.97853946685791,-6.416206359863281,-0.9901093244552612,0.0488351061940193,-0.1788012683391571,155.74290466308594,78.6620101928711,61.85187530517578,22.60752940590072,1.0365560044163085,14.906724541130012,1.0073089076990862,122.19635009765624,21.853179931640625,148.77972412109375
22.088,18.28067970275879,7.224703788757324,-8.0090970993042,-0.8269772529602051,0.3885633647441864,0.527614176273346,33.86186599731445,56.96600341796875,-87.03016662597656,8.028738021850586,8.511524200439453,-9.156829833984377,-0.9958117604255676,0.0613513700664043,-0.1602115035057068,157.09242248535156,78.59574127197266,63.105072021484375,21.225579652302184,1.0551064327069246,14.857799670433105,1.0104814588434825,123.23055648803712,21.629737854003903,150.13523864746094
32.269,14.444107055664062,9.716139793395996,-9.238893508911133,-0.8508632183074951,0.3960663974285126,0.424214631319046,34.17570114135742,57.22038269042969,-87.07781982421875,8.84862995147705,8.064886093139648,-8.354815483093262,-1.025860071182251,0.1160775572061538,-0.1494204401969909,158.19070434570312,78.52397918701172,64.07447052001953,19.70768262351761,1.0299489603207252,14.59943771074862,1.043163147777788,124.0150032043457,21.30359649658203,151.15229034423828
54.690000000000005,13.451966285705566,11.938983917236328,-7.154294013977051,-0.8780206441879272,0.3989006280899048,0.4073221683502197,34.57204055786133,57.49915313720703,-87.01830291748047,6.906582832336426,5.419647216796875,-7.130982875823975,-1.029260754585266,0.1139952316880226,-0.190304696559906,159.0707550048828,78.4703598022461,64.85832977294922,19.35661790618947,1.0468778875973206,11.310366004234924,1.0528952898127122,124.49871444702148,20.971206665039062,151.8766326904297
77.191,14.254427909851074,15.81910800933838,-6.593837738037109,-0.8390774726867676,0.374017059803009,0.4262438416481018,35.039310455322266,57.81948852539063,-86.90716552734375,3.5604166984558105,4.594127655029297,-7.096062660217285,-1.0111085176467896,0.0951531454920768,-0.1884539723396301,159.8817901611328,78.43272399902344,65.65099334716797,22.29151384190444,1.0127307533283627,9.172604932900905,1.0329130918163012,124.84247970581056,20.61323547363281,152.55815887451172
97.011,15.020989418029783,19.141740798950195,-7.3196187019348145,-0.8481675982475281,0.3346977233886719,0.4301878213882446,35.529151916503906,58.21013259887695,-86.76292419433594,1.500596046447754,5.081836223602295,-6.915521144866943,-1.0008771419525146,0.1033001616597175,-0.1630659103393554,160.59217834472656,78.39362335205078,66.39708709716797,25.40891933657296,1.0082025602175906,8.712134101540958,1.0193215723199234,125.06302642822266,20.183490753173828,153.1600112915039
119.559,20.5137939453125,15.914250373840332,-8.826692581176758,-0.876396656036377,0.3705332279205322,0.445169448852539,36.05123901367188,58.55441665649414,-86.64556121826172,6.08002233505249,4.349957466125488,-2.0216450691223145,-0.994345486164093,0.0966578125953674,-0.1783046722412109,160.94573974609375,78.32756805419922,66.68223571777344,27.42242893900206,1.050495982808419,7.7444076815044145,1.0148193113720656,124.89450073242188,19.77315139770508,153.32779693603516
142.03099999999998,14.560593605041504,12.725227355957031,-9.073028564453123,-0.8364372253417969,0.3866769671440124,0.4994283616542816,36.366676330566406,58.81044769287109,-86.62306213378906,10.600687980651855,2.165004253387451,2.525552034378052,-0.9936259984970092,0.1127841770648956,-0.166700467467308,160.8525390625,78.27677154541016,66.41154479980469,21.3602936478728,1.0481292846218235,11.110366427740969,1.0138056723747424,124.4858627319336,19.466323852539062,153.03460693359375
162.11800000000002,7.516291618347168,10.911352157592772,-9.050142288208008,-0.8742534518241882,0.3351793587207794,0.4827633500099182,36.473480224609375,59.0655517578125,-86.6690444946289,8.985146522521973,1.1329976320266724,2.2137296199798584,-0.9882056713104248,0.0610743686556816,-0.1833940744400024,160.87429809570312,78.24800872802734,66.28642272949219,16.04547665343262,1.053434740575694,9.322936259341416,1.006932924209196,124.40081787109376,19.182456970214844,152.9554672241211
172.517,3.967888355255127,7.629543781280518,-3.971900701522827,-0.8581116199493408,0.3928238749504089,0.4604789912700653,36.64319610595703,59.19316864013672,-86.5777587890625,11.344067573547363,2.067934513092041,1.2716257572174072,-1.0088762044906616,0.0198992751538753,-0.2076243162155151,161.18296813964844,78.20500946044922,66.41046905517578,9.472595815984285,1.050098590811469,11.600916098742578,1.0302111598226322,124.5397720336914,19.0118408203125,152.98822784423828
202.285,-3.711437225341797,6.904173374176025,-2.5231189727783203,-0.8426303863525391,0.351952463388443,0.48664590716362,36.630985260009766,59.2873420715332,-86.50324249267578,8.244224548339844,0.3395870327949524,-0.885216236114502,-1.0239661931991575,0.0496890991926193,-0.1440170556306839,161.43516540527344,78.23822021484375,66.55244445800781,8.234592012305644,1.034756369127016,8.298564065003806,1.0352375011106776,124.80418014526369,18.950878143310547,153.0556869506836
212.655,-8.228678703308105,4.836409568786621,1.339049220085144,-0.8541399240493774,0.3676151931285858,0.4716714918613434,36.61460494995117,59.306427001953125,-86.33552551269531,2.732296705245972,0.2137907445430755,-2.5054214000701904,-1.0132452249526978,0.0689687132835388,-0.168738454580307,161.69064331054688,78.26680755615234,66.8114013671875,9.638208523015976,1.0426744152940308,3.713258428911183,1.029512134632507,125.0760383605957,18.96038055419922,153.1469268798828
234.481,-16.384601593017578,3.521823644638061,1.7319904565811155,-0.87272047996521,0.3507568836212158,0.4612026214599609,36.41233825683594,59.31393432617188,-86.19222259521484,-1.683557391166687,-2.8717150688171387,-2.365163803100586,-0.9968736171722412,0.0655854567885398,-0.1667786240577697,161.75851440429688,78.35245513916016,66.96129608154297,16.84809194204299,1.047558726563773,4.083517202280484,1.01285417025297,125.34617614746094,19.03852081298828,153.1535186767578
259.59900000000005,-12.674534797668455,1.722403883934021,2.3472788333892822,-0.8372980952262878,0.2983531355857849,0.4759329855442047,36.21118927001953,59.28333282470703,-86.11753845214844,-1.7188308238983154,-1.718013882637024,-2.9583632946014404,-0.9820069670677184,0.0789335966110229,-0.1777497678995132,161.88890075683594,78.40931701660156,67.17672729492188,13.00462323169637,1.0082633091174449,3.828559061182365,1.001081003731377,125.6777114868164,19.12598419189453,153.2942657470703
273.11400000000003,-12.939722061157228,-0.1526562273502349,1.876553058624268,-0.8475803136825562,0.3085068166255951,0.4730978608131408,35.9682731628418,59.2300033569336,-86.08930969238281,0.2126789689064026,-3.588602066040039,-1.475273609161377,-0.998081922531128,0.0484615489840507,-0.1697214245796203,161.9397735595703,78.50324249267578,67.25044250488281,13.0759765343006,1.0185236521321677,3.885837021040636,1.013568649759207,125.97150039672852,19.273239135742188,153.33975219726562
294.636,-16.636335372924805,0.1240611970424652,1.7801597118377686,-0.8206455111503601,0.2919888794422149,0.4689386785030365,35.64378356933594,59.18077087402344,-86.06681823730469,7.031935214996338,-3.855745315551758,-1.44419264793396,-1.002938747406006,0.0187233425676822,-0.160625547170639,162.18887329101562,78.61155700683594,67.38033294677734,16.731766625813638,0.9892522655447044,8.148654932603995,1.0158923471554957,126.54508972167967,19.4307861328125,153.44715118408203
316.845,-17.841115951538086,6.518808841705322,2.72693133354187,-0.8421895503997803,0.2392807155847549,0.3807951509952545,35.45747756958008,59.28269958496094,-85.859130859375,8.753586769104004,-3.2154273986816406,-3.825047254562378,-0.9976563453674316,0.0109429154545068,-0.1787732094526291,162.75389099121094,78.7118911743164,67.79927825927734,19.18948778911972,0.9547478445510286,10.07944647190809,1.0136063295325943,127.29641342163086,19.42919158935547,153.65840911865234
339.49,-15.305578231811523,10.778921127319336,4.10780668258667,-0.8972972631454468,0.2447173297405243,0.2855206727981567,35.51504135131836,59.4904670715332,-85.44890594482422,10.46430492401123,-0.5259678959846497,-5.753642082214356,-0.9822533130645752,0.0253338832408189,-0.2226214557886123,163.6133575439453,78.74235534667969,68.48760223388672,19.165592644647795,0.9729085283410532,11.953355887804904,1.0074838406862092,128.09831619262695,19.251888275146484,153.93650817871094
363.269,-7.821667671203613,11.111112594604492,6.00229549407959,-0.8842352032661438,0.2957275509834289,0.3673808574676513,35.774635314941406,59.62580108642578,-84.9756088256836,8.68307113647461,2.461538791656494,-7.125028610229492,-0.9673044085502625,0.0678893327713012,-0.2133463621139526,164.51730346679688,78.71710968017578,69.2636947631836,14.854725155551632,1.0021453854303983,11.498736029690262,0.9928763520862824,128.74266815185547,19.09130859375,154.2393035888672
372.337,-11.600540161132812,10.477960586547852,2.8632850646972656,-0.893030047416687,0.2909181714057922,0.4228971302509308,35.81914520263672,59.76698684692383,-84.65196990966797,-0.6446549892425537,5.2857513427734375,-7.379072189331055,-0.9556840062141418,0.1575182974338531,-0.2174737304449081,165.07073974609375,78.61997985839844,69.87421417236328,15.892092104094536,1.0300378783411863,9.099750199216762,0.9926926801349932,129.25159454345703,18.85299301147461,154.52618408203125
394.572,-7.973770618438721,8.07770824432373,-2.6178648471832275,-0.8943496346473694,0.2633238434791565,0.3672855794429779,35.74801254272461,59.9625358581543,-84.54979705810547,-5.275465965270996,2.6693108081817627,-2.869474172592163,-0.9665287733078004,0.1443466693162918,-0.2137272953987121,165.06307983398438,78.55620574951172,70.00040435791016,11.64833055480526,1.0020476098495932,6.571882787191361,1.0003465336437352,129.31506729125977,18.593669891357425,154.55020141601562
417.633,-2.128047704696656,4.903683185577393,-5.119938850402832,-0.8682116866111755,0.2806157171726227,0.3363366723060608,35.69795608520508,60.13468170166016,-84.5694351196289,-2.893460988998413,2.0878679752349854,1.8796942234039309,-0.9564746022224426,0.1025310978293418,-0.2153508067131042,164.7562713623047,78.48316192626953,69.77366638183594,7.401923375031886,0.9724500350303052,4.0329343597888645,0.9857648100184216,129.0583152770996,18.34848022460937,154.34310150146484
439.421,2.7311341762542725,1.0810201168060305,-5.613557815551758,-0.8448432087898254,0.2873876690864563,0.45274218916893,35.58129119873047,60.19293212890625,-84.75714874267578,4.391257286071777,2.650908708572388,4.775420665740967,-0.9309588670730592,0.0613894239068031,-0.212472066283226,164.45748901367188,78.38859558105469,69.4142837524414,6.335592295135921,1.0006633847776736,7.008216611125065,0.9568685659484412,128.8761978149414,18.19566345214844,154.1714324951172
462.062,-9.03300666809082,-0.1079932451248169,-4.483901023864746,-0.8233192563056946,0.2682027220726013,0.4925242662429809,35.19392013549805,60.20088958740234,-84.973388671875,4.78075647354126,2.538069725036621,4.850157737731934,-0.9405052065849304,0.045501984655857,-0.2121090590953827,164.2085418701172,78.30062866210938,69.09556579589844,10.085248653284712,0.9961764154852804,7.26783739975896,0.96519983794617,129.01462173461914,18.09973907470703,154.06895446777344
471.97,-13.754858016967772,-1.246609449386597,-0.0241702944040298,-0.8527226448059082,0.2565617561340332,0.4766423106193542,34.8213005065918,60.157005310058594,-85.06529235839844,2.934696674346924,3.902686595916748,1.2435401678085327,-0.96250581741333,-0.00087349221576,-0.1808118373155594,164.3966827392578,78.23377990722656,69.24244689941406,13.81125404839742,1.0100236313809292,5.038829168102886,0.9793421935445148,129.57538223266602,18.07677459716797,154.3077392578125
496.719,-14.70150661468506,-2.344305515289306,2.151808261871338,-0.8493080139160156,0.3255968689918518,0.4807556867599487,34.5363883972168,60.04975128173828,-85.05303192138672,-0.0462477803230285,3.893302202224731,-2.8656322956085205,-0.9810916781425476,0.0077544394880533,-0.1981167495250702,164.88238525390625,78.18077850341797,69.75211334228516,15.041952794983176,1.0288165307533186,4.834437852394765,1.000925201348589,130.34599685668945,18.131027221679688,154.80514526367188
516.738,-21.64313507080078,-1.700627088546753,-0.5822186470031738,-0.8481013774871826,0.305549293756485,0.4007062017917633,34.08450698852539,60.02122497558594,-85.13898468017578,-4.629493713378906,3.748330593109131,-5.027437210083008,-0.9633771181106568,0.0883036851882934,-0.1861231476068496,165.23680114746094,78.13426208496094,70.24591064453125,21.71765196194432,0.9865098973477786,7.7946981454563,0.985157265918548,131.15229415893555,18.113037109375,155.38489532470703
539.4069999999999,-15.556017875671388,-3.4767560958862305,-0.0136999189853668,-0.8523250818252563,0.2652682065963745,0.4081005156040191,33.69754409790039,59.966590881347656,-85.29804992675781,-10.69361972808838,5.952301025390625,-5.9285078048706055,-0.9621949791908264,0.0946826562285423,-0.202167734503746,165.59115600585938,78.03961944580078,70.87678527832031,15.939815330996469,0.9815147973288804,13.598918897406476,0.9877528922989314,131.89361190795898,18.073028564453125,156.17483520507812
562.517,-8.194560050964355,-4.585233211517334,1.1882857084274292,-0.8459808826446533,0.320230096578598,0.4328955113887787,33.511573791503906,59.853782653808594,-85.39571380615234,-7.332670211791992,3.385267496109009,-3.993988037109375,-0.9500513076782228,0.0737047493457794,-0.209741935133934,165.83009338378906,77.98270416259766,71.31452941894531,9.465051555998803,1.0028107958810162,9.009996054143786,0.9757159200561156,132.31851959228516,18.128921508789062,156.71024322509766
572.823,-9.998793601989746,-2.98643445968628,-0.818449854850769,-0.852070152759552,0.2735815942287445,0.4331557750701904,33.22023010253906,59.80499649047852,-85.53490447998047,-4.501742839813232,4.369922637939453,-2.927531242370605,-0.971855401992798,0.0532818585634231,-0.2102929949760437,166.10130310058594,77.90702819824219,71.74839782714844,10.46730741127335,0.99423053634511,6.923319408523732,0.9957735799721488,132.88107299804688,18.102031707763672,157.2833023071289
602.769,-4.964622020721436,-0.7355886101722717,1.110845923423767,-0.8222216367721558,0.236774742603302,0.4095429480075836,33.10872268676758,59.7841796875,-85.57579040527344,-7.188738822937012,3.775792598724365,-4.010186672210693,-0.9846338629722596,0.0315848253667354,-0.1627944558858871,166.42381286621094,77.8789291381836,72.28623962402344,5.140286089084397,0.9485969243961764,9.056278085337253,0.998500616009977,133.31509017944336,18.0947494506836,157.86203002929688
622.575,3.296186208724976,1.6625714302062988,2.2977969646453857,-0.8601337671279907,0.2681818604469299,0.3801368474960327,33.29130172729492,59.8052978515625,-85.450927734375,-6.347728252410889,3.3881163597106934,-5.908796310424805,-0.99104243516922,0.0169712975621223,-0.191722959280014,166.97503662109375,77.85315704345703,73.01639556884766,4.348431691295207,0.9778832396819096,9.310577869900689,1.0095597190667651,133.68373489379883,18.04785919189453,158.46732330322266
632.211,2.5556602478027344,1.9356416463851929,3.6204118728637695,-0.855938196182251,0.3377168178558349,0.4667164087295532,33.51094055175781,59.76153564453125,-85.26415252685547,-3.717018842697144,0.4262415468692779,-5.905642032623291,-0.9972394108772278,0.0364883951842784,-0.1862121820449829,167.45724487304688,77.88551330566406,73.60359191894531,4.835854631251116,1.0317495097763838,6.99103130809254,1.015131923609852,133.94630432128906,18.12397766113281,158.86774444580078
656.953,-4.685155868530273,1.9378201961517327,0.2309696972370147,-0.8701843619346619,0.2825130820274353,0.452043205499649,33.44647979736328,59.779422760009766,-85.2489013671875,-4.097020626068115,0.998545467853546,-5.116305351257324,-0.985246479511261,0.0949451029300689,-0.1911477297544479,167.71876525878906,77.89109802246094,73.9813003540039,5.075350197383325,1.02047906637553,6.63017733617305,1.008098533155373,134.27228546142578,18.11167526245117,159.2302017211914
672.3900000000001,-2.245289325714112,0.003425195813179,-0.2507026195526123,-0.835239052772522,0.2562638521194458,0.4217673540115356,33.37510299682617,59.77981185913086,-85.33306884765625,-9.094593048095703,1.266031265258789,-5.487136363983154,-0.9733263254165648,0.0678233057260513,-0.1928634345531463,167.98788452148438,77.89337158203125,74.48468017578125,2.2592449383771185,0.9701459364906544,10.6968744664986,0.9945654533192664,134.6127815246582,18.11355972290039,159.8177490234375
695.521,10.296199798583984,-4.6156158447265625,-0.7423136830329895,-0.875014066696167,0.234783723950386,0.4530651867389679,33.41360855102539,59.71274185180664,-85.5660171508789,-5.926733016967773,-1.1035971641540527,-4.121181964874268,-0.9785221815109252,0.0225866511464118,-0.182360827922821,168.26565551757812,77.94783020019531,74.9251937866211,11.307814533430845,1.0129368575498627,7.302618143018963,0.9956260784449183,134.8520469665527,18.235088348388672,160.4912109375
716.619,13.574127197265623,-8.165451049804688,2.562199592590332,-0.908661127090454,0.2962799668312073,0.4563733339309692,33.599403381347656,59.543060302734375,-85.74005126953125,3.9258666038513184,-0.7742595672607422,-2.0907301902771,-1.0076453685760498,0.0033728887792676,-0.2289311587810516,168.63304138183594,77.96683502197266,75.26111602783203,16.04669395129641,1.0591144803816364,4.514760148365137,1.0333295895561665,135.03363800048828,18.42377471923828,161.00116729736328
732.082,2.078373670578003,-7.398069381713867,1.844158291816712,-0.869726836681366,0.3266105949878692,0.4706337451934814,33.566680908203125,59.37169647216797,-85.89766693115234,8.806389808654785,-2.0889949798583984,-0.989810049533844,-0.9929345846176147,0.0524763502180576,-0.1973089128732681,168.8270721435547,78.01676940917969,75.33324432373047,7.902656989676346,1.0414390876652115,9.104730936277614,1.013707878908512,135.26039123535156,18.64507293701172,161.2309112548828
754.316,0.3648296892642975,-7.153858661651611,0.628090500831604,-0.8769471049308777,0.2535130381584167,0.434606522321701,33.427467346191406,59.25432586669922,-86.112060546875,2.7127158641815186,-0.4146133661270141,-4.203636169433594,-0.9810822010040284,0.0702661424875259,-0.2188870161771774,169.1864013671875,78.03038024902344,75.7020263671875,7.190639201788069,1.011033092736099,5.020088509989002,1.0076562617073015,135.7589340209961,18.77605438232422,161.8140869140625
777.55,8.140826225280762,-8.405059814453125,2.373032331466675,-0.8802036643028259,0.322114884853363,0.4432954788208008,33.527549743652344,59.07764434814453,-86.22640228271484,-1.6078873872756958,-0.0967175662517547,-2.84724760055542,-0.9950958490371704,0.0206784605979919,-0.2208109647035598,169.47036743164062,78.03813934326172,76.07536315917969,11.939403861204292,1.036835267165995,3.271310904920308,1.0195100929549576,135.94281768798828,18.960494995117188,162.30176544189453
799.001,-1.650734543800354,-7.428250312805176,-0.2588274776935577,-0.8536249399185181,0.2722547650337219,0.4240342378616333,33.34403991699219,58.96120834350586,-86.42328643798828,3.047646999359131,-2.734856128692627,-1.546482801437378,-0.974653661251068,0.0954677686095237,-0.2050152868032455,169.4718475341797,78.09123229980469,76.07367706298828,7.613857032214038,0.9912634513656584,4.377122266111827,1.000547411198695,136.1278076171875,19.130023956298828,162.49696350097656
822.566,0.7597253322601318,-9.039336204528809,2.577093601226806,-0.8874284625053406,0.2657369375228882,0.4149531126022339,33.26041793823242,58.80283737182617,-86.5999526977539,-3.4195542335510254,0.0565642789006233,-1.7036762237548828,-0.9811893701553344,0.0290050841867923,-0.2246835976839065,169.5958251953125,78.08621215820312,76.30158996582031,9.430174602225945,1.0150524526776523,3.8208720665879374,1.007003770639757,136.33540725708008,19.28337478637696,162.90154266357422
831.682,5.542399883270264,-13.127437591552734,3.4028615951538086,-0.876878023147583,0.2918865084648132,0.531819760799408,33.18008041381836,58.51338195800781,-86.86467742919922,-3.17866325378418,-3.9934701919555664,-0.978081464767456,-0.9665870070457458,0.010078577324748,-0.2373603135347366,169.64614868164062,78.15150451660156,76.43927764892578,14.650163180728017,1.0662762584244911,5.196955609461861,0.9953551820088404,136.4660682678223,19.63812255859375,163.303955078125
853.878,3.865793943405152,-15.56550407409668,0.8675239682197571,-0.8406332731246948,0.2871847748756408,0.4685790836811065,32.98939895629883,58.22787094116211,-87.22608947753906,1.830103874206543,-5.139688491821289,-0.1736601144075393,-0.9846399426460266,0.0972699224948883,-0.2146735191345214,169.45469665527344,78.24165344238281,76.2423324584961,16.061814272647535,1.004343443483421,5.458556202759301,1.012453443025274,136.4652976989746,20.013782501220703,163.46842193603516
877.203,10.96144676208496,-17.544939041137695,0.3992830216884613,-0.8213616013526917,0.2765051424503326,0.4220011234283447,32.91652297973633,57.93247985839844,-87.62757873535156,-2.918779134750366,-4.885224342346191,0.7973605990409851,-0.9961013793945312,0.0325132198631763,-0.1714560240507125,169.2340545654297,78.35389709472656,76.11849212646484,20.691486848621327,0.9639371982411103,5.746344267219714,1.0112725822847357,136.31753158569336,20.421417236328125,163.7460708618164
898.969,19.523107528686523,-20.66775321960449,1.545023798942566,-0.8311620950698853,0.3377781510353088,0.477332592010498,33.01689529418945,57.54029846191406,-88.01396179199219,1.610478162765503,-11.820109367370604,2.339798927307129,-0.9514257311820984,0.0332794114947319,-0.2020108699798584,168.83969116210938,78.5732192993164,75.72574615478516,28.47270358189449,1.0162533694867897,12.156614840882904,0.9732044146914076,135.82279586791992,21.032920837402344,163.73970794677734
922.822,16.89530372619629,-23.271703720092773,3.653064489364624,-0.8846866488456726,0.3862645626068115,0.5040321350097656,33.10240936279297,57.08118438720703,-88.35942077636719,10.447213172912598,-6.49690055847168,2.9404006004333496,-0.9867001175880432,0.0703479573130607,-0.2218881249427795,168.56520080566406,78.67221069335938,75.24664306640625,28.98910764752269,1.0889991607407787,12.649108096540916,1.0137851336141208,135.4627914428711,21.591026306152344,163.60606384277344
931.878,5.963641166687012,-24.95276260375977,4.960033416748047,-0.8250561356544495,0.3489027321338653,0.5677329897880554,32.916358947753906,56.55118560791016,-88.71966552734375,1.1742231845855713,-9.017069816589355,1.6090319156646729,-1.0152690410614014,0.0284626111388206,-0.1740338206291198,168.26988220214844,78.85865783691406,74.93045043945312,26.13058187296741,1.060552446211508,9.23446435209388,1.0304703376096498,135.35352325439453,22.307472229003903,163.65011596679688
954.248,5.265722274780273,-29.63593292236328,8.120599746704102,-0.8339558243751526,0.3482151627540588,0.6363217830657959,32.69727325439453,55.89324188232422,-89.07258605957031,-7.180560111999512,-9.18012809753418,-1.6781985759735107,-0.9730483889579772,0.063721626996994,-0.1890421509742736,168.0315704345703,79.04279327392578,74.85352325439453,31.176280911938544,1.1052789368232392,11.77503910267709,0.9932877467510808,135.33429718017578,23.14955139160156,163.92610931396484
979.564,2.230548620223999,-33.49164581298828,9.030048370361328,-0.8839464783668518,0.4206756353378296,0.5075379014015198,32.511871337890625,55.211082458496094,-89.336181640625,-7.654598236083984,-11.330132484436035,-1.2791357040405271,-1.008245587348938,0.0701266825199127,-0.1939934492111206,167.6792449951172,79.26603698730469,74.67948913574219,34.75927876094244,1.10268947947421,13.733206632832845,1.029130883001128,135.16737365722656,24.0549545288086,164.0156707763672
998.86,-1.240831732749939,-39.13988494873047,8.84095287322998,-0.8494746685028076,0.3500093519687652,0.5778108835220337,32.094825744628906,54.42171478271485,-89.73066711425781,-9.906169891357422,-13.304743766784668,-0.8896552324295044,-0.9867045879364014,0.0665099769830703,-0.1965922117233276,167.19847106933594,79.52021789550781,74.42156982421875,40.14514547109688,1.085347490903288,16.61143868088556,1.0082946090321527,135.10364532470703,25.09850311279297,164.15223693847656
1021.931,-0.3459367156028747,-45.92955017089844,17.154951095581055,-0.8521438837051392,0.4291930198669433,0.6647983193397522,31.82996368408203,53.3925895690918,-89.98575592041016,-13.371065139770508,-11.707049369812012,-0.4405806362628937,-0.946925938129425,0.085496962070465,-0.2310572862625122,166.5909423828125,79.71170043945312,74.0974349975586,49.02994593311374,1.1628897850766182,17.77735917441766,0.9784507817772782,134.76097869873047,26.319110870361328,164.08319091796875
1043.714,-6.008350372314453,-52.39067459106445,18.793643951416016,-0.8601287603378296,0.4021590650081634,0.6135650873184204,31.424636840820312,52.27008438110352,-90.35051727294922,-16.63869857788086,-11.47793960571289,-1.24183189868927,-1.0060110092163086,0.0652985796332359,-0.1936774998903274,166.03604125976562,79.93062591552734,73.89187622070312,55.98289123719758,1.1304934826457835,20.251704481908902,1.0265636994995984,134.6114044189453,27.660541534423828,164.24239349365234
1052.807,-6.142500400543213,-59.37915802001953,22.486427307128903,-0.8374922275543213,0.3871757388114929,0.6820324659347534,30.99287223815918,50.973426818847656,-90.7345733642578,-19.51033401489257,-16.54435920715332,-1.4300121068954468,-1.0076109170913696,0.0350734926760196,-0.1758732050657272,165.36949157714844,80.26025390625,73.6209945678711,63.79070568175207,1.147373770193116,25.62057551215157,1.023445794554014,134.37661933898926,29.286827087402344,164.3555679321289
1072.076,-9.853286743164062,-66.07566833496094,25.71073532104492,-0.8175338506698608,0.3748175203800201,0.648806631565094,30.5069522857666,49.54656219482422,-91.10496520996094,-21.00971984863281,-17.208236694335938,-0.976594090461731,-0.9762768745422364,0.067409373819828,-0.170232355594635,164.46279907226562,80.59183502197266,73.1324691772461,71.58298063299404,1.1089633969332626,27.17508922273945,0.9932973443717832,133.95584678649902,31.04527282714844,164.23743438720703
1094.773,-4.371907234191895,-72.6868896484375,29.52290153503418,-0.8423608541488647,0.3835479319095611,0.6964392066001892,30.14860725402832,47.97236633300781,-91.45494079589844,-22.858619689941406,-18.09709548950196,-2.516719102859497,-1.0064278841018677,0.0666446611285209,-0.1682217121124267,163.63275146484375,80.94917297363281,72.76001739501953,78.57543645870402,1.1583213686902298,29.263547876637016,1.0225640034642007,133.48414421081543,32.976806640625,164.21495819091797
1111.426,-5.144199371337891,-80.27912139892578,33.34282302856445,-0.8550586700439453,0.447504848241806,0.7912842035293579,29.798912048339844,46.20932769775391,-91.78756713867188,-23.709136962890625,-19.094453811645508,-2.125643253326416,-1.0013123750686646,0.0551574863493442,-0.1900279521942138,162.724365234375,81.30877685546875,72.3115005493164,87.08010086850902,1.2480050517415116,30.516220295616268,1.0206759737454167,132.92545318603516,35.099449157714844,164.09906768798828
1134.081,-6.050969123840332,-88.5341796875,37.41534423828125,-0.8611844182014465,0.4192571938037872,0.7544140219688416,29.44612503051757,44.2964973449707,-92.1088409423828,-20.96310234069824,-16.360631942749023,-2.366114854812622,-0.9891181588172911,0.0358087159693241,-0.1934473216533661,162.04270935058594,81.61320495605469,72.03556823730469,96.3058834378528,1.219243910484032,26.69682447069038,1.0084933626436718,132.59658432006836,37.316707611083984,164.1444091796875
1156.509,-7.571529865264893,-96.01051330566406,38.00526809692383,-0.8633333444595337,0.3846863508224487,0.6775512099266052,29.03902244567871,42.2952766418457,-92.48316955566406,-9.632736206054688,-18.080810546875,-0.0721085369586944,-0.9848157167434692,0.0310214906930923,-0.1769871711730957,161.18362426757812,81.9417953491211,71.3612289428711,103.53621169830753,1.162928929143042,20.48683764001964,1.0010738172530682,132.1446018218994,39.64651870727539,163.84439849853516
1171.503,-4.361716747283936,-104.94293212890624,43.67230224609375,-0.7935438752174377,0.3982816934585571,0.8032819628715515,28.7099609375,40.03873443603516,-92.82786560058594,-11.766304969787598,-18.227703094482425,0.4054145514965057,-1.0065526962280271,0.1145650595426559,-0.161109447479248,159.8124542236328,82.26014709472656,70.22650146484375,113.75110355627292,1.197331241183532,21.69929615681618,1.0257824999574678,131.1024932861328,42.221412658691406,163.0543670654297
1194.753,-2.304555177688598,-110.7619171142578,44.248512268066406,-0.7671613097190857,0.4273342192173004,0.829355001449585,28.42424392700196,37.67498016357422,-93.19649505615234,-13.157700538635254,-19.65571975708008,0.6850950717926025,-1.0550436973571775,0.1098581999540329,-0.1207910999655723,158.16822814941406,82.62202453613281,68.84251403808594,119.29561641288396,1.2078827461609856,23.663088511237603,1.0676031646923576,129.7439842224121,44.947044372558594,162.03900909423828
1216.2900000000002,4.581093311309815,-114.68126678466795,46.61995697021485,-0.7168132066726685,0.4155990481376648,0.7987795472145081,28.30914688110352,35.23374938964844,-93.53410339355467,-14.79355239868164,-24.32635498046875,0.8336451649665833,-1.0521736145019531,0.0031494675204157,-0.105893075466156,156.44036865234375,83.09098052978516,67.37071990966797,123.87977944429753,1.1509094261154964,28.48360411656833,1.0574935355033843,128.13122177124023,47.85723114013672,160.90482330322266
1238.904,9.548591613769531,-119.01663970947266,50.70266342163086,-0.6799459457397461,0.4755514562129974,0.8431280255317688,28.351123809814453,32.668025970458984,-93.81299591064452,-2.8546321392059326,-30.32587623596192,1.9256242513656616,-0.9991896748542786,-0.0016713719815015,-0.1129000335931778,154.182373046875,83.6454086303711,65.13013458251953,129.7185268478954,1.1829372528039344,30.520742502215025,1.005549211826572,125.83124923706056,50.97738265991211,158.94313049316406
1260.924,2.0962698459625244,-121.88113403320312,52.45829772949219,-0.6497187614440918,0.4490821659564972,0.8516568541526794,28.246562957763672,30.050317764282227,-94.08644104003906,5.474896430969238,-25.61021614074707,0.988879919052124,-1.0050084590911863,0.0591317489743232,-0.0738231837749481,151.91513061523438,84.11276245117188,62.70680236816406,132.70749105142016,1.16151997743382,26.20754748540821,1.0094495673604864,123.6685676574707,54.06244468688965,156.79324340820312
1271.714,3.6287412643432617,-125.3989486694336,55.6687126159668,-0.6037966012954712,0.4185931086540222,0.8203957676887512,28.196510314941406,27.35879898071289,-94.32310485839844,1.5984840393066406,-27.67445182800293,-5.450793743133545,-1.0230547189712524,0.0347165614366531,-0.0989048779010772,150.3417205810547,84.66410064697266,61.06294631958008,137.24820455977516,1.1012900353631716,28.25139974646489,1.0284106050211463,122.14521026611328,57.305301666259766,155.38605117797852
1293.83,12.295293807983398,-129.8428497314453,60.39284133911133,-0.5949874520301819,0.4813009798526764,0.8960065245628357,28.361064910888672,24.54290199279785,-94.50763702392578,3.250694274902344,-29.14971923828125,-5.074843883514404,-0.9949514865875244,0.0060473359189927,-0.0625603720545768,148.26400756835938,85.25463104248047,58.88700485229492,143.7276423003536,1.178341373855508,29.766208784149025,0.9969347175648208,119.9029426574707,60.71172904968262,153.3946418762207
1316.046,9.43013858795166,-133.2479248046875,61.95150375366211,-0.5527712106704712,0.4623973965644836,0.8679915070533752,28.47004508972168,21.671459197998047,-94.70211791992188,6.8944244384765625,-27.902109146118164,-4.785161018371582,-1.0015562772750854,0.0292159840464591,-0.0651422664523124,145.7286834716797,85.80194091796875,56.18688583374024,147.24783800071103,1.1281740202701445,29.13689326457948,1.0040976372601793,117.258638381958,64.1304817199707,150.8890037536621
1338.815,21.870983123779297,-137.48193359375,65.77024841308594,-0.4952422082424164,0.4471203088760376,0.913272500038147,28.82276153564453,18.68560791015625,-94.88289642333984,0.4496040940284729,-24.62493705749512,-9.206220626831056,-1.0521529912948608,0.0323450192809104,-0.0465932711958885,143.89974975585938,86.34783172607422,54.33691787719727,153.96541021864604,1.1310384939338516,26.293424409096147,1.0536807155318633,115.07698822021484,67.66222381591797,149.2198143005371
1361.206,19.662147521972656,-139.51141357421875,69.57850646972656,-0.4417198300361633,0.5206106901168823,0.9589024782180786,29.16964340209961,15.618898391723633,-95.0262451171875,-5.225244522094727,-20.021026611328125,-12.812450408935549,-1.046431064605713,0.0337902605533599,-0.0091195665299892,143.0993194580078,86.87725830078125,53.6150016784668,157.13434737577364,1.177134597930044,24.337287695399063,1.0470161990980869,113.9296760559082,71.25835990905762,148.6412467956543
1371.4489999999998,11.490286827087402,-141.00302124023438,68.2750244140625,-0.3858397901058197,0.4361068606376648,0.8780409693717957,29.32590675354004,12.564759254455566,-95.22388458251952,-4.652805805206299,-17.128782272338867,-12.91705322265625,-1.0437387228012085,0.0118373641744256,-0.0066228327341377,142.9586181640625,87.373779296875,53.541141510009766,157.08391912918253,1.0535736715671598,21.952085275688184,1.0438268566092368,113.63271141052246,74.80902004241943,148.7650260925293
1398.634,22.64249420166016,-145.49464416503906,70.322998046875,-0.3409631848335266,0.4797132313251495,0.9229175448417664,29.71855354309082,9.41053295135498,-95.44037628173828,-3.3923184871673584,-14.080018997192385,-12.44004726409912,-1.030782699584961,0.0169284380972385,0.0039402786642313,143.34239196777344,87.8240737915039,53.97621536254883,163.17689198745126,1.0946037969498332,19.09213281989982,1.0309292272392043,113.62383842468262,78.41354084014893,149.4165916442871
1418.727,26.496376037597656,-148.0878143310547,68.93928527832031,-0.2793355286121368,0.5051943063735962,0.8667464256286621,30.21294403076172,6.232663154602051,-95.72607421875,2.6458425521850586,-15.653846740722656,-7.549766540527344,-1.032066822052002,0.048303335905075,0.0185676775872707,140.9420928955078,88.2463150024414,51.48595428466797,165.48318268380126,1.041392813052492,17.57960111633517,1.0333633901445618,110.7291488647461,82.01365184783936,147.21202850341797
1441.364,31.77740859985352,-152.35040283203125,68.8074951171875,-0.2201565653085708,0.532771110534668,0.9483484625816344,30.80796241760254,2.9771554470062256,-96.0891571044922,3.689865112304688,-14.371885299682615,-6.917827129364014,-1.021772384643555,0.0565746612846851,0.0323926620185375,137.64234924316406,88.66205596923828,48.06579208374024,170.16145369826276,1.1098102432171728,16.37139345950739,1.0238499806477024,106.83438682556152,85.68490052223206,144.15494918823242
1451.9899999999998,7.034135818481445,-152.45053100585938,68.34217834472656,-0.1246019974350929,0.5141404271125793,0.9249175190925598,30.92204666137696,-0.2880524694919586,-96.48229217529295,0.7792475819587708,-14.009584426879885,-5.824041843414307,-1.01969313621521,0.0240304395556449,0.0671428591012954,132.52919006347656,89.14498901367188,42.81513214111328,167.2163174202319,1.065522619976064,15.191943457033554,1.022183798344478,101.6071434020996,89.43304148316383,139.29742431640625
1473.872,2.3975307941436768,-152.2613983154297,67.66915130615234,-0.1168714165687561,0.4459455609321594,0.835273802280426,30.97988510131836,-3.5533034801483154,-96.88665771484376,-7.292841911315918,-6.238833904266357,-12.385279655456545,-1.0111563205718994,0.0267212707549333,0.0033115164842456,135.25747680664062,90.0,45.66383743286133,166.63851778437584,0.9540485816256352,15.668559084112845,1.0115147537652065,104.27759170532228,93.55330348014832,142.55049514770508
1501.095,12.45515251159668,-155.31919860839844,67.84227752685547,-0.0573120936751365,0.4336304068565368,0.7998961210250854,31.243745803833008,-6.830267429351807,-97.32778930664062,-12.389766693115234,-8.07359790802002,-3.1342661380767822,-0.9824621677398682,0.009138761088252,0.0093947714194655,131.0245361328125,90.0,41.54140853881836,169.94634123885436,0.91167637364526,15.116644009650674,0.9825495863946884,99.78079032897948,96.8302674293518,138.86919784545898
1511.247,21.67196083068848,-155.9725799560547,68.4772720336914,0.0193189512938261,0.4777982234954834,0.8177028894424438,31.734357833862305,-10.131187438964844,-97.79158782958984,-1.2250763177871704,-4.053165912628174,-0.703746497631073,-0.9992161989212036,-0.0459332913160324,0.0177377965301275,128.58644104003906,90.0,39.01045227050781,171.71562645714846,0.947260460304902,4.292344934021723,1.0004286625559096,96.85208320617676,100.13118743896484,136.80204010009766
1534.087,-5.720616340637207,-154.59539794921875,69.07198333740234,0.0828775316476821,0.5440312623977661,0.9135563373565674,31.704561233520508,-13.415567398071287,-98.25438690185548,0.3667988777160644,-2.3119688034057617,-2.3575222492218018,-1.0423107147216797,-0.0234840884804725,0.0340919345617294,127.76376342773438,90.0,38.08847427368164,169.4207820798749,1.0665007647641265,3.3222962420878512,1.0431324884392867,96.05920219421388,103.41556739807127,136.3428611755371
1554.076,-17.613073348999023,-149.7074432373047,62.49778366088867,0.1017327308654785,0.34886234998703,0.6268240809440613,31.462331771850582,-16.553434371948242,-98.76558685302734,-1.1577820777893066,-1.0794273614883425,-10.175009727478027,-0.970093846321106,0.0333913154900074,0.0151840941980481,134.6304168701172,90.0,45.072147369384766,163.18244965673014,0.7245432466176108,10.2973999496306,0.9707871071130096,103.1680850982666,106.55343437194824,143.8377342224121
1571.555,15.090970993041992,-150.9276580810547,63.56300354003906,0.1320705264806747,0.3501382172107696,0.694139838218689,31.909162521362305,-19.75228500366211,-99.28699493408205,9.299927711486816,2.0165865421295166,-3.25018572807312,-0.9484068155288696,-0.054953958839178,-0.0001402525231242,142.90814208984375,90.0,53.34389877319336,164.46017997793754,0.7885870339529343,10.055793553357612,0.9499976026309116,110.99897956848145,109.75228500366212,152.6308937072754
1596.321,16.016342163085938,-149.2445526123047,60.44629669189453,0.2581576108932495,0.4530294835567474,0.719799816608429,32.451297760009766,-22.87862014770508,-99.8965072631836,17.71314811706543,0.3032203316688537,4.6667304039001465,-0.998465657234192,0.0090771708637475,0.02553666010499,136.79049682617188,90.0,46.629974365234375,161.81537159521207,0.8888154144834188,18.32009638209696,0.9988334118942528,104.33919906616212,112.87862014770508,146.52648162841797
1615.967,-21.168302536010746,-142.6038818359375,57.08016204833984,0.2593897879123688,0.4409363269805908,0.7285717725753784,32.299407958984375,-25.85996055603028,-100.52338409423828,19.59786605834961,-4.411481857299805,6.10850191116333,-0.9991551637649536,0.0038798020686954,-0.0154238203540444,126.5114517211914,90.0,35.633026123046875,155.05518064998293,0.8902385828068715,20.99645974484706,0.999281736236872,94.21204376220705,115.85996055603027,136.15641021728516
1638.716,-16.107421875,-136.91903686523438,50.74300384521485,0.3274431526660919,0.3012708127498626,0.5740723609924316,32.242366790771484,-28.713802337646484,-101.17855072021484,30.07173538208008,-3.162431478500366,7.566686630249023,-0.9615594744682312,0.0146621009334921,-0.0215322449803352,118.26625061035156,90.0,26.57320976257324,146.90515353382986,0.7263210010032046,31.169937252205788,0.9619122817166323,86.02388381958008,118.71380233764648,127.75176048278809
1651.189,16.338579177856445,-130.328369140625,49.2372932434082,0.3415217101573944,0.269471526145935,0.4518510103225708,32.88502502441406,-31.47294044494629,-101.8308334350586,40.158653259277344,-11.399846076965332,11.960075378417969,-0.920019507408142,-0.0209259297698736,0.0774295926094055,99.32884979248048,90.0,6.485054016113281,140.27381800729412,0.6272330646910913,43.42484686484005,0.9235091392941992,66.4438247680664,121.47294044494627,108.31588745117188
1673.586,6.880471229553223,-125.72981262207033,49.21524429321289,0.3863486349582672,0.4499027132987976,0.6687204837799072,33.38565444946289,-34.046531677246094,-102.49240112304688,64.1563491821289,-36.69277572631836,-58.04472351074219,-1.0374091863632202,0.0104891695082187,-0.1131915152072906,-16.145315170288086,90.0,-110.50992584228516,135.19418233475227,0.893792372195338,93.97652291035062,1.0436187818081335,-49.53096961975098,124.0465316772461,-8.017524719238281
1696.418,-28.192785263061523,-116.37545776367188,41.14585876464844,0.4231116771697998,0.3484784364700317,0.5470989346504211,33.226402282714844,-36.42681121826172,-103.20777130126952,27.498592376708984,7.373540878295898,14.02309226989746,-0.9986456632614136,-0.0119738914072513,-0.1057605743408203,17.176969528198242,90.0,-79.29344940185547,126.61383022432294,0.7744533274108031,31.736238034687663,1.004301664795574,-16.0494327545166,126.42681121826172,23.914321899414062
1718.594,-7.864887237548828,-111.06871795654295,38.56792449951172,0.4753764867782593,0.20247782766819,0.4576296806335449,33.48297500610352,-38.74333953857422,-103.91527557373048,37.2069091796875,20.34501838684082,-3.967150926589966,-0.9367659091949464,0.0031637256033718,-0.0613341927528381,139.6864013671875,90.0,45.72091293334961,117.83718156833812,0.6902209787275595,42.59122151735905,0.9387770028021404,106.20342636108398,128.74333953857422,149.63618850708008
1740.956,9.875395774841309,-100.38613891601562,35.804931640625,0.5310927629470825,0.3343707025051117,0.3994205594062805,34.138187408447266,-40.81898880004883,-104.60902404785156,33.367488861083984,23.170373916625977,3.7787482738494873,-0.9427361488342284,0.0414365082979202,-0.0534755438566207,165.44998168945312,90.0,70.8288803100586,107.03687896218372,0.7439086454834047,40.79870682813299,0.9451603378948344,131.31179428100586,130.81898880004883,175.43790435791016
1751.296,-9.003199577331543,-90.4454345703125,32.993534088134766,0.544939398765564,0.4425685703754425,0.5975590348243713,34.40703201293945,-42.63194274902344,-105.26201629638672,29.64236831665039,25.657846450805664,0.1236082762479782,-1.056640625,0.0480339713394641,-0.0762080773711204,171.65277099609375,90.0,75.9722671508789,96.69543695990444,0.9219016693288778,39.20472373221162,1.0604736412847016,137.2457389831543,132.63194274902344,181.2342834472656
1776.1180000000002,-32.086570739746094,-81.25662231445312,24.17513084411621,0.5720067024230957,0.3315837681293487,0.4600876867771148,34.27264404296875,-44.2462158203125,-105.98628997802734,40.84769821166992,42.71923828125,10.083127975463867,-1.0199965238571167,0.0127475587651133,-0.1102395802736282,170.20628356933594,88.43901824951172,73.35133361816406,90.64559362219738,0.8054937258773145,59.959463292223184,1.026015679214493,135.9336395263672,132.68523406982422,179.3376235961914
1796.048,-9.974536895751951,-77.46305084228516,18.22503471374512,0.6144369840621948,0.151371881365776,0.2807921469211578,34.64617156982422,-45.73046875,-106.79708099365234,45.58370590209961,43.27991485595703,14.822941780090332,-0.8461326360702515,0.0369735732674598,-0.0804850533604621,167.88394165039062,87.3356704711914,69.95016479492188,80.20079502346836,0.6923080843268071,64.58130439007832,0.8507557385982143,133.2377700805664,133.0661392211914,176.74724578857422
1818.829,3.674125194549561,-66.7134780883789,19.982566833496094,0.7022035717964172,0.388728529214859,0.414421796798706,35.250186920166016,-47.08964157104492,-107.4826202392578,33.4273796081543,40.74277114868164,8.926955223083496,-0.953521728515625,0.0744777545332908,-0.0989298447966575,167.95803833007812,86.39776611328125,69.26774597167969,69.73872906677447,0.9032968234921794,53.451413806338486,0.9615288538901144,132.7078514099121,133.48740768432617,176.7503662109375
1841.093,-22.467205047607425,-54.15243148803711,12.055581092834473,0.7251427173614502,0.3412341475486755,0.4264596700668335,35.30095672607422,-48.16790008544922,-108.14065551757812,25.76852035522461,33.10043716430664,-1.216893196105957,-0.9672228097915648,0.0485116355121135,-0.1223651990294456,170.3113250732422,85.6828842163086,71.06657409667969,59.85480911508864,0.9078218736013866,41.9658958061968,0.9761386092633904,135.01036834716797,133.8507843017578,179.2072296142578
1851.19,-17.041528701782227,-43.91754531860352,7.386275768280029,0.7619149088859558,0.2489324808120727,0.366549015045166,35.39821243286133,-48.98223114013672,-108.72499084472656,25.401561737060547,28.81675910949707,6.702170372009277,-1.0386632680892944,0.0265918597579002,-0.0904197394847869,170.3271026611328,85.06652069091797,70.56802368164062,47.68355646373645,0.8813852102324662,38.99441026547164,1.0429306020880844,134.92889022827148,134.0487518310547,179.2930145263672
1881.007,-5.615905284881592,-35.20832824707031,2.73242712020874,0.7714846730232239,0.3080373704433441,0.2899753451347351,35.70977020263672,-49.58688735961914,-109.28400421142578,26.214054107666016,26.499845504760746,10.73074436187744,-1.0162700414657593,0.0509555041790008,-0.0834773480892181,169.38424682617188,84.49269104003906,69.09056854248047,35.757949159445126,0.8798643776659045,38.78875248181867,1.020965096480267,133.67447662353516,134.0795783996582,178.37457275390625
1901.021,-13.557658195495604,-23.79278564453125,-1.946065783500672,0.7716581225395203,0.3311270475387573,0.3203719854354858,35.822906494140625,-49.9707260131836,-109.77713775634766,22.319480895996094,18.25787734985352,12.530275344848633,-0.9635589122772216,0.0508327707648277,-0.0873991250991821,167.95159912109375,84.07685089111328,67.20008850097656,27.453486418052872,0.8987433386372479,31.440691993128112,0.9688489846620032,132.12869262695312,134.04757690429688,176.97722625732422
1910.892,-16.708818435668945,-11.027892112731934,-6.501930236816406,0.7957636117935181,0.2707271873950958,0.2989577054977417,35.76840591430664,-50.0736198425293,-110.1417999267578,16.074237823486328,6.069317817687988,6.689272880554199,-0.971737802028656,0.0369492582976818,-0.0993462353944778,167.22149658203125,83.9260025024414,66.1479263305664,21.049325755725125,0.8921371226027974,18.43811574018943,0.9775015488822958,131.4530906677246,133.9996223449707,176.28972625732422
1931.067,-6.33489990234375,-2.14547061920166,-9.633794784545898,0.7960329055786133,0.2363961935043335,0.2845168113708496,35.85807800292969,-49.99577331542969,-110.42391204833984,7.508212089538574,-5.6063995361328125,5.019654750823975,-0.9689520597457886,0.0280406791716814,-0.0676214694976806,166.16213989257812,84.0334243774414,64.94129943847656,11.727915539485956,0.8777820703454265,10.630235103595457,0.9717134541165112,130.30406188964844,134.0291976928711,175.3652114868164
1953.599,4.345652103424072,8.292815208435059,-11.771683692932127,0.7831711769104004,0.2930493950843811,0.2861502170562744,36.055450439453125,-49.72336196899414,-110.56832122802734,-1.0079541206359863,-11.172870635986328,4.319733142852783,-0.9497849941253662,0.0328288227319717,-0.0645126774907112,164.7227783203125,84.25054931640625,63.52643203735352,15.040878074490534,0.8838082297783248,12.021193958307691,0.952539317941632,128.66732788085938,133.9739112854004,174.09475326538086
1971.036,3.722395896911621,20.04043960571289,-14.122726440429688,0.7844206690788269,0.2863612771034241,0.324761688709259,36.120750427246094,-49.23318862915039,-110.55616760253906,-10.104938507080078,-14.334634780883787,2.7156169414520264,-0.9668304920196532,-0.0013817090075463,-0.0752665251493454,163.35067749023438,84.53340911865234,62.36430740356445,24.79771870384012,0.8959847775245225,17.74728463472354,0.9697567526069636,127.22992706298828,133.7665977478027,172.92047500610352
1993.427,-0.2616099715232849,32.145408630371094,-13.443873405456545,0.7714832425117493,0.2859489023685455,0.3393842577934265,35.93350601196289,-48.56655883789063,-110.31336212158205,-16.76048469543457,-17.55584144592285,-0.9217864274978638,-0.956368088722229,-0.0170046333223581,-0.0969964191317558,162.39959716796875,84.88644409179688,61.750221252441406,34.84441803119516,0.8900195743241907,24.2893208286728,0.9614246637178704,126.46609115600586,133.4530029296875,172.06358337402344
2015.804,2.026913642883301,42.35033416748047,-14.727788925170898,0.7589457035064697,0.2466423958539962,0.3431025445461273,35.68812561035156,-47.70734405517578,-109.92938232421876,-23.556865692138672,-20.923900604248047,-5.696357727050781,-0.9501707553863524,0.0019327928312122,-0.0698899701237678,161.83721923828125,85.34498596191406,61.66958999633789,44.88392752018652,0.8686486104159478,32.01849510967752,0.9527396328501828,126.14909362792967,133.05233001708984,171.59897232055664
2030.718,10.076627731323242,51.68512344360352,-14.738666534423828,0.7307395935058594,0.2975800633430481,0.3719055652618408,35.51384735107422,-46.733497619628906,-109.40792083740234,-30.63170623779297,-22.14095497131348,-5.66380500793457,-0.9723053574562072,0.003089457983151,-0.0723475813865661,160.95306396484375,85.82476806640625,61.39570617675781,54.681977863178574,0.872266012801766,38.21782308358341,0.974998166880922,125.43921661376952,132.55826568603516,170.80362701416016
2053.41,6.116384983062744,62.24801254272461,-17.487937927246094,0.6880645155906677,0.3344071805477142,0.3983683586120605,35.223018646240234,-45.5836067199707,-108.80857849121094,-28.919727325439453,-16.184926986694336,-4.964845180511475,-0.9824754595756532,0.0045672594569623,-0.0890116840600967,160.39413452148438,86.17161560058594,61.39885330200195,64.94654112212172,0.8625301671015102,33.510478626973445,0.986509994083462,125.17111587524414,131.75522232055664,170.2074317932129
2075.833,1.1805027723312378,71.43751525878906,-19.37095260620117,0.6806474924087524,0.3012664318084717,0.4301539957523346,34.74674987792969,-44.26451873779297,-108.10050201416016,-28.97132682800293,-15.039215087890623,-5.876574993133545,-0.9773319959640504,0.0117648858577013,-0.0591303706169128,160.02288818359375,86.51770782470703,61.59225082397461,74.02665721222925,0.8596946736595678,33.167000200270174,0.9791897893685436,125.27613830566406,130.7822265625,169.69275283813477
2098.881,2.4731125831604004,79.66441345214844,-22.506664276123047,0.6566434502601624,0.3018885850906372,0.3855116367340088,34.30610656738281,-42.75420379638672,-107.3777313232422,-35.51940155029297,-21.47057342529297,-9.304959297180176,-0.9868379831314088,0.0353913120925426,-0.0628586858510971,159.64144897460938,87.01311492919922,61.94099426269531,82.81959305238071,0.8191071728625818,42.53464090860567,0.9894710527900374,125.33534240722656,129.76731872558594,169.3187255859375
2120.699,8.618776321411133,87.54513549804688,-22.940135955810547,0.6255839467048645,0.3740507066249847,0.5256147384643555,33.950660705566406,-41.06951522827149,-106.57723236083984,-40.47089385986328,-18.21381378173828,-9.740873336791992,-0.9796247482299804,0.0209043230861425,-0.0177507530897855,159.75750732421875,87.4819107055664,62.8917350769043,90.91030685417896,0.8986323268124945,45.43699897281492,0.9800085343014096,125.80684661865234,128.5514259338379,169.46896743774414
2130.777,-1.605367660522461,96.530517578125,-27.92251968383789,0.6016504764556885,0.3790019750595093,0.4850131869316101,33.446475982666016,-39.19585418701172,-105.8097152709961,-36.08432388305664,-7.954989910125732,-6.788720607757568,-0.9985049962997437,0.0005980943678878,-0.0597715377807617,160.82566833496094,87.69683074951172,64.69210052490234,100.50067230979336,0.8607343285915363,37.56922972404048,1.0002925682424624,127.37919235229492,126.89268493652344,170.50181579589844
2153.2360000000003,1.7160935401916504,103.96784210205078,-28.009620666503903,0.5621004700660706,0.298321783542633,0.4469632506370544,32.95104217529297,-37.203556060791016,-104.95682525634766,-27.365108489990234,-11.810431480407717,-2.3136250972747803,-0.994102656841278,-0.0035991794429719,-0.036676425486803,159.6656494140625,87.97957611083984,64.06800079345703,107.6884210037323,0.7776432166518251,29.8946201767656,0.9947855078448016,126.71460723876952,125.18313217163086,169.0248260498047
2173.331,8.589207649230957,107.17008209228516,-32.625755310058594,0.5647030472755432,0.3142760097980499,0.5060496926307678,32.6666259765625,-35.120975494384766,-104.193359375,-27.906715393066406,-19.779699325561523,-3.4004335403442383,-0.9698094725608826,0.019926069304347,0.0053611248731613,156.57786560058594,88.48896026611328,61.52450942993164,112.35497716283228,0.8208198543825331,34.37417952041221,0.9700289701687494,123.91123962402344,123.60993576049805,165.71786880493164
2195.8250000000003,12.984610557556152,114.38999938964844,-32.88639068603516,0.4935296773910522,0.4794825315475464,0.6849384903907776,32.494258880615234,-32.805076599121094,-103.3895034790039,-26.239097595214844,-17.051530838012695,-4.524868965148926,-0.9752165675163268,0.0328545235097408,0.0088350307196378,153.46900939941406,89.0057373046875,58.91638946533203,119.7296402903212,0.9708840178640068,31.61833938844156,0.9758098334415348,120.97475051879884,121.8108139038086,162.30589294433594
2219.1200000000003,-18.686010360717773,118.9442901611328,-39.10353088378906,0.4229249060153961,0.4944442212581634,0.7182230353355408,31.77444839477539,-30.318477630615234,-102.69427490234376,-25.724096298217773,-12.508299827575684,-4.669556617736816,-1.1015764474868774,0.0792918354272842,0.0229606330394744,149.9484100341797,89.5589828491211,55.8690299987793,126.59382794084416,0.9691155207457576,28.98260605850966,1.1046651327406012,118.1739616394043,119.87746047973631,158.56330490112305
2240.593,-19.719745635986328,124.0386734008789,-43.9728889465332,0.3912572264671325,0.2770501971244812,0.49568772315979,31.09231758117676,-27.788957595825195,-102.08270263671876,-15.80455493927002,-10.656953811645508,6.825331687927246,-0.974151372909546,0.0045896838419139,0.0128024406731128,138.96876525878906,90.0,45.0063591003418,133.07169432040027,0.6895979610474523,20.24696950217918,0.9742463061395256,107.8764476776123,117.7889575958252,147.08906173706055
2252.267,19.66656875610352,122.44497680664062,-43.09679412841797,0.3622163832187652,0.2965558171272278,0.552045464515686,31.23977470397949,-25.267274856567383,-101.50028228759766,-13.45361328125,-11.877349853515623,6.5159196853637695,-0.91747784614563,0.0171072706580162,-0.0061578820459544,125.9352569580078,90.0,31.979793548583984,131.2892986345976,0.723809543897026,19.092625780922464,0.917657984430301,94.69548225402832,115.26727485656738,133.48007583618164
2278.177,11.929998397827148,124.93387603759766,-48.542118072509766,0.3017655313014984,0.5722567439079285,0.8557485938072205,31.29556655883789,-22.55331420898437,-100.99696350097656,-10.425289154052734,-15.131539344787598,-6.749016761779785,-1.0352600812911987,0.0969238430261612,0.0097782043740153,113.33810424804688,90.0,19.244747161865234,134.5627566249869,1.0727748471290772,19.5754786439374,1.039833294592359,82.04253768920898,112.55331420898438,120.2417106628418
2298.984,-25.37150382995605,130.0740966796875,-51.53245162963867,0.2606594264507293,0.5028539299964905,0.8141345977783203,30.61752700805664,-19.73536872863769,-100.51040649414062,-15.90581226348877,-11.302286148071287,-5.371049880981445,-1.060992956161499,0.0943423733115196,0.0490366891026496,98.00835418701172,90.0,3.786787748336792,142.19204409737983,0.9917764641340336,20.238199345747752,1.0663072415136814,67.39082717895508,109.7353687286377,104.29719424247742
2320.516,-19.18986701965332,131.76881408691406,-53.41273880004883,0.2195204943418502,0.2871001660823822,0.6053222417831421,30.05072975158692,-16.918840408325195,-100.06776428222656,-16.936527252197266,2.2414705753326416,14.821106910705566,-0.93218594789505,-0.0725742205977439,0.0380698442459106,96.9703369140625,90.0,3.262474298477173,143.4719206960928,0.7050040916179072,22.61714738341392,0.9357814766222244,66.91960716247559,106.9188404083252,103.33023858070374
2340.586,11.139849662780762,131.15673828125,-52.99933242797852,0.1471654623746872,0.40116947889328,0.7035955786705017,30.15856170654297,-14.066576957702637,-99.65440368652344,0.3909133076667785,1.4556818008422852,5.0633392333984375,-0.9759899377822876,-0.0238693710416555,0.0016173556214198,97.87360382080078,90.0,4.188506603240967,141.89825751184205,0.8231897487433498,5.28291840859636,0.9762831153745332,67.71504211425781,104.06657695770264,103.8429102897644
2350.812,0.3373790383338928,134.60231018066406,-58.60014724731445,0.1059725433588028,0.4538671374320984,0.8316410779953003,30.104665756225582,-11.112204551696776,-99.31173706054688,4.247015476226807,-2.801635265350342,3.425821304321289,-1.0431547164916992,0.0307283010333776,0.0376951321959495,93.80387115478516,90.0,-0.0152947884052991,146.80556184284757,0.9533375273196404,6.133722542184828,1.0442877544118505,63.69920539855957,101.11220455169678,99.29644227214158
2373.266,-12.917237281799316,135.86239624023438,-55.89059448242188,0.061884582042694,0.5623772144317627,1.0316061973571775,29.77933883666992,-8.142834663391113,-98.9162826538086,0.8995065093040466,4.939798355102539,0.0881554782390594,-0.9850008487701416,0.0383304990828037,0.0276893358677625,97.74574279785156,90.0,3.9371023178100586,147.47611427865627,1.176566691366182,5.02180158286821,0.9861351826999348,67.96640396118164,98.14283466339111,102.85338497161864
2395.67,-19.8132553100586,137.94923400878906,-62.52253341674805,0.0081681376323103,0.3391029834747314,0.5702495574951172,29.36518096923828,-5.065569877624512,-98.6443099975586,-0.1466082334518432,11.16315746307373,6.265005588531494,-1.0122591257095337,0.0085493549704551,-0.0151751339435577,106.58657836914062,89.46476745605469,12.92004108428955,152.7469261047226,0.6635074300241267,12.801869923719169,1.0124089656570834,77.22139739990234,94.5303373336792,111.56435108184814
2410.653,21.027238845825195,136.74441528320312,-58.74077224731445,-0.0673322528600692,0.3959451913833618,0.8461304903030396,29.73083877563477,-2.041500806808472,-98.31854248046876,-3.926047801971436,6.891875267028809,11.024483680725098,-1.02315092086792,0.0121151320636272,0.051495224237442,107.92724609375,89.00770568847656,14.3733549118042,150.30521683838975,0.9366125311329554,13.581275215023888,1.0245176140101526,78.19640731811523,91.04920649528503,112.69189739227296
2433.04,6.351969242095947,134.76185607910156,-63.96784973144531,-0.0700626149773597,0.5642002820968628,0.9682668447494508,29.85910987854004,0.9746679663658142,-98.08661651611328,7.112008094787598,2.2610466480255127,17.260507583618164,-1.0452885627746582,0.0344987548887729,0.0566110536456108,105.17225646972656,88.52342224121094,11.486187934875488,149.308376075831,1.122840777214963,18.8047364546545,1.0473887315372703,75.31314659118652,87.54875427484512,109.57280445098876
2455.636,-9.739646911621094,138.04306030273438,-63.89534759521485,-0.1373442858457565,0.4735499024391174,0.9011949300765992,29.65851783752441,4.058681964874268,-97.82599639892578,7.837818145751953,11.65412139892578,28.57765007019043,-1.066408634185791,0.0228110160678625,-0.030957531183958,107.28034210205078,87.78352355957031,13.50776195526123,152.42494108255622,1.0272610500502513,31.842299263731466,1.0671017225443216,77.62182426452637,83.72484159469604,111.333758354187
2477.779,-6.440080165863037,139.0084228515625,-61.96599197387695,-0.2189740687608719,0.4325618743896484,0.7286580204963684,29.562294006347656,7.166492938995361,-97.53135681152344,-22.78321075439453,25.750675201416016,29.79603576660156,-0.935740888118744,0.0204511284828186,0.0243537537753582,112.15567016601562,86.98408508300781,18.89363670349121,152.33056297909533,0.8752153613819076,45.4969857574387,0.9362811349570316,82.59337615966797,79.81759214401245,116.42499351501463
2499.0420000000004,14.02563762664795,136.06985473632812,-61.819557189941406,-0.2746557593345642,0.443073958158493,0.8346253037452698,29.87220001220703,10.219218254089355,-97.25665283203124,-6.494592189788818,14.929664611816406,10.41465187072754,-0.9762901067733764,0.0747336894273758,0.0352657958865165,114.6346664428711,86.65303039550781,21.490234375,150.11123052576684,0.984047618860878,19.32717223810658,0.9797811864281268,84.76246643066406,76.43381214141846,118.74688720703124
2518.981,6.354129791259766,133.4837646484375,-62.57828140258789,-0.2713009119033813,0.5631558299064636,0.9455204010009766,30.061586380004883,13.179075241088867,-96.99793243408205,-12.661087989807127,19.886032104492188,19.386445999145508,-1.0411816835403442,0.0158221330493688,0.0028019861783832,117.12698364257812,86.13233184814453,24.22014808654785,147.56128114591954,1.1334714386636708,30.521987327569565,1.0413056655760025,87.06539726257324,72.95325660705566,121.21808052062988
2540.518,-8.227198600769043,135.57730102539062,-59.70258331298828,-0.3823206722736358,0.515190601348877,0.9927471876144408,29.957374572753903,16.168561935424805,-96.67201232910156,-9.818857192993164,21.019046783447266,6.040030956268311,-1.0312954187393188,0.0274580102413892,-0.0053882412612438,121.0673370361328,85.83612823486328,28.37214088439941,148.36876289970942,1.1820056813240638,23.97273989793027,1.0316749566520518,91.1099624633789,69.66756629943848,125.04415321350098
2550.559,2.693425178527832,129.9292449951172,-55.7334098815918,-0.4451289474964142,0.4872886836528778,0.7638736963272095,30.12757682800293,19.03646469116211,-96.31906127929688,-0.1590096652507782,25.49101829528809,8.103157043457031,-0.9573981761932372,0.0246212910860776,-0.074019119143486,125.65296173095705,85.41284942626953,32.97052764892578,141.40394697894052,1.009501394281362,26.74842896088072,0.9605708228713072,95.5253849029541,66.37638473510742,129.28958892822266
2573.001,7.2261128425598145,127.1816864013672,-54.075958251953125,-0.5017591714859009,0.4705057144165039,0.7841265797615051,30.38299560546875,21.80696678161621,-95.95533752441406,4.567332267761231,30.505006790161133,8.649428367614746,-0.9943561553955078,0.0561351217329502,-0.0601245425641536,130.1187286376953,84.88755798339844,37.36768341064453,138.38933240526922,1.0430687352985315,32.03480254970223,0.9977526127670412,99.73573303222656,63.08059120178223,133.3230209350586
2595.496,3.8606090545654297,127.09764862060548,-50.6661262512207,-0.4729642570018768,0.4987627565860748,0.9021925926208496,30.6240463256836,24.527008056640625,-95.50861358642578,-10.41948699951172,38.65811538696289,3.210271120071411,-1.065603733062744,0.0959469601511955,-0.0426489971578121,135.12887573242188,84.302978515625,42.62944030761719,136.87867962711988,1.134200577472348,40.16617277348061,1.0707642467126357,104.50482940673828,59.775970458984375,138.13805389404297
2619.165,9.437118530273438,124.02439880371094,-50.64385223388672,-0.5061262845993042,0.492975115776062,0.8829830884933472,30.99250030517578,27.184701919555664,-95.07096862792967,-24.08194923400879,22.67523002624512,-1.910689115524292,-1.0780868530273438,0.0701153576374054,-0.0545979440212249,137.8207244873047,84.00686645507812,45.818878173828125,134.297842402118,1.1308613598942925,33.13241718541959,1.0817432049883038,106.8282241821289,56.82216453552246,140.8898468017578
2640.517,10.060585021972656,119.81881713867188,-46.6678466796875,-0.5923151969909668,0.6050411462783813,0.9449902772903442,31.43927764892578,29.70841217041016,-94.5635223388672,-15.525242805480955,18.22758102416992,-0.7567070126533508,-0.9814716577529908,0.0387765765190124,-0.0592046380043029,139.86480712890625,83.75885009765625,48.19486999511719,128.9792705252036,1.2688257190999823,23.95517646908109,0.9840200338510182,108.42552947998048,54.050437927246094,142.75839233398438
2650.539,-12.819585800170898,117.60440826416016,-50.20891189575195,-0.6390811204910278,0.4466737806797027,0.7509351968765259,31.37626838684082,32.27400588989258,-94.14952850341795,2.2142703533172607,19.359825134277344,-4.670062065124512,-0.9441590309143066,0.0369652770459651,-0.1212267279624939,142.9212646484375,83.50326538085938,51.22660827636719,128.51487640349885,1.0825182745906663,20.037846743587284,0.9526272234912354,111.54499626159668,51.2292594909668,145.37613677978516
2675.475,-8.498021125793457,111.348876953125,-37.63957977294922,-0.7333851456642151,0.4729154706001282,0.7798318862915039,31.54825592041016,34.62049102783203,-93.5284652709961,-0.2979570925235748,33.68253707885742,-4.530449867248535,-0.9103631973266602,0.0484625101089477,-0.1913152039051056,147.08621215820312,82.94862365722656,55.43638229370117,117.8453508937065,1.1703164465608555,33.98716020054106,0.9315102109897302,115.53795623779295,48.32813262939453,148.9648475646973
2699.156,0.4718073010444641,101.1968765258789,-37.0244140625,-0.7305015325546265,0.4204414188861847,0.8183308839797974,31.82564353942871,36.76080322265625,-93.02224731445312,4.270442008972168,25.246925354003903,-5.959559917449951,-1.0494991540908811,0.0707702785730362,-0.1727917492389679,150.11692810058594,82.54732513427734,58.41507339477539,107.7582370744564,1.1747633427439088,26.28992714315343,1.0659802509295575,118.29128456115724,45.78652191162109,151.43732070922852
2719.147,0.6082919836044312,97.16659545898438,-31.35608673095703,-0.68658447265625,0.4926596283912658,0.802742063999176,32.22148895263672,38.72626495361328,-92.39352416992188,2.6695942878723145,16.43354034423828,-5.1377058029174805,-1.048543930053711,0.0590839236974716,-0.1356667280197143,152.07032775878906,82.30284881591797,60.33790969848633,102.10250470633196,1.165549899769606,17.42366215308595,1.0589337771473462,119.84883880615234,43.57658386230469,152.7314338684082
2740.4,-1.5343103408813477,95.56487274169922,-33.78425216674805,-0.7076046466827393,0.4291486144065857,0.6926005482673645,32.56181335449219,40.71571731567383,-91.8094253540039,0.4287908673286438,12.277816772460938,-7.567001819610596,-1.031359314918518,0.0784654468297958,-0.1040309816598892,153.7703094482422,82.15892028808594,62.06134796142578,101.37245535561286,1.0791516986570286,14.428727000120892,1.0395582273064432,121.20849609375,41.44320297241211,153.8707733154297
2760.541,9.989909172058104,91.34095001220705,-31.89103126525879,-0.738459050655365,0.4662618637084961,0.7073477506637573,33.17250442504883,42.5918197631836,-91.19760131835938,6.549472808837891,8.193161964416504,-7.042723655700684,-0.9818233847618104,0.0984366610646247,-0.1303553730249405,155.1739044189453,82.05802917480469,63.35985565185547,97.26255862129162,1.1238606387861532,12.634217567361826,0.995318772244933,122.00139999389648,39.46620941162109,154.55745697021484
2770.457,8.886853218078613,83.759033203125,-31.652210235595703,-0.7739053964614868,0.4751594066619873,0.7352327704429626,33.718963623046875,44.31967926025391,-90.65824127197266,8.076337814331055,8.600122451782227,-4.10510778427124,-0.960495948791504,0.0770334601402282,-0.1631786823272705,156.34263610839844,81.90763854980469,64.39422607421875,89.98007677280688,1.168449079397479,12.491647153091012,0.9772992908992268,122.62367248535156,37.58795928955078,155.0524673461914
2792.934,0.4788728654384613,77.72393035888672,-28.83654022216797,-0.739685595035553,0.4000652730464935,0.7426266074180603,34.060977935791016,45.895633697509766,-90.1499252319336,12.073217391967772,3.648224353790283,-5.203524112701416,-0.9915859699249268,0.0135047603398561,-0.1530607640743255,157.63644409179688,81.87903594970703,65.47321319580078,82.90226005145479,1.121909657791626,13.643635231153269,1.0034205059708572,123.57546615600586,35.983402252197266,155.62313842773438
2810.2520000000004,-0.4811384081840515,76.15127563476562,-22.02288055419922,-0.7408698201179504,0.4018177986145019,0.5479194521903992,34.5950927734375,47.411502838134766,-89.41625213623047,14.729447364807127,1.5783050060272217,-8.266300201416016,-0.9988452196121216,-0.0313597656786441,-0.1518831402063369,159.41697692871094,81.91861724853516,66.99004364013672,79.27329653088992,1.0052668102218614,16.96406158278744,1.0108133833326232,124.82188415527344,34.50711441040039,156.4062957763672
2832.716,7.558975696563721,73.81080627441406,-21.223995208740234,-0.7469228506088257,0.4242648780345917,0.6131858825683594,35.29913711547852,48.83560180664063,-88.67402648925781,19.534040451049805,-2.7352139949798584,-9.140708923339844,-1.0174267292022705,0.0156071651726961,-0.1025210618972778,160.95980834960938,82.0576171875,68.17867279052734,77.17273617723393,1.0554105163757177,21.73965711695584,1.0226980497842475,125.66067123413086,33.222015380859375,156.85269927978516
2853.849,7.689621925354004,74.02037048339844,-17.945100784301758,-0.7950983047485352,0.5026348233222961,0.6926848292350769,36.12715148925781,50.18181991577149,-87.79033660888672,24.41844749450684,4.39593505859375,-9.97095775604248,-0.9560281038284302,0.1102032959461212,-0.1337521821260452,162.7132110595703,82.02018737792969,69.49097442626953,76.55176140372731,1.1681760794001297,26.73957407391046,0.9716090509925536,126.5860595703125,31.838367462158203,157.28131103515625
2871.252,-7.580373287200928,70.08531188964844,-16.60251235961914,-0.8356912136077881,0.4269513487815857,0.6125851273536682,36.6525764465332,51.48291778564453,-86.91053009033203,14.232806205749512,0.2429592013359069,-11.676287651062012,-0.9764460325241088,0.0639307126402854,-0.1804502606391906,164.54721069335938,82.0516128540039,71.0550308227539,72.42276174307295,1.120681844674296,18.41106990303059,0.995035821976033,127.89463424682616,30.56869506835937,157.96556091308594
2892.652,-3.28467869758606,65.3038558959961,-14.438295364379885,-0.8220363259315491,0.3754227459430694,0.5079871416091919,37.29433441162109,52.7050895690918,-86.01324462890625,8.213924407958984,-0.3507432639598846,-12.436992645263672,-1.0013365745544434,0.0024022324942052,-0.1409649103879928,166.54275512695312,82.12370300292969,72.89771270751953,66.96153434667154,1.036695179579201,14.90873438878097,1.0112130399782615,129.24842071533203,29.41861343383789,158.91095733642578
2915.136,8.297475814819336,58.36240768432617,-11.265898704528809,-0.8753812909126282,0.4150559902191162,0.6584266424179077,38.116676330566406,53.72133255004883,-85.168212890625,17.87328338623047,-0.5870767831802368,-9.320361137390137,-0.9811647534370422,0.0440116673707962,-0.1751961410045623,168.1605682373047,82.15166473388672,74.1728515625,60.01615790126614,1.1713622509464567,20.166012245489284,0.99765474392438,130.04389190673828,28.43033218383789,159.341064453125
2937.776,-5.696985244750977,50.21858215332031,-11.042739868164062,-0.913407862186432,0.4555202424526214,0.6550633907318115,38.58568572998047,54.59471893310547,-84.43307495117188,21.183149337768555,6.239646911621094,-9.120949745178224,-0.9814224243164062,0.1257922202348709,-0.2041968405246734,169.68264770507812,82.01387023925781,75.30167388916016,51.7330043411808,1.212815179598747,23.89248278647436,1.0103019386811891,131.09696197509766,27.419151306152344,159.73474884033203
2951.16,-8.105738639831543,39.51673126220703,-11.120388984680176,-0.9024368524551392,0.3982973396778106,0.524154543876648,38.86637115478516,55.34062957763672,-83.88738250732422,9.805278778076172,2.92585563659668,-6.499770641326904,-1.0027998685836792,0.087148293852806,-0.194078654050827,170.63795471191406,81.94268035888672,76.08624267578125,41.844212260686,1.1170367179865202,12.12234059543992,1.0251189811485688,131.7715835571289,26.60205078125,159.97362518310547
2972.79,-0.8325093984603882,30.395767211914062,-9.579442977905272,-0.8842321634292603,0.4188338220119476,0.5375738143920898,39.17977523803711,55.90205764770508,-83.483642578125,9.340642929077148,6.511414527893066,-3.840796709060669,-0.9858019948005676,0.0709490925073623,-0.1791000068187713,171.3222198486328,81.79846954345703,76.5895004272461,31.88042446496492,1.1163663803715995,12.016565600990454,1.004448186380403,132.1424446105957,25.89641189575196,160.0731430053711
2995.17,-4.427873134613037,21.4123649597168,-8.554732322692871,-0.8869702816009521,0.4289630353450775,0.6414706707000732,39.23298263549805,56.27301788330078,-83.28935241699219,8.61545181274414,10.554438591003418,-1.22713041305542,-0.9800243973731996,0.1006140112876892,-0.1957361847162246,171.5952911376953,81.55435180664062,76.6919937133789,23.479328754827336,1.175674354361843,13.679474878796483,1.004432005026406,132.3623085021973,25.281333923339844,159.9813461303711
3018.773,-8.615120887756348,11.69595432281494,-7.349849700927734,-0.8596723079681396,0.4117047190666199,0.5782158374786377,39.06889343261719,56.48911666870117,-83.26412963867188,-1.0893194675445557,11.38153839111328,-1.6060523986816406,-1.0042599439620972,0.0886066406965255,-0.1724646836519241,171.76390075683594,81.3141098022461,76.9014663696289,16.27992463306439,1.1148411579683066,11.54579738944297,1.022806550100964,132.69500732421875,24.82499313354492,160.16559600830078
3041.5350000000003,-2.774127960205078,2.9359045028686523,-5.610529899597168,-0.8439382910728455,0.4375504851341247,0.5568604469299316,38.92805862426758,56.54042053222656,-83.36308288574219,-7.018447399139404,5.5613627433776855,0.1815491318702697,-1.0106014013290403,0.027263281866908,-0.1551840752363205,171.68617248535156,81.20216369628906,76.99267578125,6.913274690320776,1.1017149465878486,8.956579678939885,1.0228101368843228,132.75811386108398,24.6617431640625,160.3557586669922
3050.242,-5.914101600646973,-2.8094849586486816,-5.10469388961792,-0.809055745601654,0.4338127374649048,0.5920159816741943,38.605987548828125,56.474151611328125,-83.59622955322266,-2.0201170444488525,6.823927879333496,1.832168340682984,-0.9956257343292236,0.0350910574197769,-0.1298986077308654,171.48529052734375,81.07337188720703,76.85609436035156,8.302270965365489,1.0923587383435456,7.348721344847602,1.0046768801260737,132.87930297851562,24.599220275878903,160.45232391357422
3075.227,-7.3734259605407715,-7.914225101470947,-2.0059940814971924,-0.8206723928451538,0.3956010937690735,0.5752044916152954,38.21812438964844,56.30809783935547,-83.8680191040039,-3.0233795642852783,6.236997127532959,0.2205665111541748,-1.002415418624878,0.0195045284926891,-0.1445203423500061,171.52024841308594,80.95616149902344,76.97560119628906,11.00119909861335,1.0774338072215333,6.934667024770183,1.012967535255486,133.3021240234375,24.64806365966797,160.84362030029297
3095.279,-4.079714775085449,-15.011555671691896,2.936138868331909,-0.8130471110343933,0.4413642883300781,0.6243274211883545,37.90822219848633,55.9815788269043,-84.13442993164062,-7.397713661193848,5.053410530090332,-1.788737416267395,-0.981580376625061,-0.0002483921125531,-0.1459779590368271,171.76023864746094,80.86831665039062,77.38773345947266,15.83072290782973,1.116079194601436,9.135792628064458,0.9923757665313052,133.8520164489746,24.886737823486328,161.52216339111328
3118.379,-7.534367561340332,-20.878829956054688,4.436884880065918,-0.8403719663619995,0.4843032360076904,0.5937854051589966,37.50817489624024,55.54261779785156,-84.4443359375,-8.615073204040527,8.175280570983887,-0.9926876425743104,-1.0011450052261353,0.0415838249027729,-0.1566996276378631,171.7855224609375,80.70926666259766,77.61433410644531,22.635772183033243,1.1372580066258,11.918058880581327,1.014187018889824,134.2773475646973,25.166648864746094,162.0586700439453
3138.297,-9.454352378845217,-26.749418258666992,5.055827617645264,-0.8280304074287415,0.4006821513175964,0.5681034922599792,36.946266174316406,55.002532958984375,-84.88841247558594,-14.430091857910156,7.9797563552856445,-2.080806970596313,-1.0149195194244385,0.0734260082244873,-0.1427288651466369,171.7049560546875,80.56521606445312,77.85503387451172,28.81800737351262,1.0811670175921428,16.620283396089516,1.0275332298950544,134.7586898803711,25.56268310546875,162.74344635009766
3160.144,-7.05438232421875,-33.52260971069336,9.692705154418944,-0.8359467387199402,0.4364321827888489,0.6050505638122559,36.44964218139648,54.28508377075195,-85.31945037841797,-19.18933868408203,4.456634521484375,-2.2953221797943115,-0.9986709356307985,0.0333483926951885,-0.1629553586244583,171.63510131835938,80.48410034179688,78.19446563720703,35.60166014390652,1.1204312495284448,19.8333258506875,1.0124278748994775,135.1854591369629,26.19901657104492,163.513916015625
3170.187,-7.939873695373535,-41.54485702514648,10.575077056884766,-0.8314164280891418,0.4520635306835174,0.6617028713226318,35.83322525024414,53.41141891479492,-85.87623596191406,-19.84002113342285,-0.8880970478057861,-0.0099131241440773,-1.0131553411483765,0.0536130778491497,-0.1513968408107757,171.12225341796875,80.5093002319336,78.09553527832031,43.59872698023875,1.154757724627625,19.85989056392349,1.0258065659866995,135.2890281677246,27.097881317138672,163.97177124023438
3192.65,-7.184173107147217,-47.54927444458008,12.857715606689451,-0.8420947194099426,0.45321786403656,0.609556257724762,35.24767303466797,52.43794631958008,-86.43468475341797,-18.230392456054688,0.779198944568634,1.2416391372680664,-1.0147950649261477,0.0379677414894104,-0.1621147543191909,170.5878143310547,80.49266052246094,77.93645477294922,49.77817487676661,1.1340585434938482,18.28923256575268,1.02836363547154,135.34014129638672,28.05471420288086,164.3711395263672
3210.133,-5.566908359527588,-52.86486053466797,15.526618003845217,-0.8391265869140625,0.4487029314041137,0.6008126735687256,34.70730209350586,51.35641860961914,-86.98814392089844,-17.04745101928711,-1.42399001121521,2.1663265228271484,-0.9867413640022278,0.0239514447748661,-0.1948049962520599,169.9968719482422,80.49687957763672,77.70960235595703,55.378333440711295,1.125363771514566,17.24344235964902,1.0060721533292458,135.28956985473633,29.14046096801757,164.69774627685547
3232.688,-7.637495517730713,-61.97687530517578,19.639629364013672,-0.8528563380241394,0.4236918687820434,0.6609495878219604,34.07695770263672,50.07776641845703,-87.59454345703125,-11.80307960510254,-0.6283152103424072,1.844547152519226,-0.9577410221099854,0.0658659636974334,-0.1925837099552154,169.4266815185547,80.47968292236328,77.40467071533203,65.46128208286554,1.1591950183735198,11.962851765603464,0.9791295501342944,135.34972381591797,30.40191650390625,164.99921417236328
3250.328,-6.839926242828369,-71.0327377319336,24.39179992675781,-0.842911422252655,0.4526752233505249,0.7366253733634949,33.46928024291992,48.57474136352539,-88.2005386352539,-15.41331672668457,2.481281042098999,0.9872289896011353,-0.9994913339614868,0.0586750954389572,-0.2080065160989761,168.9961700439453,80.40133666992188,77.31056213378906,75.41481501911926,1.2074897367192607,15.642944390519425,1.0225910249109935,135.5268898010254,31.826595306396484,165.51110076904297
3272.4950000000003,-8.740726470947266,-79.16998291015625,27.834516525268555,-0.8726474642753601,0.4732701182365417,0.6921585202217102,32.8665657043457,46.92799377441406,-88.78499603271484,-18.79230117797852,3.2250354290008545,3.659813404083252,-0.9995232820510864,0.06687031686306,-0.2069924920797348,168.19482421875,80.29780578613281,76.90519714355469,84.37444401849294,1.2101989996844955,19.41508875166093,1.0229195092561882,135.3282585144043,33.36981201171875,165.69019317626953
3294.056,-8.342796325683594,-87.71135711669922,30.64116668701172,-0.845716118812561,0.4431383907794952,0.6923089623451233,32.25754165649414,45.11674499511719,-89.39851379394531,-16.70887565612793,2.5846285820007324,3.585609674453736,-0.985282838344574,0.0797957405447959,-0.212320327758789,167.40879821777344,80.20135498046875,76.46914672851562,93.28325419777238,1.1793638481594235,17.28361731051622,1.011053684689904,135.1512565612793,35.08460998535156,165.86766052246094
3310.007,-2.371074914932251,-95.25758361816406,34.59624099731445,-0.824787437915802,0.4487897455692291,0.6894748210906982,31.8095645904541,43.143333435058594,-89.98006439208984,-22.77098274230957,-1.8906996250152588,5.333808898925781,-0.9716391563415528,0.0601337030529975,-0.2082460820674896,166.2709197998047,80.18701934814453,75.78195190429688,101.37321699624611,1.164930076180479,23.46362967430344,0.9955225477483924,134.4613552093506,37.04368591308594,165.76201629638672
3332.59,-0.4049274027347564,-103.08526611328124,37.412994384765625,-0.8041537404060364,0.4568108916282654,0.7880393266677856,31.387104034423828,40.9884147644043,-90.58497619628906,-18.126502990722656,-8.327653884887695,7.45925235748291,-1.002905249595642,0.0847885236144065,-0.1808314770460128,164.71429443359375,80.29938507080078,74.57154846191406,109.66525523009555,1.2150495501395189,21.296956957081377,1.0225986781205276,133.32719039916992,39.31097030639648,165.15652465820312
3354.915,-2.5213983058929443,-110.66748046875,40.62853240966797,-0.75179123878479,0.4839712381362915,0.8115459084510803,30.957502365112305,38.66008758544922,-91.17212677001952,-14.33751392364502,-16.130386352539062,8.269553184509277,-1.012107491493225,0.0398921370506286,-0.1776802390813827,163.00271606445312,80.56057739257812,73.13751220703125,117.91660751769264,1.20748705482934,23.11145125829014,1.0283594820368955,132.04521369934082,41.900489807128906,164.30963897705078
3377.61,-1.848642349243164,-115.5045928955078,45.045188903808594,-0.7551789283752441,0.4609794914722442,0.7753608226776123,30.607622146606445,36.23881149291992,-91.6851577758789,-9.803475379943848,-21.09433364868164,8.11758804321289,-1.0062901973724363,0.0123493820428848,-0.1805734634399414,161.2327423095703,80.91021728515625,71.57625579833984,123.99111864110353,1.176427520403741,24.63684795679797,1.022437892619104,130.62512016296387,44.67140579223633,163.26141357421875
3402.456,4.343544006347656,-121.68624877929688,49.45742416381836,-0.6884173154830933,0.462551862001419,0.8014383912086487,30.421463012695312,33.65655899047852,-92.15416717529295,-5.52569055557251,-27.894512176513672,7.589794158935547,-0.9974550008773804,0.0242878720164299,-0.1437234580516815,159.10560607910156,81.39653778076172,69.57502746582031,131.424679270797,1.1533326147304757,29.43199009677437,1.008049012646069,128.68414306640625,47.7399787902832,161.72919464111328
3410.679,-3.160513401031494,-126.30156707763672,52.30116653442383,-0.6706346869468689,0.5164891481399536,0.8649780750274658,30.129365921020508,30.960702896118164,-92.58920288085938,-5.873173236846924,-31.911136627197266,5.791272163391113,-0.9892497062683104,0.1115057915449142,-0.1121676117181778,156.39646911621094,81.95054626464844,66.98857879638672,136.73875351225928,1.2102474927719868,32.95987921671035,1.0018134037926207,126.26710319519044,50.98984336853027,159.5777816772461
3432.219,-1.043800950050354,-130.9259033203125,51.60122299194336,-0.6372637152671814,0.4405927956104278,0.7775033712387085,29.869644165039062,28.23493003845215,-93.06571197509766,-9.663549423217772,-34.68204879760742,3.94160270690918,-1.0268398523330688,0.0974915996193885,-0.1086325049400329,153.38169860839844,82.55473327636719,64.17556762695312,140.73154548617524,1.0976058247966345,36.21829548934777,1.0371623380480472,123.51205444335938,54.31980323791504,157.24127960205078
3454.8610000000003,16.879133224487305,-135.62811279296875,55.92118453979492,-0.5748432874679565,0.4865999817848205,0.8405333757400513,30.01413345336914,25.363819122314453,-93.49449920654295,-11.125234603881836,-36.22553634643555,3.66034460067749,-1.0079723596572876,-0.0103431772440671,-0.1102161109447479,150.2332763671875,83.18914031982422,61.240020751953125,147.67216731167062,1.1285923547290766,38.07175398079318,1.0140329631034524,120.21914291381836,57.825321197509766,154.7345199584961
3477.355,5.401522636413574,-135.89926147460938,59.81172561645508,-0.5421700477600098,0.5463817119598389,0.916120946407318,29.985689163208008,22.44214057922364,-93.84589385986328,-2.5189368724823,-28.90533828735352,-1.5137698650360107,-1.0086957216262815,0.0021488515194505,-0.0817175284028053,148.0640411376953,83.73727416992188,59.11149215698242,148.57734765890137,1.1965612914926238,29.054347758608987,1.0120026832169375,118.0783519744873,61.29513359069824,152.9573860168457
3499.761,-3.549504041671753,-139.1585693359375,60.38172149658203,-0.5181611776351929,0.447562426328659,0.8690111637115479,29.76114654541016,19.49615859985352,-94.21546173095705,-2.7789132595062256,-23.89631080627441,-7.148542881011963,-1.0252952575683594,0.0387366898357868,-0.0855488926172256,146.8086700439453,84.23798370361328,57.920204162597656,151.73548922205896,1.1063378932879344,25.09696584002922,1.0295870576884871,117.04752349853516,64.74182510375977,152.1356658935547
3509.788,8.597951889038086,-142.20565795898438,63.934349060058594,-0.4684347212314605,0.4946769475936889,0.881877064704895,29.83026885986328,16.460742950439453,-94.53447723388672,3.1412904262542725,-22.46151733398437,-5.668078422546387,-1.0503066778182983,0.0192455537617206,-0.0776110887527465,145.45034790039062,84.70165252685547,56.47311019897461,156.15369006836593,1.1143803335434124,23.37765128260521,1.0533460921780138,115.62007904052734,68.24090957641602,151.00758743286133
3532.297,10.57414722442627,-142.6936492919922,64.26284790039062,-0.4387897849082947,0.505333662033081,0.8614707589149475,29.96435546875,13.432888984680176,-94.8512725830078,1.6044197082519531,-13.724339485168455,-7.427716732025146,-1.041101574897766,0.015730120241642,-0.0721171647310257,145.28680419921875,85.03729248046875,56.26709365844727,156.85344675224272,1.0908851698456292,15.687658612922055,1.043714909056236,115.32244873046876,71.60440349578857,151.11836624145508
3558.298,11.597472190856934,-146.2754364013672,66.22693634033203,-0.3755568861961365,0.483496218919754,0.8957924842834473,30.11370086669922,10.320067405700684,-95.17854309082033,3.659756183624268,-13.64713191986084,-8.52690315246582,-1.0176866054534912,0.0388873592019081,-0.0879841446876525,145.3018341064453,85.36666107177734,56.19155883789063,160.98761366221473,1.085014167362688,16.502911934964455,1.0222228051367108,115.1881332397461,75.04659366607666,151.37010192871094
3578.294,12.384150505065918,-149.0352020263672,68.44058990478516,-0.3096916973590851,0.5070594549179077,0.9301032423973083,30.29743003845215,7.130465030670166,-95.50035095214844,7.966317653656006,-12.47317886352539,-8.497201919555664,-1.0299444198608398,0.0411093905568122,-0.0430645644664764,145.37245178222656,85.69488525390625,56.0799446105957,164.46571975122106,1.1036803340427803,17.06589723343453,1.0316637275329212,115.0750217437744,78.56442022323608,151.58029556274414
3599.665,5.776520729064941,-149.97239685058594,67.79158020019531,-0.2309262603521347,0.4765021800994873,0.8617611527442932,30.366260528564453,3.9324936866760254,-95.84709167480467,0.1212046146392822,-7.711974620819092,-4.313711166381836,-1.034321904182434,0.0258985813707113,-0.0603880584239959,145.2512969970703,85.88762664794922,55.93423461914063,164.68389828663416,1.011441322934237,8.837270344271186,1.0364068967296636,114.88503646850586,81.9551329612732,151.7813262939453
3619.713,13.305459022521973,-148.19403076171875,68.65180969238281,-0.16440249979496,0.4515354931354522,0.8041287660598755,30.609073638916016,0.7589287161827087,-96.16667175292967,8.240764617919922,-8.565064430236816,-8.056107521057129,-1.013218641281128,0.0196719653904438,-0.017968175932765,145.86244201660156,86.1603775024414,56.368873596191406,163.8645079547258,0.936768677905536,14.358669805135223,1.0135688711716877,115.25336837768556,85.4014487862587,152.5355453491211
3629.793,14.263970375061035,-148.57205200195312,68.19158935546875,-0.0846050903201103,0.4763072729110718,0.844159722328186,30.887725830078125,-2.434079170227051,-96.51355743408205,-6.34404182434082,-7.065645694732666,-9.838461875915527,-0.995479702949524,0.0298165939748287,-0.006798552814871,146.80674743652344,86.42816925048828,57.43605422973633,164.09511981090895,0.9729502948955082,13.673534577289193,0.9959493403688306,115.91902160644533,88.86224842071533,153.94961166381836
3649.778,13.193577766418455,-150.00741577148438,68.3844223022461,-0.0436580553650856,0.5430348515510559,0.8724024891853333,31.187095642089844,-5.645860195159912,-96.89016723632812,1.770277500152588,-4.730386734008789,-3.997183799743652,-1.0311559438705444,0.0307249221950769,-0.0274840630590915,146.9900665283203,86.57473754882812,57.572872161865234,165.3865910354568,1.0285324394174953,6.441111659470431,1.0319796389201112,115.80297088623048,92.22059774398804,154.46303939819336
3672.394,3.89767336845398,-149.9584503173828,65.44844055175781,0.0049080019816756,0.4244321882724762,0.7726233601570129,31.29829788208008,-8.82341480255127,-97.32624053955078,3.1221656799316406,3.853065490722656,-4.180703163146973,-0.9517661929130554,0.0090911574661731,-0.0273663662374019,148.87216186523438,86.5738754272461,59.39153289794922,163.66498419006766,0.8815404855056449,6.48631722528955,0.9522029474420493,117.5738639831543,95.39729022979736,156.7177734375
3690.266,8.2261323928833,-145.45553588867188,67.37693786621094,0.0839627310633659,0.4045045375823974,0.6580583453178406,31.53277587890625,-11.96760082244873,-97.69818878173828,-5.844628810882568,3.4821252822875977,-5.925752639770508,-1.0477168560028076,0.0287615898996591,0.0018886313773691,150.6942901611328,86.60430908203125,61.32735824584961,160.51365652502346,0.7769906350624971,9.022163086881784,1.048113260260762,119.16151428222656,98.57190990447998,159.0255470275879
3712.253,15.560101509094238,-144.6175537109375,65.49085998535156,0.1258967518806457,0.4161722064018249,0.8009849190711975,31.9244327545166,-15.082196235656738,-98.11145782470705,6.694966793060303,6.25285530090332,2.9194371700286865,-0.9375205636024476,-0.0717271566390991,-0.0202012807130813,151.663818359375,86.50799560546875,62.13534927368164,159.5161632623169,0.9113869310534098,9.614774732876482,0.940477370232495,119.7393856048584,101.59019184112547,160.24680709838867
3734.683,19.55328750610352,-141.9460906982422,65.183837890625,0.1732422411441803,0.4520192146301269,0.742655336856842,32.43219375610352,-18.124399185180664,-98.53553771972656,11.410235404968262,7.928872108459473,6.830904483795166,-0.9751341342926024,0.0226108729839324,-0.038655150681734,151.2213897705078,86.30307006835938,61.42795181274414,157.4165062468394,0.8864937641480873,15.48295000882683,0.976161898515767,118.7891960144043,104.42746925354004,159.9634895324707
3749.819,12.544485092163086,-140.1121063232422,64.69729614257812,0.2129488438367843,0.4444687962532043,0.7258410453796387,32.82221221923828,-21.12724494934082,-98.97881317138672,11.703289031982422,11.69643211364746,3.6993253231048575,-0.9744734168052672,0.036217525601387,-0.0655989646911621,152.10995483398438,86.04491424560547,62.07439422607422,154.83703230404373,0.877351095110733,16.954601328295766,0.9773501795105844,119.2877426147461,107.17215919494627,161.05320739746094
3772.244,6.970418930053711,-132.5337371826172,61.03486251831055,0.282625675201416,0.375788927078247,0.5246844291687012,33.165367126464844,-24.02919006347656,-99.44461059570312,13.148968696594238,9.042086601257324,3.0839152336120605,-1.016335129737854,0.0170179698616266,-0.0600197613239288,152.86766052246094,85.85503387451172,62.56719207763672,146.07885772513615,0.7045483235447816,16.253160955849694,1.0182480439396155,119.7022933959961,109.88422393798828,162.01180267333984
3794.663,18.44439697265625,-129.23516845703125,60.644325256347656,0.3211275339126587,0.4166129231452942,0.6488857269287109,33.72170639038086,-26.827157974243164,-99.89666748046876,13.505608558654783,13.430082321166992,10.040081977844238,-0.9446495175361632,0.0344620570540428,-0.0446217246353626,152.36953735351562,85.52144622802734,61.78681564331055,143.9432483015437,0.83530946802984,21.530718051536606,0.9463305144964608,118.64783096313477,112.34860420227052,161.6834831237793
3818.321,8.748875617980957,-126.40861511230467,56.6889533996582,0.3514362871646881,0.4579817354679107,0.7072060704231262,34.13990020751953,-29.50359535217285,-100.42670440673828,19.8574447631836,5.18197774887085,12.822437286376951,-1.0412739515304563,0.0792380273342132,-0.0578620694577693,150.38929748535156,85.29784393310547,59.38964080810547,138.81396989041954,0.9129047924080694,24.19888228567076,1.0458862874106367,116.24939727783205,114.80143928527832,159.81634521484375
3839.683,-10.49926471710205,-123.52877044677734,54.7236442565918,0.3802270293235779,0.4329429268836975,0.6558544635772705,34.21065902709961,-32.11638641357422,-100.98507690429688,53.83989334106445,-6.861236572265625,7.964183807373047,-0.7685736417770386,-0.1330224871635437,0.0133347511291503,149.0263214111328,85.34898376464844,56.93756866455078,135.5148291826928,0.8730161792092314,54.85653020375437,0.780114248372167,114.8156623840332,117.46537017822266,157.92264556884766
3849.858,1.3630977869033811,-114.7156219482422,46.1195182800293,0.4437938630580902,0.2278164625167846,0.3401828706264496,34.58827590942383,-34.548519134521484,-101.62191009521484,44.673973083496094,5.751935005187988,-42.9381217956543,-1.2097387313842771,0.2154655158519745,-0.2496078014373779,159.7530975341797,85.60723876953125,66.84420776367188,123.64684355425594,0.6038027152550212,62.22966278799269,1.2538728967766228,125.16482162475586,120.15575790405272,168.46611785888672
3872.442,37.47716522216797,-108.5245590209961,50.991058349609375,0.5196971297264099,0.368451714515686,0.5074105262756348,35.65727233886719,-36.93153762817383,-102.14452362060548,23.871631622314453,26.56356811523437,8.273029327392578,-0.8781054019927979,0.013208333402872,-0.0803950875997543,160.64109802246094,85.02774810791016,67.23882293701172,125.62724965310912,0.8144367469304993,36.65952756891552,0.8818769342659931,124.98382568359376,121.95928573608398,169.3833465576172
3895.638,14.145328521728516,-100.11162567138672,43.92633819580078,0.5291440486907959,0.4607451856136322,0.5269396901130676,36.35762405395508,-39.063663482666016,-102.77013397216795,25.391828536987305,25.39704132080078,-5.187145709991455,-0.9657974243164062,0.0800666809082031,-0.1330077946186065,163.6229248046875,84.52671813964844,69.7166519165039,110.2358884431352,0.8774650918113401,36.28582567503333,0.9781954874344728,127.26530075073242,123.59038162231444,172.48678588867188
3916.899,6.159043312072754,-97.50129699707033,38.868797302246094,0.6023265719413757,0.2749619483947754,0.4652395248413086,36.895015716552734,-41.13056182861328,-103.44860076904295,18.64729881286621,22.017318725585938,-5.964262962341309,-1.0140795707702637,0.0507674664258956,-0.1180333495140075,166.14791870117188,84.10887145996094,71.86940002441406,105.14380692344172,0.8092275253637057,29.46279873950055,1.0221871565904177,129.25290298461914,125.23943328857422,175.31800079345703
3939.593,21.319414138793945,-90.63517761230467,36.65594482421875,0.65972900390625,0.3172029256820678,0.4020134210586548,37.784854888916016,-43.061561584472656,-104.1415557861328,23.37564468383789,24.27033424377441,2.1639304161071777,-1.0540647506713867,0.0084977373480796,-0.1248767524957656,167.3380889892578,83.61131286621094,72.57637023925781,100.06453483123576,0.8351495946042718,33.76614404303994,1.0614701660724424,129.5532341003418,126.6728744506836,176.71792602539062
3950.935,16.235095977783203,-78.42504119873047,32.311790466308594,0.6567712426185608,0.3570307493209839,0.366075336933136,38.577056884765625,-44.735687255859375,-104.79837036132812,35.344261169433594,33.88682556152344,9.370366096496582,-0.9809353351593018,-0.001380824483931,-0.1609655618667602,167.90396118164062,82.87370300292969,72.43458557128906,86.36039156678851,0.8323644474640545,49.85315942879269,0.994055305577828,129.326904296875,127.60939025878906,177.2329559326172
3977.111,0.3817682266235351,-68.48316192626953,28.06283187866211,0.6861295700073242,0.3642035126686096,0.3750910460948944,39.0600471496582,-46.22818374633789,-105.43285369873048,34.51212692260742,26.75559425354004,6.432436943054199,-0.9539251327514648,0.0626677945256233,-0.1521304100751876,168.3390350341797,82.29395294189453,72.18362426757812,74.01088938425592,0.8626188488197739,44.13983431786528,0.9680103682478046,129.27898788452148,128.52213668823242,177.6164779663086
3996.897,-7.54034423828125,-57.0682258605957,22.75541114807129,0.7076826095581055,0.3225062489509582,0.3334776759147644,39.323463439941406,-47.42992782592773,-105.98674774169922,25.52157592773437,19.58788681030273,4.181303024291992,-0.963528037071228,0.0520388707518577,-0.1302102357149124,168.71359252929688,81.88641357421875,72.0531997680664,61.8986908635838,0.8461869278220386,32.44255604155283,0.9736780924804642,129.39012908935547,129.31634140014648,178.03994750976562
4019.512,-3.2123310565948486,-47.55343246459961,17.709131240844727,0.743370532989502,0.2595908343791961,0.2954610586166382,39.625247955322266,-48.389198303222656,-106.48011016845705,20.72959518432617,16.595651626586914,8.138216018676758,-0.9579954147338868,0.02809589356184,-0.1436510980129242,168.49234008789062,81.52119445800781,71.41251373291016,50.84546527752365,0.8410020141293646,27.77341047447581,0.9691131161255164,128.86709213256836,129.91039276123047,177.8926239013672
4029.47,-0.260649561882019,-33.31244659423828,13.652884483337402,0.7550952434539795,0.3650075495243072,0.3197473287582397,39.90257263183594,-49.11302947998047,-106.83502960205078,18.20195960998535,10.200016021728516,7.2605061531066895,-0.9657740592956544,0.0263902749866247,-0.1638542711734771,168.22308349609375,81.27890014648438,70.77485656738281,36.00261505784604,0.8975732238344647,22.09222963139657,0.9799307130629528,128.3205108642578,130.39192962646484,177.6098861694336
4059.603,-9.938507080078123,-20.334487915039062,8.353650093078613,0.7396416068077087,0.3073591589927673,0.2677863240242004,39.86753082275391,-49.54161071777344,-107.0455551147461,16.35976219177246,7.737095355987549,6.587352752685547,-0.9368727803230286,0.0343982949852943,-0.1631203293800354,167.93246459960938,81.08647155761719,70.19530487060547,24.12568738140377,0.8445406292607979,19.258704001238133,0.9515892449293172,128.06493377685547,130.62808227539062,177.24085998535156
4069.768,-0.678371787071228,-9.728025436401367,4.179673194885254,0.7733093500137329,0.2275189906358719,0.2837281227111816,39.92509078979492,-49.74452972412109,-107.1389617919922,3.202812671661377,-1.561266303062439,2.2593069076538086,-0.9397569298744202,0.041408110409975,-0.1680429875850677,167.65771484375,81.09315490722656,69.90116882324219,10.60963407421804,0.8545606412278999,4.219008080319965,0.9555606545537734,127.73262405395508,130.83768463134766,177.04013061523438
4092.42,4.471364498138428,3.0810656547546387,0.2406467199325561,0.7823631763458252,0.3198144137859344,0.3456701636314392,39.98484420776367,-49.747501373291016,-107.08843231201172,-7.658459186553955,-5.802560329437256,-0.8090851306915283,-0.9699651002883912,0.016708867624402,-0.1639921516180038,167.5176544189453,81.20488739013672,69.95426177978516,5.435437138624238,0.9131600412809112,9.64242304805062,0.9838724042410484,127.53281021118164,130.9523887634277,177.04269409179688
4109.433,-4.618383884429932,16.02164077758789,-6.289833545684815,0.7419734001159668,0.3155637979507446,0.313576340675354,39.794471740722656,-49.461910247802734,-106.94319915771484,-10.938529014587402,-10.726539611816406,-2.1263792514801025,-0.9445798993110656,0.039733812212944,-0.1633487045764923,167.25177001953125,81.41294860839844,69.94374084472656,17.820899218121717,0.8651214703659207,15.467112134072153,0.9594231398618102,127.4572982788086,130.87485885620117,176.8869400024414
4132.360000000001,-6.127467155456543,25.62468719482422,-9.894523620605469,0.7395310401916504,0.2701467871665954,0.3126777112483978,39.47014236450195,-48.94097518920898,-106.67659759521484,-15.665279388427734,-15.293107986450195,-6.936387538909912,-0.9426172971725464,0.0566108375787735,-0.1279805600643158,167.2829132080078,81.74832916259766,70.33201599121094,28.143774538119555,0.847143905800493,22.965051758980863,0.9529486762751826,127.81277084350586,130.68930435180664,177.00861358642578
4154.285,-4.835461616516113,35.83705520629883,-15.315546989440918,0.713161289691925,0.3226806223392486,0.3399288654327392,39.161808013916016,-48.2732048034668,-106.37438201904295,-18.96108055114746,-15.75009059906006,-5.301596164703369,-0.9290205240249634,0.0232378114014863,-0.1502067148685455,167.1842041015625,82.07225799560547,70.63961791992188,39.2713915527561,0.8533893851593679,25.212989736231204,0.941371970652382,128.02239608764648,130.3454627990723,177.01399993896484
4176.910999999999,-2.314491271972656,45.70356750488281,-20.44872665405273,0.7116107940673828,0.2449624240398407,0.3268471360206604,38.83074188232422,-47.31723403930664,-105.99089050292967,-21.64874267578125,-15.883538246154783,-4.033370971679688,-0.9518023133277892,0.0285868905484676,-0.1698753982782364,166.8484344482422,82.38072204589844,70.76145935058594,50.12308225053189,0.8205032368916005,27.151849440773688,0.9672654779881016,128.01769256591797,129.69795608520508,176.75234985351562
4189.404,3.819780349731445,58.23441696166992,-24.18930053710937,0.6949224472045898,0.2913272082805633,0.3353378474712372,38.542022705078125,-46.12578582763672,-105.48513793945312,-30.087146759033203,-20.846885681152344,-6.107397079467773,-0.9591777324676514,0.0209575779736042,-0.1556298285722732,166.48910522460938,82.80387115478516,71.03034973144531,63.17404768779996,0.8247667681593418,37.10969336694832,0.971947419399702,127.94708251953124,128.92965698242188,176.51548767089844
4212.339,-5.9551544189453125,69.81961822509766,-28.18132400512696,0.647097647190094,0.3723943829536438,0.3977423310279846,38.03730392456055,-44.725704193115234,-104.91352081298828,-32.69894790649414,-23.15438461303711,-8.689811706542969,-0.9656111001968384,0.0348519757390022,-0.1498246788978576,166.32748413085938,83.28328704833984,71.55306243896484,75.52767688691225,0.8459384749176239,40.998287140992105,0.9777867310631224,128.29018020629883,128.00899124145508,176.46658325195312
4234.202,-21.459762573242188,78.17582702636719,-34.91355895996094,0.627866804599762,0.2956565618515014,0.4316778182983398,37.20301055908203,-43.1120719909668,-104.34361267089844,-33.43995666503906,-18.6927490234375,-8.177898406982422,-1.0066452026367188,0.0272502638399601,-0.1231695562601089,166.27719116210938,83.68794250488281,72.19776916503906,88.26628994246374,0.8172975380453442,39.17304673072851,1.0145185461390935,129.07418060302734,126.8000144958496,176.5413818359375
4257.075000000001,-11.805682182312012,88.23453521728516,-39.75554656982422,0.6552527546882629,0.2413419932126999,0.3429830074310303,36.584808349609375,-41.2234992980957,-103.77426147460938,-31.817529678344727,-14.528549194335938,-1.4607237577438354,-0.9689241647720336,0.0153970094397664,-0.1126050502061843,165.32379150390625,83.97894287109375,71.88453674316406,97.4946707254584,0.7779713835359691,35.0081083525092,0.9755670157968692,128.73898315429688,125.20244216918944,175.65879821777344
4279.157999999999,3.773890256881714,100.56836700439452,-44.182037353515625,0.5585924386978149,0.298628032207489,0.3260468542575836,36.26453399658203,-39.10742568969727,-103.15037536621094,-31.061765670776367,-13.723658561706545,-2.9283688068389893,-0.9833287596702576,0.0102722402662038,-0.1034349799156189,164.6592254638672,84.26631927490234,71.84465789794922,109.91037764610324,0.712397898201388,34.08441630383877,0.9888072428865388,128.39469146728516,123.3737449645996,174.99503326416016
4289.548,-4.27023983001709,108.57999420166016,-47.91943359375,0.5259595513343811,0.4482635855674743,0.5223440527915955,35.83218765258789,-36.785457611083984,-102.53996276855467,-35.442138671875,-23.40721893310547,-3.673952341079712,-1.0457128286361694,0.0688100531697273,-0.0811113938689231,163.10659790039062,84.75244903564453,70.99266815185547,118.76077721615091,0.8662661261254655,42.63262855634489,1.0511085584309734,127.27441024780272,121.53790664672852,173.53263092041016
4312.65,-40.55519485473633,116.57701873779295,-53.598236083984375,0.5188906192779541,0.454838365316391,0.660995602607727,34.673912048339844,-34.237056732177734,-101.95323944091795,-27.45061683654785,-18.3189640045166,3.847818613052368,-1.0183467864990234,-0.0048695839941501,-0.0124429753050208,160.56036376953125,85.13468933105469,68.97149658203125,134.5648395340027,0.95553157980524,33.22538961373804,1.0184344446529707,125.8864517211914,119.37174606323242,170.92473602294922
4334.037,-47.28945159912109,125.98580932617188,-58.393653869628906,0.5123602747917175,0.2232679277658462,0.3745849728584289,33.43609619140625,-31.5130672454834,-101.42501068115234,-7.997851371765137,-19.818721771240234,6.198275089263916,-0.969146966934204,-0.0046085906215012,-0.0610340200364589,157.55282592773438,85.48854064941406,66.08557891845703,146.69197386483754,0.6728116531726018,22.25232512104896,0.9710778723805288,124.11672973632812,117.00160789489746,167.51058959960938
4354.274,10.568328857421877,130.76905822753906,-57.63080596923828,0.4159485995769501,0.2458404004573822,0.3844453394412994,33.38379669189453,-28.70600891113281,-100.88331604003906,-1.749725580215454,-26.213518142700195,13.38556671142578,-1.0555256605148315,0.0079998755827546,-0.0219276808202266,151.59445190429688,85.89572143554688,60.09369659423828,143.29531032528632,0.6174536087879056,29.48530937958364,1.055783709478776,118.21065521240234,114.60173034667967,160.97701263427734
4376.792,11.07792854309082,135.77810668945312,-61.72271347045898,0.3427554368972778,0.5634821653366089,0.7783066630363464,33.39093399047852,-25.698406219482425,-100.37015533447266,3.062343120574951,-22.84138870239257,15.557205200195312,-0.9228914380073548,0.0354565158486366,-0.0261009410023689,144.5980682373047,86.14653778076172,52.96310043334961,149.55971421186496,1.020173858664223,27.80528037770711,0.9239410316598224,111.20713424682616,111.84494400024414,153.3332557678223
4399.051,-51.45211410522461,141.47366333007812,-70.39640045166016,0.3162975907325744,0.5039724707603455,0.8158154487609863,32.204612731933594,-22.505516052246094,-99.98558807373048,12.90113639831543,-22.492507934570312,4.661827564239502,-0.953761100769043,0.0803938806056976,0.0469655841588974,138.9065399169922,86.49048614501953,46.94750213623047,166.18595204914237,1.0097461382073258,26.345490502045145,0.9582949334491998,106.7019271850586,108.99600219726562,146.93309020996094
4409.272,-27.63761711120605,141.42758178710938,-68.34095001220703,0.2694450318813324,0.2347875237464904,0.6029913425445557,31.50577545166016,-19.38496971130371,-99.6278076171875,6.997553825378418,-15.5565824508667,2.6915228366851807,-0.9768576622009276,0.0631841048598289,-0.0053797801956534,134.69302368164062,86.700927734375,42.54092788696289,159.48694058858274,0.7009453371670481,17.268969635449583,0.9789137170060256,103.18724822998048,106.08589744567873,142.1687355041504
4431.851,18.027984619140625,143.0389404296875,-67.51627349853516,0.2004739195108413,0.4589689671993255,0.5206760168075562,31.76432609558105,-16.245525360107422,-99.26271057128906,-0.0282299518585205,-18.434553146362305,18.125024795532227,-0.9637786149978638,0.0229942128062248,-0.0413107611238956,126.57831573486328,86.6723861694336,34.34845352172852,159.19671446297082,0.7224581785367492,25.85246739626406,0.9649375790870692,94.81398963928224,102.91791152954102,133.61116409301758
4459.081,-4.014590263366699,148.3035888671875,-74.07438659667969,0.1093340069055557,0.4363964796066284,0.7650805115699768,31.60350227355957,-12.897400856018066,-98.9535140991211,-3.811273097991944,-15.873701095581056,-6.845541954040527,-0.9862632751464844,0.0048538716509938,-0.0371854826807975,123.75359344482422,87.01153564453125,31.55864143371582,165.82245371343672,0.8875494361799009,17.702023436428313,0.9869759713867802,92.15009117126463,99.90893650054932,130.5121555328369
4479.277,-8.713215827941895,144.03024291992188,-73.79634857177734,0.1524744033813476,0.4688118100166321,1.1197996139526367,31.34773826599121,-9.657709121704102,-98.69709014892578,-5.321321964263916,-8.072420120239258,-12.556032180786133,-1.02539324760437,0.0899635851383209,0.0731608942151069,122.55350494384766,87.35099029541016,30.44112014770508,162.06952849984867,1.2235130290708158,15.84721988772599,1.0319289100155742,91.20576667785645,97.00869941711426,129.13821029663086
4489.365000000001,-9.655088424682615,145.71923828125,-72.52894592285156,0.014749058522284,0.535027027130127,0.7281187176704407,31.131799697875977,-6.388696670532227,-98.4266128540039,4.642737865447998,-8.378280639648438,-2.9166953563690186,-1.047670841217041,-0.0118390712887048,0.0193859133869409,120.26342010498048,87.54791259765625,28.01206016540528,163.05755160199138,0.9036748981293228,10.012877366962858,1.047917061977353,89.13162040710449,93.93660926818848,126.43867301940918
4511.8460000000005,-9.08226490020752,145.1392059326172,-75.47843170166016,-0.0637501329183578,0.4512843787670135,0.6695601940155029,30.951560974121094,-3.071166515350342,-98.22380828857422,20.1638298034668,-5.060685157775879,12.79805850982666,-0.9719175100326538,-0.0650086030364036,-0.0095796640962362,116.8572769165039,87.4144058227539,24.16164779663086,163.8440425728393,0.8099583466921713,24.41271939441109,0.9741363019316214,85.90571594238281,90.48557233810423,122.38545608520508
4535.157,-8.372440338134766,143.3299560546875,-74.49391174316406,-0.0761003419756889,0.3824185132980346,0.9537741541862488,30.763032913208008,0.1759835034608841,-98.03289794921876,10.658442497253418,-0.4019218981266022,4.25093936920166,-1.0182892084121704,0.096832275390625,0.0307058058679103,115.43450927734376,87.32071685791016,22.501399993896484,161.7495500663065,1.030398135943379,11.481917226669072,1.0233436607709103,84.67147636413574,87.14473335444927,120.53429794311523
4549.267000000001,-2.0467782020568848,140.41978454589844,-73.93177032470703,-0.1381658315658569,0.5140596032142639,1.0170652866363523,30.689239501953125,3.3938140869140625,-97.87356567382812,-17.43917465209961,2.8360960483551025,6.53844690322876,-1.0416725873947144,0.1366578042507171,0.0795041248202323,113.71016693115234,87.1419906616211,21.10215187072754,158.70668497662658,1.1479411439397829,18.839308406846328,1.0536024110904725,83.02092742919922,83.74817657470703,118.97571754455566
4571.871,-5.475992202758789,137.02798461914062,-72.40711975097656,-0.2982299625873565,0.6179450750350952,0.887165367603302,30.5927677154541,6.499211311340332,-97.7183837890625,-1.317853927612305,0.6941702365875244,26.711727142333984,-1.024441123008728,-0.0209713261574506,-0.1486669331789016,110.88047790527344,86.60700988769531,18.27133178710937,155.07883817600768,1.121543407907018,26.75322369768528,1.035384599099777,80.28771018981934,80.10779857635498,115.98971557617188
4595.303999999999,-20.687715530395508,139.18365478515625,-73.57270050048828,-0.2482752501964569,0.3894007802009582,0.6294189095497131,30.19696044921875,9.688556671142578,-97.5813980102539,-24.063304901123047,31.72123908996582,27.60710525512696,-0.9106580018997192,-0.0389581993222236,0.0132188387215137,115.85623168945312,85.85186767578125,23.74336814880371,158.78606233594516,0.7806674907923208,48.4503035360445,0.9115867898426152,85.65927124023438,76.16331100463867,121.32476615905762
4608.985,12.411750793457031,138.26808166503906,-66.58670806884766,-0.3582968115806579,0.4227277040481567,0.8879815340042114,30.474040985107425,12.77005100250244,-97.33521270751952,-4.725025177001953,15.027718544006348,-0.6207504272460938,-1.050940752029419,0.0854890644550323,-0.0542248822748661,119.3552017211914,85.70740509033203,27.313098907470703,153.9672161745309,1.046702690209194,15.765263037897617,1.055805466113564,88.88116073608398,72.93735408782959,124.64831161499023
4632.641,2.2075355052948,133.06517028808594,-70.48046875,-0.340727686882019,0.5518380999565125,1.0167067050933838,30.532958984375,15.80046844482422,-97.1989517211914,-12.63700008392334,6.207530975341797,16.955656051635742,-1.058695912361145,0.0364204682409763,0.0159457325935363,118.22349548339844,85.37059783935547,26.38467025756836,150.59451926290072,1.2059490741127628,22.03908991025441,1.059442188958432,87.69053649902344,69.57012939453125,123.58362197875977
4655.346,7.928370475769043,132.8300323486328,-66.41327667236328,-0.4525932669639587,0.505354106426239,0.9011619091033936,30.74518585205078,18.82727432250977,-96.98339080810548,1.555288314819336,18.61400604248047,2.8277268409729004,-1.0334665775299072,-0.0114210434257984,-0.0948362722992897,122.24976348876952,85.15547180175781,30.3601303100586,148.71919805626897,1.1279699573135114,18.891696106460945,1.0378716325480424,91.50457763671876,66.32819747924805,127.34352111816406
4677.646000000001,3.355081081390381,132.76710510253906,-60.77545928955078,-0.4849084019660949,0.5148603320121765,0.7481852173805237,30.94994163513184,21.786434173583984,-96.6369171142578,6.629323482513428,27.656190872192383,0.7880311608314514,-1.0049155950546265,-0.0091715864837169,-0.0784219056367874,127.74256134033205,84.8463363647461,35.7105712890625,146.0548431864798,1.0295622561476028,28.45055037262693,1.008012632096606,96.7926197052002,63.05990219116211,132.3474884033203
4698.446,-0.0460241138935089,130.1079864501953,-57.927093505859375,-0.5134152770042419,0.4508354067802429,0.8285191059112549,31.075170516967773,24.667783737182617,-96.26909637451172,3.238553524017334,27.10423851013184,-0.8764632344245911,-0.9627477526664734,0.0555896982550621,-0.0765604674816131,132.39520263671875,84.50160217285156,40.30121994018555,142.42063901829624,1.0739142049195711,27.31109961065897,0.9673856288975132,101.32003211975098,59.83381843566895,136.5703163146973
4709.0740000000005,7.001814842224121,122.4041976928711,-55.18360137939453,-0.6242464780807495,0.5562778115272522,0.9997838139533995,31.353984832763672,27.36054420471192,-95.91667175292967,7.157962799072266,29.122175216674805,-4.184350967407227,-0.996250331401825,0.1371555179357528,-0.0694710165262222,136.91107177734375,84.11702728271484,44.67331314086914,134.45089395433624,1.3033404557662494,30.279470170431523,1.0080439380580877,105.55708694458008,56.75648307800293,140.58998489379883
4732.179,-7.82820463180542,116.8380126953125,-56.37784194946289,-0.6295638084411621,0.5015584230422974,0.8251215815544128,31.33359718322754,29.987926483154297,-95.6311492919922,4.329513072967529,31.87873268127441,-10.846712112426758,-1.0394644737243652,0.1216212809085846,-0.1246178597211837,142.25228881835938,83.73095703125,49.96696853637695,129.96485317664172,1.1527085776424464,33.950691369440705,1.0539486415696,110.91869163513184,53.7430305480957,145.59811782836914
4751.651,1.5811060667037964,116.33364868164062,-52.31270217895508,-0.6424751877784729,0.4393926560878753,0.6634299755096436,31.55753517150879,32.55839157104492,-95.25946807861328,-0.6964864730834961,24.17020034790039,-4.99351692199707,-1.0023880004882812,0.028284877538681,-0.1062839329242706,145.61737060546875,83.39977264404297,53.37101745605469,127.56424468181358,1.0227314435078585,24.690461508750776,1.0084036950637,114.05983543395996,50.84138107299805,148.63048553466797
4773.968,8.699016571044922,109.7657470703125,-48.81497573852539,-0.7703537940979004,0.5572377443313599,0.8183318376541138,31.974197387695312,34.9810676574707,-94.85362243652344,15.645559310913086,24.5268669128418,-5.495249271392822,-0.9022215604782104,0.0749184191226959,-0.1819037795066833,149.0547637939453,82.98741912841797,56.52029037475586,120.44539831624932,1.254442453166701,29.60656162519208,0.9234205427184284,117.08056640625,48.00635147094727,151.3739128112793
4797.548,-1.93170428276062,99.8495101928711,-50.12574005126953,-0.7990758419036865,0.4874598979949951,0.880231499671936,32.0589714050293,37.23042297363281,-94.61334991455078,18.773208618164062,27.60094451904297,-3.196284770965576,-1.007038712501526,0.1818687468767166,-0.1963697075843811,151.7012481689453,82.4597396850586,58.83185958862305,111.7418721110388,1.2848917644230125,33.53299474400555,1.04200013033781,119.64227676391602,45.22931671142578,153.44520950317383
4818.828,-2.9878852367401123,92.58067321777344,-42.0925178527832,-0.7763940691947937,0.474602073431015,0.7390413880348206,32.21875762939453,39.27962875366211,-94.26482391357422,6.848734855651856,21.147199630737305,-4.232687950134277,-1.0280840396881104,0.0952522829174995,-0.2090176790952682,153.83184814453125,82.0692138671875,60.85440826416016,101.74423114275794,1.1722700422745191,22.627966515541967,1.0534316210541583,121.61309051513672,42.78958511352539,155.11923217773438
4828.825,2.875731468200684,87.76612091064453,-40.27995300292969,-0.7028709650039673,0.4355569779872894,0.7135441303253174,32.48636245727539,41.19370269775391,-93.933349609375,3.5693368911743164,15.869630813598633,-7.825159072875977,-1.070444941520691,0.0143292294815182,-0.1314389556646347,155.996826171875,81.86051940917969,62.971675872802734,96.61074694410192,1.0921916958303344,18.05044216960988,1.0785795745845457,123.5104637145996,40.66681671142578,156.9050254821777
4853.799999999999,3.5234739780426025,87.34637451171875,-35.97273254394531,-0.7220357656478882,0.514055073261261,0.7875651121139526,32.867286682128906,43.00773239135742,-93.4756851196289,8.964212417602539,9.226505279541016,-9.433999061584473,-1.026818037033081,0.0384874828159809,-0.1291731894016266,157.92286682128906,81.77213287353516,64.73807525634766,94.52958000485138,1.1856842206251357,15.952612395318658,1.035626515868616,125.05558013916016,38.76440048217773,158.21376037597656
4876.559,-0.475083440542221,78.99259185791016,-36.05289459228516,-0.7589341998100281,0.5009435415267944,0.7471644878387451,33.11594772338867,44.69106674194336,-93.11360168457033,17.314584732055664,11.658400535583496,-8.091889381408691,-0.9356414675712584,0.1046418100595474,-0.1607261151075363,159.6953582763672,81.58106231689453,66.1891860961914,86.83240455721743,1.176936839140499,22.3873138462966,0.95509567496089,126.57941055297852,36.88999557495117,159.30278778076172
4900.097,2.3594627380371094,70.52777099609375,-33.543556213378906,-0.7654207348823547,0.4093388617038727,0.6044220924377441,33.387184143066406,46.24828338623047,-92.8062515258789,19.699317932128903,8.895706176757812,-6.282840251922607,-0.979086697101593,0.0636411309242248,-0.1604570150375366,161.24267578125,81.43961334228516,67.37088012695312,78.13388323595429,1.0577113362896735,22.509349102217094,0.9941868072255724,127.8554916381836,35.19132995605469,160.17713165283203
4918.787,9.194012641906738,67.37385559082031,-27.44639587402344,-0.7112576961517334,0.4176295101642608,0.6116324663162231,33.88852310180664,47.64426040649414,-92.37820434570312,19.091854095458984,5.285037517547607,-5.76747989654541,-0.9976256489753724,-0.0121756745502352,-0.1415177285671234,162.76596069335938,81.38603973388672,68.53685760498047,73.32851377265096,1.0268379579793383,20.632361443160963,1.0076866824777848,128.8774375915527,33.74177932739258,160.9150619506836
4930.7210000000005,2.8017964363098145,68.82437896728516,-25.231666564941406,-0.7362335920333862,0.4770309627056122,0.7069399952888489,34.34193801879883,48.9928092956543,-91.84678649902344,23.30223274230957,-0.3007947504520416,-7.320832252502441,-1.0307193994522097,0.0152343213558197,-0.0914291143417358,164.18077087402344,81.4699478149414,69.5171890258789,73.35722323771111,1.1266599302172875,24.427016050429565,1.0348786633724796,129.8388328552246,32.47713851928711,161.36397552490234
4951.301,-0.992307722568512,68.08924102783203,-23.94604110717773,-0.7753122448921204,0.4848783910274505,0.5875645875930786,34.821590423583984,50.34696578979492,-91.22234344482422,25.67314910888672,3.522930145263672,-9.442846298217772,-0.9739317893981934,0.0958477184176445,-0.1421974748373031,165.79930114746094,81.44231414794922,70.66512298583984,72.18408621759453,1.0869444676516151,27.58059042492208,0.9889135641583344,130.97771072387695,31.095348358154297,161.88746643066406
4973.806,6.293116092681885,62.34928894042969,-23.11066246032715,-0.7907543182373047,0.3994340598583221,0.5321901440620422,35.38407897949219,51.6234245300293,-90.6714324951172,20.819860458374023,-1.4297685623168943,-9.154373168945312,-1.004548192024231,0.0141560602933168,-0.1317888796329498,167.41310119628906,81.5252914428711,71.90992736816406,66.7917649182018,1.0334729359894352,22.788448296544058,1.0132550384464354,132.02902221679688,29.9018669128418,162.58135986328125
