Timestamp (ms),Wrist Gyroscope X (deg/s),Wrist Gyroscope Y (deg/s),Wrist Gyroscope Z (deg/s),Wrist Accelerometer X (g),Wrist Accelerometer Y (g),Wrist Accelerometer Z (g),Wrist Roll (deg),Wrist Pitch (deg),Wrist Yaw (deg),Arm Gyroscope X (deg/s),Arm Gyroscope Y (deg/s),Arm Gyroscope Z (deg/s),Arm Accelerometer X (g),Arm Accelerometer Y (g),Arm Accelerometer Z (g),Arm Roll (deg),Arm Pitch (deg),Arm Yaw (deg),Wrist Gyroscope Magnitude (deg/s),Wrist Accelerometer Magnitude (g),Arm Gyroscope Magnitude (deg/s),Arm Accelerometer Magnitude (g),Difference Roll (deg),Difference Pitch (deg),Difference Yaw (deg)
0.0,-1.8163894414901733,1.2076984643936157,1.9517240524291992,-0.8896569609642029,0.3117296099662781,0.3421693742275238,41.776641845703125,60.90898895263672,-92.04615020751953,-1.6527432203292847,-1.205442190170288,0.5821599960327148,-0.9736531376838684,-0.017288967967033386,-0.25966349244117737,-178.06507873535156,76.1794204711914,54.75260925292969,2.9269494291644906,1.0028682558447268,2.126866541926824,1.0078315683891612,-219.8417205810547,15.270431518554688,146.79875946044922
22.526,-0.9704189300537109,0.8829728960990906,1.8557922840118408,-0.8873780965805054,0.32019367814064026,0.3448071777820587,41.83879089355469,60.90932846069336,-91.90145111083984,0.32176339626312256,-0.5158987641334534,0.8022627234458923,-0.9709577560424805,-0.009931836277246475,-0.2584082782268524,-178.1190643310547,76.17980194091797,54.690128326416016,2.272733824373213,1.0044181737016216,1.0066323536624602,1.0048046793516905,-219.95785522460938,15.27047348022461,146.59157943725586
44.995,-1.11763596534729,0.8667248487472534,1.3719974756240845,-0.8796013593673706,0.3096333146095276,0.3337515592575073,41.88363265991211,60.92147445678711,-91.77297973632812,-0.5939725637435913,-0.44369184970855713,0.7065551280975342,-0.969883143901825,-0.0004756964626722038,-0.2574032247066498,-178.20555114746094,76.17916107177734,54.614234924316406,1.970456593683956,0.9904349772821164,1.024151362357566,1.0034589972696417,-220.08918380737305,15.257686614990234,146.38721466064453
67.54400000000001,-0.41055744886398315,1.0212116241455078,1.131878137588501,-0.8734339475631714,0.3213026523590088,0.339400053024292,41.94532775878906,60.93117141723633,-91.64488220214844,-1.4114291667938232,-0.1800219714641571,0.48888325691223145,-0.9638093113899231,0.00045197043800726533,-0.25368764996528625,-178.2925567626953,76.1743392944336,54.55476760864258,1.5787902705737775,0.9906132702329457,1.5045089039202324,0.996637354680279,-220.23788452148438,15.243167877197266,146.19964981079102
91.122,-1.3658840656280518,1.6269407272338867,0.8187636733055115,-0.8752221465110779,0.32270753383636475,0.34683677554130554,41.98889923095703,60.95112228393555,-91.51685333251953,-0.6225693225860596,0.6945054531097412,-0.17489686608314514,-0.9672582149505615,-0.009992467239499092,-0.25525495409965515,-178.2868194580078,76.15100860595703,54.573062896728516,2.2766091810834985,0.9952133977223665,0.9489569534969106,1.0004216088146518,-220.27571868896484,15.199886322021484,146.08991622924805
100.992,-1.2359118461608887,1.360782504081726,0.7958090901374817,-0.879688560962677,0.3165534436702728,0.34614378213882446,42.022850036621094,60.970726013183594,-91.40274047851562,0.5672637224197388,0.3939479887485504,-0.37560319900512695,-0.960664689540863,-0.014735639095306396,-0.25323519110679626,-178.2293701171875,76.1340103149414,54.619606018066406,2.003127360614196,0.9969320763730416,0.7861685008415253,0.9935903817998066,-220.2522201538086,15.163284301757812,146.02234649658203
122.424,-1.669691562652588,0.9250872135162354,0.7241418361663818,-0.8797194957733154,0.33205777406692505,0.34636640548706055,42.048824310302734,60.97934341430664,-91.28329467773438,0.6370340585708618,0.27980533242225647,-0.1253456324338913,-0.9771514534950256,-0.0018798001110553741,-0.2539355158805847,-178.22134399414062,76.1217269897461,54.61552047729492,2.0415772495526325,1.002067085285194,0.7069759143007955,1.0096096983198197,-220.27016830444336,15.142383575439453,145.8988151550293
151.114,-3.2840397357940674,0.8893122673034668,0.9096185564994812,-0.8795731663703918,0.3217121362686157,0.34570276737213135,42.0380973815918,60.98854446411133,-91.16793823242188,2.253767490386963,-0.3171863555908203,-0.5925285816192627,-0.9673728346824646,-0.011940288357436657,-0.26168009638786316,-178.11915588378906,76.11553192138672,54.674049377441406,3.5218176008105533,0.9983276300844846,2.3518429379815884,1.0022121754465005,-220.15725326538086,15.12698745727539,145.84198760986328
161.03,-3.053987741470337,0.7989625334739685,1.158259630203247,-0.8756337761878967,0.33013302087783813,0.3356822729110718,42.05189514160156,60.99287033081055,-91.0340576171875,3.428940773010254,-0.977180004119873,-0.8685319423675537,-0.9571812748908997,-0.011713674291968346,-0.2592523694038391,-177.97119140625,76.12193298339844,54.75552749633789,3.3625507618331643,0.9941855510022996,3.669722512694472,0.9917383698378777,-220.02308654785156,15.12906265258789,145.7895851135254
181.04999999999998,-3.6480958461761475,0.4236132502555847,1.049668312072754,-0.8728487491607666,0.326429545879364,0.33723217248916626,42.037391662597656,60.992923736572266,-90.9177474975586,2.055683135986328,-0.5169146060943604,-0.6674501299858093,-0.9545198678970337,0.006512701045721769,-0.2550354599952698,-177.91265869140625,76.12162017822266,54.77579879760742,3.819666877366327,0.9910331606441257,2.2222789072459705,0.9880251410465629,-219.9500503540039,15.12869644165039,145.69354629516602
202.717,-3.2499263286590576,-0.21468675136566162,1.1697394847869873,-0.872844934463501,0.33362266421318054,0.34971264004707336,42.01511001586914,60.9748420715332,-90.81951904296875,-1.5763752460479736,-0.3655399978160858,-1.035015344619751,-0.9664865732192993,0.005446906201541424,-0.2549241781234741,-177.89495849609375,76.11982727050781,54.828697204589844,3.4606938618134095,0.9977280653083724,1.9208943672036043,0.9995560522513388,-219.9100685119629,15.14498519897461,145.6482162475586
221.00300000000001,-3.409978151321411,-0.2304804027080536,1.1557323932647705,-0.8719415068626404,0.32458603382110596,0.3463021218776703,41.983917236328125,60.961021423339844,-90.73934173583984,-3.331207752227783,-0.28952980041503906,-1.1659002304077148,-0.9716184139251709,-0.005694983527064323,-0.24703526496887207,-177.87498474121094,76.12127685546875,54.9184684753418,3.607878819107339,0.9927553799192351,3.5411997883620763,1.0025473541205319,-219.85890197753906,15.160255432128906,145.65781021118164
242.46599999999998,-2.7853503227233887,0.3278563916683197,1.3469865322113037,-0.8736019134521484,0.3209128677845001,0.3377618193626404,41.987552642822266,60.95795822143555,-90.63551330566406,-1.9940251111984253,-0.6653060913085938,-0.7070371508598328,-0.9707943797111511,-0.01495679933577776,-0.2465585321187973,-177.84230041503906,76.13054656982422,54.9925651550293,3.1112760970077358,0.9900749560089317,2.217807446988625,1.0017267807569614,-219.82985305786133,15.172588348388672,145.62807846069336
263.85999999999996,-1.0421050786972046,0.42489734292030334,1.0619802474975586,-0.8800537586212158,0.3331015706062317,0.34370118379592896,42.02635955810547,60.955570220947266,-90.53246307373047,0.08384785056114197,-0.3184654414653778,0.5069255232810974,-0.9694660902023315,-0.0022077409084886312,-0.2487127184867859,-177.89744567871094,76.1325912475586,54.934974670410156,1.5473599429810172,1.0017892882968906,0.6045032552478737,1.0008633225916521,-219.9238052368164,15.177021026611328,145.46743774414062
281.16,-0.7013448476791382,0.9513846635818481,0.8613319993019104,-0.8766747713088989,0.32445013523101807,0.3476133942604065,42.06827163696289,60.964149475097656,-90.43028259277344,0.041223473846912384,-0.27198535203933716,1.4551984071731567,-0.9803578853607178,0.0012089903466403484,-0.2509532570838928,-178.03700256347656,76.13470458984375,54.791561126708984,1.4625013458066445,0.9973272365528663,1.4809719142371545,1.0119686666530792,-220.10527420043945,15.170555114746094,145.22184371948242
303.35499999999996,-1.5382095575332642,1.4364646673202515,1.3128600120544434,-0.8802984952926636,0.3265399634838104,0.35747987031936646,42.11077117919922,60.97040557861328,-90.30743408203125,-0.7002265453338623,-0.619978666305542,0.7374969720840454,-0.9802931547164917,-0.012920856475830078,-0.24465256929397583,-178.0977325439453,76.1463851928711,54.742706298828125,2.4805484866451923,1.0046619562072046,1.1910468274997963,1.010443713117274,-220.20850372314453,15.175979614257812,145.05014038085938
325.14,-3.2434797286987305,1.6747982501983643,1.7103970050811768,-0.8754307627677917,0.317371129989624,0.34746167063713074,42.13521957397461,60.98026657104492,-90.15788269042969,1.1744784116744995,-1.3079230785369873,-0.18553955852985382,-0.9688869714736938,-0.02315707318484783,-0.25136715173721313,-178.02076721191406,76.16556549072266,54.795860290527344,4.031199305955704,0.9938979158409753,1.7676219184651956,1.0012310714827193,-220.15598678588867,15.185298919677734,144.95374298095703
347.21200000000005,-3.758939266204834,0.980194091796875,1.9505536556243896,-0.8824719190597534,0.32894277572631836,0.33835145831108093,42.15604019165039,60.9779167175293,-90.00663757324219,1.0274484157562256,-1.1484813690185547,-0.693517804145813,-0.9567570686340332,-0.0047196680679917336,-0.259025901556015,-177.95156860351562,76.1753158569336,54.846763610839844,4.346845342093471,1.0007206138442308,1.689859948838939,0.9912117742060808,-220.10760879516602,15.197399139404297,144.85340118408203
367.106,-3.682971715927124,0.25652649998664856,1.610939383506775,-0.8702499270439148,0.3208320438861847,0.3286827504634857,42.15269088745117,60.97257614135742,-89.88876342773438,0.22413483262062073,-0.624946653842926,-1.0557317733764648,-0.9489536285400391,0.003830862930044532,-0.2636341154575348,-177.89248657226562,76.17062377929688,54.9050178527832,4.028053152932291,0.9840226045962398,1.2471424620547402,0.9849013206728743,-220.0451774597168,15.198047637939453,144.79378128051758
389.715,-2.268545150756836,0.34458309412002563,1.0933754444122314,-0.8780884146690369,0.32995501160621643,0.3457798361778259,42.15999984741211,60.968074798583984,-89.79289245605469,-0.9642059206962585,-0.5152446031570435,-0.551335334777832,-0.9650594592094421,0.011696145869791508,-0.2551221251487732,-177.91604614257812,76.1715087890625,54.90357208251953,2.5417522444603704,0.9997365996937418,1.2243940174481265,0.9982804507643404,-220.07604598999023,15.203433990478516,144.69646453857422
399.795,-2.8492014408111572,0.3956170678138733,0.8093743920326233,-0.8755216002464294,0.3245996832847595,0.3407839834690094,42.148704528808594,60.97119140625,-89.70570373535156,-0.4343333840370178,-1.9729558229446411,-0.5054908990859985,-0.9692882299423218,0.001930668018758297,-0.25935545563697815,-177.90509033203125,76.19960021972656,54.92551040649414,2.9882350344549873,0.9940003774021622,2.082479583774829,1.0033885850219657,-220.05379486083984,15.228408813476562,144.6312141418457
423.559,-3.0987985134124756,-0.03917834535241127,0.9940110445022583,-0.8799183964729309,0.3180280029773712,0.34219619631767273,42.120140075683594,60.968231201171875,-89.62432098388672,-0.873577892780304,-1.5936052799224854,-1.5589845180511475,-0.9652783274650574,-0.011164389550685883,-0.2539258897304535,-177.7874298095703,76.22119140625,55.06474304199219,3.2545575929862403,0.9962411514806805,2.394399475959362,0.9981809708380441,-219.9075698852539,15.252960205078125,144.6890640258789
444.897,-3.7385060787200928,-0.5441950559616089,0.855757474899292,-0.8823976516723633,0.32924705743789673,0.3402634561061859,42.07454299926758,60.95730209350586,-89.55171966552734,-1.9726510047912598,-1.6829386949539185,-1.851085901260376,-0.9664122462272644,9.111571125686169e-05,-0.2503518760204315,-177.69520568847656,76.24649810791016,55.20209884643555,3.8736154707722545,1.0014032454859239,3.185930578578589,0.998312926785509,-219.76974868774414,15.289196014404297,144.7538185119629
467.132,-4.333907127380371,-0.6912233233451843,0.5875082612037659,-0.8824710845947266,0.31696486473083496,0.3429100811481476,41.99414825439453,60.951080322265625,-89.50668334960938,-3.482778549194336,-2.2176008224487305,-2.217060089111328,-0.9737436771392822,0.0023673230316489935,-0.2534245252609253,-177.60740661621094,76.28121185302734,55.36629104614258,4.42783317532147,0.9984033575527772,4.686454445439945,1.006184050256608,-219.60155487060547,15.330131530761719,144.87297439575195
489.59799999999996,-4.190428256988525,-0.6681426167488098,0.3440338969230652,-0.875978410243988,0.32523271441459656,0.3511679470539093,41.91221618652344,60.94084930419922,-89.47157287597656,-4.531033992767334,-1.2134913206100464,-2.503296136856079,-0.9711117148399353,-0.01106896810233593,-0.24755391478538513,-177.4886016845703,76.29781341552734,55.58220291137695,4.257283506593836,0.9982151174857694,5.316890235617769,1.0022292280111273,-219.40081787109375,15.356964111328125,145.05377578735352
499.838,-5.060397148132324,-0.3361150324344635,0.2204144299030304,-0.8713592290878296,0.3151851296424866,0.3480014503002167,41.812225341796875,60.940643310546875,-89.43704223632812,-3.846541166305542,-0.7519025206565857,-2.7489395141601562,-0.9756723642349243,-0.018345365300774574,-0.2457442730665207,-177.32110595703125,76.3060531616211,55.83317184448242,5.076334812910162,0.9898048198889223,4.787264855547894,1.0063117620820987,-219.13333129882812,15.365409851074219,145.27021408081055
525.087,-4.488162994384766,-0.3187660872936249,0.3755128085613251,-0.8721297383308411,0.3203074038028717,0.3451782166957855,41.735877990722656,60.93813705444336,-89.39363861083984,-2.0622291564941406,-0.7668393850326538,-2.876148223876953,-0.9654887914657593,-0.019119178876280785,-0.24338705837726593,-177.10694885253906,76.31411743164062,56.09548568725586,4.515111156103128,0.9911382924159675,3.6211959822746884,0.9958772061014622,-218.84282684326172,15.375980377197266,145.4891242980957
547.7610000000001,-4.565415382385254,-0.12875375151634216,0.24677905440330505,-0.8738272786140442,0.3264744281768799,0.34488189220428467,41.66545867919922,60.938724517822266,-89.34437561035156,-2.64660382270813,-0.9141125082969666,-2.130631446838379,-0.9613155722618103,0.0037084261421114206,-0.2399701178073883,-177.0210418701172,76.32764434814453,56.24094009399414,4.573892766991987,0.9945366683405167,3.518480330264028,0.9908213962859276,-218.6865005493164,15.388919830322266,145.5853157043457
569.704,-4.604376316070557,-0.19764339923858643,0.050250373780727386,-0.8796220421791077,0.3207075297832489,0.3505519926548004,41.578548431396484,60.942264556884766,-89.31036376953125,-4.804995536804199,-0.8780167102813721,-2.0932512283325195,-0.9714488387107849,-0.00024273328017443419,-0.24241121113300323,-176.97230529785156,76.34021759033203,56.3919792175293,4.608890243140875,0.9997374436827244,5.3141881936150135,1.0012372847806594,-218.55085372924805,15.397953033447266,145.70234298706055
579.5709999999999,-4.657646179199219,-0.007316526025533676,0.14104869961738586,-0.8774465322494507,0.3254375159740448,0.3627316355705261,41.493003845214844,60.94070816040039,-89.27234649658203,-5.106302738189697,-0.16130851209163666,-2.722884178161621,-0.976076602935791,-0.02771380916237831,-0.24218901991844177,-176.8159942626953,76.33751678466797,56.65632629394531,4.6597871408279925,1.003691303740155,5.789166290391019,1.0060562168119722,-218.30899810791016,15.396808624267578,145.92867279052734
607.505,-4.683569431304932,0.8987142443656921,-0.08832719922065735,-0.8743898868560791,0.3169083595275879,0.35249876976013184,41.42365264892578,60.9615592956543,-89.2134017944336,-2.366607427597046,-0.3932337760925293,-2.4129581451416016,-0.975404679775238,-0.01828664168715477,-0.23836749792099,-176.65293884277344,76.34201049804688,56.87254333496094,4.76983349866659,0.9946074427919088,3.4026211263116988,1.004274740624667,-218.07659149169922,15.380451202392578,146.08594512939453
629.5889999999999,-4.26533842086792,1.3342924118041992,-0.0771588534116745,-0.881057858467102,0.3253406584262848,0.3507380783557892,41.382625579833984,60.988224029541016,-89.11164855957031,0.7498695254325867,-0.9745551347732544,-1.451412558555603,-0.9723150730133057,-0.007531333714723587,-0.24391287565231323,-176.53135681152344,76.35591888427734,56.98347854614258,4.469832387617025,1.0025600698215524,1.9022776955582301,1.0024703552252172,-217.91398239135742,15.367694854736328,146.0951271057129
639.506,-4.203661918640137,0.8241264820098877,-0.14448270201683044,-0.8834121227264404,0.3222360610961914,0.34874847531318665,41.328121185302734,61.01032638549805,-89.02835083007812,-0.05133940279483795,-0.7794085741043091,-1.4263014793395996,-0.9727469682693481,-0.009275201708078384,-0.2538064420223236,-176.42698669433594,76.3603515625,57.093055725097656,4.286121001063473,1.0029349713137419,1.626176303367188,1.0053558592140222,-217.75510787963867,15.350025177001953,146.12140655517578
661.96,-3.721946954727173,0.23939403891563416,-0.055426225066185,-0.876183032989502,0.31943225860595703,0.3511613607406616,41.268009185791016,61.02036666870117,-88.96391296386719,-1.8761032819747925,-0.5434005856513977,-1.8226797580718994,-0.9742116332054138,-0.009478706866502762,-0.2467239797115326,-176.32720947265625,76.3635025024414,57.23540115356445,3.7300496921751995,0.9965179257865956,2.6715555808569484,1.0050128727142342,-217.59521865844727,15.343135833740234,146.19931411743164
679.526,-2.395864725112915,0.4268466532230377,0.07131312787532806,-0.876089334487915,0.3160476088523865,0.3493890166282654,41.241207122802734,61.03318786621094,-88.89329528808594,-2.1209375858306885,-0.6441454887390137,-2.117570400238037,-0.9733553528785706,-0.017542611807584763,-0.24099141359329224,-176.18846130371094,76.37102508544922,57.42192459106445,2.4346357856187555,0.9947317718889124,3.0655185619428913,1.0028984233869807,-217.42966842651367,15.337837219238281,146.3152198791504
702.0079999999999,-0.39799633622169495,0.19014352560043335,0.2702411711215973,-0.8790619969367981,0.32770782709121704,0.35191330313682556,41.26243591308594,61.035762786865234,-88.8178482055664,-0.8607099652290344,0.2646399140357971,-0.9699909687042236,-0.968532919883728,-0.0056967660784721375,-0.24571333825588226,-176.15390014648438,76.35882568359375,57.476707458496094,0.5172870910266634,1.001990712192498,1.32353254879251,0.999231461994218,-217.4163360595703,15.323062896728516,146.2945556640625
719.966,-0.497367262840271,0.2125985324382782,0.21783989667892456,-0.8794887065887451,0.32610684633255005,0.34828317165374756,41.28199005126953,61.04132080078125,-88.75180053710938,-0.44988858699798584,-0.3361523151397705,0.5390461087226868,-0.9742304682731628,-0.0013042378704994917,-0.24671070277690887,-176.24154663085938,76.36128997802734,57.39776611328125,0.5831179560991219,1.0005734495274692,0.7784399957697077,1.0049840183867826,-217.5235366821289,15.319969177246094,146.14956665039062
741.994,-1.2359296083450317,0.2787698805332184,0.3515600562095642,-0.8772965669631958,0.3143687844276428,0.35158848762512207,41.27891540527344,61.048091888427734,-88.69190216064453,0.014418289065361023,-0.8620758652687073,-0.09892135113477707,-0.9785109162330627,-0.02331717312335968,-0.2414977252483368,-176.2107696533203,76.37598419189453,57.428226470947266,1.3148494652234834,0.9960378826422435,0.8678525901607326,1.0081410888610056,-217.48968505859375,15.327892303466797,146.1201286315918
764.4649999999999,-1.2727153301239014,0.3932129740715027,0.6545583009719849,-0.880142092704773,0.3222939968109131,0.35836663842201233,41.28776550292969,61.04813003540039,-88.63043212890625,0.8116347789764404,0.0662154108285904,-0.5124807953834534,-0.973095178604126,-0.02714180201292038,-0.23951499164104462,-176.126220703125,76.37163543701172,57.4970703125,1.4842059573663888,1.0034690684146588,0.9621704946173476,1.002506027542934,-217.4139862060547,15.323505401611328,146.12750244140625
780.201,-1.1817282438278198,0.5686853528022766,0.6383369565010071,-0.8754972815513611,0.31639936566352844,0.35422584414482117,41.300132751464844,61.05328369140625,-88.57405090332031,1.475495457649231,0.4670739471912384,-0.14353682100772858,-0.9766821265220642,-0.012156125158071518,-0.2411535233259201,-176.09783935546875,76.36003112792969,57.49650955200195,1.4585467914287844,0.996032126618523,1.554299757663663,1.0060868597984098,-217.3979721069336,15.306747436523438,146.07056045532227
801.9960000000001,0.27895882725715637,1.0075219869613647,0.36957231163978577,-0.8778862357139587,0.3176652789115906,0.3480651378631592,41.35053634643555,61.07099914550781,-88.50817108154297,1.0221818685531616,-0.1841088831424713,0.6629500985145569,-0.9777014255523682,-0.006003571208566427,-0.24275259673595428,-176.15579223632812,76.36210632324219,57.41716384887695,1.1088292361973684,0.9963658025432742,1.2321747791491522,1.0074050543929378,-217.50632858276367,15.291107177734375,145.92533493041992
824.36,1.1230928897857666,0.911003053188324,0.007925596088171005,-0.8820620775222778,0.32416874170303345,0.3508343994617462,41.40878677368164,61.08979034423828,-88.44389343261719,1.1987642049789429,-0.16007022559642792,1.018858790397644,-0.9763454794883728,-0.010692767798900604,-0.24491100013256073,-176.22792053222656,76.362548828125,57.31889724731445,1.446142115104579,1.003097032966367,1.5813700803517936,1.0066509964165897,-217.6367073059082,15.272758483886719,145.76279067993164
846.927,-0.31927451491355896,1.3780425786972046,-0.24087145924568176,-0.8805463314056396,0.3093279004096985,0.3474275469779968,41.43173599243164,61.12441635131836,-88.38492584228516,1.7548527717590332,-0.6090198755264282,0.5094355344772339,-0.9731537699699402,-0.01154821366071701,-0.24529951810836792,-176.2423858642578,76.37052154541016,57.268463134765625,1.4349064863101266,0.995867206068636,1.926119939963421,1.0036600394703667,-217.67412185668945,15.246105194091797,145.65338897705078
868.635,1.0747196674346924,0.9941056370735168,-0.47680142521858215,-0.8835728764533997,0.31387442350387573,0.3527034521102905,41.46665573120117,61.15340042114258,-88.3389892578125,1.600907564163208,-0.31174567341804504,0.304707795381546,-0.9737816452980042,-0.014322297647595406,-0.24798305332660675,-176.23851013183594,76.37085723876953,57.23981475830078,1.539677882000891,1.0018073202290654,1.6591977683374963,1.004963390211992,-217.7051658630371,15.217456817626953,145.57880401611328
880.181,1.8120110034942627,1.1638797521591187,-0.7626227736473083,-0.8821649551391602,0.3232785761356354,0.3517586886882782,41.52131652832031,61.185218811035156,-88.2867660522461,1.6954559087753296,-0.5247460603713989,1.0405023097991943,-0.9757778644561768,-0.01165078766644001,-0.247067391872406,-176.29791259765625,76.3771743774414,57.144287109375,2.2846429587915416,1.0032239136561973,2.0573221000062047,1.0066382059819399,-217.81922912597656,15.19195556640625,145.4310531616211
901.9639999999999,1.0125200748443604,0.8107614517211914,-0.794094443321228,-0.8784743547439575,0.31756627559661865,0.35271158814430237,41.544437408447266,61.212432861328125,-88.25114440917969,2.2096669673919678,0.8763149380683899,0.718227744102478,-0.9704491496086121,-0.010784621350467205,-0.24226954579353333,-176.328857421875,76.35696411132812,57.067447662353516,1.5208934934680778,0.9984843492766404,2.4832251347518928,1.0002911540410402,-217.87329483032227,15.14453125,145.3185920715332
924.926,0.9452190399169922,0.5364839434623718,-0.6565750241279602,-0.8772112727165222,0.3223371207714081,0.3458140790462494,41.572933197021484,61.23412322998047,-88.20992279052734,1.7497999668121338,1.0266530513763428,0.1657763570547104,-0.971099317073822,-0.010852613486349583,-0.24145881831645966,-176.32412719726562,76.33381652832031,57.036869049072266,1.2697814053305274,0.9964879395530825,2.0355093250374536,1.0007267478105644,-217.8970603942871,15.099693298339844,145.2467918395996
946.924,1.637616753578186,1.0720252990722656,-0.6323990821838379,-0.8719444870948792,0.3289748728275299,0.34851664304733276,41.632259368896484,61.25853729248047,-88.1507568359375,2.155827283859253,0.8147640228271484,0.5440234541893005,-0.9752569198608398,-0.00935177132487297,-0.236637681722641,-176.34378051757812,76.31890106201172,56.97293472290039,2.056928650342033,0.9949751283363938,2.3679934986045676,1.00359897756745,-217.9760398864746,15.06036376953125,145.1236915588379
969.953,2.9462814331054688,1.6323366165161133,-0.779207170009613,-0.871112048625946,0.3250928223133087,0.35497087240219116,41.71811294555664,61.29169464111328,-88.09268951416016,3.357612371444702,0.4541391432285309,1.5646435022354126,-0.9800934195518494,-0.007556655909866095,-0.23547446727752686,-176.42425537109375,76.31396484375,56.82178497314453,3.4572042066495983,0.9952516589460667,3.7320118552033508,1.0080121223661016,-218.1423683166504,15.022270202636719,144.9144744873047
980.259,3.6784303188323975,1.6197315454483032,-0.6554403901100159,-0.8782604336738586,0.32963642477989197,0.3642091453075409,41.81744384765625,61.31963348388672,-88.03626251220703,5.243378162384033,0.40963733196258545,2.0895044803619385,-0.9788122177124023,-0.016179637983441353,-0.23463977873325348,-176.48802185058594,76.31056213378906,56.64775466918945,4.072343550685935,1.0063050548538017,5.659226649548134,1.0066732160896787,-218.3054656982422,14.990928649902344,144.68401718139648
1004.1569999999999,1.9121357202529907,1.614009976387024,-0.3705049455165863,-0.8848776817321777,0.3300155699253082,0.3632998764514923,41.889373779296875,61.34545135498047,-87.9696044921875,4.851047515869141,1.080160140991211,1.5740199089050293,-0.9662727117538452,-0.012539972551167011,-0.2418050915002823,-176.53005981445312,76.28749084472656,56.504634857177734,2.52953852139012,1.011882200777595,5.2131513123096385,0.9961475325809794,-218.41943359375,14.942039489746094,144.47423934936523
1026.564,1.0646175146102905,-0.17831099033355713,0.04895021393895149,-0.9052474498748779,0.34861183166503906,0.38484176993370056,41.910831451416016,61.3306770324707,-87.93574523925781,3.4981486797332764,4.108163356781006,0.5880340337753296,-0.9606878161430359,-0.013144856318831444,-0.2641926109790802,-176.53501892089844,76.18973541259766,56.42748260498047,1.080556053674864,1.0436025788428882,5.42769144078732,0.996439462802062,-218.44585037231445,14.859058380126953,144.36322784423828
1050.039,-3.5027289390563965,-3.576152801513672,-0.46400463581085205,-0.9059982299804688,0.36983272433280945,0.4064064919948578,41.74635314941406,61.258445739746094,-88.00955200195312,4.690378665924072,6.973128318786621,1.0503538846969604,-0.9441101551055908,-0.02015872485935688,-0.2664334774017334,-176.54974365234375,76.03227233886719,56.31437683105469,5.027253642132172,1.0596109066307011,8.469203850605888,0.9811917024933701,-218.2960968017578,14.773826599121094,144.3239288330078
1060.0639999999999,-9.132564544677734,-9.718279838562012,0.2266840636730194,-0.9114342331886292,0.35609978437423706,0.42871183156967163,41.31655502319336,61.08399200439453,-88.25852966308594,0.318429172039032,3.6674227714538574,2.723069906234741,-0.9243563413619995,-0.015489598736166954,-0.27323609590530396,-176.77862548828125,75.93742370605469,56.07119369506836,13.337919022397347,1.0683226349691113,4.57891871913283,0.9640189508462587,-218.0951805114746,14.853431701660156,144.3297233581543
1086.587,-15.39311408996582,-16.584503173828125,2.44628643989563,-0.917172372341156,0.396392285823822,0.4774765074253082,40.669403076171875,60.75155258178711,-88.61322021484375,-1.4466958045959473,3.1919758319854736,1.4324065446853638,-0.9462285041809082,-0.012987826019525528,-0.28081536293029785,-176.94046020507812,75.85079193115234,55.93400573730469,22.75913056897026,1.107391448400072,3.7859512638532915,0.9871040136717242,-217.60986328125,15.099239349365234,144.54722595214844
1106.608,-21.520530700683594,-24.630592346191406,4.887637615203857,-0.9397494196891785,0.41626107692718506,0.5516063570976257,39.77108383178711,60.244346618652344,-89.10511779785156,-0.3549529016017914,3.3770079612731934,-2.576634407043457,-1.0026990175247192,-0.023789865896105766,-0.26225143671035767,-176.73837280273438,75.77540588378906,56.148555755615234,33.0709588978137,1.1664783877814628,4.262536709568406,1.0367000981581118,-216.50945663452148,15.531059265136719,145.2536735534668
1129.9840000000002,-27.25002670288086,-32.55909729003906,9.197171211242676,-0.9268885850906372,0.4769526720046997,0.6005701422691345,38.751773834228516,59.5671272277832,-89.610107421875,5.555853366851807,-1.9392242431640625,-1.8299354314804077,-1.030693531036377,-0.022127509117126465,-0.2560700476169586,-176.45944213867188,75.81473541259766,56.32124328613281,43.44245308380801,1.2030339963146988,6.162528781484203,1.0622573374030018,-215.2112159729004,16.247608184814453,145.9313507080078
1140.0330000000001,-35.616119384765625,-43.678550720214844,15.14658260345459,-0.9399692416191101,0.4898936450481415,0.6168146729469299,37.54045104980469,58.614837646484375,-90.13776397705078,16.349624633789062,-5.71828031539917,0.4763445258140564,-1.0171266794204712,-0.03128383308649063,-0.2666882276535034,-176.11013793945312,75.9240951538086,56.34303283691406,58.3587415698071,1.226376084001636,17.32731541637529,1.051973369896056,-213.6505889892578,17.30925750732422,146.48079681396484
1161.594,-38.56279373168945,-58.72460174560547,21.341197967529297,-0.9372747540473938,0.498518168926239,0.6236514449119568,36.2108039855957,57.33477020263672,-90.76373291015625,20.332181930541992,-8.870534896850586,3.1227002143859863,-0.9655580520629883,0.018139533698558807,-0.28202712535858154,-175.99241638183594,76.08487701416016,56.05101776123047,73.42421018480262,1.2312373670681638,22.40168002721735,1.0060669431128817,-212.20322036743164,18.750106811523438,146.81475067138672
1180.7369999999999,-41.13718795776367,-75.81170654296875,26.492923736572266,-0.933834969997406,0.5156676173210144,0.7104616165161133,34.71625518798828,55.746273040771484,-91.51494598388672,16.68332862854004,-11.590080261230469,6.99961519241333,-0.9705601334571838,0.06079944223165512,-0.2547623813152313,-176.3472442626953,76.32075500488281,55.352874755859375,90.23058289815832,1.2816850437163871,21.486228785701115,1.005279769897671,-211.0634994506836,20.574481964111328,146.8678207397461
1201.804,-44.13359832763672,-92.00934600830078,31.433197021484375,-0.898059070110321,0.4904649555683136,0.7575359344482422,33.11110305786133,53.83150100708008,-92.3140640258789,12.151971817016602,-17.776321411132812,11.35466194152832,-1.0043537616729736,0.041816215962171555,-0.21738338470458984,-177.08987426757812,76.70557403564453,54.346343994140625,106.7779945925744,1.2731561797471722,24.343302359373027,1.0284603105855232,-210.20097732543945,22.874073028564453,146.66040802001953
1220.237,-41.36058807373047,-105.4531021118164,36.266109466552734,-0.8536125421524048,0.5229657888412476,0.8048546314239502,31.606449127197266,51.66194534301758,-93.11125946044922,14.60693359375,-25.051469802856445,19.4128360748291,-1.0389974117279053,0.04641040414571762,-0.16894198954105377,-178.5128173828125,77.26377868652344,52.591854095458984,118.93815908550955,1.2844993445474475,34.89694618106056,1.0536654796567764,-210.11926651000977,25.60183334350586,145.7031135559082
1242.761,-39.65264892578125,-116.09922790527344,39.59174728393555,-0.7920435070991516,0.5170950293540955,0.8394628763198853,30.193330764770508,49.263248443603516,-93.91345977783203,17.501394271850586,-36.16914367675781,28.430809020996094,-1.07124924659729,0.0798180028796196,-0.10949639230966568,179.0684356689453,78.06069946289062,49.764774322509766,128.91419526191405,1.2646810298410789,49.22211553110113,1.079784849795451,148.8751049041748,28.79745101928711,143.6782341003418
1264.993,-39.67875289916992,-124.31067657470703,46.0293083190918,-0.7728888392448425,0.5098095536231995,0.8853307962417603,28.92473030090332,46.61091995239258,-94.5490951538086,13.718198776245117,-47.465396881103516,33.913330078125,-1.0928170680999756,0.08435188978910446,-0.049200378358364105,175.64120483398438,79.04930114746094,45.99048614501953,138.36995687803338,1.281043932723931,59.9271794408272,1.0971713917489037,146.71647453308105,32.43838119506836,140.53958129882812
1280.18,-43.24571990966797,-132.60389709472656,51.39302062988281,-0.7698832154273987,0.493923157453537,0.9166222810745239,27.704864501953125,43.70148468017578,-95.04766082763672,6.429574489593506,-58.82463836669922,37.996524810791016,-1.0992686748504639,0.0689716786146164,-0.027224864810705185,170.7296600341797,80.223876953125,40.86526107788086,148.64463792777002,1.2949427234545803,70.32363333039065,1.1017667199649723,143.02479553222656,36.52239227294922,135.91292190551758
1301.372,-45.05200958251953,-141.70474243164062,58.019351959228516,-0.8166348338127136,0.48617708683013916,0.9327576160430908,26.573348999023438,40.606101989746094,-95.39329528808594,-0.6889722943305969,-69.68911743164062,38.634605407714844,-1.0957081317901611,0.05775226652622223,-0.027940262109041214,164.03366088867188,81.50164794921875,34.08646011352539,159.61253959764525,1.3316521249340418,79.68488254514266,1.0975847541792492,137.46031188964844,40.895545959472656,129.47975540161133
1323.992,-42.355037689208984,-153.68284606933594,59.01573944091797,-0.8703362941741943,0.441497802734375,0.9286540746688843,25.488252639770508,37.33810043334961,-95.76541900634766,-10.217156410217285,-75.79127502441406,42.71010971069336,-1.0656297206878662,0.13695329427719116,-0.08892157673835754,153.9510040283203,82.63851165771484,24.088958740234375,169.98595205305597,1.3471466012187658,87.5948692928797,1.0780676941808016,128.4627513885498,45.300411224365234,119.85437774658203
1346.561,-34.74700927734375,-167.93692016601562,59.86275100708008,-0.8666707277297974,0.4447532296180725,0.9557435512542725,24.553390502929688,33.82587432861328,-96.17594146728516,-22.46139144897461,-81.01676177978516,49.37238311767578,-1.0588600635528564,0.1497163325548172,-0.07469712197780609,139.26116943359375,83.45902252197266,9.691675186157227,181.64171538141284,1.3646865285931165,97.49801028649294,1.071997795917786,114.70777893066406,49.633148193359375,105.86761665344238
1367.322,-33.724876403808594,-180.91099548339844,60.74441909790039,-0.8668569922447205,0.3875066041946411,0.9316070675849915,23.639305114746094,30.100570678710938,-96.61351013183594,-29.177719116210938,-84.27840423583984,52.45607376098633,-1.0712096691131592,0.09597533941268921,-0.08788932114839554,121.45242309570312,83.75225830078125,-7.673853874206543,193.79380801972943,1.3302233427783217,103.4689730681723,1.0790857026894716,97.81311798095703,53.65168762207031,88.9396562576294
1379.109,-26.08970832824707,-192.49270629882812,60.53904724121094,-0.8339402079582214,0.3810085654258728,0.9426058530807495,22.90028953552246,26.086973190307617,-97.07418823242188,-29.221248626708984,-84.33160400390625,53.07073211669922,-1.0998252630233765,0.09136462956666946,-0.07348598539829254,103.81361389160156,83.41357421875,-24.869871139526367,203.46766598104347,1.3149637225563946,103.83738928044198,1.1060575458674164,80.9133243560791,57.32660102844238,72.20431709289551
1402.7730000000001,-23.0631046295166,-202.2093505859375,59.868370056152344,-0.7562664151191711,0.34843191504478455,0.9520009160041809,22.241182327270508,21.89568519592285,-97.56059265136719,-25.82845687866211,-82.52267456054688,49.51454162597656,-1.060435175895691,0.12529441714286804,-0.061745934188365936,89.39936065673828,82.59635162353516,-38.88411331176758,212.14322990074183,1.264772483149352,99.64331805891153,1.0695952569233327,67.15817832946777,60.700666427612305,58.67647933959961
1424.209,-16.45147132873535,-210.36618041992188,60.57053756713867,-0.672640323638916,0.3302779495716095,0.9424619674682617,21.750484466552734,17.5432186126709,-98.0390625,-26.92888069152832,-81.74798583984375,49.426025390625,-1.027883529663086,0.1235746443271637,0.015077274292707443,78.1493911743164,81.42457580566406,-49.64540481567383,219.52988588007665,1.2040610819565754,99.25134654041005,1.035394884801604,56.39890670776367,63.881357192993164,48.39365768432617
1446.738,-13.562325477600098,-216.65603637695312,59.74824523925781,-0.6002021431922913,0.30384552478790283,0.9121093153953552,21.34812355041504,13.076555252075195,-98.53507232666016,-26.133529663085938,-81.30206298828125,48.13323211669922,-1.0116422176361084,0.1358700841665268,0.03737693279981613,69.74629974365234,80.04461669921875,-57.54779815673828,225.15245408412162,1.1333614246378951,98.02956111705228,1.0214096589423092,48.398176193237305,66.96806144714355,40.987274169921875
1468.798,-7.78538703918457,-219.7722625732422,61.6934928894043,-0.5243459939956665,0.29356929659843445,0.8627650141716003,21.108427047729492,8.535181999206543,-98.98258209228516,-27.26274871826172,-79.06985473632812,45.09952926635742,-1.003301978111267,0.13667890429496765,0.06279623508453369,63.42731857299805,78.59624481201172,-63.35621643066406,228.39997091244777,1.0514205262420573,95.02245490275519,1.0145143415950542,42.318891525268555,70.06106281280518,35.626365661621094
1479.074,0.059144794940948486,-221.42105102539062,61.77986145019531,-0.4253431260585785,0.25968223810195923,0.8916935920715332,21.061826705932617,3.9613170623779297,-99.42311096191406,-21.085777282714844,-75.45438385009766,38.436710357666016,-0.9502148628234863,0.1527036726474762,0.07575305551290512,58.626651763916016,77.2014389038086,-67.80675506591797,229.8783082765765,1.0215033537939855,87.26599995951024,0.9653834588339629,37.5648250579834,73.24012184143066,31.616355895996094
1503.801,3.8304831981658936,-221.91275024414062,60.01263427734375,-0.36481040716171265,0.285123348236084,0.875281810760498,21.124412536621094,-0.6087921857833862,-99.8996810913086,-8.557673454284668,-71.46834564208984,38.08647155761719,-0.9622687101364136,0.15033704042434692,0.12286417931318283,55.162715911865234,75.79582214355469,-71.14779663085938,229.91619689651267,0.9902021031744106,81.43425274094785,0.9816607880472005,34.03830337524414,76.40461432933807,28.75188446044922
1526.246,6.982481002807617,-222.75750732421875,57.68238067626953,-0.30545398592948914,0.24439330399036407,0.8691545128822327,21.29173469543457,-5.176949501037598,-100.43490600585938,3.963139295578003,-63.96735382080078,35.812110900878906,-0.9724591374397278,0.17201556265354156,0.12125934660434723,52.93739700317383,74.4851303100586,-73.54562377929688,230.21059739016363,0.9531315710955598,73.41686533139726,0.9949723397783212,31.645662307739258,79.66207981109619,26.8892822265625
1548.913,11.734211921691895,-224.3817596435547,54.95668029785156,-0.24629975855350494,0.22453704476356506,0.8644440770149231,21.60768699645996,-9.75321102142334,-101.05622863769531,7.922098636627197,-60.922000885009766,35.85546875,-0.9586443901062012,0.17923860251903534,0.11667977273464203,51.33736038208008,73.20219421386719,-75.37841033935547,231.31169987599284,0.9264685735743292,71.13272438142523,0.9822116435272363,29.729673385620117,82.95540523529053,25.677818298339844
1558.9569999999999,15.275396347045898,-224.01351928710938,53.23432922363281,-0.17352351546287537,0.20014473795890808,0.8474745154380798,22.05765151977539,-14.30538272857666,-101.74864959716797,15.416997909545898,-64.29633331298828,37.26932144165039,-0.9824100136756897,0.1434791535139084,0.16429950296878815,49.92657470703125,71.85639953613281,-77.18553924560547,230.7580732387181,0.8879084304522865,75.8993058121014,1.0063349487815314,27.86892318725586,86.16178226470947,24.5631103515625
1587.029,18.555118560791016,-224.46803283691406,52.19767761230469,-0.07197900861501694,0.17548877000808716,0.8020420670509338,22.64923858642578,-18.852039337158203,-102.52082824707031,25.60191535949707,-53.148136138916016,30.24128532409668,-0.9172048568725586,0.14158284664154053,0.1461315155029297,49.17494583129883,70.76506805419922,-78.53958129882812,231.20291464122383,0.8241654951522095,66.29266764257588,0.9395024596864638,26.525707244873047,89.61710739135742,23.981246948242188
1608.5629999999999,19.98375129699707,-222.74188232421875,52.145591735839844,0.0009701915550976992,0.1952458918094635,0.7854146361351013,23.349998474121094,-23.357908248901367,-103.3563461303711,26.650941848754883,-51.637325286865234,30.266036987304688,-0.916927695274353,0.13684909045696259,0.16334804892539978,48.60649871826172,69.68135070800781,-79.71194458007812,229.6354920188019,0.8093194982177063,65.5188450686071,0.941364253096414,25.256500244140625,93.03925895690918,23.64440155029297
1618.79,14.277896881103516,-217.56756591796875,51.52800750732422,0.06948014348745346,0.20235641300678253,0.7329806089401245,24.020767211914062,-27.754140853881836,-104.24845123291016,33.14524459838867,-54.335784912109375,31.72014617919922,-0.9442893266677856,0.15584558248519897,0.25730422139167786,48.105010986328125,68.5211181640625,-80.98107147216797,224.04160246813976,0.7635680593805927,71.11365856944637,0.9910477487915648,24.084243774414062,96.27525901794434,23.267379760742188
1648.62,4.17774772644043,-213.84027099609375,50.76258087158203,0.15882155299186707,0.16105671226978302,0.6649320125579834,24.584266662597656,-32.06770324707031,-105.21082305908203,30.76820182800293,-52.78738784790039,31.316129684448242,-0.9405316710472107,0.10710730403661728,0.21658143401145935,47.79002380371094,67.36223602294922,-82.00386810302734,219.82255273854977,0.702351857395074,68.65777842274366,0.9710712210643002,23.20575714111328,99.42993927001953,23.206954956054688
1659.175,-3.293294906616211,-205.8933563232422,48.80170822143555,0.27507102489471436,0.1806628555059433,0.6093482971191406,25.09180450439453,-36.21245193481445,-106.23155212402344,26.131898880004883,-51.99148941040039,12.085577964782715,-0.9572077989578247,0.09120175242424011,0.20399929583072662,46.9051628112793,66.47818756103516,-83.5900650024414,211.62354948049057,0.6925377125458125,59.43107188104063,0.9829446793845359,21.813358306884766,102.69063949584961,22.64148712158203
1678.636,-16.20530891418457,-196.65609741210938,45.77665328979492,0.3606618344783783,0.19898751378059387,0.5602428913116455,25.38409423828125,-40.10462188720703,-107.2799072265625,21.3546085357666,-52.229801177978516,-8.940823554992676,-0.8922351598739624,0.13941660523414612,0.2507043778896332,45.23409652709961,65.93612670898438,-85.93370056152344,202.5629153442932,0.6953740624693471,57.130637688096165,0.9372156931162415,19.85000228881836,106.0407485961914,21.346206665039062
1701.2130000000002,-27.990501403808594,-186.44300842285156,39.99892044067383,0.4240756332874298,0.2051275670528412,0.5185239911079407,25.57704734802246,-43.7701530456543,-108.4391098022461,12.852238655090332,-53.88958740234375,-18.49872589111328,-0.9105978608131409,0.19748488068580627,0.27034538984298706,43.17298889160156,65.46310424804688,-88.52820587158203,192.72876587323302,0.7005601978899888,58.407795099941836,0.9701934714407803,17.5959415435791,109.23325729370117,19.910903930664062
1718.648,-32.70281219482422,-176.3654327392578,34.52119445800781,0.430820494890213,0.22770509123802185,0.5155322551727295,25.824926376342773,-47.169334411621094,-109.71719360351562,8.66561508178711,-27.330707550048828,-31.12996482849121,-0.9741514921188354,0.2300945520401001,0.23273798823356628,41.55759811401367,65.52485656738281,-90.59492492675781,182.66349568965114,0.7093866459954291,42.32180490190715,1.0276583107448192,15.732671737670898,112.6941909790039,19.122268676757812
1741.1779999999999,-26.290159225463867,-166.74957275390625,31.876953125,0.472877562046051,0.17705769836902618,0.35389721393585205,26.323362350463867,-50.46061706542969,-111.0752182006836,6.541113376617432,11.427438735961914,-38.94570541381836,-0.8967828750610352,0.2574036419391632,0.15652915835380554,40.800506591796875,66.24302673339844,-91.67984008789062,171.79270248250933,0.616608348362161,41.111318276720915,0.9460325244415394,14.477144241333008,116.70364379882812,19.39537811279297
1765.077,-16.0733642578125,-158.6290740966797,28.99809455871582,0.5495622754096985,0.18291911482810974,0.31025001406669617,27.200603485107422,-53.604251861572266,-112.57884979248047,5.313403129577637,45.16706848144531,-46.71174621582031,-0.8390077352523804,0.24189768731594086,0.1664755791425705,40.75898742675781,67.58452606201172,-91.9266586303711,162.05685939006236,0.6570640519396641,65.19419884127866,0.8889109007054551,13.55838394165039,121.18877792358398,20.652191162109375
1778.543,-13.555830955505371,-147.51364135742188,23.70270347595215,0.6235840320587158,0.2453058660030365,0.3431668281555176,28.372217178344727,-56.44874954223633,-114.30778503417969,-1.8682152032852173,67.771484375,-45.78725051879883,-0.8330411911010742,0.23947292566299438,0.14850112795829773,41.379486083984375,69.24922943115234,-91.24700927734375,150.01950903628912,0.7528582103427071,81.81036995704089,0.8794074671058787,13.007268905639648,125.69797897338867,23.060775756835938
1801.05,-15.047955513000488,-133.28050231933594,19.34381103515625,0.6980492472648621,0.23889021575450897,0.25944796204566956,29.699443817138672,-59.029258728027344,-116.19334411621094,-8.131836891174316,95.8022232055664,-42.52953338623047,-0.8462096452713013,0.20813219249248505,0.11571704596281052,43.209903717041016,71.29388427734375,-89.17972564697266,135.51500392568929,0.7820834557768931,105.13302978799918,0.8790791818876554,13.510459899902344,130.3231430053711,27.01361846923828
1823.634,-12.539549827575684,-122.49437713623047,19.572078704833984,0.7200274467468262,0.23217739164829254,0.26538756489753723,31.11717987060547,-61.38412094116211,-118.08833312988281,-16.761009216308594,115.93350982666016,-38.403228759765625,-0.8405903577804565,0.19206412136554718,0.10102273523807526,46.457767486572266,73.5272445678711,-85.4825439453125,124.68030720486507,0.8017333876442984,123.27334711871978,0.8681511212596444,15.340587615966797,134.9113655090332,32.60578918457031
1846.349,-4.692859649658203,-106.55652618408203,19.803558349609375,0.7751811146736145,0.28323447704315186,0.21349477767944336,32.60713195800781,-63.41629409790039,-119.85631561279297,-27.087318420410156,140.89053344726562,-40.99905014038086,-0.8349428176879883,0.18283531069755554,0.06124407425522804,51.97539520263672,76.03582763671875,-79.23502349853516,108.48270427776372,0.8524714362539839,149.21389796757282,0.8569183720040134,19.368263244628906,139.45212173461914,40.62129211425781
1868.5,-16.10237693786621,-88.69744873046875,19.07977867126465,0.8305208683013916,0.2606724798679352,0.07066863775253296,33.63142776489258,-65.11137390136719,-121.35067749023438,-34.1336555480957,163.3478546142578,-42.98765563964844,-0.8957375288009644,0.2303505539894104,0.08709661662578583,61.450626373291016,78.55176544189453,-68.91069030761719,92.14424511866004,0.8733321881199588,172.32401627617014,0.9289741217350168,27.819198608398438,143.66313934326172,52.43998718261719
1878.4279999999999,-13.627020835876465,-72.33586120605469,19.589693069458008,0.8980592489242554,0.20000140368938446,0.03511378914117813,34.43682861328125,-66.53064727783203,-122.53205871582031,-27.951751708984375,158.3933868408203,-40.778343200683594,-1.062245488166809,0.19611957669258118,0.10845916718244553,75.05257415771484,80.50298309326172,-54.56629180908203,76.17039180573111,0.9207301202002532,165.92961969672322,1.0856296589715708,40.615745544433594,147.03363037109375,67.96576690673828
1900.919,-3.022941827774048,-52.073116302490234,16.9351749420166,0.9598157405853271,0.21746674180030823,-0.02859782613813877,35.12046432495117,-67.58028411865234,-123.33992004394531,-18.507768630981445,128.78965759277344,-22.880470275878906,-1.0502310991287231,0.22158990800380707,0.04539504647254944,90.11331176757812,81.27577209472656,-38.943904876708984,54.841113856881925,0.9845587211154189,132.10915684617453,1.0743128776806627,54.99284744262695,148.8560562133789,84.39601516723633
1923.466,1.7751646041870117,-32.756858825683594,9.474596977233887,0.997614324092865,0.21351781487464905,-0.0632782056927681,35.70927810668945,-68.22467803955078,-123.93682098388672,-4.14967679977417,79.28999328613281,-9.157718658447266,-0.9535934925079346,0.3618004024028778,-0.052418168634176254,100.3753662109375,81.29747772216797,-28.49421501159668,34.145731759309726,1.0221684441518457,79.9248813817377,1.0212677144291429,64.66608810424805,149.52215576171875,95.44260597229004
1946.679,13.256086349487305,-12.692540168762207,-3.5643320083618164,0.9950585961341858,0.20768390595912933,-0.04470451548695564,36.49358367919922,-68.38813018798828,-124.49523162841797,4.534780025482178,38.64377212524414,-0.2002457082271576,-0.9379392862319946,0.38701117038726807,-0.07354466617107391,105.2977523803711,81.1290054321289,-23.634916305541992,18.695691051858404,1.0174835174291035,38.90945196595516,1.017308492338544,68.80416870117188,149.5171356201172,100.86031532287598
1969.1009999999999,25.182777404785156,5.781557559967041,-16.50385093688965,1.0025867223739624,0.1859121024608612,-0.043553583323955536,37.48204040527344,-68.09708404541016,-124.96796417236328,6.965519428253174,13.461099624633789,3.984457492828369,-0.9085372686386108,0.36460500955581665,-0.08965480327606201,106.92391967773438,80.97657012939453,-22.107982635498047,30.659024468910342,1.0206078386639694,15.67148893761676,0.9830639680351294,69.44187927246094,149.0736541748047,102.85998153686523
1978.4330000000002,40.80247497558594,24.075929641723633,-24.059282302856445,0.9778197407722473,0.17661052942276,-0.0591391883790493,38.50022888183594,-67.4210205078125,-125.095703125,7.228482723236084,-3.0708742141723633,6.97305154800415,-0.931435227394104,0.29243895411491394,-0.06302866339683533,106.39171600341797,80.81371307373047,-22.765287399291992,53.13512413813564,0.9953995017825884,10.50260343012695,0.9782968553175067,67.89148712158203,148.23473358154297,102.33041572570801
2000.8780000000002,67.30265808105469,37.59822082519531,-20.24590492248535,0.9436851143836975,0.1668110340833664,-0.053488463163375854,39.4752082824707,-66.58142852783203,-124.65299224853516,15.696134567260742,-26.961009979248047,6.531635284423828,-1.0454072952270508,0.19755694270133972,0.009641428478062153,103.10716247558594,80.81401062011719,-26.380949020385742,79.70677926077444,0.9598065075279049,31.87360912955106,1.063954000728667,63.631954193115234,147.39543914794922,98.27204322814941
2023.37,91.02340698242188,52.093040466308594,-9.741508483886719,0.965469241142273,0.2604152262210846,-0.14994962513446808,40.129241943359375,-65.65654754638672,-123.34329223632812,22.997669219970703,-62.8140754699707,4.730469703674316,-1.0444258451461792,0.12014253437519073,0.08335272967815399,95.45772552490234,80.9582290649414,-34.556068420410156,105.32731113654097,1.011153715177659,67.05876684159756,1.054612370551476,55.32848358154297,146.61477661132812,88.78722381591797
2045.871,110.08142852783203,80.59087371826172,5.078037738800049,0.9090431928634644,0.21519483625888824,0.23762470483779907,39.94369125366211,-64.4976806640625,-120.6413803100586,15.926419258117676,-104.56209564208984,-2.1884846687316895,-1.0757514238357544,0.055525124073028564,0.12425950169563293,82.25762176513672,81.01811981201172,-48.187625885009766,136.52324454347573,0.9639158907255044,105.79069968856506,1.0843267907091594,42.31393051147461,145.51580047607422,72.45375442504883
2068.884,74.8350830078125,83.04157257080078,-5.381882667541504,1.0411909818649292,0.16524668037891388,0.317379891872406,39.40757369995117,-63.16786193847656,-118.38700866699219,9.236571311950684,-122.14797973632812,-5.737094879150391,-1.040689468383789,0.11703618615865707,0.08857215195894241,67.65230560302734,80.4997787475586,-63.124237060546875,111.91584822921615,1.1009609992447718,122.63098083648988,1.0509886129631163,28.244731903076172,143.66764068603516,55.26277160644531
2079.096,51.33245849609375,110.77074432373047,-11.145550727844238,0.9097911715507507,0.32356929779052734,0.0076785944402217865,38.13317108154297,-61.29966735839844,-115.72171783447266,13.493542671203613,-115.58441162109375,3.5850462913513184,-0.9753593802452087,0.11347950994968414,0.0736265629529953,56.624732971191406,79.35919952392578,-74.51361083984375,122.59446314705,0.9656479830232754,116.4245870103268,0.9846950749257404,18.491561889648438,140.65886688232422,41.208106994628906
2100.746,62.009674072265625,146.4158477783203,-9.619569778442383,0.8124344944953918,0.3302069902420044,0.03427770733833313,36.56398010253906,-58.869171142578125,-112.44844818115234,28.031972885131836,-100.91720581054688,-5.8972649574279785,-0.9925682544708252,0.025848079472780228,0.16329139471054077,48.43379592895508,78.25521087646484,-83.36930847167969,159.29637874702362,0.8776453870846918,104.90401167934023,1.0062424869693216,11.869815826416016,137.12438201904297,29.079139709472656
2128.145,40.17348098754883,158.3651885986328,-19.2792911529541,0.6613107323646545,0.20360001921653748,0.23142382502555847,34.944053649902344,-56.0927734375,-109.56819152832031,31.575929641723633,-92.5028076171875,-0.8309298753738403,-0.9166985750198364,0.12955515086650848,0.22376751899719238,42.83647537231445,76.9334716796875,-89.71572875976562,164.5148400658672,0.72961759803003,97.74711859824448,0.9524666488216799,7.892421722412109,133.0262451171875,19.852462768554688
2138.258,62.6205940246582,174.57249450683594,-20.209882736206055,0.7024117708206177,0.14430047571659088,-0.007083701901137829,33.890968322753906,-52.98276901245117,-106.67652130126953,29.503328323364258,-54.198333740234375,24.009777069091797,-0.7602929472923279,0.27067509293556213,0.0035002613440155983,41.92168426513672,75.79890441894531,-91.228271484375,186.56187712003629,0.7171158218251878,66.21461437841,0.8070456142422224,8.030715942382812,128.78167343139648,15.448249816894531
2161.104,55.50506591796875,190.5155487060547,-38.769203186035156,0.6144610643386841,0.2882181704044342,0.2685188949108124,33.2110710144043,-49.375099182128906,-104.36860656738281,31.09311294555664,-23.201005935668945,39.76129913330078,-0.9204354286193848,0.227641761302948,0.041346389800310135,43.7287483215332,74.93017578125,-90.02322387695312,202.18812466860467,0.7298866420641166,55.552040987167274,0.9490688456041416,10.517677307128906,124.3052749633789,14.345382690429688
2178.374,30.088531494140625,197.38230895996094,-60.73998260498047,0.5393754839897156,0.38605520129203796,0.5564684867858887,32.601600646972656,-45.375240325927734,-102.68242645263672,55.95995330810547,-33.7352409362793,51.1336669921875,-1.061384916305542,0.2700188159942627,0.12060414254665375,45.94414138793945,73.73743438720703,-88.89293670654297,208.69700789587927,0.8658069692255617,82.97128874099813,1.101813714178254,13.342540740966797,119.11267471313477,13.78948974609375
2200.063,-11.686525344848633,199.14202880859375,-69.72883605957031,0.3513871133327484,0.4251136779785156,0.6297966837882996,31.486066818237305,-41.26142501831055,-101.36771392822266,70.60093688964844,-24.136398315429688,50.27545166015625,-0.9461292028427124,0.29993993043899536,0.21042603254318237,48.543174743652344,72.6257095336914,-87.6708984375,211.32021458171246,0.8371609197349589,89.97043432689378,1.0145952619224083,17.05710792541504,113.88713455200195,13.696815490722656
2218.427,-18.42283821105957,187.38922119140625,-70.15277099609375,0.27969783544540405,0.2124347984790802,0.3588912785053253,30.5053653717041,-37.316627502441406,-100.41792297363281,51.74104690551758,17.95707130432129,17.515411376953125,-0.76053386926651,0.13857237994670868,0.1465059518814087,51.12910461425781,72.61717987060547,-86.06145477294922,200.93663793570107,0.5021577168030764,57.50114764429792,0.7868151401201311,20.62373924255371,109.93380737304688,14.356468200683594
2240.723,13.63863754272461,194.27976989746094,-67.76261138916016,0.1721242517232895,0.2151206135749817,0.506655216217041,30.20683479309082,-33.276302337646484,-99.42234802246094,15.417167663574219,37.13434600830078,0.6005709767341614,-0.758298397064209,0.17881792783737183,0.05995502322912216,53.523399353027344,73.1016616821289,-83.91661834716797,206.20963345030833,0.5767175604540887,40.21205537807111,0.7814006111570458,23.316564559936523,106.37796401977539,15.505729675292969
2263.102,23.12021255493164,195.89285278320312,-71.04426574707031,0.01671893522143364,0.3742794394493103,0.7108554840087891,30.2150821685791,-29.178136825561523,-98.54940032958984,-5.471728801727295,13.162348747253418,-2.217210054397583,-0.9050908088684082,0.1785566657781601,0.04195679351687431,54.14166259765625,73.35086822509766,-83.21141815185547,209.65648498357322,0.8035422457685708,14.425784590423405,0.9234891595000456,23.92658042907715,102.52900505065918,15.337982177734375
2278.42,-5.9386773109436035,193.03875732421875,-76.16986083984375,-0.00178561604116112,0.4789086878299713,0.8130441308021545,29.78131675720215,-25.075654983520508,-97.85933685302734,0.06701385974884033,4.871237754821777,-9.725770950317383,-0.9996649622917175,0.18186108767986298,0.06656339019536972,54.12953186035156,73.62723541259766,-83.2821273803711,207.6079897736195,0.9436087527866104,10.87768673475372,1.018250547242723,24.348215103149414,98.70289039611816,14.57720947265625
2300.6839999999997,-38.751731872558594,193.450439453125,-78.02017974853516,-0.02158503234386444,0.41533198952674866,0.8160332441329956,28.78016471862793,-20.940258026123047,-97.28050994873047,9.671650886535645,25.733386993408203,-34.71321487426758,-0.978856086730957,0.15504083037376404,0.09674938768148422,54.39320755004883,74.54975891113281,-83.25189208984375,212.16012277457702,0.9159021949289968,44.28041693492291,0.9957697231940582,25.6130428314209,95.49001693725586,14.028617858886719
2323.246,-51.07070541381836,194.25146484375,-80.2705078125,-0.00532981101423502,0.2510257065296173,0.7643377184867859,27.615453720092773,-16.760040283203125,-96.837158203125,-0.7559289932250977,32.34453582763672,-52.8482666015625,-0.9746569991111755,0.13888287544250488,0.08585859090089798,54.05350875854492,75.84529876708984,-83.63350677490234,216.2988741761831,0.8045212614503896,61.965149151260015,0.9882390483274116,26.43805503845215,92.60533905029297,13.203651428222656
2346.513,-35.447750091552734,198.6851043701172,-79.44253540039062,-0.09834155440330505,0.37253546714782715,0.7829703092575073,26.801536560058594,-12.501919746398926,-96.42156219482422,-6.7538042068481445,37.20449447631836,-59.29080581665039,-0.9769311547279358,0.1736239343881607,0.12234096229076385,53.51082992553711,77.26156616210938,-84.10733032226562,216.89497485179285,0.8726375196977865,70.32203022446512,0.9997535009814732,26.709293365478516,89.7634859085083,12.314231872558594
2369.237,-42.66024398803711,199.7689666748047,-82.81216430664062,-0.16341963410377502,0.33642223477363586,0.7464863061904907,25.895275115966797,-8.189279556274414,-96.12663269042969,-3.2998173236846924,56.03720474243164,-46.56235885620117,-0.9428898096084595,0.15414446592330933,0.10933694243431091,55.170223236083984,78.68927764892578,-82.39470672607422,220.42094052196612,0.8349417358059317,72.93223136562153,0.9616424888799076,29.274948120117188,86.8785572052002,13.731925964355469
2378.24,-45.16010284423828,204.50584411621094,-82.48865509033203,-0.2350514680147171,0.3657805621623993,0.9163733124732971,24.96405601501465,-3.7897260189056396,-95.85953521728516,4.732861042022705,49.468868255615234,-46.2228889465332,-0.9284642934799194,0.21257604658603668,0.09988749772310257,56.989585876464844,79.98631286621094,-80.7105484008789,225.0920997840615,1.014290224780362,67.86843421428001,0.9577118731908347,32.025529861450195,83.77603888511658,15.14898681640625
2400.673,-51.33708953857422,197.53448486328125,-86.31485748291016,-0.329988569021225,0.35851529240608215,0.9893695116043091,23.93488121032715,0.5183210372924805,-95.79586029052734,13.609864234924316,45.88703918457031,-44.47951126098633,-0.9222544431686401,0.2428676337003708,0.07860223203897476,59.346923828125,81.18328857421875,-78.64521026611328,221.59788829045408,1.1028498089340377,65.33969460929224,0.956930643424603,35.41204261779785,80.66496753692627,17.150650024414062
2423.15,-25.78965187072754,183.73077392578125,-84.75947570800781,-0.34569311141967773,0.19504258036613464,1.0462720394134521,23.414194107055664,4.561685085296631,-95.87691497802734,-2.8840103149414062,42.45853805541992,-32.533843994140625,-0.9648621082305908,0.1773310750722885,-0.0007212471682578325,62.52714157104492,82.17047119140625,-75.4197769165039,203.97615584493258,1.1190310611852032,53.56767658145451,0.981022791928379,39.11294746398926,77.60878610610962,20.457138061523438
2445.4880000000003,-13.446393013000488,185.8282470703125,-92.95606231689453,-0.3573378622531891,0.44271788001060486,0.8910682797431946,23.118579864501953,8.708003044128418,-96.09519958496094,-7.721703052520752,43.275455474853516,-25.92723846435547,-1.0171778202056885,0.1520930975675583,0.059625305235385895,66.67182159423828,83.00848388671875,-71.12480163574219,208.2156872470169,1.0572096046883321,51.03539398275368,1.030212699043505,43.55324172973633,74.30048084259033,24.97039794921875
2467.946,-16.923717498779297,185.29031372070312,-86.27157592773438,-0.5547372102737427,0.4052475690841675,0.8596126437187195,22.752775192260742,12.79074478149414,-96.24296569824219,9.711076736450195,51.59236145019531,-20.8987979888916,-1.0035409927368164,0.08989432454109192,0.0357181616127491,73.91487884521484,83.78034210205078,-64.04369354248047,205.08948628769323,1.1004057715006805,56.505190281684065,1.008192095166833,51.1621036529541,70.98959732055664,32.19927215576172
2478.459,-5.377997398376465,179.82443237304688,-77.70866394042969,-0.4977633059024811,0.3073936700820923,0.9684318900108337,22.633487701416016,16.70612907409668,-96.27141571044922,9.661316871643066,51.424835205078125,-28.86326789855957,-1.0008049011230469,0.041066426783800125,0.06507893651723862,82.35974884033203,84.60885620117188,-55.77311706542969,195.97036966264082,1.1314236618965774,59.7573673562328,1.0037590196351491,59.726261138916016,67.9027271270752,40.49829864501953
2500.498,3.8448290824890137,167.928955078125,-70.06051635742188,-0.546632707118988,0.36605963110923767,1.045755386352539,22.69024658203125,20.401763916015625,-96.2508544921875,-11.701444625854492,51.65108108520508,-35.271514892578125,-1.0255684852600098,-0.014159062877297401,0.05791710317134857,92.97267150878906,85.44546508789062,-44.88951873779297,181.99833135656232,1.235480189280837,63.63047812502849,1.0273001449721668,70.28242492675781,65.043701171875,51.36133575439453
2523.042,3.5004541873931885,167.48422241210938,-64.57970428466797,-0.48700523376464844,0.2530749440193176,0.8323682546615601,22.77667236328125,24.022743225097656,-96.13829040527344,-24.571609497070312,46.141563415527344,-35.63862228393555,-1.0435932874679565,0.03708196431398392,0.06814535707235336,105.22119903564453,86.06646728515625,-32.10661315917969,179.53761762372287,0.9970245415098228,63.26862781823765,1.046473034251757,82.44452667236328,62.043724060058594,64.03167724609375
2544.464,13.51425838470459,169.46490478515625,-60.49470520019531,-0.5990922451019287,0.27070143818855286,0.7976826429367065,23.141530990600586,27.649032592773438,-95.85760498046875,-19.720932006835938,39.755374908447266,-37.85289001464844,-1.1002507209777832,0.03415730595588684,0.08545158058404922,119.12362670898438,86.5394287109375,-17.721166610717773,180.4455554752989,1.033677118650263,58.328777424102725,1.1040925428543606,95.98209571838379,58.89039611816406,78.13643836975098
2566.599,12.957794189453125,170.9170379638672,-53.99447250366211,-0.7355898022651672,0.40256232023239136,0.8209078907966614,23.62647819519043,31.270816802978516,-95.3880844116211,-12.217287063598633,40.012962341308594,-44.735267639160156,-1.0890671014785767,-0.01762298494577408,0.019506637006998062,137.95989990234375,86.81468963623047,1.5556883811950684,179.71071575603656,1.1734728561153929,61.24984432036251,1.0893843353053458,114.33342170715332,55.54387283325195,96.94377279281616
2586.625,8.145946502685547,168.8275146484375,-48.152931213378906,-0.7730681896209717,0.4021070897579193,0.7995574474334717,24.12571144104004,34.81466293334961,-94.77046203613281,-13.505708694458008,37.764102935791016,-48.361351013183594,-1.0555379390716553,-0.03319868817925453,-0.055489931255578995,158.3146514892578,86.69369506835938,22.405935287475586,175.7492273986813,1.1826312397293413,62.82795484260913,1.057516726197373,134.18894004821777,51.879032135009766,117.1763973236084
2608.032,14.177360534667969,169.17059326171875,-45.695411682128906,-0.7810744643211365,0.3122725188732147,0.7333952784538269,24.809833526611328,38.32780075073242,-94.03926086425781,-21.711627960205078,38.140045166015625,-47.89496612548828,-0.9946791529655457,0.020937595516443253,-0.03182005509734154,174.52346801757812,86.1580810546875,39.225914001464844,175.80602329002008,1.116001827649193,64.96141634932032,0.9954082158374339,149.7136344909668,47.83028030395508,133.26517486572266
2618.061,22.312450408935547,170.49758911132812,-48.66401290893555,-0.7892359495162964,0.2879001796245575,0.7317441701889038,25.705352783203125,41.87881851196289,-93.29971313476562,-27.375980377197266,36.1890983581543,-37.382713317871094,-1.0344492197036743,0.11805110424757004,0.004075014032423496,-176.93080139160156,85.46170806884766,48.403446197509766,178.70495093429147,1.1141047652901364,58.792536912392144,1.0411713869959045,-202.6361541748047,43.582889556884766,141.7031593322754
2648.113,26.56240463256836,166.2357177734375,-44.803810119628906,-0.9217432737350464,0.359396368265152,0.7882186770439148,26.85651969909668,45.28939437866211,-92.42805480957031,-35.13206100463867,25.82168197631836,-42.16694259643555,-1.0726521015167236,-0.02055654302239418,-0.022785427048802376,-168.7152557373047,84.85832977294922,57.41595458984375,174.20464002072396,1.2649367948790329,60.65535440874835,1.0730909924303118,-195.57177543640137,39.56893539428711,149.84400939941406
2659.49,9.904383659362793,160.33291625976562,-41.530006408691406,-1.00597083568573,0.3810713589191437,0.7172401547431946,27.849096298217773,48.561546325683594,-91.34186553955078,-29.161216735839844,15.10318660736084,-47.67087936401367,-0.999972939491272,-0.14547795057296753,-0.15018492937088013,-160.182373046875,84.24478912353516,66.64053344726562,165.9201081374371,1.2929138186340072,57.88778408740254,1.021599347507555,-188.03146934509277,35.68324279785156,157.9823989868164
2680.3469999999998,1.6191257238388062,145.1092071533203,-34.85869216918945,-1.0968201160430908,0.43742769956588745,0.689991295337677,28.830581665039062,51.481544494628906,-90.18368530273438,-22.420927047729492,15.984217643737793,-36.49793243408203,-0.9568347930908203,-0.08660674095153809,-0.2529691159725189,-155.50839233398438,83.61671447753906,71.83145904541016,149.24621264380926,1.3676422583943686,45.7197140774612,0.9934922860713703,-184.33897399902344,32.135169982910156,162.01514434814453
2702.831,-8.079144477844238,129.48060607910156,-31.98724365234375,-1.0852248668670654,0.45839059352874756,0.5939474701881409,29.679731369018555,54.08340835571289,-89.0013656616211,-23.36199378967285,22.11016082763672,-37.573116302490234,-0.9391065835952759,0.016795048490166664,-0.2955215871334076,-152.01136779785156,82.87378692626953,75.89501953125,133.61767728328374,1.3193212441422937,49.46090409943122,0.9846503224331093,-181.69109916687012,28.79037857055664,164.8963851928711
2718.027,-7.121949672698975,124.81551361083984,-31.474529266357422,-1.01352858543396,0.26251929998397827,0.4825736880302429,30.54583740234375,56.622406005859375,-87.8409652709961,-42.02619552612305,26.35079574584961,-39.38389205932617,-0.9620426297187805,0.02679172158241272,-0.2660382091999054,-149.9475860595703,81.99476623535156,78.88172912597656,128.9196672258232,1.1528373435723498,63.33763889331576,0.9985089616502542,-180.49342346191406,25.372360229492188,166.72269439697266
2740.224,18.166772842407227,107.95100402832031,-28.121763229370117,-1.0741033554077148,0.26952672004699707,0.6154427528381348,31.839752197265625,58.76835250854492,-86.72798919677734,-55.16236114501953,32.97027587890625,-42.21751022338867,-0.9691324234008789,-0.046090565621852875,-0.2757508158683777,-148.70010375976562,80.93180084228516,81.31556701660156,113.02338020674664,1.2669303267892775,76.89111358334378,1.0086528177615321,-180.53985595703125,22.163448333740234,168.0435562133789
2762.723,20.80990982055664,87.96133422851562,-26.021495819091797,-1.0694046020507812,0.5116631984710693,0.761191189289093,33.11984634399414,60.494293212890625,-85.79310607910156,-48.19670486450195,37.24406051635742,-43.065704345703125,-1.0687836408615112,-0.12342612445354462,-0.20449700951576233,-147.69361877441406,79.80406188964844,83.36770629882812,94.0604428581077,1.4088425952562544,74.59689869112196,1.0951490793822087,-180.8134651184082,19.309768676757812,169.1608123779297
2778.061,1.844713807106018,71.33468627929688,-22.341136932373047,-0.9653515815734863,0.5521388649940491,0.7669895887374878,33.9125862121582,61.9306755065918,-84.99986267089844,-46.9276008605957,32.469688415527344,-36.57741165161133,-1.1356050968170166,-0.02810889482498169,-0.10507340729236603,-147.29611206054688,78.89846801757812,84.7728271484375,74.77410537764311,1.3509382041807274,67.78191079826715,1.1408021155332309,-181.20869827270508,16.967792510986328,169.77268981933594
2800.405,-9.887836456298828,61.23876190185547,-17.18167495727539,-0.8760560154914856,0.4744946360588074,0.6196680068969727,34.49188232421875,63.13728332519531,-84.1810073852539,-57.72303009033203,23.215736389160156,-37.24943542480469,-1.1637792587280273,0.03417182341217995,-0.030957510694861412,-146.63978576660156,78.09803009033203,86.6886978149414,64.36742361937536,1.1732892826149333,72.51509538273426,1.164692338787069,-181.1316680908203,14.960746765136719,170.8697052001953
2822.868,-12.522188186645508,56.269996643066406,-11.363066673278809,-0.9044739603996277,0.4985569417476654,0.5716080069541931,35.16166687011719,64.19143676757812,-83.2130355834961,-56.94783020019531,11.864968299865723,-30.317790985107422,-1.0887852907180786,-0.06978069245815277,-0.0917515978217125,-146.02438354492188,77.59351348876953,88.53294372558594,58.75574017416382,1.1804100485932494,65.59726585372104,1.0948703622013098,-181.18605041503906,13.402076721191406,171.74597930908203
2845.265,-15.364203453063965,44.22450256347656,-5.828244209289551,-0.9422572255134583,0.451234370470047,0.5923725366592407,35.73322677612305,64.98008728027344,-82.2640609741211,-46.3642578125,8.076166152954102,-20.35694694519043,-0.92607581615448,-0.08385958522558212,-0.1893746554851532,-145.95523071289062,77.23116302490234,89.572998046875,47.17874315088528,1.2009855778958893,51.27644830878389,0.9489529005385426,-181.68845748901367,12.251075744628906,171.8370590209961
2866.579,-15.980386734008789,22.842044830322266,0.5404801368713379,-0.9958125948905945,0.4433436095714569,0.5981171131134033,36.01041793823242,65.34407806396484,-81.67875671386719,-38.147029876708984,12.516379356384277,-11.962654113769531,-0.9072587490081787,-0.0971478745341301,-0.26145806908607483,-146.63006591796875,76.85183715820312,89.70565795898438,27.882322194847557,1.2433585007107562,41.892251479875576,0.9491661967582933,-182.64048385620117,11.507759094238281,171.38441467285156
2878.221,-18.269100189208984,1.7639256715774536,4.798756122589111,-1.0511298179626465,0.3567093312740326,0.5837688446044922,35.80097579956055,65.2339096069336,-81.49588775634766,-31.620420455932617,16.928573608398438,-9.5174560546875,-0.9318395853042603,-0.11775343120098114,-0.3073837459087372,-147.53428649902344,76.40557861328125,89.5108413696289,18.97101778561952,1.254153700771567,37.10807949729861,0.9882690172966605,-183.33526229858398,11.171669006347656,171.00672912597656
2900.1670000000004,-16.593914031982422,-20.00896453857422,9.099602699279785,-1.0702943801879883,0.4247969388961792,0.6532939672470093,35.27909851074219,64.76612854003906,-81.75826263427734,-19.428651809692383,17.973596572875977,-5.440009117126465,-1.0017985105514526,-0.13937535881996155,-0.30437102913856506,-148.41964721679688,75.9963150024414,89.0624008178711,27.54123116513646,1.323924283030903,27.020665870795657,1.0562516129067785,-183.69874572753906,11.230186462402344,170.82066345214844
2922.726,-23.533065795898438,-40.18146514892578,13.251335144042969,-1.031149983406067,0.3962310254573822,0.7272798418998718,34.30793762207031,63.95433807373047,-82.37612915039062,-12.33054256439209,14.805834770202637,-1.7115395069122314,-1.051163911819458,-0.13775649666786194,-0.23515616357326508,-149.16647338867188,75.72063446044922,88.63636779785156,48.414390529760574,1.322575246346023,19.3438463253446,1.0859193538897278,-183.4744110107422,11.76629638671875,171.0124969482422
2945.018,-27.621665954589844,-57.212345123291016,18.83761215209961,-1.0282992124557495,0.3784273862838745,0.7842313051223755,33.11517333984375,62.792747497558594,-83.13842010498047,-6.599090576171875,7.738014221191406,-1.0983030796051025,-1.068188190460205,-0.16904814541339874,-0.18361049890518188,-149.42428588867188,75.59095001220703,88.52069854736328,66.2651076827499,1.3474514080146653,10.228935925820972,1.0969576568922643,-182.53945922851562,12.798202514648438,171.65911865234375
2967.756,-34.13721466064453,-74.51138305664062,23.554948806762695,-1.0406323671340942,0.3662545382976532,0.757988691329956,31.679594039916992,61.28135681152344,-84.01725006103516,5.284505844116211,0.8293862342834473,1.026789903640747,-1.0237317085266113,-0.18519610166549683,-0.20207640528678894,-149.29824829101562,75.58492279052734,88.53396606445312,85.2767919371359,1.3385084857911191,5.446850562328274,1.0597919987849231,-180.97784233093262,14.303565979003906,172.55121612548828
2978.275,-36.00810241699219,-95.1463851928711,27.748619079589844,-1.028430700302124,0.3722447156906128,0.7565914392471313,30.076845169067383,59.35086441040039,-85.02398681640625,14.050118446350098,-4.5919013023376465,6.831436634063721,-1.0037810802459717,-0.16085495054721832,-0.21055607497692108,-149.22442626953125,75.73152160644531,88.34102630615234,105.44858422836684,1.3299121924493917,16.283731526038657,1.0381640683846676,-179.30127143859863,16.380657196044922,173.3650131225586
3000.159,-35.84432601928711,-115.20451354980469,30.729816436767578,-1.0244183540344238,0.3833899199962616,0.8476038575172424,28.4116268157959,57.039676666259766,-86.11648559570312,21.312355041503906,-10.540387153625488,12.01975154876709,-1.0013543367385864,-0.10811202973127365,-0.19303496181964874,-149.2028350830078,76.05453491210938,87.95127868652344,124.50388455089065,1.3837821700381343,26.64189681793545,1.0255053462378942,-177.6144618988037,19.01485824584961,174.06776428222656
3022.487,-39.60971450805664,-136.97311401367188,35.007598876953125,-1.0312186479568481,0.4203357696533203,0.9017876386642456,26.660022735595703,54.242340087890625,-87.2059326171875,25.216949462890625,-17.428247451782227,18.267242431640625,-1.0341002941131592,-0.1098719984292984,-0.16118395328521729,-149.22560119628906,76.57453918457031,87.41016387939453,146.81994219158975,1.4329392884528065,35.683756746044345,1.052338130602717,-175.88562393188477,22.332199096679688,174.61609649658203
3044.994,-44.07178497314453,-155.84323120117188,38.33591842651367,-1.0229947566986084,0.36679700016975403,0.9219426512718201,24.86305046081543,51.03346633911133,-88.3048095703125,32.381771087646484,-24.195222854614258,23.3963565826416,-1.0707205533981323,-0.14154152572155,-0.1325082927942276,-149.1135711669922,77.2664566040039,86.85834503173828,166.43039861619425,1.425144401034677,46.70521822130053,1.0881337025531503,-173.97662162780762,26.232990264892578,175.16315460205078
3068.044,-42.9215087890625,-172.45468139648438,41.930419921875,-1.0016106367111206,0.3862677216529846,0.96406090259552,23.23769187927246,47.48783874511719,-89.26766204833984,40.57590866088867,-32.48366928100586,31.83156967163086,-1.0834414958953857,-0.11102566123008728,-0.11630914360284805,-149.19126892089844,78.19770050048828,85.9510498046875,182.59527148071845,1.4428582897419735,60.94950337266444,1.0953081709570311,-172.4289608001709,30.709861755371094,175.21871185302734
3078.246,-44.541324615478516,-186.38063049316406,44.31758117675781,-0.9702388048171997,0.3923047184944153,0.9708384275436401,21.72323989868164,43.67575454711914,-90.13481140136719,48.1220817565918,-41.89754104614258,41.810386657714844,-1.1253434419631958,-0.08982372283935547,-0.08061143010854721,-149.6065216064453,79.40789794921875,84.5531234741211,196.68685015244233,1.4275130762698807,76.28399000294182,1.1317969633368166,-171.32976150512695,35.73214340209961,174.68793487548828
3100.038,-45.99524688720703,-198.88304138183594,45.457576751708984,-0.9319130182266235,0.3640751540660858,1.0059489011764526,20.27934455871582,39.629581451416016,-90.911376953125,54.2496337890625,-49.485809326171875,48.59773635864258,-1.139366865158081,-0.06284786015748978,-0.06490552425384521,-150.4353790283203,80.81978607177734,82.62348937988281,209.13253732894293,1.4187832051186016,88.05457438485386,1.1429433205654578,-170.71472358703613,41.19020462036133,173.5348663330078
3128.1949999999997,-46.269798278808594,-210.08641052246094,46.79829025268555,-0.9026504755020142,0.3366483151912689,1.0006144046783447,18.938505172729492,35.386878967285156,-91.58130645751953,56.57709884643555,-55.55620193481445,53.665889739990234,-1.1264203786849976,-0.05878341570496559,-0.033656321465969086,-151.8903045654297,82.3860855102539,80.02815246582031,220.15284256522384,1.3890065355839512,95.74699686614724,1.1284551862849568,-170.82880973815918,46.99920654296875,171.60945892333984
3138.33,-44.23700714111328,-220.11033630371094,46.854942321777344,-0.8514901399612427,0.280537873506546,0.9514682292938232,17.713138580322266,30.98719024658203,-92.17952728271484,55.99082565307617,-60.624420166015625,57.1340446472168,-1.1132380962371826,-0.04092201218008995,-0.024718552827835083,-154.58526611328125,84.06306457519531,76.21773529052734,229.3487705842626,1.307298262937083,100.37226676492335,1.1142641862900182,-172.29840469360352,53.07587432861328,168.3972625732422
3157.426,-38.37590789794922,-229.3982391357422,46.35301208496094,-0.8101134300231934,0.253118097782135,0.9711883664131165,16.6812686920166,26.3560848236084,-92.71674346923828,52.735443115234375,-61.59315490722656,59.0804443359375,-1.0818753242492676,0.00324852648191154,-0.01331291813403368,-160.30975341796875,85.75682830810547,69.45597076416016,237.1599969533639,1.2897904418877384,100.32568262871446,1.0819621083628599,-176.99102210998535,59.40074348449707,162.17271423339844
3179.869,-31.938661575317383,-234.64341735839844,42.4581184387207,-0.7021349668502808,0.21223323047161102,0.9591933488845825,15.821876525878906,21.615510940551758,-93.2591781616211,41.39828872680664,-71.12310791015625,60.38284683227539,-1.0660516023635864,0.07091657817363739,0.029414139688014984,-173.81752014160156,87.61935424804688,55.16514205932617,240.58325634633562,1.2075132861938545,102.07057842433248,1.0688125989037618,-189.63939666748047,66.00384330749512,148.42432022094727
3202.41,-23.943851470947266,-238.62535095214844,39.69324493408203,-0.6273860931396484,0.22226199507713318,0.9890748858451843,15.16614055633545,16.806997299194336,-93.7970962524414,25.686317443847656,-76.73846435546875,58.606712341308594,-1.077616810798645,0.09938076883554459,0.025918608531355858,140.99301147460938,89.31072235107422,8.900152206420898,243.0862394988573,1.1921756725123875,99.91659295091358,1.0825000242024885,125.82687091827393,72.50372505187988,102.6972484588623
3218.442,-20.391284942626953,-241.98080444335938,38.677162170410156,-0.6167723536491394,0.22605207562446594,0.9327755570411682,14.631246566772461,11.933904647827148,-94.30774688720703,13.131980895996094,-78.0806884765625,57.58028793334961,-1.0092101097106934,0.09460404515266418,0.08096075057983398,77.19468688964844,88.24989318847656,-55.58632278442383,245.8992417520293,1.1408671776037254,97.90062509358279,1.0168626328250867,62.56344032287598,76.31598854064941,38.7214241027832
3239.877,-18.3196964263916,-245.9803466796875,38.34716796875,-0.5134735703468323,0.20351850986480713,0.9536508917808533,14.184969902038574,6.981052875518799,-94.79402160644531,3.4939258098602295,-77.57125854492188,60.87302017211914,-1.0085527896881104,0.06217435747385025,0.08537191152572632,58.23627471923828,86.2847900390625,-74.28682708740234,249.624613211594,1.1020548601121143,98.66626705558059,1.0140674255652393,44.05130481719971,79.3037371635437,20.50719451904297
3262.352,-15.336112976074219,-250.14492797851562,37.48857116699219,-0.4701020419597626,0.1808062046766281,0.9364716410636902,13.84083080291748,1.9484490156173706,-95.27821350097656,2.9832377433776855,-80.86080932617188,60.91730499267578,-0.9942487478256226,0.08294784277677536,0.05985541269183159,51.09737777709961,84.26583862304688,-81.30754089355469,253.40298799093574,1.063327770737145,101.28320808449799,0.9994966671293348,37.25654697418213,82.3173896074295,13.970672607421875
3278.3790000000004,-15.02610969543457,-253.6358184814453,34.10882568359375,-0.3642469048500061,0.19794854521751404,0.9140910506248474,13.54648208618164,-3.1385204792022705,-95.81583404541016,5.163949489593506,-78.95401763916016,62.06044387817383,-0.9848142266273499,0.09086205065250397,0.11764474213123322,47.79088592529297,82.24327850341797,-84.61438751220703,256.35975577076385,1.003704081429869,100.5579532908852,0.9959695068462326,34.24440383911133,85.38179898262024,11.201446533203125
3299.928,-11.863752365112305,-254.8641357421875,29.180971145629883,-0.2342950701713562,0.1513286978006363,0.8697991967201233,13.37132740020752,-8.228848457336426,-96.4355697631836,7.1022419929504395,-76.58320617675781,61.77762985229492,-1.0185354948043823,0.1414683610200882,0.07229538261890411,46.29525375366211,80.27561950683594,-86.19197845458984,256.8034372526874,0.9134249817580034,98.65041743350803,1.0308513344290395,32.92392635345459,88.50446796417236,10.24359130859375
3322.2670000000003,-7.673539638519287,-252.36618041992188,22.638141632080078,-0.12277409434318542,0.1619955450296402,0.8308019042015076,13.356833457946777,-13.241291046142578,-97.1738052368164,11.824337005615234,-76.0546646118164,55.75358200073242,-1.0310372114181519,0.19287577271461487,0.15479624271392822,44.98023223876953,78.37252044677734,-87.69390869140625,253.49567587412335,0.8553056990784584,95.03993297951465,1.0602832978914305,31.623398780822754,91.61381149291992,9.479896545410156
3345.632,-8.983089447021484,-248.8046417236328,16.850297927856445,-0.013565982691943645,0.1283877193927765,0.7676289081573486,13.409074783325195,-18.15753936767578,-98.02872467041016,13.848638534545898,-74.75763702392578,50.89030838012695,-1.0068306922912598,0.19242729246616364,0.15290136635303497,43.901119232177734,76.57099151611328,-89.07830810546875,249.53632637252636,0.7784096498734581,91.4894123365429,1.0363952593765473,30.49204444885254,94.72853088378906,8.950416564941406
3367.217,-8.444793701171875,-242.87387084960938,12.786172866821289,0.07365580648183823,0.11336531490087509,0.7143016457557678,13.572042465209961,-22.938032150268555,-98.97256469726562,12.059584617614746,-77.47081756591797,43.291690826416016,-0.9586532115936279,0.15903156995773315,0.20703940093517303,42.40669631958008,74.83159637451172,-90.84090423583984,243.3567708092551,0.726982608856954,89.56188726289295,0.9935654653225392,28.834653854370117,97.76962852478027,8.131660461425781
3377.335,-7.7528228759765625,-234.8833770751953,11.299151420593262,0.14062143862247467,0.1125267744064331,0.6683533787727356,13.83823013305664,-27.55310821533203,-99.95954132080078,8.040789604187012,-80.49699401855469,39.15228271484375,-0.926738440990448,0.1623283326625824,0.2801990211009979,40.757137298583984,73.07189178466797,-92.72213745117188,235.2827616116832,0.6921942667167235,89.87392049568709,0.9816853452203397,26.918907165527344,100.625,7.237403869628906
3399.848,-7.719038486480713,-226.961181640625,12.195651054382324,0.20111767947673798,0.07001807540655136,0.616838812828064,14.176736831665039,-32.0142707824707,-100.95161437988281,9.786487579345703,-83.88943481445312,41.002254486083984,-0.9669433832168579,0.13030117750167847,0.28989163041114807,39.39082336425781,71.25670623779297,-94.36885070800781,227.41964609836327,0.6525649185275598,93.88502269036665,1.01783842558022,25.214086532592773,103.27097702026367,6.582763671875
3422.1569999999997,-7.182483196258545,-219.31919860839844,12.953019142150879,0.25126683712005615,0.08740495890378952,0.6300655007362366,14.60239028930664,-36.32551574707031,-101.96489715576172,9.599557876586914,-79.9384536743164,40.37523651123047,-0.9215752482414246,0.10257105529308319,0.2430933266878128,38.40027618408203,69.54241943359375,-95.62068176269531,219.8187427131535,0.6839277633604989,90.06923787067686,0.9586011292687526,23.79788589477539,105.86793518066406,6.344215393066406
3445.754,-11.737896919250488,-210.98190307617188,10.622551918029785,0.2648332118988037,0.08321090042591095,0.5847784280776978,15.06112289428711,-40.45707321166992,-103.0813980102539,10.21162223815918,-74.68579864501953,37.885276794433594,-0.9005573391914368,0.06880570203065872,0.2184402048587799,37.69143295288086,67.94049835205078,-96.646728515625,211.57499913501445,0.6473225579410551,84.36551396020839,0.9292221848956459,22.63031005859375,108.3975715637207,6.434669494628906
3467.173,-10.736512184143066,-203.45579528808594,8.361832618713379,0.30491572618484497,0.10638715326786041,0.5308361053466797,15.685254096984863,-44.423736572265625,-104.3233642578125,24.509899139404297,-67.47109985351562,31.06929588317871,-0.8885253667831421,0.14214278757572174,0.24806511402130127,37.34136199951172,66.53932189941406,-97.58964538574219,203.91040575441744,0.6213523937307249,78.22011006092585,0.9333907007632523,21.656107902526855,110.96305847167969,6.7337188720703125
3478.25,-14.136104583740234,-197.69947814941406,10.469308853149414,0.35575181245803833,0.06025879085063934,0.5405560731887817,16.333049774169922,-48.281124114990234,-105.61018371582031,27.547494888305664,-55.384063720703125,15.53719425201416,-0.9031597375869751,0.10467147082090378,0.28730303049087524,36.81740188598633,65.52652740478516,-98.81074523925781,198.48052685645442,0.6499164117047945,63.778236053256855,0.9535180437365754,20.484352111816406,113.80765151977539,6.7994384765625
3499.543,-10.92253303527832,-187.90512084960938,14.081587791442871,0.4103606641292572,0.09237447381019592,0.5099219679832458,17.084638595581055,-51.960731506347656,-106.87454223632812,14.46781063079834,-28.318641662597656,-1.1997050046920776,-0.8988254070281982,0.10771407932043076,0.2033720463514328,36.30746841430664,65.12989807128906,-99.75748443603516,188.74831730148261,0.6610214304455053,31.822983866406,0.9278198232633443,19.222829818725586,117.09062957763672,7.117057800292969
3522.0280000000002,-17.245622634887695,-180.36154174804688,15.909286499023438,0.45751839876174927,0.08141571283340454,0.4125211536884308,17.73299789428711,-55.45094299316406,-108.13456726074219,6.726606845855713,-7.90696907043457,-13.74985122680664,-0.8543248772621155,0.03316010162234306,0.14933259785175323,35.761924743652344,65.16371154785156,-100.557861328125,181.88128721423053,0.6213898178616386,17.2286333845386,0.8679117541718664,18.028926849365234,120.61465454101562,7.5767059326171875
3543.6009999999997,-18.56618881225586,-171.89651489257812,15.919821739196777,0.5219688415527344,0.09928175806999207,0.4207194149494171,18.488908767700195,-58.75381088256836,-109.4970703125,7.676712989807129,5.500161170959473,-21.01626205444336,-0.830729603767395,0.1027866005897522,0.17165562510490417,35.312252044677734,65.50982666015625,-101.22276306152344,173.62763582861592,0.6777264677971134,23.04055047032166,0.8544837116449241,16.82334327697754,124.26363754272461,8.274307250976562
3565.692,-17.97153091430664,-162.08645629882812,14.027377128601074,0.5625645518302917,0.0994800478219986,0.31130146980285645,19.502840042114258,-61.90937042236328,-111.08112335205078,5.134570121765137,28.428421020507812,-23.657522201538086,-0.833511233329773,0.1511857658624649,0.15231691300868988,35.293521881103516,66.27197265625,-101.35895538330078,163.68189438060583,0.6506026129613244,37.33921917730526,0.860696551564392,15.790681838989258,128.18134307861328,9.72216796875
3586.9460000000004,-15.387351036071777,-152.24501037597656,13.787795066833496,0.6227335333824158,0.08608634769916534,0.2978406250476837,20.726154327392578,-64.86907958984375,-112.80298614501953,-4.163686752319336,49.542137145996094,-29.37651824951172,-0.8651683330535889,0.11195443570613861,0.17330463230609894,35.427574157714844,67.4571533203125,-101.12480163574219,153.64054493880678,0.6956413952518387,57.74720309095515,0.8894293315220483,14.701419830322266,132.32623291015625,11.678184509277344
3597.583,-15.796712875366211,-139.20562744140625,15.045687675476074,0.7005840539932251,0.1193917766213417,0.24795733392238617,22.122560501098633,-67.59842681884766,-114.66741943359375,-0.5624086856842041,78.18850708007812,-38.11455154418945,-0.9096423387527466,0.10872136801481247,0.20764589309692383,36.136051177978516,69.22505950927734,-100.35272216796875,140.90463287859038,0.7526986465248096,86.98550443812942,0.9393542128689252,14.013490676879883,136.823486328125,14.314697265625
3627.04,-16.733613967895508,-127.3860092163086,16.9466552734375,0.7078614830970764,0.1565009504556656,0.19376114010810852,23.68703269958496,-70.1065673828125,-116.68350219726562,-2.8438515663146973,116.06698608398438,-36.689273834228516,-0.8178558349609375,0.12764781713485718,0.1190863624215126,38.450679779052734,71.58983612060547,-97.88801574707031,129.59320316066245,0.7504024294749541,121.7609771841293,0.8362796743397115,14.763647079467773,141.69640350341797,18.795486450195312
3637.057,-19.981151580810547,-117.64726257324219,17.633955001831055,0.7958377003669739,0.1387465000152588,0.1558094322681427,25.352109909057617,-72.4454116821289,-118.84912109375,-5.835393905639648,142.330322265625,-34.62314224243164,-0.792560338973999,0.2004084587097168,0.1047745794057846,42.81631088256836,74.23711395263672,-93.24181365966797,120.6278623638806,0.8227300989848363,146.59718427381304,0.8241924251815492,17.464200973510742,146.68252563476562,25.60730743408203
3656.996,-14.475127220153809,-107.56048583984375,16.6917667388916,0.8549289703369141,0.133259117603302,0.0955110490322113,27.42815589904785,-74.58587646484375,-121.30292510986328,-19.989248275756836,141.6487274169922,-32.33793640136719,-0.8122548460960388,0.23332932591438293,0.09787607192993164,48.696144104003906,76.68187713623047,-86.78739166259766,109.80620428285658,0.8705078386970333,146.66176787486938,0.8507527459812241,21.267988204956055,151.26775360107422,34.515533447265625
3680.981,-8.388100624084473,-95.23110961914062,17.03538703918457,0.9285604953765869,0.1501922309398651,0.0040419334545731544,29.61049461364746,-76.4283676147461,-123.72966003417969,-27.487865447998047,120.18275451660156,-27.526641845703125,-0.8984889984130859,0.24655497074127197,0.09209136664867401,55.40607452392578,78.58674621582031,-79.44805145263672,97.10576132726297,0.9406373568143875,126.3217845083997,0.9362439071512296,25.79557991027832,155.0151138305664,44.28160858154297
3697.16,-4.955935478210449,-81.19700622558594,17.446069717407227,1.005971074104309,0.12028221040964127,-0.07454356551170349,31.833446502685547,-78.00979614257812,-126.03274536132812,-22.754079818725586,86.79890441894531,-24.650157928466797,-1.0364012718200684,0.22778131067752838,0.10092047601938248,61.4437141418457,79.90318298339844,-72.95185089111328,83.19783930515659,1.0158751671513602,93.05604893087012,1.0659253558313577,29.610267639160156,157.91297912597656,53.080894470214844
3719.451,2.9711151123046875,-64.35284423828125,17.371681213378906,1.077162504196167,0.12919259071350098,-0.12168029695749283,33.90340042114258,-79.28681182861328,-127.98978424072266,-14.414835929870605,54.36793518066406,-17.2734432220459,-1.0506746768951416,0.2496856451034546,0.09078196436166763,66.01471710205078,80.65960693359375,-68.04881286621094,66.72249541756,1.0916848815519464,58.839032210253265,1.0837442332454652,32.1113166809082,159.94641876220703,59.94097137451172
3741.982,13.663792610168457,-47.293575286865234,17.323116302490234,1.083483099937439,0.15163971483707428,-0.13772006332874298,35.573516845703125,-80.2685317993164,-129.3792266845703,-3.7784080505371094,26.005760192871094,-11.108577728271484,-1.0633049011230469,0.2722071409225464,0.06727371364831924,68.5020751953125,81.01602172851562,-65.5018081665039,52.186893472764666,1.1026772178698463,28.530272163975788,1.0996543970127868,32.928558349609375,161.28455352783203,63.877418518066406
3756.945,21.723167419433594,-28.45515251159668,15.629149436950684,1.1324301958084106,0.14614444971084595,-0.19075597822666168,36.49633026123047,-80.91798400878906,-129.83847045898438,1.8384675979614258,10.5670747756958,-9.656240463256836,-1.0333633422851562,0.34536829590797424,0.07450944185256958,69.40177154541016,81.2447509765625,-64.67738342285156,39.062283846614804,1.1576459699706003,14.43211738824692,1.0920946451303148,32.90544128417969,162.16273498535156,65.16108703613281
3779.3540000000003,31.115550994873047,-11.20191764831543,8.740541458129883,1.1258642673492432,0.1336934119462967,-0.1733187586069107,37.078617095947266,-81.20462036132812,-129.76329040527344,3.5785670280456543,-3.317905902862549,-3.3386003971099854,-1.0263874530792236,0.3427006006240845,0.06283695995807648,68.94776916503906,81.27205657958984,-65.20507049560547,34.20610380758781,1.1469453644253202,5.912773813198726,1.08391115366682,31.869152069091797,162.47667694091797,64.55821990966797
3801.9120000000003,37.96961975097656,5.554786205291748,1.4616096019744873,1.1105257272720337,0.1039998009800911,-0.12772692739963531,37.25897979736328,-81.13301086425781,-129.17059326171875,4.724057197570801,-9.340068817138672,1.8243968486785889,-1.018998384475708,0.32495346665382385,0.05120860040187836,68.22734069824219,81.09354400634766,-66.02466583251953,38.40161424274809,1.1226742704453192,10.624595322941719,1.0707823232616234,30.968360900878906,162.22655487060547,63.14592742919922
3824.0409999999997,42.520076751708984,21.16330909729004,-3.7909414768218994,1.0713422298431396,0.09125985205173492,-0.07812640070915222,36.89813995361328,-80.74593353271484,-127.94760131835938,3.2949347496032715,-12.844980239868164,5.240001678466797,-0.9748708009719849,0.2547493875026703,0.06261934340000153,67.19770812988281,80.838623046875,-67.13446807861328,47.64676081539385,1.0780567093291253,14.258601963624681,1.0095501528842399,30.29956817626953,161.58455657958984,60.813133239746094
3844.396,49.145973205566406,33.89634704589844,-5.186918258666992,1.0370230674743652,0.0740005373954773,-0.026390377432107925,36.19718551635742,-80.20637512207031,-126.22762298583984,-3.1401355266571045,-11.437533378601074,4.599191188812256,-0.9602246284484863,0.19425325095653534,0.0600859560072422,66.15801239013672,80.63601684570312,-68.13282775878906,59.92656461370309,1.0399948913479193,12.721249172295781,0.9815171851249068,29.960826873779297,160.84239196777344,58.09479522705078
3865.881,53.67725372314453,46.47920608520508,-4.999866962432861,1.0030066967010498,0.06517548859119415,0.025678761303424835,34.8521842956543,-79.45429229736328,-123.75315856933594,-10.273097038269043,-10.424324035644531,2.5654842853546143,-0.9402382373809814,0.14228911697864532,0.05973458290100098,64.96160888671875,80.50358581542969,-69.1440658569336,71.17979232346653,1.0054499871810287,14.858827812994198,0.9528181128831535,30.109424591064453,159.95787811279297,54.609092712402344
3876.9010000000003,52.12965774536133,60.55958557128906,-2.3958213329315186,0.9771331548690796,0.07019265741109848,0.05729913339018822,32.741554260253906,-78.47435760498047,-120.54431915283203,-17.033870697021484,-12.989673614501953,-2.3923983573913574,-0.9449052214622498,0.10165885090827942,0.04720938950777054,63.1210823059082,80.46048736572266,-70.65795135498047,79.94188252145507,0.9813253294326499,21.554766095566528,0.9515298870620467,30.379528045654297,158.93484497070312,49.88636779785156
3899.232,48.81767654418945,74.1225357055664,-0.8313316106796265,0.928179144859314,0.07886097580194473,0.07325148582458496,30.280498504638672,-77.25254821777344,-116.9703140258789,-21.968578338623047,-17.871309280395508,-8.012934684753418,-0.9266082048416138,0.0984565019607544,0.02798377349972725,60.453250885009766,80.46699523925781,-72.91533660888672,88.75813740070815,0.9343989290617319,29.431433058515733,0.9322443561842733,30.172752380371094,157.71954345703125,44.05497741699219
3921.8540000000003,48.009395599365234,85.85542297363281,-2.120445489883423,0.8579068779945374,0.09859085083007812,0.07271665334701538,28.060535430908203,-75.78616333007812,-113.66126251220703,-24.988096237182617,-20.51998519897461,-14.075312614440918,-0.9180133938789368,0.1097060814499855,0.0136822909116745,57.174156188964844,80.52836608886719,-75.7366714477539,98.38979626400958,0.8666095307874953,35.26455970686543,0.9246465382689898,29.11362075805664,156.3145294189453,37.924591064453125
3944.2659999999996,45.55131530761719,98.68358612060547,-6.711556434631348,0.777073860168457,0.1471932977437973,0.08785345405340195,26.239839553833008,-73.99571228027344,-110.78440856933594,-21.417001724243164,-27.110435485839844,-15.920975685119629,-0.9551513195037842,0.1596135050058365,0.012174014002084732,53.309814453125,80.49290466308594,-79.2273178100586,108.89636121401007,0.7957561689656663,38.04130836149421,0.9684723644725187,27.069974899291992,154.48861694335938,31.557090759277344
3967.051,38.617828369140625,107.21044158935547,-16.54886245727539,0.6950122117996216,0.1977599710226059,0.07968401163816452,25.002288818359375,-71.91778564453125,-108.63936614990234,-4.925145149230957,-49.68659591674805,-6.362462043762207,-1.027295708656311,0.2646407186985016,0.05150531232357025,48.63811111450195,79.9327163696289,-83.86727142333984,115.14894833372479,0.7269804140416818,50.33384340375282,1.0620847330672258,23.635822296142578,151.85050201416016,24.7720947265625
3977.725,29.917604446411133,117.46117401123047,-25.484371185302734,0.7215396165847778,0.18100450932979584,0.17814716696739197,24.325016021728516,-69.57616424560547,-107.25355529785156,10.699956893920898,-67.81989288330078,9.291401863098145,-0.9155551791191101,0.27977967262268066,0.004205290228128433,44.31024932861328,78.85395050048828,-88.46762084960938,123.86138878043784,0.7649303653258486,69.28460937910916,0.9573586766152918,19.985233306884766,148.43011474609375,18.785934448242188
4002.137,15.464470863342285,133.11753845214844,-32.227088928222656,0.7148293852806091,0.20618510246276855,0.21754862368106842,23.599855422973633,-66.87928009033203,-106.05393981933594,10.476669311523438,-61.556575775146484,4.10227632522583,-0.8912925720214844,0.1404324620962143,-0.012394918128848076,40.95713424682617,77.92901611328125,-92.08264923095703,137.83328394633116,0.7751262801658598,62.57636368528357,0.9023731818635229,17.35727882385254,144.80829620361328,13.971290588378906
4024.565,4.769264221191406,147.04368591308594,-37.90805435180664,0.6533842086791992,0.17398574948310852,0.2413482666015625,22.811050415039062,-63.88031768798828,-104.9942626953125,6.37647008895874,-47.84568405151367,-5.545025825500488,-0.9028627276420593,0.10012056678533554,0.06227042153477669,38.04523468017578,77.31094360351562,-95.19532775878906,151.92633752202852,0.7179351996984973,48.586172565433905,0.9105288783211628,15.234184265136719,141.1912612915039,9.798934936523438
4046.5429999999997,3.586371421813965,158.14549255371094,-44.16272735595703,0.5968666672706604,0.16837961971759796,0.27384060621261597,22.224475860595703,-60.614688873291016,-104.2121810913086,6.9191203117370605,-40.11525344848633,2.361565351486206,-0.8899799585342407,0.14275860786437988,0.09663790464401245,36.36021041870117,76.6616439819336,-97.08030700683594,164.23521352787787,0.6779308168581224,40.77603188190247,0.9065226038692967,14.135734558105469,137.2763328552246,7.131874084472656
4057.6610000000005,2.0740609169006348,167.24021911621094,-53.069175720214844,0.6064797043800354,0.16734057664871216,0.34303057193756104,21.857210159301758,-57.10429382324219,-103.70862579345703,2.885209798812866,-15.489355087280273,26.302709579467773,-0.7280932664871216,0.23220433294773102,-0.041640207171440125,37.3832893371582,76.095458984375,-96.09645080566406,175.47059591381202,0.7165824960894794,30.66067657154432,0.7653578011602599,15.526079177856445,133.1997528076172,7.612174987792969
4084.722,-4.019030570983887,176.93780517578125,-60.50612258911133,0.6361398100852966,0.12430383265018463,0.4056217670440674,21.47090721130371,-53.37835693359375,-103.28284454345703,-1.9763160943984985,-0.9059459567070007,39.929264068603516,-0.9327619671821594,0.16494852304458618,-0.013992437161505222,39.80851745605469,75.5999984741211,-93.58202362060547,187.0404511808122,0.7646269147020879,39.98840697554385,0.9473376858194975,18.337610244750977,128.97835540771484,9.700820922851562
4106.8550000000005,-1.8697000741958618,185.49569702148438,-70.30014038085938,0.5527365803718567,0.16777415573596954,0.4803710877895355,21.352401733398438,-49.369384765625,-103.19104766845703,16.99966049194336,-6.587414264678955,53.83250045776367,-1.030537724494934,0.1802034080028534,0.10863704234361649,43.013160705566406,74.82337951660156,-90.64696502685547,198.37907936428758,0.7512804247404513,56.83590932738704,1.0518000175091309,21.66075897216797,124.19276428222656,12.544082641601562
4116.874,2.117602825164795,188.0237274169922,-83.72047424316406,0.4282727539539337,0.15067803859710693,0.5319832563400269,21.577585220336914,-45.22999954223633,-103.43800354003906,28.911922454833984,22.700172424316406,71.55514526367188,-0.9428156018257141,0.24265652894973755,0.09422202408313751,48.5733757019043,74.1240005493164,-85.52479553222656,205.83130014894436,0.6993765853393268,80.44461387708448,0.9780906092536834,26.995790481567383,119.35400009155273,17.9132080078125
4139.061,12.36623764038086,186.00112915039062,-91.95285034179688,0.3805859386920929,0.14560185372829437,0.6403825879096985,22.127527236938477,-41.0943489074707,-103.84858703613281,33.21486282348633,42.006072998046875,60.8027229309082,-0.9061143398284912,0.2890995442867279,0.1037510558962822,54.348018646240234,73.6789779663086,-80.25752258300781,207.85733223675214,0.7590358459500973,81.02288810523262,0.9567580806814279,32.22049140930176,114.7733268737793,23.591064453125
4156.964,13.41850471496582,189.77194213867188,-94.73477935791016,0.3408028483390808,0.2272343933582306,0.7169270515441895,22.643173217773438,-36.86521911621094,-104.24038696289062,32.9531135559082,43.26864242553711,27.561725616455078,-0.9634528756141663,0.11590126901865005,0.09961359202861786,58.47879409790039,73.77385711669922,-76.67249298095703,212.52793866186371,0.825691496987076,60.97320583120365,0.9754985471061366,35.83562088012695,110.63907623291016,27.567893981933594
4179.215,-2.1282482147216797,195.4712677001953,-92.92210388183594,0.3089415729045868,0.15737920999526978,0.7256980538368225,22.742570877075195,-32.543460845947266,-104.48861694335938,23.864137649536133,48.67257308959961,3.0445058345794678,-1.0439622402191162,0.04897736757993698,0.13835598528385162,62.000492095947266,74.20635223388672,-73.54798889160156,216.4441344241317,0.8042703379772544,54.293512068157945,1.0542287798206997,39.25792121887207,106.74981307983398,30.940628051757812
4196.722000000001,3.55631160736084,198.79327392578125,-88.53785705566406,0.24856999516487122,0.13770046830177307,0.7663812637329102,22.869213104248047,-28.194440841674805,-104.59709167480469,21.552425384521484,60.944923400878906,-8.723006248474121,-1.0110745429992676,0.07093408703804016,0.19193731248378754,66.07073974609375,74.90556335449219,-69.81841278076172,217.64734145490624,0.8173669328200427,65.22945321176073,1.031573219955131,43.2015266418457,103.10000419616699,34.77867889404297
4219.157,6.4031243324279785,201.93251037597656,-89.32298278808594,0.18112300336360931,0.22009551525115967,0.7524425387382507,23.030397415161133,-23.781248092651367,-104.6730728149414,19.85565185546875,68.16886138916016,-18.133831024169922,-1.020171046257019,0.13214169442653656,0.1962709277868271,70.50218200683594,75.79119873046875,-65.65472412109375,220.89892259158057,0.8046224905407451,73.28080513554185,1.0472500504279572,47.471784591674805,99.57244682312012,39.018348693847656
4241.522,-1.1807148456573486,206.5923309326172,-87.86568450927734,0.07957016676664352,0.2267356812953949,0.8204035758972168,23.007749557495117,-19.293804168701172,-104.67450714111328,32.292293548583984,65.8458023071289,-29.511837005615234,-0.9494144320487976,0.16763654351234436,0.18369877338409424,75.27257537841797,76.76014709472656,-61.4216194152832,224.50426232480004,0.8548698777923449,79.05321263265283,0.9814453697716078,52.26482582092285,96.05395126342773,43.25288772583008
4266.393,-0.8425678610801697,209.6968994140625,-84.55006408691406,0.020866667851805687,0.2108626365661621,0.8296704292297363,22.967370986938477,-14.775025367736816,-104.5909194946289,16.184432983398438,79.69274139404297,-48.79152297973633,-1.0049002170562744,0.163474902510643,0.19440290331840515,81.28433990478516,78.06275939941406,-55.61709213256836,226.1022177723457,0.8563010513044614,94.83396868513974,1.0365042107050202,58.31696891784668,92.83778476715088,48.97382736206055
4286.775,1.0120476484298706,212.04025268554688,-78.53841400146484,-0.029565369710326195,0.21392592787742615,0.9733070135116577,22.941736221313477,-10.260187149047852,-104.37769317626953,-8.774127960205078,69.3208236694336,-56.872074127197266,-1.1006982326507568,0.08610033988952637,0.1333509385585785,87.1031494140625,79.40841674804688,-49.552734375,226.12026771888173,0.9969779116185615,90.09325574758734,1.1120846823439505,64.16141319274902,89.66860389709473,54.82495880126953
4296.857,-7.66813850402832,209.59962463378906,-75.33596801757812,-0.0803007036447525,0.29158154129981995,0.9466946125030518,22.754865646362305,-5.814736843109131,-104.13651275634766,-1.5736650228500366,65.86570739746094,-67.99613189697266,-1.0470495223999023,0.051791127771139145,0.0839933454990387,94.42496490478516,80.84068298339844,-42.163291931152344,222.85939753999108,0.9938303112578748,94.67967989765589,1.0516890725693555,71.67009925842285,86.65541982650757,61.97322082519531
4318.8589999999995,-4.498439311981201,203.95521545410156,-71.69967651367188,-0.1753118634223938,0.3203899562358856,0.9452585577964783,22.648929595947266,-1.5006974935531616,-103.88584899902344,5.266424655914307,75.31094360351562,-72.97781372070312,-0.9403979778289795,0.07322957366704941,0.06680013239383698,105.69918823242188,82.08631134033203,-30.854188919067383,216.23785394638415,1.0133596176091402,105.00111785386848,0.9456073100669885,83.05025863647461,83.58700883388519,73.03166007995605
4341.9800000000005,1.8712799549102783,198.03057861328125,-69.71356964111328,-0.30365651845932007,0.3837352395057678,1.0192396640777588,22.688383102416992,2.688793182373047,-103.6353759765625,-2.6826529502868652,60.66208267211914,-59.1327018737793,-0.936505138874054,0.19198140501976013,0.01798347756266594,117.015380859375,82.76025390625,-19.37630844116211,209.95140758443836,1.130623504120946,84.7570724592583,0.9561496433488428,94.32699775695801,80.07146072387695,84.25906753540039
4363.874,-0.29868146777153015,189.35536193847656,-69.94947814941406,-0.33650851249694824,0.3840578496456146,1.018186330795288,22.696229934692383,6.720017910003662,-103.46444702148438,-6.683333873748779,56.93657684326172,-40.65093994140625,-0.9734569191932678,0.24238823354244232,-0.038517728447914124,127.40342712402344,82.79235076904297,-8.718873023986816,201.86250716476798,1.1390530343560366,70.27758997302385,1.0039193417251513,104.70719718933105,76.0723328590393,94.74557399749756
4386.429,-7.15177059173584,182.0560302734375,-72.02017974853516,-0.3274416923522949,0.43069809675216675,1.0394915342330933,22.571563720703125,10.7000150680542,-103.39115905761719,-13.490498542785645,47.14022445678711,-35.20613098144531,-1.0757732391357422,0.1351480633020401,-0.07538480311632156,136.05606079101562,82.68206024169922,0.35199376940727234,195.9144003704958,1.1718624331288823,60.36278631285881,1.0868467829440291,113.4844970703125,71.98204517364502,103.74315282702446
4396.593,-10.047561645507812,181.51902770996094,-66.3472900390625,-0.43082764744758606,0.364949107170105,0.9606481790542603,22.41063690185547,14.582383155822754,-103.22496032714844,-10.326837539672852,48.46620178222656,-48.09873962402344,-1.18403959274292,0.00795053318142891,-0.08298249542713165,146.36636352539062,82.56950378417969,11.017658233642578,193.52538286053675,1.1142913607085645,69.05870721484656,1.1869705399494979,123.95572662353516,67.98712062835693,114.24261856079102
4424.3730000000005,-0.3984706699848175,182.3985595703125,-58.04484558105469,-0.43855518102645874,0.36922794580459595,0.8853212594985962,22.48826026916504,18.4562931060791,-102.85358428955078,-0.5677381753921509,56.49376678466797,-54.68098068237305,-1.0794498920440674,0.024019978940486908,-0.09281382709741592,157.43231201171875,82.10809326171875,22.29006576538086,191.41211406472726,1.0547291857573735,78.62491755507477,1.083698959731308,134.9440517425537,63.65180015563965,125.14365005493164
4441.342,3.6593868732452393,176.7352294921875,-53.581295013427734,-0.484485387802124,0.41120418906211853,1.010549783706665,22.693897247314453,22.167694091796875,-102.44849395751953,-1.6750092506408691,53.63701629638672,-45.91951370239258,-1.0080735683441162,0.06241656467318535,-0.0744841992855072,165.52232360839844,81.4044418334961,30.56502914428711,184.71515268450565,1.193744462372746,70.62815948212729,1.0127467811268742,142.82842636108398,59.23674774169922,133.01352310180664
4463.845,-5.154682636260986,169.0600128173828,-51.87234115600586,-0.5858601331710815,0.3623267710208893,0.9276467561721802,22.733497619628906,25.753707885742188,-102.02628326416016,-4.586913108825684,47.53525161743164,-40.76583480834961,-0.9774690270423889,0.14228515326976776,-0.08521955460309982,171.18943786621094,80.65380096435547,36.47902297973633,176.91409910998973,1.1554398681343956,62.789276200813966,0.991439930684127,148.45594024658203,54.90009307861328,138.50530624389648
4483.990000000001,-0.9246747493743896,166.72201538085938,-43.683475494384766,-0.62322998046875,0.313958078622818,0.7760241627693176,22.96634292602539,29.218963623046875,-101.4604263305664,-5.065202236175537,43.51009750366211,-42.9052619934082,-1.0459424257278442,-0.026684660464525223,-0.11401273310184479,176.67877197265625,79.90867614746094,42.244564056396484,172.3523468575817,1.0436468679057254,61.315955225328906,1.0524763808993085,153.71242904663086,50.68971252441406,143.7049903869629
4506.351000000001,4.896695613861084,169.0356903076172,-35.31275939941406,-0.5702372789382935,0.34443408250808716,0.8504812717437744,23.463340759277344,32.6143684387207,-100.63180541992188,-13.621438980102539,34.69390869140625,-44.19211196899414,-1.083714246749878,-0.1018325686454773,-0.07580997049808502,-178.5336151123047,79.26354217529297,47.45159149169922,172.75425668303626,1.0803350337145625,57.81136272789637,1.0911249205624953,-201.99695587158203,46.649173736572266,148.0833969116211
4516.5470000000005,3.35288405418396,173.96104431152344,-32.72357177734375,-0.6026853322982788,0.3398251533508301,0.8526999950408936,24.059242248535156,36.052494049072266,-99.64881896972656,-10.171813011169434,27.802745819091797,-39.39955520629883,-1.0906094312667847,0.005188536364585161,-0.05536342412233353,-174.88169860839844,78.72868347167969,51.385414123535156,177.04383332752258,1.0980929041570853,49.282688699678424,1.0920260808278415,-198.9409408569336,42.67618942260742,151.03423309326172
4540.197,6.080141067504883,172.44180297851562,-30.480985641479492,-0.714506208896637,0.35243964195251465,0.8165422081947327,24.84630012512207,39.45458984375,-98.52012634277344,-1.151275396347046,23.127376556396484,-38.815696716308594,-1.0290321111679077,0.051220670342445374,-0.16014869511127472,-171.58543395996094,78.19233703613281,54.85635757446289,175.2205296635016,1.1408216344087236,45.198000984468784,1.0426784007693142,-196.431734085083,38.73774719238281,153.37648391723633
4562.246,8.076356887817383,166.6470489501953,-28.40440559387207,-0.8285946846008301,0.36803728342056274,0.6149274110794067,25.827274322509766,42.72845458984375,-97.27273559570312,0.8860304355621338,20.323810577392578,-38.26465606689453,-0.903408944606781,-0.047180745750665665,-0.20170839130878448,-168.36151123046875,77.6470718383789,58.170875549316406,169.24324719624525,1.095516460046657,43.33619999764868,0.9268549072478953,-194.18878555297852,34.918617248535156,155.44361114501953
4583.894,19.155637741088867,164.74502563476562,-26.150320053100586,-0.8611661195755005,0.3048914670944214,0.5758801698684692,27.210573196411133,45.969608306884766,-95.87013244628906,-3.519118309020996,15.456748962402344,-29.55018424987793,-0.9845358729362488,-0.08886345475912094,-0.2164786159992218,-166.0674591064453,77.20592498779297,60.590538024902344,167.90384500524996,1.0799091916728234,33.53369456772317,1.0119637295254245,-193.27803230285645,31.236316680908203,156.4606704711914
4606.194,26.7471866607666,170.1007843017578,-20.534347534179688,-0.8609650731086731,0.3759489953517914,0.6337435245513916,29.13252067565918,49.18330383300781,-93.9913558959961,-1.07419753074646,3.864863634109497,-27.410192489624023,-1.139746904373169,-0.07357834279537201,-0.1053830236196518,-163.77333068847656,77.04011535644531,62.964332580566406,173.41092307866163,1.1332384387805878,27.702160990860715,1.1469709500348972,-192.90585136413574,27.8568115234375,156.9556884765625
4616.438999999999,20.18404769897461,175.36599731445312,-18.89622688293457,-0.8511451482772827,0.4632711410522461,0.7284270524978638,31.32509994506836,52.344482421875,-91.74365997314453,-5.334384918212891,-13.318865776062012,-20.521991729736328,-1.169033408164978,0.024921754375100136,-0.019468050450086594,-161.83486938476562,77.17363739013672,65.0670394897461,177.5322398496076,1.2123011937544783,25.03996790277055,1.1694610759812762,-193.15996932983398,24.82915496826172,156.81069946289062
4638.713,10.836089134216309,176.77293395996094,-19.539793014526367,-0.9089163541793823,0.4177950322628021,0.6341582536697388,33.708560943603516,55.501224517822266,-89.09227752685547,-24.21049690246582,-24.121246337890625,-18.897184371948242,-0.99940025806427,0.07949888706207275,-0.07015140354633331,-160.06570434570312,77.51828002929688,67.38365936279297,178.17938859359666,1.1844147578342938,39.052352840064756,1.0050085413978123,-193.77426528930664,22.01705551147461,156.47593688964844
4656.225,14.2770357131958,171.2415771484375,-17.94354820251465,-1.0586910247802734,0.35100480914115906,0.4176464378833771,36.62246322631836,58.569087982177734,-86.03855895996094,-53.62036895751953,-33.91801452636719,-19.067333221435547,-0.9070030450820923,0.018249673768877983,-0.2103043794631958,-158.6649627685547,78.02587127685547,69.93328857421875,172.77002753700106,1.190991019725674,66.25057639544458,0.9312440638212188,-195.28742599487305,19.456783294677734,155.9718475341797
4679.198,19.383678436279297,159.91212463378906,-16.321483612060547,-1.1585843563079834,0.4030086100101471,0.41425004601478577,40.04899978637695,61.320655822753906,-82.5822525024414,-58.583946228027344,-30.26087760925293,-16.075090408325195,-0.9183601140975952,-0.05157598480582237,-0.316006064414978,-157.5425262451172,78.40076446533203,72.29151153564453,161.9073976750671,1.2947342395438328,67.86905039092866,0.9725765852214836,-197.59152603149414,17.080108642578125,154.87376403808594
4696.377,14.503597259521484,143.69696044921875,-14.678788185119629,-1.189168095588684,0.4011663794517517,0.45157042145729065,43.596534729003906,63.66765213012695,-78.98300170898438,-58.14530944824219,-27.09686279296875,-10.52078914642334,-0.9430565237998962,-0.11940383911132812,-0.3573184907436371,-156.7240753173828,78.8093032836914,74.31905364990234,145.17106322678202,1.3337807425148855,65.00618423131999,1.0155241935588628,-200.32061004638672,15.141651153564453,153.30205535888672
4718.6269999999995,10.914828300476074,122.61946105957031,-12.82822322845459,-1.1809487342834473,0.41060158610343933,0.40135958790779114,47.11479187011719,65.57168579101562,-75.34854125976562,-40.46268081665039,-13.786178588867188,-4.802389144897461,-0.9232041835784912,-0.0562727227807045,-0.3874465227127075,-156.54588317871094,79.01374053955078,75.3286361694336,123.77087306215229,1.3131348347834841,43.015697140152184,1.0027898044296975,-203.66067504882812,13.442054748535156,150.67717742919922
4742.224,8.006436347961426,98.90673828125,-13.104521751403809,-1.1673409938812256,0.4488272964954376,0.2817287743091583,50.36177444458008,67.07190704345703,-72.04106903076172,-44.69028091430664,-4.137162208557129,-7.692324638366699,-0.9234562516212463,0.008202487602829933,-0.4628826379776001,-156.5465545654297,79.02838134765625,76.2874984741211,100.09182979026139,1.28199143536482,45.53580105457218,1.0330048722064864,-206.90832901000977,11.956474304199219,148.3285675048828
4756.126,1.5072262287139893,72.08324432373047,-12.052743911743164,-1.1307744979858398,0.504486083984375,0.36645781993865967,52.798492431640625,68.10716247558594,-69.52922058105469,-60.77927017211914,10.374185562133789,-9.867506980895996,-0.924832284450531,0.061025720089673996,-0.4476064443588257,-157.2527618408203,78.7580795288086,76.85155487060547,73.09948343826518,1.2912972190875396,62.44286270464438,1.029266934233293,-210.05125427246094,10.650917053222656,146.38077545166016
4778.526,-17.08806610107422,50.228668212890625,-5.225393295288086,-1.0800056457519531,0.5195684432983398,0.478336900472641,54.343624114990234,68.78852081298828,-67.55149841308594,-69.20658874511719,21.572980880737305,-19.792863845825195,-1.0013487339019775,-0.06910675764083862,-0.3187398910522461,-157.7662353515625,78.15296936035156,77.82286071777344,53.31252994002229,1.2904145661303297,75.14454663537343,1.0531239950673998,-212.10985946655273,9.364448547363281,145.37435913085938
4802.240000000001,-27.49648094177246,32.628543853759766,1.012006163597107,-1.0534989833831787,0.460992693901062,0.5218746662139893,55.20805358886719,69.1488037109375,-66.11371612548828,-60.40824890136719,23.610538482666016,-17.086259841918945,-1.0409926176071167,-0.11001314967870712,-0.21964070200920105,-158.27691650390625,77.5728530883789,78.5711898803711,42.68140689660006,1.2628252211036617,67.07126313225773,1.0695842935429825,-213.48497009277344,8.424049377441406,144.68490600585938
4823.691,-33.277992248535156,17.668655395507812,4.203226089477539,-1.0149611234664917,0.4716346561908722,0.5508390069007874,55.43284225463867,69.28076171875,-65.25049591064453,-41.82039260864258,20.040700912475586,-8.153312683105469,-1.0473132133483887,-0.07836811989545822,-0.18980225920677185,-159.07672119140625,77.15376281738281,78.60484313964844,37.91138695877583,1.247400874856231,47.08557569694561,1.067254152800574,-214.50956344604492,7.8730010986328125,143.85533905029297
4836.054,-44.26979064941406,4.640401363372803,7.0013041496276855,-1.0027798414230347,0.436661034822464,0.5340021848678589,54.95964813232422,69.21844482421875,-64.8790512084961,-25.544031143188477,16.08162498474121,-4.097342014312744,-1.025791049003601,-0.07077133655548096,-0.19035661220550537,-159.74583435058594,76.84051513671875,78.43987274169922,45.05958220791372,1.2171271926714473,30.46152328391159,1.0457014383198078,-214.70548248291016,7.6220703125,143.3189239501953
4858.496,-53.423919677734375,-9.484597206115723,11.100072860717773,-1.021561861038208,0.38773879408836365,0.4825070798397064,53.802268981933594,68.91857147216797,-65.0394058227539,-16.21773910522461,11.3447265625,-5.585262775421143,-1.0027602910995483,-0.11791747063398361,-0.22435270249843597,-159.87840270996094,76.58027648925781,78.66826629638672,55.38306957372908,1.194463515752736,20.56484968905753,1.0342953477634516,-213.68067169189453,7.661705017089844,143.70767211914062
4882.32,-58.01328659057617,-25.67410659790039,14.467978477478027,-1.057778000831604,0.32830217480659485,0.43669936060905457,51.848594665527344,68.32637023925781,-65.92518615722656,-11.083948135375977,9.27236270904541,-6.774947166442871,-0.9717422723770142,-0.12993577122688293,-0.2865341305732727,-159.7838592529297,76.3152847290039,79.084228515625,65.06937506896347,1.190538931989375,15.960279621106041,1.021404991446659,-211.63245391845703,7.988914489746094,145.00941467285156
