Timestamp (ms),Wrist Gyroscope X (deg/s),Wrist Gyroscope Y (deg/s),Wrist Gyroscope Z (deg/s),Wrist Accelerometer X (g),Wrist Accelerometer Y (g),Wrist Accelerometer Z (g),Wrist Roll (deg),Wrist Pitch (deg),Wrist Yaw (deg),Arm Gyroscope X (deg/s),Arm Gyroscope Y (deg/s),Arm Gyroscope Z (deg/s),Arm Accelerometer X (g),Arm Accelerometer Y (g),Arm Accelerometer Z (g),Arm Roll (deg),Arm Pitch (deg),Arm Yaw (deg),Wrist Gyroscope Magnitude (deg/s),Wrist Accelerometer Magnitude (g),Arm Gyroscope Magnitude (deg/s),Arm Accelerometer Magnitude (g),Difference Roll (deg),Difference Pitch (deg),Difference Yaw (deg)
0.0,1.9837502241134644,-7.458210945129394,-0.6151615977287292,-0.982895016670227,-0.105913296341896,0.2021501958370208,-21.91602325439453,75.68544006347656,-130.4077911376953,2.6972076892852783,7.257727146148682,3.920259475708008,-0.901867687702179,-0.1750636994838714,-0.3554472923278808,-150.63685607910156,69.1938247680664,117.10214233398438,7.742002276222752,1.0090415956808312,8.67859245522922,0.9850661920000484,-128.72083282470703,-6.491615295410156,247.5099334716797
27.559,3.342410087585449,-8.992281913757324,-0.7797703146934509,-0.9845492243766784,-0.1025030687451362,0.2155790477991104,-21.680646896362305,75.52057647705078,-130.2315673828125,5.182459831237793,9.204011917114258,4.933386325836182,-0.9189651012420654,-0.1758248060941696,-0.3605191111564636,-151.0294952392578,69.05428314208984,116.57530212402344,9.62501329628989,1.0130737288928484,11.658045544289228,1.0026890092386265,-129.3488483428955,-6.4662933349609375,246.806869506836
50.305,3.462615489959717,-10.508563995361328,-1.731335163116455,-0.9793262481689452,-0.1021540760993957,0.2692770063877105,-21.43070602416992,75.29428100585938,-130.0453338623047,7.579225063323975,8.580484390258789,5.055355072021484,-0.9357211589813232,-0.188213363289833,-0.3302972316741943,-151.31480407714844,68.941650390625,116.10564422607422,11.19897962865175,1.0207964840189796,12.51503015722321,1.0099973360053272,-129.88409805297852,-6.352630615234375,246.1509780883789
60.066,7.919966220855713,-13.16793155670166,-2.846324920654297,-0.983616054058075,-0.1365587413311004,0.2863428294658661,-21.162267684936523,74.99798583984375,-129.9277801513672,9.737564086914062,7.903726100921631,6.786327838897705,-0.9427951574325562,-0.1644847989082336,-0.2971208393573761,-151.62049865722656,68.88062286376953,115.56838989257812,15.627599047051746,1.0335090941163654,14.259848742611064,1.0020971764906794,-130.45823097229004,-6.117362976074219,245.4961700439453
91.611,18.99691390991211,-18.34853744506836,-3.871871471405029,-0.9845944046974182,-0.0968901813030242,0.2522562742233276,-20.56855773925781,74.62552642822266,-129.7060089111328,11.337634086608888,7.264196395874023,10.332038879394531,-0.9200934171676636,-0.1108754649758338,-0.3076182603836059,-152.11904907226562,68.86772155761719,114.80120849609376,26.693500204446178,1.021002975940536,16.97237530120593,0.9764703063433684,-131.5504913330078,-5.757804870605469,244.50721740722656
103.284,17.744647979736328,-19.520761489868164,-6.352717399597168,-0.953902781009674,-0.0589187294244766,0.2286246567964553,-20.10281562805176,74.2321548461914,-129.59449768066406,14.2759428024292,6.476744651794434,12.576427459716797,-0.9149205684661864,-0.1294930726289749,-0.3316435813903808,-152.62808227539062,68.86980438232422,113.95789337158205,27.1346582699732,0.982685690335563,20.097693694359474,0.9817512758019828,-132.52526664733887,-5.362350463867188,243.5523910522461
119.921,9.919501304626465,-19.5794620513916,-7.813717842102051,-1.002505898475647,-0.1341841518878936,0.2979301512241363,-19.995359420776367,73.78997802734375,-129.6846923828125,11.42763900756836,8.931775093078613,11.042418479919434,-0.9270026087760924,-0.1830137073993683,-0.3648640513420105,-153.12217712402344,68.78560638427734,113.18326568603516,23.29819793182197,1.0544125559309194,18.229167438100504,1.0128936912309443,-133.12681770324707,-5.004371643066406,242.86795806884768
142.31199999999998,12.306634902954102,-25.67273712158203,-8.38304328918457,-1.0166746377944946,-0.1827667504549026,0.3365228176116943,-19.797786712646484,73.20983123779297,-129.7255859375,8.87883472442627,12.618319511413574,8.731945991516113,-0.9203166961669922,-0.1942063868045807,-0.3672616481781006,-153.62026977539062,68.60824584960938,112.4553680419922,29.678579964964744,1.0864062826492331,17.728580714613127,1.00974257122393,-133.82248306274414,-4.601585388183594,242.1809539794922
161.048,17.227161407470703,-33.95872116088867,-9.131004333496094,-1.0155487060546875,-0.154110848903656,0.3057295382022857,-19.35118103027344,72.49394226074219,-129.61102294921875,6.876935005187988,12.669514656066896,7.706808567047119,-0.9050968885421752,-0.1582798659801483,-0.3622154593467712,-154.14492797851562,68.42750549316406,111.74698638916016,39.15795031893728,1.07170885908839,16.346367638560704,0.9876502076207008,-134.7937469482422,-4.066436767578125,241.3580093383789
182.478,16.286840438842773,-38.91543197631836,-11.75599479675293,-0.981085240840912,-0.0891009867191314,0.2687852084636688,-18.916868209838867,71.69831848144531,-129.49691772460938,7.8949761390686035,12.690345764160156,8.788174629211426,-0.9173341393470764,-0.1472145766019821,-0.3817489743232727,-154.71070861816406,68.2510986328125,110.97483825683594,43.793554674690064,1.0211330588709049,17.338037292724792,1.004443295648198,-135.7938404083252,-3.4472198486328125,240.4717559814453
204.967,12.920310974121094,-40.65947723388672,-15.175358772277832,-0.9798883199691772,-0.137479156255722,0.334294319152832,-18.769046783447266,70.81494140625,-129.60870361328125,16.049678802490234,13.194381713867188,9.564746856689451,-0.9152313470840454,-0.1879408359527588,-0.3473758995532989,-155.06532287597656,68.07840728759766,110.24107360839844,45.281552959989085,1.044430145981366,22.872872161293778,0.9968150240111562,-136.2962760925293,-2.736534118652344,239.8497772216797
220.019,9.132088661193848,-42.86111831665039,-17.802776336669922,-0.9718913435935974,-0.1435522884130478,0.3895829617977142,-18.77483367919922,69.85279846191406,-129.8057098388672,21.01296806335449,13.49950122833252,9.229415893554688,-0.9591771960258484,-0.1479385793209076,-0.317013144493103,-155.33705139160156,67.93013000488281,109.4937973022461,47.301261631834976,1.056860883647356,26.62636809595907,1.0209819050350022,-136.56221771240234,-1.92266845703125,239.29950714111328
242.697,5.149054050445557,-45.51388549804688,-21.45802497863769,-0.9766391515731812,-0.1624153107404709,0.4725447595119476,-18.968793869018555,68.78722381591797,-130.12184143066406,17.219127655029297,8.379376411437988,4.743311405181885,-0.980139136314392,-0.1512323468923568,-0.3145360946655273,-155.3671875,67.84263610839844,109.0877914428711,50.58135394320293,1.0970420754422827,19.728439100225,1.0404215031078194,-136.39839363098145,-0.9445877075195312,239.2096328735352
264.914,7.481698036193848,-52.33461380004883,-25.5251693725586,-1.0036755800247192,-0.237355425953865,0.4874730706214905,-19.25449752807617,67.56596374511719,-130.5765838623047,7.470139980316162,3.287996530532837,2.9468531608581543,-0.9575483798980712,-0.1612340807914734,-0.3179884850978851,-155.39559936523438,67.82518005371094,108.89247131347656,58.706233728649735,1.140759511355852,8.677433725588092,1.0217690567388211,-136.1411018371582,0.25921630859375,239.46905517578125
287.416,11.715660095214844,-62.43215560913086,-30.14264488220215,-1.008818745613098,-0.2031583040952682,0.5086055397987366,-19.413196563720703,66.13336181640625,-130.99766540527344,6.739131927490234,0.2558463811874389,1.193705439567566,-0.9254571199417114,-0.1600586771965026,-0.3696832656860351,-155.3321533203125,67.8172607421875,108.81739807128906,70.31080845761828,1.1478972746449112,6.848816626493817,1.0093341260083268,-135.9189567565918,1.68389892578125,239.8150634765625
300.72900000000004,8.875938415527344,-71.1888427734375,-33.23738479614258,-1.0223995447158811,-0.219071015715599,0.4488341808319092,-19.63253593444824,64.55559539794922,-131.4200439453125,13.335098266601562,-1.972944974899292,-2.9741106033325195,-0.8968932628631592,-0.1971364766359329,-0.4149993062019348,-154.88656616210938,67.77890014648438,109.00968170166016,79.0655257761832,1.137868648326755,13.804444629710945,1.007722550872928,-135.25403022766113,3.223304748535156,240.42972564697263
323.49,4.052313804626465,-78.25971984863281,-34.70145034790039,-1.048153042793274,-0.167382001876831,0.5169727802276611,-19.788330078125,62.83611679077149,-131.68710327148438,17.33182716369629,-0.7384929060935974,-2.063549995422364,-0.9015331268310548,-0.1754041314125061,-0.4290829300880432,-154.4709014892578,67.72541046142578,109.090087890625,85.70411690348051,1.1806364347949845,17.46985527095742,1.013726170611815,-134.6825714111328,4.889293670654297,240.77719116210932
344.783,-2.4415228366851807,-88.6102294921875,-42.25941467285156,-1.040581464767456,-0.2129396200180053,0.6697264909744263,-20.16229057312012,60.82209396362305,-132.0619659423828,14.04676914215088,-4.371003150939941,-3.94399642944336,-0.972624897956848,-0.1469772458076477,-0.3690387308597564,-153.96412658691406,67.77098083496094,109.34069061279295,98.20179190275609,1.2556618331795848,15.230643443855907,1.0506146238204337,-133.80183601379397,6.948886871337891,241.40265655517572
364.877,1.6041475534439087,-101.04722595214844,-47.40000534057617,-1.0101697444915771,-0.2138106673955917,0.7281357049942017,-20.40544319152832,58.53135681152344,-132.39337158203125,11.727346420288086,-9.99443817138672,-5.8475422859191895,-1.008272409439087,-0.1448888331651687,-0.3016256988048553,-153.2603759765625,67.93648529052734,109.84876251220705,111.62381317749546,1.2634633034107994,16.48069170904937,1.062348383437177,-132.85493278503418,9.405128479003906,242.24213409423828
387.355,0.7724786400794983,-112.41901397705078,-52.25204086303711,-0.9980589151382446,-0.2263295203447342,0.6991929411888123,-20.658275604248047,56.02213287353516,-132.7212371826172,9.37417984008789,-12.19573211669922,-10.78249168395996,-0.9885995984077454,-0.1840608417987823,-0.3248224556446075,-152.3017120361328,68.06842041015625,110.67801666259766,123.9713967057491,1.2394423822326994,18.78492098602666,1.0567484029543763,-131.64343643188477,12.046287536621094,243.39925384521484
410.811,-4.258049011230469,-120.7969741821289,-57.45384216308594,-0.9745393395423888,-0.24304960668087,0.6716416478157043,-21.036216735839844,53.3452262878418,-133.0832977294922,17.198209762573242,-13.65019989013672,-9.92619514465332,-0.9633709788322448,-0.1641774624586105,-0.3488782942295074,-151.23104858398438,68.21633911132812,111.46629333496094,133.83192418941286,1.2082642669151629,24.09638408823816,1.0376675509140858,-130.19483184814453,14.871112823486328,244.54959106445312
421.73,-8.843035697937012,-129.7044677734375,-60.68009185791016,-0.9524987936019896,-0.2784176170825958,0.7564629316329956,-21.446910858154297,50.4653434753418,-133.38465881347656,17.19197654724121,-13.705318450927734,-11.784565925598145,-0.9367708563804626,-0.1989579647779464,-0.3409250378608703,-150.0264129638672,68.32894134521484,112.39244079589844,143.46958489042228,1.2478006604622325,24.94545661031285,1.0165401076951188,-128.5795021057129,17.863597869873047,245.777099609375
444.818,-11.526119232177734,-139.01756286621094,-64.66088104248047,-0.931684911251068,-0.2967019975185394,0.7850935459136963,-21.86961555480957,47.39377212524414,-133.64451599121094,11.73143482208252,-16.541202545166016,-9.183499336242676,-0.9841378331184388,-0.2225771844387054,-0.2879097461700439,-148.8998260498047,68.53536987304688,113.34262084960938,153.75228046115316,1.253969985693335,22.26150499592844,1.0492663625349936,-127.03021049499512,21.14159774780273,246.9871368408203
466.987,-14.02342700958252,-147.76112365722656,-70.81864929199219,-0.9343412518501282,-0.3065769374370575,0.8323701024055481,-22.337646484375,44.12947845458984,-133.9185028076172,7.208369731903076,-18.73990058898925,-17.464157104492188,-1.0111528635025024,-0.1736815571784973,-0.2413569390773773,-147.4636688232422,68.72026062011719,114.72679138183594,164.45451424962914,1.2883411740900672,26.61092353991874,1.0539680112385097,-125.1260223388672,24.590782165527344,248.64529418945312
489.939,-17.742935180664062,-158.38233947753906,-76.849609375,-0.91749507188797,-0.3261421322822571,0.8379827737808228,-22.86429786682129,40.645751953125,-134.18313598632812,-4.894399166107178,-19.844446182250977,-20.09296417236328,-0.975766897201538,-0.1844092309474945,-0.2741844654083252,-146.13128662109375,68.85750579833984,116.26119232177734,176.93399805660235,1.2846715636853374,28.661549098213804,1.030196545909669,-123.26698875427246,28.211753845214844,250.44432830810547
500.014,-17.7182674407959,-167.7938995361328,-81.81855010986328,-0.9057204723358154,-0.3031730949878692,0.8116040229797363,-23.346485137939453,36.99103164672852,-134.40907287597656,-8.662710189819336,-18.201824188232425,-19.12713432312012,-0.9763270020484924,-0.2020372897386551,-0.3056920766830444,-144.96493530273438,68.94708251953125,117.69920349121094,187.5180121074389,1.2533732842412226,27.78841879320956,1.0428236318384478,-121.61845016479492,31.95605087280273,252.1082763671875
527.0550000000001,-22.663928985595703,-174.06829833984375,-85.95804595947266,-0.8230988383293152,-0.3316006064414978,0.9060165882110596,-23.89463424682617,33.16667175292969,-134.61192321777344,-1.3713208436965942,-21.74855232238769,-21.58102226257324,-0.9950948357582092,-0.2468583285808563,-0.2900353372097015,-143.37429809570312,69.04893493652344,119.42716217041016,195.4538611262612,1.268194274535667,30.669538158793227,1.065492028770153,-119.47966384887695,35.88226318359375,254.0390853881836
552.605,-23.938739776611328,-182.74285888671875,-88.45771789550781,-0.792211651802063,-0.3852676451206207,0.91979718208313,-24.431686401367188,29.180376052856445,-134.7415313720703,-2.439740896224976,-16.406713485717773,-18.07297134399414,-0.9846031665802002,-0.2824662625789642,-0.272298514842987,-142.0640106201172,69.08586883544922,120.87057495117188,204.432833936882,1.2736001396811356,24.5308963603856,1.0598948373875503,-117.63232421875,39.90549278259277,255.6121063232422
559.636,-18.08048820495605,-192.10597229003903,-88.05792999267578,-0.7068625092506409,-0.3724918365478515,0.874785840511322,-24.7828311920166,25.010257720947266,-134.73837280273438,9.378573417663574,-15.70556354522705,-20.836013793945312,-1.0121333599090576,-0.2809420526027679,-0.2461703717708587,-140.41696166992188,69.07953643798828,122.42032623291016,212.09858009384644,1.1847594870006333,27.726554716465404,1.0788615421356242,-115.63413047790527,44.069278717041016,257.15869903564453
589.649,-22.10140991210937,-195.7522735595703,-87.61190032958984,-0.6222107410430908,-0.3679352104663849,0.8525122404098511,-25.19380187988281,20.748491287231445,-134.66586303710938,2.4603161811828613,-12.15531063079834,-25.2331485748291,-1.0095335245132446,-0.2633660137653351,-0.2514997720718384,-138.90139770507812,68.9493637084961,123.9832000732422,215.59979128748228,1.117720736775944,28.11612560866076,1.073206284772393,-113.70759582519533,48.20087242126465,258.6490631103516
599.661,-26.69340133666992,-197.8809509277344,-83.4914779663086,-0.4713546633720398,-0.3167186975479126,0.8476954102516174,-25.626829147338867,16.520408630371094,-134.45516967773438,-9.910502433776855,-14.095123291015623,-28.7625732421875,-1.0075128078460691,-0.3519432544708252,-0.242996945977211,-137.36270141601562,68.76227569580078,125.82524871826172,216.42605043751905,1.0203300743488222,33.52873660893038,1.0945289526073023,-111.73587226867676,52.24186706542969,260.2804183959961
630.813,-34.44582748413086,-195.5154571533203,-83.15605163574219,-0.3419055044651031,-0.3755515515804291,0.8523841500282288,-26.23976325988769,12.334439277648926,-134.22955322265625,-6.147174835205078,-14.38121509552002,-34.698875427246094,-1.055720329284668,-0.3492890000343323,-0.1847099363803863,-135.5208282470703,68.50972747802734,127.90992736816406,215.2387928338769,0.9922182628319992,38.06072860566038,1.127238208990255,-109.28106498718262,56.17528820037842,262.1394805908203
639.4680000000001,-25.83564758300781,-197.1288146972656,-80.84776306152344,-0.282191127538681,-0.4201586246490478,0.8157605528831482,-26.709726333618164,8.153319358825684,-133.9149169921875,-8.270081520080566,-11.264840126037598,-35.53074645996094,-1.0155807733535769,-0.3377127647399902,-0.1687650680541992,-133.85723876953125,68.1838607788086,129.85252380371094,214.6243487166228,0.960015823811645,38.18016259022468,1.0834832102386798,-107.14751243591309,60.03054141998291,263.76744079589844
662.0279999999999,-16.60192108154297,-197.915771484375,-76.9625244140625,-0.2351677417755127,-0.3636849522590637,0.7814729809761047,-26.98260498046875,3.993075132369995,-133.49700927734375,-5.364254951477051,-7.434564113616943,-41.80384063720703,-0.976415753364563,-0.300381064414978,-0.1859568953514099,-132.1908416748047,67.69725036621094,131.75018310546875,213.0011890812779,0.8934599214666269,42.79730209680196,1.0383624002275398,-105.20823669433594,63.70417523384094,265.2471923828125
679.649,-12.205426216125488,-193.7099151611328,-75.26101684570312,-0.0955432876944542,-0.2681951224803924,0.6166697144508362,-27.204021453857425,-0.0875434204936027,-133.0733642578125,4.439933776855469,-4.73490571975708,-29.998777389526367,-0.8821007013320923,-0.2930637001991272,-0.1976773142814636,-130.8975830078125,67.31830596923828,133.04153442382812,208.1747446677905,0.6792191695370603,30.69297947388309,0.9502969537184184,-103.69356155395508,67.40584938973188,266.1148986816406
702.117,-18.50038719177246,-181.5751800537109,-74.99810791015625,0.040648452937603,-0.2960371375083923,0.6810004115104675,-27.55862236022949,-4.014388084411621,-132.73793029785156,17.587820053100586,-9.2324857711792,-31.18099021911621,-0.9276360869407654,-0.2668232917785644,-0.2011935412883758,-129.23194885253906,66.98992156982422,134.46250915527344,197.3234059301797,0.7436745551568975,36.97058775269733,0.985993012088058,-101.67332649230956,71.00430965423584,267.200439453125
724.9440000000001,-18.822410583496094,-173.49368286132812,-73.58440399169922,0.0568931326270103,-0.4114669859409332,0.7788114547729492,-27.96901130676269,-7.748786926269531,-132.42137145996094,26.63786697387696,-8.949251174926758,-34.139156341552734,-0.9553790092468262,-0.3165981471538543,-0.1039136424660682,-127.28743743896484,66.59620666503906,135.9809112548828,189.39114457591307,0.8826602920404816,44.21704478165488,1.0118208750471926,-99.31842613220216,74.3449935913086,268.4022827148437
746.9970000000001,-1.7858034372329712,-176.6265869140625,-66.12588500976562,0.0002606781199574,-0.3804666101932525,0.7415152192115784,-28.09791755676269,-11.43910312652588,-131.9197998046875,21.027416229248047,-3.730375289916992,-34.10539245605469,-0.884637713432312,-0.3466101884841919,-0.1661153882741928,-125.69981384277344,66.09547424316406,137.23507690429688,188.6074573476671,0.8334264993071805,40.23985248063392,0.9645293303001636,-97.60189628601074,77.53457736968994,269.1548767089844
759.482,0.3640460073947906,-176.6279754638672,-59.958866119384766,-0.0014401511289179,-0.3194767832756042,0.618249773979187,-28.23489189147949,-15.117323875427246,-131.2947998046875,21.428586959838867,20.65491485595703,-38.16930770874024,-0.8390739560127258,-0.3297658264636993,-0.2666303217411041,-125.05183410644533,65.21772766113281,137.47621154785156,186.5278528056394,0.6959168571839005,48.40150718486675,0.9401501648321384,-96.81694221496582,80.33505153656006,268.77101135253906
781.95,-8.320868492126465,-167.2147979736328,-54.33924102783203,0.1158825457096099,-0.2338926941156387,0.6417800784111023,-28.57481575012207,-18.558639526367188,-130.6393280029297,35.91410446166992,34.70232391357422,-39.033329010009766,-0.7921992540359497,-0.2236773520708084,-0.3373757004737854,-124.6640167236328,64.18240356445312,137.1226806640625,176.01925641618567,0.6928320328955441,63.385131993946615,0.8896255275084572,-96.08920097351074,82.74104309082031,267.7620086669922
804.4599999999999,-19.934776306152344,-154.91384887695312,-52.60063171386719,0.1745522022247314,-0.3144358396530151,0.6926171183586121,-29.137916564941406,-21.70946884155273,-130.04551696777344,48.112342834472656,45.11171722412109,-26.58713150024414,-0.9136229753494264,-0.2826100289821625,-0.3393910825252533,-124.6863784790039,63.24285507202149,136.0432586669922,164.81056500402423,0.7804209384705076,71.11075956099872,1.0147717361383792,-95.5484619140625,84.95232391357422,266.0887756347656
826.8180000000001,-8.401159286499023,-145.47825622558594,-47.77214050292969,0.2143894284963607,-0.3360404372215271,0.6066876649856567,-29.556427001953125,-24.65449333190918,-129.40155029296875,50.47614669799805,54.97642135620117,-8.790359497070312,-0.8399649858474731,-0.2058659791946411,-0.3366557955741882,-125.27008819580078,62.49596786499024,134.25894165039062,153.3514914176775,0.7259172992461191,75.14997478841975,0.9280404643835332,-95.71366119384766,87.15046119689941,263.6604919433594
848.284,-4.710003852844238,-134.23658752441406,-45.53802108764648,0.3188698887825012,-0.288029670715332,0.6185811758041382,-29.86702919006348,-27.429658889770508,-128.8232879638672,56.82161712646485,61.50892639160156,6.813421249389648,-0.8648940324783325,-0.2363318055868148,-0.3147441148757934,-126.27964782714844,61.92304611206055,131.8569793701172,141.82861816668884,0.7531810992342927,84.01468269198936,0.9502411628620924,-96.41261863708496,89.35270500183105,260.6802673339844
859.8919999999999,-7.775823593139648,-118.6362762451172,-41.20003890991211,0.3841037452220917,-0.356864720582962,0.5343169569969177,-30.31975173950196,-29.91856575012207,-128.26365661621094,52.89978790283203,63.09895706176758,9.683812141418455,-0.8691564798355103,-0.3100962042808532,-0.3042762279510498,-127.38143920898438,61.33888626098633,129.4204864501953,125.8271539852891,0.7485871535264542,82.90743127149511,0.9716875347793484,-97.06168746948242,91.2574520111084,257.68414306640625
881.984,-2.3171982765197754,-108.30589294433594,-34.93034362792969,0.4047765731811523,-0.3515167832374573,0.5295685529708862,-30.696643829345703,-32.155067443847656,-127.66796112060548,55.705997467041016,76.08486938476562,9.610628128051758,-0.8772860169410706,-0.3488714694976806,-0.3297288715839386,-128.69451904296875,60.55416488647461,126.65792846679688,113.82295357390754,0.7535588732073724,94.78623146908272,1.0000315927538574,-97.99787521362305,92.70923233032228,254.3258895874024
904.377,-2.614410877227783,-98.9619140625,-28.15631484985352,0.4561582207679748,-0.3432181179523468,0.4940526187419891,-31.12713050842285,-34.17083740234375,-127.01585388183594,47.97309875488281,83.81602478027344,-0.3803529739379883,-0.8508554697036743,-0.3655686974525451,-0.3037618398666382,-129.98458862304688,59.48802185058594,124.0624542236328,102.92265856006968,0.7549615811091137,96.57478388532864,0.9746110805038982,-98.85745811462402,93.65885925292967,251.07830810546875
926.926,-5.994870185852051,-84.35211181640625,-23.16971969604492,0.5541073679924011,-0.2934654355049133,0.3886192440986633,-31.58403205871582,-35.852012634277344,-126.42904663085938,29.36850357055664,54.46071243286133,-8.030010223388672,-0.6322016716003418,-0.3393988907337188,-0.3399064838886261,-130.60980224609375,58.636207580566406,122.64706420898438,87.68154393728484,0.7376868264943947,62.39358352311832,0.7939817242198174,-99.02577018737792,94.48822021484376,249.0761108398437
949.272,-13.509992599487305,-65.17949676513672,-18.74941062927246,0.6185064911842346,-0.3464715182781219,0.3816447257995605,-32.12702560424805,-37.156700134277344,-125.97080993652344,24.528722763061523,33.9086799621582,-3.456312656402588,-0.7591506242752075,-0.366359144449234,-0.3443045616149902,-130.87203979492188,58.14440155029297,121.75948333740234,69.15509451616522,0.8051369382568424,41.99289123580336,0.9105351855957586,-98.74501419067384,95.30110168457033,247.73029327392572
959.471,-10.563589096069336,-46.63417053222656,-14.642157554626465,0.6415466666221619,-0.4021128416061401,0.3890627324581146,-32.5318603515625,-38.100955963134766,-125.65399932861328,17.868797302246094,18.8909912109375,1.2823829650878906,-0.8218153715133667,-0.3901751041412353,-0.3078154921531677,-130.97308349609375,57.92399597167969,121.2102279663086,50.007280006753895,0.8512618120333758,26.03474547656694,0.960399653246904,-98.44122314453124,96.02495193481444,246.86422729492188
984.395,-2.752842664718628,-29.29841423034668,-10.44422435760498,0.6648651957511902,-0.3822408318519592,0.35977303981781,-32.697566986083984,-38.70684051513672,-125.47589874267578,10.841460227966309,10.654424667358398,-0.806797981262207,-0.7937508821487427,-0.3796482682228088,-0.304233193397522,-130.97335815429688,57.778621673583984,120.94619750976562,31.22590337494922,0.8471070901815743,15.221857568955215,0.9309839453187896,-98.27579116821288,96.4854621887207,246.4220962524414
1006.526,-3.648749828338623,-8.13332462310791,-8.63524341583252,0.7020158767700195,-0.3502199351787567,0.3027420938014984,-32.724220275878906,-38.936954498291016,-125.5496597290039,9.507981300354004,3.203932762145996,1.0818095207214355,-0.7752043008804321,-0.4029603600502014,-0.3075643479824066,-130.84596252441406,57.74441909790039,120.85965728759766,12.41095377420017,0.8409120462884968,10.091442185899766,0.9262367883134152,-98.12174224853516,96.6813735961914,246.4093170166016
1029.716,-7.9289045333862305,15.465938568115234,-6.051447868347168,0.6799166202545166,-0.3680565357208252,0.3188805878162384,-32.66623306274414,-38.742095947265625,-125.89453125,7.327121734619141,-4.46675968170166,9.269554138183594,-0.8031994700431824,-0.3913507461547851,-0.2946693301200866,-130.7476348876953,57.95209503173828,120.79060363769533,18.403336767977446,0.8363235338498908,12.631836322907304,0.94080540459065,-98.08140182495116,96.6941909790039,246.6851348876953
1039.77,-7.349279403686523,35.50331497192383,-2.2497992515563965,0.6353226900100708,-0.3716426789760589,0.3880710303783417,-32.47955703735352,-38.1682243347168,-126.43045806884766,2.8383655548095703,-7.565168380737305,12.611188888549805,-0.7898614406585693,-0.3829571008682251,-0.31757852435112,-130.76087951660156,58.23949813842773,120.70509338378906,36.32573300597505,0.8320771153547262,14.977655919212426,0.9334845235319446,-98.28132247924805,96.40772247314452,247.13555145263672
1066.397,-3.2782411575317383,51.95797729492188,1.8928309679031368,0.6072659492492676,-0.3787379860877991,0.4051595628261566,-32.14044952392578,-37.27009963989258,-127.09112548828124,2.5725080966949463,-7.656007766723633,15.092680931091309,-0.7734764814376831,-0.3444925248622894,-0.3298634588718414,-130.8719482421875,58.568641662597656,120.5244598388672,52.095691556400375,0.8224163584054844,17.117864075854232,0.9087083517400446,-98.73149871826172,95.83874130249023,247.61558532714844
1088.963,-0.4791803658008575,68.81986999511719,6.300793647766113,0.5672937035560608,-0.3515236675739288,0.4003292918205261,-31.688350677490234,-36.03570938110352,-127.86357879638672,0.1885520219802856,-16.363361358642578,18.93602180480957,-0.7648676633834839,-0.3659762442111969,-0.3327476978302002,-130.88397216796875,59.05364227294922,120.51138305664062,69.10936347962938,0.7782381234869581,25.027346415685653,0.910868917148863,-99.19562149047852,95.08935165405272,248.3749618530273
1099.832,-2.6772944927215576,84.62266540527344,12.026226043701172,0.5391130447387695,-0.329321026802063,0.4238175451755523,-31.268518447875977,-34.49583053588867,-128.6893310546875,0.763981819152832,-18.91862869262696,22.616771697998047,-0.7692956924438477,-0.3448103368282318,-0.3081262707710266,-130.89498901367188,59.64093017578125,120.4844741821289,85.5148730861937,0.7607342014791388,29.496042817111068,0.8975810991411961,-99.6264705657959,94.13676071166992,249.1738052368164
1129.708,-3.400068998336792,99.07357025146484,16.638811111450195,0.5085775256156921,-0.3344907164573669,0.483902633190155,-30.87883186340332,-32.699310302734375,-129.55555725097656,-5.684675693511963,-17.939191818237305,22.166257858276367,-0.7931987047195435,-0.3048681020736694,-0.3508290946483612,-131.12501525878906,60.21156311035156,120.37472534179688,100.51856956188696,0.7776225931426558,29.077020622331936,0.9193420465107378,-100.24618339538574,92.91087341308594,249.93028259277344
1139.958,1.8092176914215088,111.36785125732422,22.632553100585938,0.4570211470127105,-0.3433910608291626,0.5477952361106873,-30.39694595336914,-30.588802337646484,-130.42327880859375,-5.089113235473633,-23.54523086547852,25.16099166870117,-0.8627240657806396,-0.3097601234912872,-0.3555284440517425,-131.26158142089844,60.91234588623047,120.35665893554688,113.65871731714768,0.79174829976436,34.833209323641206,0.9831808695821272,-100.8646354675293,91.50114822387695,250.77993774414065
1159.398,7.640537261962891,123.3131866455078,27.941059112548828,0.4440468549728393,-0.3346186280250549,0.4528139233589172,-29.832563400268555,-28.196043014526367,-131.2803192138672,-4.89282751083374,-32.73558807373047,31.57564163208008,-0.8442116379737854,-0.3352344632148742,-0.3095653057098388,-131.2346954345703,61.82355499267578,120.50399780273438,126.6697382749812,0.7170688145640802,45.7447224503689,0.9596385327385372,-101.40213203430176,90.01959800720215,251.7843170166016
1182.63,6.939153671264648,140.8209686279297,35.000362396240234,0.4230280220508575,-0.3145825564861297,0.447050929069519,-29.30099105834961,-25.413589477539062,-132.1522674560547,-6.103976726531982,-35.02595520019531,32.6676139831543,-0.811625599861145,-0.3365194499492645,-0.2556914985179901,-131.1338653564453,62.78145599365234,120.7480697631836,145.2712030199032,0.6912086699886872,48.28301018905626,0.915073547294694,-101.8328742980957,88.1950454711914,252.90033721923828
1199.293,1.200425148010254,149.3673553466797,39.75333786010742,0.3076398968696594,-0.3568627834320068,0.7035815119743347,-28.919952392578125,-22.391212463378903,-132.99024963378906,-18.518779754638672,-54.30269241333008,22.115955352783203,-0.9113456606864928,-0.3973408639431,-0.2645263671875,-130.3699188232422,63.81927490234375,122.00279998779295,154.57158773467103,0.8467705098413059,61.48856062800504,1.028788060947718,-101.44996643066406,86.21048736572266,254.99304962158203
1221.388,17.11980438232422,150.89456176757812,49.66998291015625,0.236441284418106,-0.434130847454071,0.575141429901123,-28.38127326965332,-19.25914001464844,-133.59722900390625,-13.42939281463623,-51.48127365112305,22.482091903686523,-0.8469620943069458,-0.3132990002632141,-0.2732814252376556,-129.6133270263672,64.8226547241211,123.14551544189452,159.7791090080731,0.7583941838365996,57.759108238246085,0.9434955167559947,-101.23205375671388,84.08179473876953,256.7427444458008
1244.044,25.7056827545166,159.88597106933594,54.52751541137695,0.2466212809085846,-0.2606601119041443,0.4917479753494262,-27.693483352661133,-15.97357940673828,-134.1619873046875,-12.532536506652832,-47.25366973876953,26.72107315063477,-0.8634955286979675,-0.3032704591751098,-0.2172999829053878,-128.9743194580078,65.8506088256836,124.12026977539062,170.8729229796176,0.6087543194057287,55.713459104536526,0.9406470018345596,-101.28083610534668,81.82418823242188,258.2822570800781
1259.074,2.0991172790527344,181.378173828125,57.174259185791016,0.224441796541214,-0.2460883557796478,0.7068078517913818,-27.46250343322754,-12.23200798034668,-134.85008239746094,-21.19178009033203,-56.14399719238281,28.71164321899414,-0.9873890280723572,-0.3446382284164428,-0.165822371840477,-128.09393310546875,67.03124237060547,125.52623748779295,190.18765508839093,0.7813519938151603,66.52517132988156,1.0588718809405129,-100.6314296722412,79.26325035095215,260.3763198852539
1282.556,-0.381203293800354,181.7790679931641,62.52374267578125,0.0450836718082428,-0.4920760691165924,0.8429093956947327,-27.367401123046875,-8.391698837280273,-135.4235076904297,-25.3791732788086,-51.87740707397461,16.021053314208984,-0.9916499257087708,-0.3300170004367828,-0.1237666830420494,-127.00164794921876,67.94142150878906,127.24703216552734,192.2316136190972,0.9770709516772108,59.93364622923746,1.0524252883538732,-99.63424682617188,76.33312034606934,262.67053985595703
1304.122,33.83567810058594,171.08929443359375,70.95845794677734,-0.0398592464625835,-0.3741785287857055,0.6260727047920227,-26.65325736999512,-4.665912628173828,-135.71844482421875,-27.45109367370605,-30.36854553222656,13.850574493408203,-0.8828293681144714,-0.2884368896484375,-0.2291001379489898,-126.76844024658205,68.52050018310547,128.09324645996094,188.2856939241428,0.7304555856576082,43.21631075673805,0.956593124438864,-100.11518287658691,73.1864128112793,263.8116912841797
1326.693,24.210844039916992,178.8207550048828,73.87666320800781,-0.0427590757608413,-0.1787281483411789,0.5627105236053467,-26.149703979492188,-0.7892686724662781,-135.97979736328125,-26.50247383117676,-35.972259521484375,-0.3220509886741638,-0.861065149307251,-0.3377817273139953,-0.1896956712007522,-125.72477722167967,68.91410827636719,129.77291870117188,194.98920164047783,0.5919588017299778,44.68208020104412,0.9442002617723894,-99.5750732421875,69.70337694883347,265.7527160644531
1350.47,-17.782432556152344,203.01138305664065,73.07532501220703,-0.0670748278498649,-0.2356135994195938,0.7914062738418579,-26.48429679870605,3.5105056762695312,-136.4642791748047,-14.901777267456056,-33.028167724609375,10.642356872558594,-1.0122480392456057,-0.3287826180458069,-0.0424495674669742,-124.83712005615234,69.47652435302734,131.03079223632812,216.4944333783755,0.8284543988891601,37.76483269891042,1.0651507257960071,-98.35282325744627,65.96601867675781,267.4950714111328
1358.987,-10.275772094726562,201.62472534179688,77.2239990234375,-0.2143426835536956,-0.5137362480163574,1.055827260017395,-26.722034454345703,7.851309776306152,-136.89337158203125,-21.91625213623047,-21.06915855407715,15.14665985107422,-1.149207353591919,-0.2014165520668029,-0.0901477113366127,-124.73992919921876,70.00613403320312,131.59481811523438,216.15195438966,1.193582389914816,33.965465616119744,1.1702020248040297,-98.01789474487305,62.15482425689697,268.4881896972656
1381.553,43.54318618774414,179.39935302734375,83.27970886230469,-0.4368331134319305,-0.5042592883110046,0.8524956703186035,-25.871076583862305,11.813881874084473,-136.99842834472656,-49.0475959777832,-20.13922882080078,4.015359878540039,-1.016587257385254,-0.0888241752982139,-0.1807395219802856,-124.9303970336914,70.30236053466797,132.43609619140625,202.52320074055783,1.08251996136354,53.17309774360167,1.036342685023223,-99.0593204498291,58.488478660583496,269.4345245361328
1403.9489999999998,56.16357421875,170.42578125,84.51822662353516,-0.4127320051193237,-0.1203975901007652,0.513431191444397,-24.731313705444336,15.61593246459961,-136.918212890625,-61.075443267822266,-6.524385452270508,-13.320313453674316,-0.6824545860290527,-0.3423532843589782,-0.1448908895254135,-125.39772033691406,70.15642547607422,133.23329162597656,198.34975325239287,0.6696677355972157,62.85068119276761,0.7771379563313908,-100.66640663146973,54.54049301147461,270.1515045166016
1426.301,-17.258487701416016,202.30572509765625,73.9219741821289,-0.4826623797416687,-0.1986997127532959,0.8549938797950745,-25.19318962097168,19.90593910217285,-137.29647827148438,-28.38843536376953,10.668156623840332,0.156448096036911,-0.945704996585846,-0.3873610496520996,-0.1926134377717971,-126.38394165039062,70.01039123535156,132.77984619140625,216.07850441913865,1.0017280485007731,30.32717105436085,1.0399550277609515,-101.19075202941896,50.10445213317871,270.0763244628906
1448.972,-7.618218421936035,189.416015625,76.38031768798828,-0.7499556541442871,-0.5466459393501282,1.2375541925430298,-25.41706275939941,24.027143478393555,-137.55264282226562,-5.119397640228272,7.788338661193848,22.40850830078125,-1.0551528930664062,-0.1786384582519531,-0.3609140515327453,-127.73188018798828,70.27775573730469,131.47532653808594,204.37812299092235,1.546866395546752,24.26948074365012,1.129388453591953,-102.31481742858888,46.25061225891113,269.0279693603516
1458.798,53.85628128051758,156.08250427246094,83.42631530761719,-0.7962390184402466,-0.3898734152317047,0.8136346340179443,-24.242637634277344,27.558883666992188,-137.32818603515625,-13.113943099975586,28.07580947875977,36.01449203491211,-0.9072996377944946,-0.1734703630208969,-0.1925188452005386,-130.560546875,70.5225830078125,128.7603759765625,184.99242486960105,1.203328372500472,47.51073792365008,0.9435825906331528,-106.31790924072266,42.96369934082031,266.08856201171875
1483.814,19.206336975097656,157.26919555664062,71.36695861816406,-0.7476233243942261,-0.1494337320327758,0.6181508898735046,-23.84428024291992,31.011098861694336,-137.29635620117188,-30.214588165283203,25.51577377319336,20.59969139099121,-0.903706192970276,-0.3005049228668213,-0.2733242511749267,-133.01419067382812,70.44486999511719,126.79837036132812,173.7691745777732,0.9815200446750556,44.59061935706356,0.9908048436298432,-109.1699104309082,39.43377113342285,264.0947265625
1506.703,-22.259939193725582,174.61167907714844,68.01859283447266,-0.7126641869544983,-0.3492068648338318,0.8937023878097534,-24.389448165893555,34.76648712158203,-137.5045623779297,-11.858612060546877,17.85758399963379,14.67144775390625,-1.082553505897522,-0.3069373965263366,-0.3145374357700348,-134.55316162109375,70.39363098144531,125.41671752929688,188.7094919028484,1.1952153093863236,25.976361667911178,1.168360585186855,-110.1637134552002,35.62714385986328,262.92127990722656
1528.7,-3.140878200531006,154.7916717529297,76.56535339355469,-0.8732730150222778,-0.5023987293243408,1.1820772886276243,-24.34260940551757,38.19316864013672,-137.35107421875,8.913908004760742,22.353212356567383,30.162466049194336,-1.0077481269836426,-0.3264386653900146,-0.4421660006046295,-136.47523498535156,70.4746322631836,123.1889877319336,172.72110496467192,1.5531635323693536,38.58624387970323,1.1478803342645727,-112.13262557983398,32.281463623046875,260.5400619506836
1548.706,23.7764892578125,131.00148010253906,79.68946838378906,-0.902886152267456,-0.3182377517223358,0.6364474892616272,-23.539844512939453,41.23297500610352,-136.83807373046875,13.427793502807615,36.008155822753906,52.59675979614258,-0.8901572823524475,-0.2599886357784271,-0.1873766183853149,-139.65769958496094,70.64439392089844,119.51374053955078,155.16803988506695,1.1495843062451088,65.14070973794259,0.9460888304892616,-116.11785507202148,29.41141891479492,256.3518142700196
1558.8470000000002,-13.823098182678224,139.1986541748047,65.86009216308594,-0.8164283633232117,-0.2250879853963852,0.5847688317298889,-23.76163482666016,44.34770584106445,-136.73150634765625,14.406886100769045,23.92183303833008,29.474666595458984,-0.9830095767974854,-0.2004050314426422,-0.2824322283267975,-141.57000732421875,70.64909362792969,117.18590545654295,154.61207943487148,1.0291620184262342,40.60256683939746,1.0422274071913182,-117.8083724975586,26.301387786865234,253.9174118041992
1586.29,-28.61563491821289,151.94700622558594,61.58916473388672,-0.7385517358779907,-0.3491001725196838,0.5427236557006836,-24.523406982421875,47.650028228759766,-136.9509735107422,21.1132869720459,15.81978988647461,22.310935974121094,-1.1698319911956787,-0.1990863680839538,-0.1231032460927963,-142.6890869140625,70.6986083984375,115.55032348632812,166.4330870809904,0.9807540790018568,34.55162084269706,1.1930199825569938,-118.16567993164062,23.04858016967773,252.5012969970703
1608.5259999999998,-20.11467742919922,167.12173461914062,58.33317565917969,-0.6968899965286255,-0.3692541122436523,1.0245555639266968,-25.335712432861328,51.15285873413086,-137.4908447265625,14.881977081298828,4.319400310516357,16.5599365234375,-1.240150809288025,-0.279561698436737,-0.049786627292633,-143.2962646484375,70.82933044433594,114.59191131591795,178.1489090976308,1.2929494847996448,22.67954934629592,1.2722450555092568,-117.96055221557616,19.67647171020508,252.08275604248047
1618.7879999999998,16.216285705566406,135.85780334472656,72.4490737915039,-0.933485507965088,-0.4484772086143493,0.7083547115325928,-24.836782455444336,54.22325134277344,-137.26010131835938,-8.445782661437988,12.190557479858398,11.79335117340088,-0.7827486395835876,-0.2807966768741607,-0.2005009651184082,-144.34552001953125,70.73126220703125,113.64986419677734,154.81982736389332,1.2547084910758273,18.94793044987061,0.8554196885312743,-119.50873756408691,16.508010864257812,250.90996551513672
1641.8870000000002,14.690800666809082,134.49595642089844,71.59181213378906,-0.9394606351852416,-0.0797727853059768,0.3755282461643219,-24.26725578308105,57.26445388793945,-136.92478942871094,3.0963244438171387,15.85797119140625,10.604805946350098,-0.8264040350914001,-0.2365402430295944,-0.3337213397026062,-145.2755126953125,70.5521469116211,112.59552001953124,153.06981897945747,1.0148750888682718,19.326778948614084,0.9220980687327948,-121.00825691223145,13.28769302368164,249.5203094482422
1668.565,-38.178470611572266,140.77291870117188,62.9636116027832,-1.0772452354431152,-0.1971929669380188,0.3715600967407226,-25.095224380493164,60.37214279174805,-136.9951629638672,7.487971782684326,13.271212577819824,-7.209327220916748,-0.909777283668518,-0.1899212002754211,-0.3264041841030121,-145.27017211914062,70.22239685058594,112.44744110107422,158.8679534832358,1.156459799986444,16.857318994496456,0.9850403339931196,-120.17494773864746,9.85025405883789,249.4426040649414
1689.763,-38.5791130065918,127.06895446777344,62.4705696105957,-1.2548094987869265,-0.2377380579710006,0.7649415135383606,-25.70591926574707,63.16650772094727,-136.83786010742188,9.302312850952148,5.652812004089356,-3.828871726989746,-0.9008415341377258,-0.037196110934019,-0.4299189448356628,-145.08665466308594,70.08489227294922,112.61366271972656,146.75639412775425,1.4886912982845295,11.538958645922415,0.9988640144808688,-119.38073539733888,6.918384552001953,249.45152282714844
1698.6650000000002,-1.7038936614990234,86.7470932006836,58.65083694458008,-1.269731044769287,-0.1861469894647598,0.4381378889083862,-25.06927299499512,65.2926025390625,-136.09898376464844,-14.584709167480469,18.397022247314453,16.31812286376953,-0.8767093420028687,0.0661493092775344,-0.4943114817142486,-146.68551635742188,69.9637222290039,111.48799896240234,104.72765683752073,1.3560355590598634,28.59100038237993,1.0086321640853686,-121.61624336242676,4.671119689941406,247.5869827270508
1721.065,-6.599785327911377,66.09044647216797,44.97895812988281,-1.2206045389175415,-0.1228213906288147,0.375768780708313,-24.557785034179688,66.93217468261719,-135.405517578125,-16.18062973022461,20.395309448242188,19.377517700195312,-0.8865451812744141,-0.0808129236102104,-0.5874751210212708,-148.4966583251953,69.82710266113281,110.1772232055664,80.2160268008505,1.2830287257022397,32.45411558150319,1.0665927549361425,-123.93887329101562,2.894927978515625,245.5827407836914
1743.612,-12.969220161437988,52.676151275634766,35.170257568359375,-1.175857424736023,-0.3330317437648773,0.4624978005886078,-24.43661880493164,68.1665267944336,-134.97743225097656,1.6014995574951172,30.78647994995117,16.4976806640625,-0.9493280053138732,-0.2847691774368286,-0.5044872760772705,-150.04818725585938,69.43074035644531,108.7544403076172,64.65233640197505,1.3066962314215214,34.9649197887652,1.112126142942036,-125.61156845092772,1.2642135620117188,243.7318725585937
1759.222,9.043960571289062,36.01216506958008,29.855676651000977,-1.1349022388458252,-0.3853879570960998,0.6247098445892334,-23.61466407775879,69.06844329833984,-134.2902069091797,29.777915954589844,33.08745193481445,27.689224243164062,-1.0411109924316406,-0.3217347264289856,-0.4627121686935425,-151.50057983398438,69.04750061035156,106.82501983642578,47.64483900804829,1.3515877178854043,52.42324764191453,1.1838614293106315,-127.8859157562256,-0.0209426879882812,241.11522674560547
1781.733,20.95467758178711,18.376733779907227,24.385995864868164,-1.0675179958343506,-0.350014865398407,0.6079607009887695,-22.38824462890625,69.5978012084961,-133.42840576171875,48.71345138549805,31.176498413085938,25.71059226989746,-0.9933793544769288,-0.2513862550258636,-0.3811332881450653,-152.39508056640625,68.70413208007812,105.10343170166016,37.033493641507846,1.2773884653373109,63.29304032875449,1.093279550000455,-130.0068359375,-0.8936691284179688,238.5318374633789
1803.534,15.211485862731934,3.6237881183624254,14.31119155883789,-1.0501123666763306,-0.3787777721881866,0.5688377618789673,-21.441669464111328,69.77198028564453,-132.7442169189453,45.77973937988281,29.150171279907227,22.863338470458984,-0.9535948038101196,-0.1942646950483322,-0.3147888481616974,-153.14724731445312,68.39788055419922,103.59894561767578,21.197437258136443,1.2529106044286968,58.891843827075846,1.0228263980377366,-131.7055778503418,-1.3740997314453125,236.3431625366211
1826.107,16.950908660888672,-13.145708084106444,3.432234048843384,-1.0161190032958984,-0.3573639392852783,0.5638316869735718,-20.67643547058105,69.55105590820312,-132.2899627685547,35.47287368774414,21.032617568969727,16.423046112060547,-0.9403083324432372,-0.0903216376900672,-0.3110835552215576,-153.73765563964844,68.19842529296875,102.50114440917967,21.72379285549308,1.215776700383753,44.38932544056117,0.9945404650523182,-133.06122016906738,-1.352630615234375,234.7911071777344
1839.463,10.532674789428713,-29.038818359375,-9.475969314575195,-1.0303229093551636,-0.3204571008682251,0.6136361956596375,-20.39723777770996,68.94010162353516,-132.2164306640625,19.25881576538086,13.118616104125977,11.20797348022461,-0.934082806110382,-0.0899914428591728,-0.3054416179656982,-154.2235107421875,68.0940170288086,101.86287689208984,32.310744410790235,1.2412926454557722,25.85766313311653,0.9868656091101892,-133.82627296447754,-0.8460845947265625,234.0793075561524
1863.933,7.194067001342773,-47.45538330078125,-20.18694305419922,-1.0688499212265017,-0.3586398661136627,0.6597960591316223,-20.37433624267578,67.90888214111328,-132.3457794189453,5.678463459014893,2.750324487686157,0.541283905506134,-0.9721353054046632,-0.1332087814807891,-0.3485589623451233,-154.23959350585938,68.05957794189453,102.01925659179688,52.06995942112265,1.30628999357629,6.332631389027272,1.041290056472702,-133.8652572631836,0.15069580078125,234.3650360107422
1883.584,7.910799503326416,-67.32837677001953,-31.164669036865234,-1.0907378196716309,-0.3453437685966491,0.7155153751373291,-20.48642349243164,66.42839050292969,-132.63803100585938,-2.029210567474365,-5.648376941680908,-8.7896728515625,-0.9592159986495972,-0.1653057634830474,-0.3532519936561584,-153.7745361328125,68.08248901367188,102.85630798339844,74.61184666957976,1.3494197129983214,10.643317454626496,1.0354749144851882,-133.28811264038086,1.6540985107421875,235.4943389892578
1905.962,10.900986671447754,-89.53836059570312,-41.06128692626953,-1.1236552000045776,-0.3259191215038299,0.739533543586731,-20.5794677734375,64.45008087158203,-132.97836303710938,-2.526747465133667,-16.264516830444336,-12.201641082763672,-0.964962124824524,-0.1742644608020782,-0.3939394354820251,-152.9482421875,68.24267578125,104.09489440917967,99.1058969618795,1.3841004820276246,20.48899718368258,1.0567441901767882,-132.3687744140625,3.7925949096679688,237.07325744628903
1928.328,8.913321495056152,-111.4838638305664,-51.28027725219727,-1.1419597864151,-0.2936286926269531,0.7302451133728027,-20.758554458618164,61.92222595214844,-133.3738250732422,0.0522494614124298,-14.860356330871582,-10.91497039794922,-0.9189492464065552,-0.1757113635540008,-0.4166901707649231,-152.17214965820312,68.36206817626953,105.22503662109376,123.03562910689212,1.386920289175947,18.438261823577644,1.024193780085235,-131.41359519958496,6.439842224121094,238.598861694336
1938.469,9.683926582336426,-131.50132751464844,-62.212547302246094,-1.1429691314697266,-0.2956962287425995,0.7892836332321167,-20.95962142944336,58.95104598999024,-133.8276824951172,10.696861267089844,-15.2754545211792,-7.520655155181885,-0.9943010807037354,-0.211825743317604,-0.3745891749858856,-151.24415588378906,68.54171752929688,106.27899169921876,145.79704597145007,1.420134975582725,20.10777475901162,1.083430585980144,-130.2845344543457,9.59067153930664,240.106674194336
1962.437,9.830949783325195,-146.30271911621094,-72.26728057861328,-1.0834312438964844,-0.3039735555648803,0.8363088965415955,-21.210315704345703,55.63230514526367,-134.36248779296875,18.554067611694336,-22.357097625732425,-7.551570892333984,-1.0796692371368408,-0.163153663277626,-0.2774018943309784,-149.96383666992188,68.90530395507812,107.52800750732422,163.47382982198462,1.402011324194088,30.018651903904694,1.126612884019605,-128.75352096557617,13.272998809814451,241.89049530029297
1983.434,9.401969909667969,-159.74752807617188,-79.67750549316406,-1.0171531438827517,-0.2864543795585632,0.8724488615989685,-21.428749084472656,52.016544342041016,-134.88052368164062,11.68602180480957,-27.59841728210449,-12.277731895446776,-1.0496782064437866,-0.1571969091892242,-0.1950410306453704,-148.38436889648438,69.33036804199219,109.22346496582033,178.7629006428426,1.3703370555393235,32.38793668321772,1.0791553219888683,-126.95561981201172,17.313823699951172,244.1039886474609
2005.9,6.037449359893799,-172.49253845214844,-85.69799041748047,-0.9876457452774048,-0.3406925499439239,0.8683413863182068,-21.69708633422852,48.14280700683594,-135.38748168945312,-2.8242669105529785,-35.779319763183594,-16.815317153930664,-1.034353494644165,-0.1867089420557022,-0.2142250537872314,-146.5840606689453,69.80653381347656,111.4632339477539,192.70254844716965,1.358503697067063,39.63446855056164,1.0726787751215638,-124.8869743347168,21.663726806640625,246.85071563720703
2028.273,2.802817821502685,-184.3820343017578,-89.81243133544922,-0.9636240005493164,-0.2949103415012359,0.833106517791748,-21.92827796936035,44.06467819213867,-135.80029296875,-7.777764320373535,-39.975372314453125,-25.22067642211914,-0.9878946542739868,-0.2124224007129669,-0.2111606895923614,-144.26341247558594,70.21366882324219,114.35243225097656,205.11183092006152,1.3075204755360952,47.90205140379332,1.0323022624681697,-122.3351345062256,26.14899063110352,250.15272521972656
2038.241,-5.885270118713379,-191.85971069335932,-96.1579360961914,-0.8775245547294617,-0.3068726062774658,0.8630040287971497,-22.32402801513672,39.80366134643555,-136.23597717285156,-13.685916900634766,-42.86040115356445,-33.093772888183594,-0.9996294975280762,-0.2362180799245834,-0.1680635809898376,-141.46762084960938,70.53947448730469,117.86207580566406,214.688457225788,1.2684620981159729,55.85262851854176,1.0408186589731272,-119.14359283447266,30.73581314086914,254.0980529785156
2066.381,-7.036898612976074,-200.6783599853516,-98.4687042236328,-0.8482333421707153,-0.3228250741958618,0.9084901809692384,-22.65624237060547,35.379249572753906,-136.57713317871094,-15.03815746307373,-42.44063949584961,-35.6917839050293,-0.9930077791213988,-0.2039780020713806,-0.1915675550699234,-138.60690307617188,70.76930236816406,121.46612548828124,223.6457194313832,1.2841612983644948,57.45657054701558,1.0316828984140975,-115.9506607055664,35.39005279541016,258.0432586669922
2089.231,-7.905521392822266,-210.5702209472656,-101.00601196289062,-0.821519136428833,-0.2920657098293304,0.8701395988464355,-22.941726684570312,30.765396118164062,-136.83956909179688,-19.78531646728516,-45.68722534179688,-34.41237258911133,-1.0000988245010376,-0.2493282854557037,-0.1345725208520889,-135.60415649414062,71.01133728027344,125.30074310302734,233.6761213109295,1.231803146552858,60.52266265089939,1.0394575585684698,-112.66242980957033,40.245941162109375,262.1403121948242
2099.503,-12.813403129577637,-216.98617553710932,-102.28933715820312,-0.781089186668396,-0.3189659714698791,0.9040703773498536,-23.275747299194336,26.005773544311523,-137.03298950195312,-21.242759704589844,-46.99827194213867,-31.06806373596192,-0.9652857780456544,-0.2388745546340942,-0.2063535749912262,-132.76657104492188,71.22933959960938,128.99627685546875,240.2296654667089,1.2366013325593364,60.21060529272195,1.0155882453339546,-109.49082374572754,45.22356605529785,266.0292663574219
2125.686,-13.320740699768066,-221.6229553222656,-99.09231567382812,-0.6829251646995544,-0.2675551772117615,0.8055475354194641,-23.56686210632324,21.15359306335449,-137.0949249267578,-17.146663665771484,-43.73814010620117,-30.919261932373047,-1.0438380241394043,-0.3226019144058227,-0.1888101249933242,-129.8555450439453,71.33565521240234,132.63804626464844,243.1326047328227,1.0894399410950122,56.240854663309165,1.1087466253015394,-106.28868293762208,50.18206214904785,269.73297119140625
2148.112,-21.82465171813965,-219.68930053710932,-101.3490982055664,-0.5530542731285095,-0.3018909990787506,0.912406086921692,-24.031551361083984,16.318449020385742,-137.1824188232422,-12.213577270507812,-43.5114631652832,-33.44662094116211,-1.0137325525283811,-0.276299238204956,-0.1362286359071731,-126.74526977539062,71.37060546875,136.38702392578125,242.9225059564964,1.108824635279278,56.22361913740742,1.0595061105673131,-102.71371841430664,55.05215644836426,273.56944274902344
2158.263,-24.39625358581543,-222.3839111328125,-98.718505859375,-0.5088320970535278,-0.3873137533664703,0.8646174669265747,-24.512514114379883,11.455361366271973,-137.15245056152344,-19.45535659790039,-42.23918533325195,-35.897544860839844,-1.0632494688034058,-0.2978664636611938,-0.1124200522899627,-123.74269104003906,71.29557037353516,140.1626434326172,244.5304163470416,1.0754001165395326,58.74770978518467,1.1098928467386515,-99.23017692565918,59.840209007263184,277.3150939941406
2185.632,-8.088709831237793,-226.1178741455078,-95.4958724975586,-0.4196995198726654,-0.3122169971466064,0.7810422778129578,-24.651683807373047,6.55145788192749,-137.00526428222656,-13.177911758422852,-39.59250259399414,-40.61740493774414,-1.0124106407165527,-0.3299285471439361,-0.1686037331819534,-120.72156524658205,71.01702117919922,143.83221435546875,245.5894580369598,0.940028818717726,58.23226943752832,1.078079482459202,-96.06988143920898,64.46556329727173,280.8374786376953
2198.285,-13.904254913330078,-224.6947631835937,-92.2774658203125,-0.2857867181301117,-0.2789624631404876,0.6963743567466736,-24.91527938842773,1.7007780075073242,-136.7991485595703,-6.188684463500977,-26.98440933227539,-48.85829925537109,-0.9193779230117798,-0.3495525419712066,-0.1705028116703033,-118.09632873535156,70.392578125,146.9364013671875,243.3026831028484,0.8027648153944785,56.15684792194061,0.9982554551353402,-93.18104934692384,68.69180011749268,283.7355499267578
2221.4770000000003,-29.32683753967285,-217.2800750732422,-89.32603454589844,-0.1759062111377716,-0.3094720542430877,0.7774751782417297,-25.50417709350586,-2.9890799522399902,-136.56776428222656,-1.4667919874191284,-24.166889190673828,-51.1307373046875,-1.013810157775879,-0.3512390851974487,-0.1324089020490646,-115.60716247558594,69.69352722167969,149.77806091308594,236.7484632930216,0.8550927436578399,56.5733356733508,1.0810698628311364,-90.10298538208008,72.68260717391968,286.3458251953125
2243.24,-25.90692901611328,-213.70106506347656,-86.63893127441406,-0.1157021522521972,-0.3900993168354034,0.7019001841545105,-26.050621032714844,-7.588202953338623,-136.26573181152344,6.459307193756104,-18.51397705078125,-44.50465393066406,-0.970877170562744,-0.3324322998523712,-0.1433346420526504,-113.59269714355467,69.03880310058594,151.96392822265625,232.04658711707617,0.8113127224118791,48.63285121343736,1.0361749533343385,-87.54207611083984,76.62700605392456,288.2296600341797
2258.111,-5.361368179321289,-210.4100799560547,-80.2662582397461,-0.0351130440831184,-0.2613388001918793,0.6424977779388428,-26.229856491088867,-12.070528030395508,-135.84739685058594,11.735864639282228,-8.997629165649414,-29.39466094970703,-0.9181517362594604,-0.3127714395523071,-0.183258980512619,-112.41325378417967,68.5650634765625,153.1634521484375,225.2638857599619,0.6945029078462267,32.90492275909991,0.987123314553156,-86.18339729309082,80.63559150695801,289.01084899902344
2281.442,-13.330950736999512,-199.2985992431641,-77.11041259765625,0.0517041869461536,-0.327700138092041,0.6401086449623108,-26.60329246520996,-16.27823257446289,-135.44386291503906,28.113414764404297,-1.900450348854065,-32.68241500854492,-0.9119627475738524,-0.3263589441776275,-0.156665563583374,-111.19295501708984,67.97219848632812,154.05682373046875,214.1113300103953,0.7209714146960274,43.15224272311519,0.9811882144726782,-84.58966255187988,84.25043106079102,289.5006866455078
2303.28,-12.34783172607422,-193.1413116455078,-70.10234069824219,0.0412932559847831,-0.3567064702510834,0.6636760830879211,-27.01352500915528,-20.35567855834961,-134.92713928222656,28.904386520385746,20.899629592895508,-42.05527877807617,-0.9473801851272584,-0.3373903334140777,-0.1704553365707397,-110.88553619384766,67.04353332519531,153.95152282714844,205.84065046500177,0.7545929910698462,55.14439727063661,1.0200080754672802,-83.87201118469238,87.39921188354492,288.878662109375
2318.478,-5.738259792327881,-188.06301879882807,-64.41071319580078,0.0929130390286445,-0.2908291220664978,0.6664315462112427,-27.36355781555176,-24.28777503967285,-134.30934143066406,32.27681350708008,43.29152297973633,-41.77198791503906,-0.8889043927192688,-0.2860584557056427,-0.2442633509635925,-111.55193328857422,65.96390533447266,152.71873474121094,198.87022562355665,0.7330384825157653,68.27040080774417,0.96521761489328,-84.18837547302246,90.25168037414552,287.028076171875
2341.495,-7.935192584991455,-179.20762634277344,-59.79659652709961,0.1671696305274963,-0.2823303937911987,0.5430783033370972,-27.812965393066406,-27.98431396484375,-133.64405822753906,38.769622802734375,73.15013885498047,-33.817771911621094,-0.8156326413154602,-0.2358408570289611,-0.2508189678192138,-113.27835845947266,64.79473114013672,150.1603546142578,189.08721156386213,0.6344999449838378,89.4296827895283,0.8853178356055439,-85.46539306640625,92.77904510498048,283.8044128417969
2363.049,-6.828555107116699,-169.32981872558594,-56.91241836547852,0.2598117887973785,-0.2341023981571197,0.5590171217918396,-28.260469436645508,-31.477798461914062,-132.98239135742188,52.4054069519043,83.26092529296875,-11.598041534423828,-0.8169350028038025,-0.2750334739685058,-0.288994163274765,-115.31063842773438,63.905418395996094,146.9476776123047,178.76867745412778,0.6593983931413852,99.06171271419772,0.9091445633209908,-87.05016899108887,95.38321685791016,279.93006896972656
2386.048,-12.28604507446289,-156.05543518066406,-54.8323860168457,0.364521861076355,-0.2797549664974212,0.5058209896087646,-28.85503387451172,-34.73536682128906,-132.35015869140625,67.25006103515625,108.464599609375,6.591078758239746,-0.8422613143920898,-0.2630351185798645,-0.2912691533565521,-118.04784393310548,63.06333923339844,142.58688354492188,165.86390900162263,0.6833695208387134,127.79116713158068,0.9292089727423304,-89.19281005859375,97.7987060546875,274.9370422363281
2408.171,-10.306167602539062,-144.39987182617188,-51.81476593017578,0.4483573138713836,-0.2793885469436645,0.5404309630393982,-29.411752700805664,-37.76457214355469,-131.45452880859375,64.91484069824219,107.71546173095705,10.127113342285156,-0.851012647151947,-0.2937619686126709,-0.2437956929206848,-120.63807678222656,62.21059036254883,138.408447265625,153.76056075101118,0.7557432546023458,126.17097789681635,0.932713760862588,-91.2263240814209,99.97516250610352,269.86297607421875
2418.976,-7.772928714752197,-133.1300506591797,-48.02725601196289,0.5273277759552002,-0.293870598077774,0.3785305321216583,-29.988428115844727,-40.566139221191406,-129.66909790039062,57.8895149230957,81.46136474609375,9.519962310791016,-0.7842126488685608,-0.324441134929657,-0.2432296872138977,-122.30245208740234,61.53181838989258,135.39956665039062,141.74147639050116,0.7125446480444241,100.38814455266282,0.8828432530308306,-92.31402397155762,102.09795761108398,265.06866455078125
2441.476,-2.468871593475342,-115.66410064697266,-42.25173568725586,0.6323869824409485,-0.3005280494689941,0.2946497201919555,-30.427040100097656,-42.98923110961914,-128.4537811279297,51.25848388671875,44.23544692993164,14.00944995880127,-0.7512847781181335,-0.3574188351631164,-0.2638925909996032,-122.95777893066406,61.26899337768555,133.68258666992188,123.16447813393202,0.7596373224688242,69.14095474900503,0.8728209101218051,-92.5307388305664,104.25822448730467,262.1363677978516
2463.075,-0.8749104142189026,-96.68063354492188,-37.21200180053711,0.7081460952758789,-0.2955004572868347,0.2231810837984085,-30.778221130371094,-45.031471252441406,-127.41116333007812,43.728851318359375,21.16290855407715,8.650853157043457,-0.7776825428009033,-0.4421071410179138,-0.2295060902833938,-122.83959197998048,61.145904541015625,133.04025268554688,103.59847223238168,0.7991252772104226,49.34489230342023,0.9235377128160396,-92.06137084960938,106.17737579345705,260.451416015625
2483.029,-5.037175178527832,-75.0794906616211,-30.275474548339844,0.786620020866394,-0.2734772264957428,0.218720868229866,-31.1402645111084,-46.62995529174805,-126.4932632446289,36.93972396850586,2.5726122856140137,2.145617246627808,-0.8477748036384583,-0.4248607754707336,-0.2179200649261474,-122.16593170166016,61.150272369384766,133.19496154785156,81.11046425039619,0.8610456833634766,37.09130914662524,0.9729943221392588,-91.02566719055176,107.7802276611328,259.68822479248047
2505.754,-6.742429733276367,-51.45158386230469,-23.323131561279297,0.7895240783691406,-0.3030208945274353,0.1669314205646515,-31.42229080200196,-47.751094818115234,-125.75440216064452,31.05984306335449,-4.428250312805176,-0.3207824528217315,-0.7878798842430115,-0.4226451814174652,-0.1976552903652191,-121.33059692382812,61.17491912841797,133.6603546142578,56.891952914913055,0.8619953781874823,31.37556618349871,0.9156698505354112,-89.90830612182617,108.9260139465332,259.41475677490234
2528.228,-8.317791938781738,-24.883495330810547,-16.591209411621094,0.7971342206001282,-0.2767654359340668,0.1407249569892883,-31.56322479248047,-48.348541259765625,-125.2471694946289,23.433629989624023,-12.758424758911133,-1.4065651893615725,-0.793603241443634,-0.4182520508766174,-0.1898226290941238,-120.36969757080078,61.27056884765625,134.43923950195312,31.042587397889324,0.8554680506595117,26.718735794407017,0.916937028049661,-88.80647277832031,109.61911010742188,259.68640899658203
2537.779,-14.886298179626465,3.561253309249878,-12.511381149291992,0.7746649384498596,-0.2654073238372803,0.1995676308870315,-31.578903198242188,-48.4188117980957,-125.09320068359376,15.154346466064451,-17.38095474243164,0.9028738737106324,-0.8102923631668091,-0.3875080645084381,-0.1908038258552551,-119.49468231201172,61.46628952026367,135.31515502929688,19.76914406058726,0.8428369081310181,23.07741289234576,0.9182278115078688,-87.91577911376953,109.88510131835938,260.4083557128906
2562.917,-10.7139310836792,25.98144149780273,-6.982941627502441,0.7533544301986694,-0.2678675055503845,0.2351886332035064,-31.35580444335937,-48.04865264892578,-125.1508331298828,5.223101615905762,-18.57758522033692,4.2596821784973145,-0.7899800539016724,-0.3420059382915497,-0.2123681604862213,-118.89385986328124,61.736759185791016,136.0834503173828,28.958333780497107,0.8334324155070288,19.76239751069605,0.8866435489967058,-87.53805541992188,109.7854118347168,261.2342834472656
2583.068,-11.43113613128662,49.81635665893555,-1.9243162870407104,0.7001241445541382,-0.2148991525173187,0.2908327877521515,-30.98270034790039,-47.21634292602539,-125.4409408569336,-2.962252616882324,-14.803948402404783,8.627748489379883,-0.7767137885093689,-0.324789822101593,-0.2170711308717727,-118.6706771850586,62.046268463134766,136.61325073242188,51.14727028097246,0.7879969377935511,17.38878583637415,0.8694208495655664,-87.6879768371582,109.26261138916016,262.05419158935547
2605.442,-16.471200942993164,70.79698181152344,4.459219932556152,0.6792783737182617,-0.2144039869308471,0.2873724699020386,-30.6259822845459,-45.95480346679688,-125.8681640625,-8.22165298461914,-10.57404899597168,12.492494583129885,-0.7817962169647217,-0.3316413164138794,-0.2169168889522552,-118.75463104248048,62.3775749206543,136.9271240234375,72.82443090428201,0.7680957720693217,18.315799487825693,0.8764954217369342,-88.12864875793457,108.33237838745116,262.7952880859375
2627.775,-17.359413146972656,90.84070587158205,11.778583526611328,0.6247486472129822,-0.2483246922492981,0.3184907138347626,-30.254270553588867,-44.28133392333984,-126.37654113769533,-12.147174835205078,-5.252096176147461,16.867128372192383,-0.8057482838630676,-0.3202170729637146,-0.2199782431125641,-119.18761444091795,62.74267578125,136.944091796875,93.23152952702172,0.7439169038099191,21.43917886124745,0.8945164605576679,-88.9333438873291,107.02400970458984,263.3206329345703
2637.665,-11.868532180786133,104.3337631225586,19.684043884277344,0.609180212020874,-0.2224618047475814,0.4323903024196625,-29.808914184570312,-42.33283233642578,-126.83999633789062,-13.878131866455078,-3.544540405273437,20.38251495361328,-0.7986168265342712,-0.3023810088634491,-0.2502781748771667,-119.83538818359376,63.14580535888672,136.76316833496094,106.8356577509526,0.7794556811749563,24.912110039528987,0.8898664365874203,-90.02647399902344,105.4786376953125,263.6031646728516
2667.662,-8.258102416992188,116.07581329345705,27.190223693847656,0.6028724312782288,-0.2276955544948578,0.4054800271987915,-29.383588790893555,-40.04652404785156,-127.23233032226562,-18.321382522583008,-2.638359308242798,21.96603775024414,-0.7887325882911682,-0.3160452842712402,-0.2477508634328842,-120.631103515625,63.552188873291016,136.4920654296875,119.50355204674254,0.7613898386432381,28.72526434731893,0.885078645022189,-91.24751472473145,103.59871292114258,263.7243957519531
2677.658,-11.28252410888672,130.21397399902344,31.577056884765625,0.5639550685882568,-0.2428769618272781,0.4449038207530975,-29.024635314941406,-37.51124572753906,-127.6525650024414,-20.55108070373535,-14.752384185791016,28.407983779907227,-0.9032201170921326,-0.3375501632690429,-0.21092189848423,-121.13113403320312,64.21701049804688,136.5811309814453,134.462206200812,0.7582703658284022,38.039365132663455,0.9870333023272696,-92.10649871826172,101.72825622558594,264.2336959838867
2707.689,-2.4131221771240234,139.7829132080078,41.44635772705078,0.5159661769866943,-0.3127753734588623,0.4306690096855163,-28.662193298339844,-34.722938537597656,-127.86758422851562,-23.994613647460938,-38.1912727355957,28.90773582458496,-0.8961706161499023,-0.3597722053527832,-0.1930587142705917,-120.8298110961914,65.11698150634766,137.63673400878906,145.81799118215088,0.7412997544449201,53.57211950034801,0.9847992080372092,-92.16761779785156,99.83992004394533,265.5043182373047
2717.727,2.48846697807312,150.09915161132812,50.53055953979492,0.4903907179832458,-0.2504678666591644,0.4253996312618255,-28.26881217956543,-31.624101638793945,-128.00442504882812,-21.61756896972656,-41.34413146972656,30.42911148071289,-0.8549861311912537,-0.3290342986583709,-0.1811342686414718,-120.35997772216795,66.07129669189453,138.8236083984375,158.3959760528852,0.6958319156165614,55.700873607624615,0.933849279862267,-92.09116554260254,97.69539833068848,266.8280334472656
2741.5820000000003,-5.8606390953063965,164.5791473388672,56.83209228515625,0.4575622081756592,-0.2346137166023254,0.585209846496582,-28.03491401672364,-28.21419715881348,-128.12625122070312,-22.987003326416016,-48.13640594482422,33.40922546386719,-0.9380072951316832,-0.3522923588752746,-0.1577143520116806,-119.60919952392578,67.14488220214844,140.3265380859375,174.21403371399936,0.7790233210919264,62.94197522567179,1.01431819892607,-91.57428550720216,95.35907936096191,268.4527893066406
2757.669,-1.7898812294006348,169.61196899414062,63.7080307006836,0.3418924510478973,-0.42261403799057,0.5841290950775146,-27.851408004760746,-24.6130599975586,-128.1332550048828,-22.553173065185547,-57.8397216796875,28.6578369140625,-0.9388316869735718,-0.3490221798419952,-0.1140063256025314,-118.16161346435548,68.22154998779297,142.54412841796875,181.1908851919542,0.7979347547928403,68.37653571134564,1.0080768129288022,-90.31020545959473,92.83460998535156,270.6773834228516
2780.234,16.36416244506836,170.19473266601562,73.64950561523438,0.2512515187263489,-0.3210009336471557,0.5636827945709229,-27.42134666442871,-20.9005184173584,-127.91498565673828,-34.20858383178711,-50.13838577270508,13.536751747131348,-0.8765171766281128,-0.3110095858573913,-0.1008149087429046,-116.80729675292967,68.93804168701172,144.9006805419922,186.167350835622,0.6956343996381488,62.1878491630999,0.9355067980747892,-89.38595008850098,89.83856010437012,272.81566619873047
2801.72,5.212446212768555,182.30018615722656,76.28693389892578,0.2656437158584595,-0.1830693781375885,0.5394400358200073,-27.17676544189453,-16.97801971435547,-127.73558044433594,-40.10742568969727,-41.87020111083984,4.965073108673096,-0.929387390613556,-0.342447429895401,-0.0991580337285995,-115.65223693847656,69.39974975585938,147.14817810058594,197.6871866160767,0.628551138120252,58.19253635554332,0.9954212574213804,-88.47547149658203,86.37776947021484,274.8837585449219
2817.521,-13.713912010192873,198.6167449951172,81.62654113769531,0.1642306447029113,-0.3453437685966491,0.7057238817214966,-27.33784866333008,-12.672456741333008,-127.65100860595705,-35.750152587890625,-51.432594299316406,10.145308494567873,-1.0420290231704712,-0.3183577060699463,-0.0746202021837234,-113.97631072998048,70.04882049560547,149.84681701660156,215.17336032414093,0.8026706799180637,63.45323042103915,1.0921283297844009,-86.63846206665039,82.72127723693848,277.4978256225586
2840.21,13.576396942138672,189.50184631347656,89.15813446044922,0.0059417225420475,-0.4565309286117553,0.8696180582046509,-27.029260635375977,-8.478596687316895,-127.26605987548828,-38.821533203125,-46.37836837768555,18.76544570922852,-0.9495691061019896,-0.3232642412185669,-0.0853888243436813,-112.69757080078124,70.76577758789062,152.1737823486328,209.86767557347784,0.9821870290334248,63.32619083983848,1.006713717119591,-85.66831016540527,79.24437427520752,279.4398422241211
2863.579,39.50882339477539,184.70687866210932,95.16548919677734,-0.0563821829855442,-0.2538886666297912,0.5897594690322876,-26.24314308166504,-4.326127052307129,-126.73030090332033,-32.04930877685547,-28.044687271118164,11.252930641174316,-0.8595355749130249,-0.3095350861549377,-0.1140577644109726,-112.06640625,71.16983032226562,153.6610565185547,211.5042516953281,0.6445577064270619,44.04873579598082,0.9206641883577518,-85.82326316833496,75.49595737457275,280.391357421875
2885.717,1.38246488571167,200.10299682617188,91.51109313964844,-0.0953304395079612,-0.160106360912323,0.6402248740196228,-26.203123092651367,0.0908979028463363,-126.36717987060548,-27.285476684570312,-24.42861557006836,12.870633125305176,-1.0217585563659668,-0.3181692957878113,0.0142648555338382,-111.41605377197266,71.60515594482422,155.04696655273438,220.03954352704105,0.6667906934074664,38.81890896999321,1.0702456420806288,-85.21293067932129,71.51425804197788,281.41414642333984
2897.643,-22.456850051879883,213.17079162597656,94.37761688232422,-0.2479477375745773,-0.4477383196353912,1.0467534065246582,-26.652551651000977,4.75590181350708,-126.08151245117188,-34.90586471557617,-20.057430267333984,6.684437274932861,-1.1038947105407717,-0.2051490694284439,-0.0478626191616058,-111.0666732788086,71.93560028076172,156.2764892578125,234.2076665805048,1.1651782599710876,40.80933229242526,1.1238151551568696,-84.41412162780762,67.17969846725464,282.3580017089844
2920.136,39.6297607421875,186.0211334228516,105.92657470703124,-0.4056368470191955,-0.583838939666748,0.8511618971824646,-25.825294494628903,9.02645778656006,-125.43067932128906,-49.19206619262695,-3.3113279342651367,15.787517547607422,-0.9367793202400208,-0.2377867549657821,-0.1185440272092819,-112.1464614868164,72.25704956054688,156.2917022705078,217.703512249044,1.109002134509271,51.769392301861615,0.9737303127937976,-86.3211669921875,63.230591773986816,281.7223815917969
2942.901,53.63523483276367,180.1576232910156,105.1249542236328,-0.4441040456295013,-0.0892798453569412,0.6598029732704163,-24.68034172058105,13.17897605895996,-124.53581237792967,-42.7250862121582,5.994846343994141,-6.927865028381348,-0.7896629571914673,-0.3310029208660126,-0.1807276904582977,-113.24608612060548,72.0460205078125,156.1561279296875,215.37122288261747,0.8003369650765427,43.69629833722669,0.8750960048363808,-88.56574440002441,58.86704444885254,280.6919403076172
2963.905,-11.060873031616213,206.2705993652344,93.9451141357422,-0.5024158954620361,-0.1961723566055297,0.7639443874359131,-24.9056339263916,17.709253311157227,-124.11827087402344,-17.82608985900879,12.259011268615724,16.549888610839844,-1.0742392539978027,-0.2930224537849426,-0.071904756128788,-114.63546752929688,72.27243041992188,155.17587280273438,226.9263923493523,0.9351557905525256,27.23878943669688,1.1158057300470563,-89.72983360290527,54.56317710876465,279.2941436767578
2984.7610000000004,-6.98433780670166,202.0526428222656,96.69275665283205,-0.6114813089370728,-0.4892067313194275,1.190253973007202,-25.00628471374512,22.23286437988281,-123.63542938232422,-15.968575477600098,13.876812934875488,12.202529907226562,-1.100412130355835,-0.2119625806808471,-0.0948250815272331,-116.07457733154295,72.4341049194336,154.10848999023438,224.1060923651652,1.4247586242613393,24.422593559040727,1.1246451833044049,-91.06829261779784,50.20124053955078,277.7439193725586
3007.6960000000004,42.96551513671875,176.02896118164062,103.01958465576172,-0.6936964988708496,-0.4810683131217956,0.7787929773330688,-23.96543884277344,26.29404830932617,-122.73421478271484,-33.76667404174805,28.62664604187012,38.94889831542969,-0.9209572076797484,-0.1634159237146377,-0.2088671177625656,-119.75009155273438,72.88037109375,151.10459899902344,208.43527889562452,1.1485469324232382,58.96346173210882,0.9583800996385669,-95.78465270996094,46.58632278442383,273.8388137817383
3017.8050000000003,36.15431594848633,170.48757934570312,99.42900848388672,-0.8436357378959656,-0.0835049450397491,0.6721541881561279,-22.99034309387207,30.21090507507324,-121.86264038085938,-33.26027297973633,42.47705841064453,24.91696548461914,-0.7596444487571716,-0.3202714920043945,-0.2280084937810897,-123.55461883544922,72.84966278076172,147.91615295410156,200.64714550909807,1.0818898219121875,59.425595654310335,0.8553486951849693,-100.56427574157716,42.63875770568848,269.77879333496094
3040.024,-13.160551071166992,185.3935394287109,86.0954360961914,-0.7761480212211609,-0.2188130766153335,0.6981088519096375,-23.16084671020508,34.30368423461914,-121.25169372558594,5.630557060241699,29.927350997924805,36.53438568115234,-1.0657668113708496,-0.273076593875885,-0.2019115686416626,-126.41019439697266,73.10418701171875,144.93312072753906,204.8325869655392,1.0666024950552029,47.56165312161488,1.1185696240707506,-103.24934768676758,38.80050277709961,266.184814453125
3063.243,-12.68310260772705,192.21878051757807,85.39313507080078,-0.7672609090805054,-0.4744159579277038,1.0886569023132324,-23.37715530395508,38.478328704833984,-120.86328125,17.520618438720703,22.06435775756836,22.07112503051757,-1.2369513511657717,-0.2626432478427887,-0.1352045536041259,-128.07293701171875,73.22232055664062,142.96533203125,210.7152300918067,1.4138365021082695,35.79025724749609,1.2717351894571165,-104.69578170776369,34.74399185180664,263.82861328125
3084.962,42.02410125732422,164.39236450195312,92.99470520019533,-0.919098734855652,-0.5570124387741089,0.8430747985839844,-22.20933151245117,42.23813629150391,-120.00086975097656,0.8984013199806213,36.04926300048828,41.99527359008789,-0.9285036325454712,-0.1893137097358703,-0.1733093559741974,-131.71437072753906,73.41852569580078,139.281982421875,193.4913170876153,1.3659357442316846,55.35304410523824,0.9633248721030117,-109.50503921508788,31.180389404296875,259.2828521728516
3104.847,40.51331329345703,153.13076782226562,86.51069641113281,-0.9456995725631714,-0.0337551645934581,0.5787293314933777,-20.92769241333008,45.72014999389648,-118.97528839111328,-6.587920665740967,48.03903579711914,31.23128318786621,-0.7700709700584412,-0.2396289110183715,-0.2067081928253173,-135.5478057861328,73.15289306640625,135.53077697753906,180.4839638344349,1.109240610423937,57.6761884019366,0.832562064295334,-114.62011337280272,27.43274307250977,254.5060653686524
3127.599,-13.680200576782228,164.96568298339844,73.01398468017578,-0.9995416402816772,-0.2527719140052795,0.5147578120231628,-21.0063705444336,49.33287811279297,-118.48741149902344,6.0901641845703125,31.87482643127441,31.78152847290039,-1.0605380535125732,-0.2352479398250579,-0.3162235915660858,-138.4293975830078,73.09654235839844,132.5053253173828,180.91950256640948,1.1523683162104692,45.42202342358463,1.1314061675645606,-117.42302703857422,23.76366424560547,250.99273681640625
3137.359,-12.34720516204834,168.34414672851562,72.81446075439453,-0.9880490303039552,-0.3150070309638977,0.7270135283470154,-21.09114646911621,53.00263595581055,-117.92584228515624,18.8177490234375,29.302839279174805,22.7847957611084,-1.160951852798462,-0.230290025472641,-0.2493181526660919,-140.4085693359375,72.95441436767578,130.16580200195312,183.8318549871566,1.2664987115038264,41.61623464473517,1.2095462957643266,-119.31742286682127,19.951778411865234,248.09164428710932
3168.059,-3.465885639190674,153.02020263671875,73.38264465332031,-1.0850880146026611,-0.3601451814174652,0.9223330616950988,-20.78447532653809,56.34272766113281,-117.2536163330078,9.140776634216309,36.9468879699707,19.65011215209961,-0.9070119261741638,-0.2529840171337127,-0.2606083750724792,-142.629638671875,72.57475280761719,127.7756576538086,169.74158981982552,1.4689516084025434,42.8340196074603,0.9770303333598171,-121.84516334533691,16.232025146484375,245.0292739868164
3177.395,14.921590805053713,125.2257843017578,77.1741943359375,-1.144522190093994,-0.1801450997591018,0.4482760727405548,-19.592021942138672,59.24948501586914,-115.97213745117188,0.2808353304862976,33.273765563964844,26.776960372924805,-0.8367530703544617,-0.1681765168905258,-0.4366123080253601,-145.22650146484375,72.35179138183594,125.17340087890624,147.85130096669724,1.242310242240828,42.71098161014012,0.9586810465948932,-125.63447952270508,13.102306365966797,241.14553833007807
3207.306,-10.42703628540039,123.71270751953124,60.58771514892578,-1.1926193237304688,-0.1069096177816391,0.4289694726467132,-19.230070114135746,62.02301788330078,-115.07786560058594,10.384745597839355,35.24299240112305,32.058475494384766,-1.0039386749267578,-0.0476268008351326,-0.3705665469169616,-148.12611389160156,72.12195587158203,122.05856323242188,138.1464017427798,1.2719219025444668,48.76122748189928,1.071205274849524,-128.89604377746582,10.09893798828125,237.1364288330078
3217.492,-23.01180076599121,124.04635620117188,49.39336013793945,-1.0850142240524292,-0.2676442265510559,0.4742336273193359,-19.57658767700196,64.69699096679688,-114.79698944091795,12.419845581054688,35.09334182739258,15.985721588134766,-1.1968833208084106,-0.2240842133760452,-0.2334294915199279,-149.7637939453125,71.71067810058594,120.18875885009766,135.48706760055688,1.2139962239161466,40.51343603750271,1.2398519047954808,-130.18720626831055,7.013687133789063,234.9857482910156
3239.784,-14.483763694763184,122.16163635253906,47.452857971191406,-1.0420204401016235,-0.2610387504100799,0.7455064058303833,-19.70923614501953,67.3083267211914,-114.41600036621094,14.941938400268556,15.608044624328612,4.019887924194336,-1.07987380027771,-0.1778642535209655,-0.1892524063587188,-150.04673767089844,71.53347778320312,119.71675872802734,131.85226026401594,1.3075655348545148,21.97799078795732,1.1106662822465438,-130.3375015258789,4.225151062011719,234.13275909423828
3257.316,-3.698573589324951,102.33621215820312,48.95863342285156,-1.012149691581726,-0.2913912534713745,0.5851475596427917,-19.19939994812012,69.56014251708984,-113.67576599121094,0.8662360906600952,10.49825668334961,12.698198318481444,-0.8898542523384094,-0.1909202486276626,-0.1983546912670135,-150.8719940185547,71.4942855834961,118.97686004638672,113.50474682636656,1.2048873504707884,16.498727189990802,0.931469653444722,-131.67259407043457,1.93414306640625,232.65262603759768
3279.748,7.102185249328613,91.6861572265625,40.872955322265625,-1.019870638847351,-0.1649452298879623,0.3070243000984192,-18.64313316345215,71.57231903076172,-113.09912109375,-2.814866304397583,3.5212607383728027,17.574981689453125,-0.933119773864746,-0.0778948366641998,-0.3217894732952118,-152.10792541503906,71.59667205810547,117.90446472167967,100.63493895792674,1.077778720191033,18.14394474429007,0.9901154392695566,-133.4647922515869,0.02435302734375,231.0035858154297
3297.263,-9.13925075531006,87.48738098144531,26.495534896850582,-1.133167386054993,-0.2089212834835052,0.523286759853363,-18.99251747131348,73.37735748291016,-113.16568756103516,0.3266360163688659,13.271164894104004,4.04086971282959,-0.9346140027046204,-0.084653303027153,-0.337513267993927,-152.8272705078125,71.38430786132812,117.300048828125,91.86719275579952,1.2655218135413278,13.876567903114635,0.9972886853047614,-133.83475303649902,-1.9930496215820312,230.46573638916016
3319.568,-3.319186449050904,66.79796600341797,19.28769302368164,-1.1572480201721191,-0.3682208955287933,0.5355972647666931,-19.320890426635746,74.76908111572266,-113.38460540771484,-7.00187873840332,12.423498153686523,-0.7051917910575867,-0.9229775667190552,-0.1549204587936401,-0.3880492448806762,-153.32704162597656,71.10106658935547,117.06755065917967,69.60603682909353,1.327280693041935,14.278196934631906,1.0131486335537956,-134.00615119934082,-3.668014526367188,230.45215606689453
3342.389,14.251684188842772,34.766536712646484,9.193939208984377,-1.2096320390701294,-0.2389275729656219,0.5915643572807312,-19.246726989746094,75.4879150390625,-113.52587127685548,-4.723073959350586,11.869287490844728,0.653517484664917,-0.9053808450698853,-0.134459838271141,-0.4624858796596527,-153.8101348876953,70.8637924194336,116.8199462890625,38.68269762295292,1.3675688077289443,12.791188305571202,1.0255179723495458,-134.56340789794922,-4.624122619628906,230.345817565918
3357.206,12.59587287902832,4.964171886444092,1.060633659362793,-1.1313990354537964,-0.3172283768653869,0.5405354499816895,-19.043325424194336,75.58876037597656,-113.51268005371094,4.63820219039917,13.991291046142578,0.7638814449310303,-0.8994476795196533,-0.2039806097745895,-0.4265499711036682,-154.1133270263672,70.53446197509766,116.55814361572266,13.58027834258843,1.2933971521544867,14.759832639932034,1.0161491500787876,-135.07000160217285,-5.054298400878906,230.0708236694336
3381.308,14.294706344604492,-20.489103317260746,-3.42493200302124,-1.1256308555603027,-0.2510228455066681,0.5441734194755554,-18.502525329589844,75.17753601074219,-113.14441680908205,9.048999786376951,17.983810424804688,6.455671310424805,-0.9481320977211,-0.1687738299369812,-0.3930658996105194,-154.72137451171875,70.2185287475586,115.87579345703124,25.216505377414613,1.2752184136136846,21.14184302745165,1.0401633918943876,-136.2188491821289,-4.959007263183594,229.02021026611328
3403.2200000000003,10.980308532714844,-42.126895904541016,-13.69614315032959,-1.1176341772079468,-0.2076790630817413,0.6109429597854614,-18.26299095153809,74.2892074584961,-112.97310638427734,14.65811538696289,7.106011390686035,4.3439106941223145,-0.9997727274894714,-0.0775118768215179,-0.3468544483184814,-154.9359893798828,70.13404846191406,115.50016021728516,45.63799810705949,1.290537890732858,16.8589829082477,1.0610662590048037,-136.67299842834473,-4.155158996582031,228.4732666015625
3424.575,12.213827133178713,-64.36658477783203,-24.41390037536621,-1.168807864189148,-0.2469706535339355,0.6204731464385986,-18.22502517700196,72.91063690185547,-113.00133514404295,11.716694831848145,-5.105447292327881,-1.1210452318191528,-1.012539982795715,-0.075379841029644,-0.3461841344833374,-154.64901733398438,70.22749328613281,115.722412109375,69.91618797345373,1.3461401310966077,12.829780678140198,1.0727361241990403,-136.42399215698242,-2.683143615722656,228.723747253418
3445.842,19.06686782836914,-87.956298828125,-33.44734191894531,-1.1600414514541626,-0.2626685202121734,0.5690049529075623,-18.11186981201172,71.02729797363281,-113.07988739013672,8.294903755187988,-13.74683666229248,-4.078664779663086,-0.9421991109848022,-0.1831982582807541,-0.4027822911739349,-153.96031188964844,70.38592529296875,116.4354019165039,96.01343986010374,1.3185058047030624,16.56552000126904,1.0409295560512144,-135.84844207763672,-0.6413726806640625,229.51528930664065
3457.039,12.93514633178711,-108.5654296875,-41.428955078125,-1.1316527128219604,-0.2450357377529144,0.6381485462188721,-18.161396026611328,68.70315551757812,-113.12386322021484,14.48713207244873,-13.938847541809082,-2.240260601043701,-0.9150118827819824,-0.2366270571947097,-0.3827830255031585,-153.13873291015625,70.5511245727539,117.15060424804688,116.9193262584144,1.3220869647094615,20.22837695018952,1.0196871846023214,-134.97733688354492,1.8479690551757808,230.2744674682617
3479.58,9.183528900146484,-130.55870056152344,-47.94622802734375,-1.1669623851776123,-0.26568403840065,0.6875513792037964,-18.210723876953125,65.8876724243164,-113.0752182006836,22.129762649536133,-19.58365249633789,-1.574638843536377,-0.944972276687622,-0.1630342900753021,-0.3246769309043884,-152.10989379882812,70.86851501464844,117.9323501586914,139.38705921793246,1.3802594378323745,29.592656648393355,1.012406979880146,-133.899169921875,4.980842590332031,231.007568359375
3502.387,10.841790199279783,-151.1956329345703,-56.9057846069336,-1.1515003442764282,-0.1949509382247924,0.7148685455322266,-18.240556716918945,62.586612701416016,-112.99486541748048,21.1970443725586,-24.713468551635746,-5.774290084838867,-0.98917156457901,-0.1038139015436172,-0.282970666885376,-150.77760314941406,71.27044677734375,119.06390380859376,161.9133476738136,1.369304914390809,33.06679065117713,1.0340745179352158,-132.53704643249512,8.683834075927734,232.05876922607425
3526.124,9.509969711303713,-167.66773986816406,-64.78700256347656,-1.171553373336792,-0.1934239566326141,0.7242648005485535,-18.33592987060547,58.95995330810547,-112.89743041992188,12.4212007522583,-28.45302963256836,-5.3153581619262695,-1.0076086521148682,-0.1041136980056762,-0.2486541271209716,-149.46559143066406,71.7490005493164,120.35885620117188,180.00073949172588,1.3908665050571418,31.497843668881075,1.0430454126563478,-131.1296615600586,12.789047241210938,233.2562866210937
3546.912,4.452438354492188,-181.55577087402344,-73.04293823242188,-1.1633175611495972,-0.2327255606651306,0.7394624352455139,-18.60309791564941,55.04420852661133,-112.90377044677734,8.642952919006348,-32.86161804199219,-9.21084976196289,-0.9943733215332032,-0.1647148132324218,-0.2481117844581604,-147.7379608154297,72.22919464111328,122.14398956298828,195.74880068748016,1.397953371112632,35.20548719781333,1.038011912196666,-129.13486289978027,17.184986114501953,235.0477600097656
3557.468,-3.3735251426696777,-191.2520904541016,-77.10090637207031,-1.0839680433273315,-0.2149029374122619,0.7758520841598511,-18.94758033752441,50.929664611816406,-112.76419067382812,2.8643295764923096,-25.85736083984375,-21.41462516784668,-1.0049421787261963,-0.2384158968925476,-0.2506691515445709,-145.5614013671875,72.4139404296875,124.5150146484375,206.2360117398192,1.3502282947555524,33.69560304556109,1.0628198088152607,-126.61382102966309,21.484275817871094,237.2792053222656
3579.612,-8.656477928161621,-200.185775756836,-81.23137664794922,-1.029727816581726,-0.2782284617424011,0.8516435027122498,-19.36579322814941,46.61544799804688,-112.6006088256836,1.546614408493042,-29.10441017150879,-12.014720916748049,-1.1619045734405518,-0.1637025028467178,-0.1741447150707245,-143.7818603515625,72.81072235107422,126.49170684814452,216.21243252322,1.3649348368613432,31.52478748964576,1.1862323250558526,-124.41606712341309,26.195274353027344,239.09231567382807
3602.53,-7.367022514343262,-208.4224548339844,-81.2725830078125,-0.9693028926849364,-0.2500929832458496,0.8284395933151245,-19.63058853149414,42.1815299987793,-112.26271057128906,-17.21452522277832,-33.1650390625,-21.148653030395508,-1.035011887550354,-0.1425416767597198,-0.1074506789445877,-141.62815856933594,73.15870666503906,129.24070739746094,223.8290093989447,1.299387070048153,42.93629257007269,1.0502920476656348,-121.9975700378418,30.97717666625977,241.50341796875
3625.46,-10.110607147216797,-215.11605834960932,-85.58529663085938,-0.9535377621650696,-0.2804577052593231,0.8383059501647949,-19.953012466430664,37.62564468383789,-111.91068267822266,-33.24078369140625,-39.85493469238281,-35.26398086547852,-0.9893680810928344,-0.2255515605211258,-0.157019555568695,-138.66587829589844,73.33557891845703,133.15780639648438,231.7368894590373,1.3002490739838248,62.7448313905918,1.0268290252860128,-118.71286582946776,35.70993423461914,245.06848907470703
3646.787,-10.28200912475586,-224.34942626953125,-87.1063461303711,-0.880555272102356,-0.1992920637130737,0.8347127437591553,-20.226402282714844,32.82771682739258,-111.49783325195312,-26.531606674194336,-37.585716247558594,-36.66981887817383,-0.9619245529174804,-0.2083180695772171,-0.1984656155109405,-135.66099548339844,73.38842010498047,136.97019958496094,240.88565817684832,1.2295691434320426,58.83271058785424,1.0040337963226185,-115.4345932006836,40.56070327758789,248.4680328369141
3658.02,-25.17900657653809,-224.5270233154297,-91.74552154541016,-0.764133095741272,-0.249470978975296,0.8381967544555664,-20.816139221191406,27.99385643005371,-111.1091766357422,-24.14606475830078,-39.12818908691406,-29.32502174377441,-1.0157382488250732,-0.2473078668117523,-0.1582505106925964,-132.77638244628906,73.521728515625,140.59915161132812,243.8516091698149,1.16133929432267,54.53443430353154,1.0573214247558185,-111.96024322509766,45.52787208557129,251.7083282470703
3679.411,-26.811826705932617,-224.9445343017578,-92.34683990478516,-0.6607824563980103,-0.3123443722724914,0.8165314197540283,-21.40512466430664,23.134796142578125,-110.67720794677734,-12.545434951782228,-38.56304168701172,-20.026063919067383,-1.050346612930298,-0.2800449132919311,-0.1099492833018302,-129.9706573486328,73.74493408203125,143.88438415527344,244.63617149543452,1.0958631397301464,45.22763931905108,1.092585010721555,-108.56553268432616,50.610137939453125,254.5615921020508
3706.841,-27.36295890808105,-224.2062225341797,-91.04943084716795,-0.559083104133606,-0.3213143646717071,0.8297027349472046,-21.96870231628418,18.29828453063965,-110.1610870361328,-21.734708786010746,-35.28076171875,-30.75691604614257,-1.006343126296997,-0.2390206903219223,-0.0559530928730964,-127.0012435913086,73.73957824707031,147.52560424804688,243.53061532555748,1.0508203779195198,51.60540279987524,1.0358514019149887,-105.0325412750244,55.44129371643066,257.6866912841797
3716.729,-29.180316925048828,-224.2862548828125,-88.86243438720703,-0.5175678133964539,-0.3125706315040588,0.85982745885849,-22.540470123291016,13.476971626281738,-109.54767608642578,-33.18476486206055,-32.58135223388672,-40.59958267211914,-1.017095923423767,-0.263527363538742,-0.1217958480119705,-124.1650161743164,73.46269989013672,151.27029418945312,243.00688729010315,1.0511327699914417,61.73410115559374,1.057716889045401,-101.6245460510254,59.98572826385498,260.8179702758789
3736.658,-27.219614028930664,-224.254638671875,-86.88361358642578,-0.4331718385219574,-0.2811481356620788,0.7493920922279358,-23.06134414672852,8.672316551208496,-108.85858917236328,-35.25000762939453,-25.29092788696289,-41.74858474731445,-1.0204018354415894,-0.3301920294761657,-0.1718162596225738,-121.8920669555664,73.00434875488281,154.4589385986328,242.0326685874709,0.9100937444947738,60.20912222960593,1.0861710312712474,-98.83072280883788,64.33203220367432,263.3175277709961
3756.601,-33.98206329345703,-218.09280395507807,-86.6024398803711,-0.3232535719871521,-0.2911895215511322,0.7764564156532288,-23.727663040161133,3.9844491481781006,-108.15562438964844,-14.923102378845217,-27.332351684570312,-51.7723274230957,-1.0518066883087158,-0.3110039234161377,-0.1100617051124572,-118.89230346679688,72.38652038574219,157.98504638671875,237.1059559688494,0.8900386366179222,60.41630839452835,1.1023313153872751,-95.16464042663574,68.40207123756409,266.1406707763672
3779.175,-38.84443283081055,-213.28787231445312,-86.33097076416016,-0.2199527770280838,-0.3123015165328979,0.7585414052009583,-24.50261688232422,-0.6110368371009827,-107.44129943847656,-13.816180229187012,-15.522234916687012,-49.98737716674805,-0.9967461228370668,-0.2932860255241394,-0.0933770313858985,-116.7935791015625,71.65524291992188,160.53863525390625,233.35304358729948,0.8492917783396694,54.13468840720264,1.0431868462307765,-92.29096221923828,72.26627975702286,267.9799346923828
3796.665,-33.12208938598633,-210.76747131347656,-83.82376861572266,-0.1742971241474151,-0.2998312711715698,0.7745224833488464,-25.18011283874512,-5.137394428253174,-106.63613891601562,-8.476144790649414,-6.873056888580322,-48.12080764770508,-0.9806671738624572,-0.3096275329589844,-0.1606146842241287,-115.37060546875,70.84046936035156,162.28501892089844,229.2300677356979,0.8486243903349013,49.34263947310831,1.0408527234177094,-90.19049263000488,75.97786378860474,268.92115783691406
3819.289,-25.424272537231445,-208.6514129638672,-81.09432983398438,-0.1099527552723884,-0.3151342272758484,0.7407088875770569,-25.73455238342285,-9.59915542602539,-105.75032043457033,1.941094160079956,7.31177806854248,-36.43267822265625,-0.9286092519760132,-0.283151775598526,-0.2006897777318954,-114.9376220703125,70.11019897460938,162.78140258789062,225.29557496118008,0.8124339023750651,37.20981036685791,0.9913457811309464,-89.20306968688965,79.70935440063477,268.53172302246094
3841.607,-17.82468605041504,-205.56622314453125,-76.3211898803711,-0.0226868037134408,-0.2800081372261047,0.6356357336044312,-26.1834716796875,-13.960822105407717,-104.77906036376952,22.28579902648925,18.437389373779297,-34.37617492675781,-0.9117581248283386,-0.2735389471054077,-0.1848800033330917,-114.70526123046876,69.33560943603516,162.63702392578125,220.00026262588585,0.6949475043558389,44.92566713766721,0.9696943071950394,-88.52178955078125,83.29643154144287,267.4160842895508
3856.513,-22.524730682373047,-196.6058959960937,-72.41732788085938,0.0837546437978744,-0.240194022655487,0.6087254285812378,-26.74885940551757,-18.09562873840332,-103.76318359375,27.49794578552246,23.7187614440918,-27.64203834533692,-0.8763675093650818,-0.2727392911911011,-0.1828053593635559,-114.76195526123048,68.64116668701172,162.0745391845703,210.72615217420017,0.6597383240941405,45.63769221543026,0.9358549737230762,-88.01309585571289,86.73679542541504,265.8377227783203
3879.229,-24.366926193237305,-185.57994079589844,-69.06871032714844,0.2011144757270813,-0.2801913619041443,0.6035845279693604,-27.385772705078125,-21.99762725830078,-102.76457977294922,34.78217697143555,32.59835433959961,-16.90703773498535,-0.8657626509666443,-0.286050021648407,-0.2068566381931305,-115.30314636230467,68.05621337890625,160.8301239013672,199.5097698464197,0.6951751678797751,50.57964477430197,0.9349648396909958,-87.91737365722656,90.05384063720703,263.5947036743164
3902.262,-18.211694717407227,-176.4428253173828,-62.656883239746094,0.2608030140399933,-0.3356726765632629,0.604250967502594,-28.00390815734864,-25.67413330078125,-101.65715026855467,41.67565155029297,39.62270736694336,-10.203656196594238,-0.9395129084587096,-0.3116675615310669,-0.1614881753921508,-116.0209503173828,67.54573822021484,159.23110961914062,188.12129450910035,0.7387919799587098,58.40319743820676,1.002945464550666,-88.01704216003418,93.2198715209961,260.8882598876953
3925.441,-7.756790637969971,-170.012451171875,-58.4118766784668,0.3299023509025574,-0.3278619050979614,0.5081189274787903,-28.47838592529297,-29.210573196411133,-100.47921752929688,45.279632568359375,59.06560134887695,-8.930813789367676,-0.9409674406051636,-0.3075183928012848,-0.1591380983591079,-117.44024658203124,66.88027954101562,156.78269958496094,179.93428992710338,0.6888496457193651,74.95832057330557,1.0026525921471856,-88.96186065673828,96.09085273742676,257.2619171142578
3936.535,-1.0405819416046145,-162.19224548339844,-53.09909057617188,0.3546654880046844,-0.3118871450424194,0.526979386806488,-28.89772605895996,-32.56632232666016,-99.25607299804688,53.62630462646485,68.47846984863281,-6.066320896148682,-0.911157727241516,-0.2808630168437958,-0.2006510198116302,-119.07584381103516,66.14219665527344,153.91282653808594,170.66610889611528,0.7076499655502388,87.1887700906233,0.9743476124535692,-90.1781177520752,98.7085189819336,253.1688995361328
3959.124,1.005356788635254,-156.36898803710938,-48.48390579223633,0.4024456143379211,-0.2687905728816986,0.6011818647384644,-29.28636360168457,-35.74704360961914,-97.97341918945312,62.20529556274414,91.87445831298828,-12.54515266418457,-0.9586474299430848,-0.2693430483341217,-0.2318416982889175,-121.12488555908205,65.01553344726562,150.38558959960938,163.71609659069128,0.7717710016969513,111.65928417163111,1.0223996995734534,-91.83852195739746,100.76257705688477,248.3590087890625
3981.644,-4.426506519317627,-147.57122802734375,-44.71095275878906,0.4512948393821716,-0.2680008113384247,0.4438756704330444,-29.90999412536621,-38.77935028076172,-96.64786529541016,55.13525390625,100.67935943603516,-21.9936752319336,-0.734301745891571,-0.2397462278604507,-0.2269125282764434,-123.11174774169922,63.58915328979492,147.0502471923828,154.25929663414945,0.6873987763543216,116.875794713725,0.8050879475445725,-93.201753616333,102.36850357055664,243.69811248779297
4004.655,-14.044964790344238,-131.63980102539062,-44.646785736083984,0.5497931838035583,-0.1967420578002929,0.4353677034378052,-30.63935279846192,-41.52262878417969,-95.47203063964844,43.220340728759766,53.43400955200195,-12.830212593078612,-0.770318329334259,-0.2814503312110901,-0.2573758959770202,-123.75938415527344,62.79764938354492,145.45156860351562,139.712682769068,0.728371484519442,69.9128427736787,0.8595620799436945,-93.12003135681152,104.3202781677246,240.9235992431641
4026.458,-23.405635833740234,-114.56796264648438,-47.34485626220703,0.6380895972251892,-0.2969061136245727,0.3861612975597381,-31.4510555267334,-43.99308776855469,-94.51209259033205,35.029544830322266,32.48350143432617,-0.4317834973335266,-0.7588766813278198,-0.290833055973053,-0.2799476981163025,-124.12882995605467,62.42518615722656,144.3670654296875,126.15536955768846,0.8027652970374795,47.77481882165539,0.8595629107810357,-92.67777442932127,106.41827392578124,238.8791580200196
4036.489000000001,-8.700387001037598,-98.09284210205078,-43.752960205078125,0.6887221932411194,-0.345873087644577,0.3676428198814392,-31.92983055114746,-46.13901138305664,-93.69365692138672,31.46451759338379,12.675629615783691,9.416241645812988,-0.8299758434295654,-0.3380269706249237,-0.2975454926490783,-124.16325378417967,62.43844985961914,143.760009765625,107.76002938164427,0.8538897441883392,35.20444659802556,0.9442750943142916,-92.23342323303224,108.57746124267578,237.4536666870117
4059.074,4.361265182495117,-80.54689025878906,-37.79633331298828,0.7278919219970703,-0.2973404824733734,0.2271951884031295,-32.07172393798828,-47.9050407409668,-92.96648406982422,32.29676818847656,-0.9783016443252563,13.597399711608888,-0.8216152191162109,-0.3843685388565063,-0.2639619708061218,-123.78231048583984,62.65407180786133,143.592041015625,89.0807778157553,0.8184471065741641,35.05606350468835,0.944704537925968,-91.71058654785156,110.55911254882812,236.5585250854492
4081.476,-5.473330020904541,-53.45984649658203,-32.24356460571289,0.7927784323692322,-0.2584419548511505,0.1190494522452354,-32.20670700073242,-49.15299224853516,-92.56812286376952,26.18052101135254,-8.806344032287598,10.57920265197754,-0.8010380864143372,-0.3931736350059509,-0.2455303817987442,-123.1828384399414,62.90013122558594,143.78146362304688,62.67024802439057,0.8422960637074068,29.578554805677843,0.9254905140174982,-90.97613143920898,112.0531234741211,236.3495864868164
4104.745999999999,-17.301794052124023,-23.864551544189453,-25.183334350585938,0.7716615200042725,-0.2928294539451599,0.227764755487442,-32.352561950683594,-49.82521057128906,-92.4771499633789,20.372783660888672,-11.449694633483888,7.696753025054932,-0.8048485517501831,-0.4175666272640228,-0.2498198300600052,-122.53943634033205,63.112918853759766,144.15560913085938,38.769436761975165,0.8562052174539577,24.60458958044402,0.9405067926124874,-90.18687438964844,112.93812942504884,236.63275909423828
4124.656,-10.797652244567873,-3.5483603477478027,-14.529296875,0.7557938098907471,-0.3110231459140777,0.1982845366001129,-32.321781158447266,-50.0405158996582,-92.45486450195312,12.68561553955078,-9.94881534576416,6.748913288116455,-0.7929837703704834,-0.3829721212387085,-0.2404279559850692,-122.09361267089844,63.304988861083984,144.48687744140625,18.44669680007712,0.8409972876402051,17.477173655139996,0.9128507587422064,-89.77183151245117,113.3455047607422,236.94174194335932
4200.567,-3.594720363616944,18.846797943115234,-6.438363075256348,0.7047058939933777,-0.2903318107128143,0.1852036863565445,-32.025638580322266,-49.79008102416992,-92.6365203857422,3.6965348720550537,-8.65027141571045,8.559206008911133,-0.7639366388320923,-0.3658937811851501,-0.2446126192808151,-121.92771911621094,63.50928115844727,144.71128845214844,20.23799215065663,0.7843490057243908,12.71815918789967,0.8816534357509543,-89.90208053588867,113.2993621826172,237.34780883789065
4200.629,-5.10360050201416,44.25200653076172,2.3869519233703613,0.7008730173110962,-0.2495343387126922,0.1951243430376052,-31.63066291809082,-49.013031005859375,-92.9990692138672,-2.6822731494903564,-4.503409862518311,10.652716636657717,-0.7268070578575134,-0.3245795369148254,-0.2501742243766784,-122.11809539794922,63.70948028564453,144.68304443359375,44.60924074188237,0.7691319014560493,11.872474947508971,0.8343785218219666,-90.4874324798584,112.7225112915039,237.6821136474609
4200.664,-13.84359073638916,69.95098114013672,9.837186813354492,0.6671378016471863,-0.2280098646879196,0.2887025773525238,-31.270977020263672,-47.73184967041016,-93.538330078125,-7.6516852378845215,-1.203474760055542,16.148733139038086,-0.7693571448326111,-0.3033912181854248,-0.255088061094284,-122.66185760498048,63.9869499206543,144.35427856445312,71.98301890963755,0.7618467844334803,17.910282534723386,0.8654632092064136,-91.3908805847168,111.71879959106444,237.89260864257807
4206.327,-15.219870567321776,83.9504623413086,14.614511489868164,0.6490036249160767,-0.2119662910699844,0.4107452034950256,-30.874740600585938,-46.17558288574219,-94.16826629638672,-11.371782302856444,8.215524673461914,18.75701332092285,-0.8148087859153748,-0.2697145342826843,-0.2943512201309204,-123.73870849609376,64.21714782714844,143.52645874023438,86.5615880947952,0.7967728885311942,23.42301917185524,0.9073598670873504,-92.8639678955078,110.39273071289062,237.6947250366211
4216.79,-9.435760498046877,99.51024627685548,24.08094024658203,0.6146434545516968,-0.2428904324769973,0.3630725443363189,-30.463376998901367,-44.25796127319336,-94.71404266357422,-18.94318199157715,9.397891998291016,20.213876724243164,-0.8245601654052734,-0.2640951573848724,-0.264119952917099,-125.01641845703124,64.46234130859375,142.64590454101562,102.81641101213552,0.7540583603826396,29.25346697744482,0.9052099579966204,-94.55304145812988,108.72030258178712,237.35994720458984
4239.402,-14.00787353515625,116.91183471679688,29.62176322937012,0.6103944778442383,-0.2292764633893966,0.2886521518230438,-30.11786460876465,-41.940860748291016,-95.31387329101562,-18.18540000915528,6.3919677734375,23.37885093688965,-0.7559399008750916,-0.2888606786727905,-0.2798522412776947,-126.26471710205078,64.74566650390625,141.77969360351562,121.41682945391642,0.7130702489931572,30.300770561801794,0.8562726799136461,-96.14685249328612,106.68652725219728,237.09356689453125
4256.449,-23.752796173095703,138.1118927001953,35.40842819213867,0.5910422205924988,-0.2305623292922973,0.4465162754058838,-29.89766502380371,-39.21905517578125,-96.06855010986328,-14.889470100402832,3.905813455581665,30.88129425048828,-0.8849254250526428,-0.3216046094894409,-0.2309064865112304,-127.48185729980467,65.20243835449219,140.86224365234375,144.5435817264424,0.7758006692533493,34.50515951572798,0.9694536287323996,-97.58419227600098,104.42149353027344,236.93079376220703
4279.022999999999,-17.133420944213867,145.0911865234375,45.27705383300781,0.5366949439048767,-0.3082544505596161,0.4782946407794952,-29.7563419342041,-36.30657196044922,-96.53733825683594,-20.4367790222168,-8.4336576461792,41.65824508666992,-0.938528060913086,-0.3211497068405151,-0.242117166519165,-128.71990966796875,65.9771957397461,140.0606231689453,152.95430076930705,0.7821943700265657,47.16140266994755,1.0210743252321524,-98.96356773376463,102.28376770019533,236.59796142578125
4296.483,-3.735715389251709,153.38064575195312,55.057716369628906,0.4560801684856415,-0.3215294778347015,0.4530410170555115,-29.49335289001465,-33.144500732421875,-96.87041473388672,-21.585426330566406,-27.561447143554688,38.21499252319336,-0.8999638557434082,-0.2766773700714111,-0.243625208735466,-129.2943572998047,66.93412017822266,140.0167694091797,163.00592072864757,0.7187742958239667,51.8261483429648,0.972542313262294,-99.80100440979004,100.07862091064452,236.8871841430664
4319.1810000000005,3.979045152664185,164.4459228515625,64.74182891845703,0.4555437266826629,-0.2547551393508911,0.392736941576004,-29.12456703186035,-29.655309677124023,-97.11737060546876,-21.9705810546875,-38.93485641479492,33.68865203857422,-0.8316937685012817,-0.2703236043453216,-0.2258661091327667,-129.31631469726562,67.94788360595703,140.57618713378906,176.77612608759063,0.6531941313454173,55.97816317187821,0.9032191732270104,-100.19174766540527,97.60319328308104,237.6935577392578
4341.142,-15.916234970092772,185.3063507080078,70.20547485351562,0.4048676490783691,-0.233122318983078,0.4825445413589477,-29.122722625732425,-25.75750732421875,-97.43769073486328,-24.063907623291016,-43.51376724243164,27.26186752319336,-0.946015238761902,-0.2746631503105163,-0.1625330299139022,-128.8900604248047,68.9522933959961,141.647216796875,198.79783411232123,0.6716495092483956,56.7073981997318,0.9983995512425018,-99.76733779907228,94.70980072021484,239.08490753173828
4356.186,-17.333415985107422,192.91842651367188,77.78704833984375,0.2862901091575622,-0.3777317404747009,0.6963310837745667,-29.22902488708496,-21.59279060363769,-97.75007629394533,-31.362003326416016,-61.63161849975586,21.675487518310547,-1.0250064134597778,-0.3341007232666015,-0.1300210654735565,-127.48465728759766,70.07808685302734,143.8934783935547,208.73138596686647,0.8423302633730776,72.46970684846195,1.0858945245224427,-98.2556324005127,91.67087745666504,241.6435546875
4380.207,13.239408493041992,185.82920837402344,88.81364440917969,0.1720225214958191,-0.4936332702636719,0.5651975870132446,-28.87677383422852,-17.474809646606445,-97.6563720703125,-46.3370246887207,-65.30511474609375,7.044186592102051,-0.9316345453262328,-0.3015555739402771,-0.1431864500045776,-125.57132720947266,70.97069549560547,146.9752960205078,206.3871121349443,0.7698791241348093,80.38344626692695,0.9896368271667036,-96.69455337524414,88.44550514221191,244.6316680908203
4401.212,31.99163055419922,191.29275512695312,95.54170989990234,0.1510710269212722,-0.2108999788761139,0.4007759690284729,-28.190507888793945,-13.219305038452148,-97.50372314453124,-45.19233703613281,-51.15037536621094,5.890060901641846,-0.8768435716629028,-0.3117005825042724,-0.0904276072978973,-123.99803161621094,71.6470718383789,149.6470489501953,216.2049974449572,0.4774124355478233,68.50840126814192,0.9349807775894016,-95.807523727417,84.86637687683105,247.15077209472656
4424.859,-18.768518447875977,214.49249267578125,93.50791931152344,0.0788218602538108,-0.2048070430755615,0.7154080867767334,-28.48878669738769,-8.54292106628418,-97.61604309082033,-30.159746170043945,-39.94085693359375,9.13966178894043,-0.9964424967765808,-0.3237386047840118,-0.1297960132360458,-122.74662017822266,72.23233032226562,151.67120361328125,234.7403196576351,0.7483097895743261,50.87647549946343,1.05572313542037,-94.25783348083496,80.7752513885498,249.2872467041016
4436.13,-16.87215805053711,215.02639770507807,102.4708251953125,-0.061452180147171,-0.4801892936229706,0.951231837272644,-28.79575538635254,-3.754436492919922,-97.56250762939452,-30.42985343933105,-44.89960479736328,4.785880088806152,-1.0809537172317505,-0.2165983617305755,-0.0993465855717659,-121.04649353027344,72.84134674072266,154.1712188720703,238.7913135847136,1.0673331890258344,54.45048337272137,1.1069080960794695,-92.2507381439209,76.59578323364258,251.73372650146484
4458.676,27.555253982543945,197.8352813720703,109.7756576538086,-0.2251419275999069,-0.5111173391342163,0.7235168218612671,-28.242128372192383,0.7671940326690674,-97.3351821899414,-45.125755310058594,-24.09305191040039,17.32839584350586,-0.9710143208503724,-0.228516399860382,-0.06336510181427,-121.05657196044922,73.42439270019531,155.1685028076172,227.9227623361364,0.9140056966142344,54.01001985900172,0.9995517457488596,-92.81444358825684,72.65719866752625,252.5036849975586
4481.18,42.04281997680664,196.0946044921875,109.56639862060548,-0.2627974152565002,-0.1688961088657379,0.6140937209129333,-27.395660400390625,5.255451202392578,-96.90422821044922,-32.78425979614258,-12.14179515838623,-0.8207573890686035,-0.98425030708313,-0.2359378933906555,-0.0681492239236831,-120.85628509521484,73.56603240966797,156.11181640625,228.52896606172047,0.6889843794457,34.97005179780111,1.0144257849898417,-93.46062469482422,68.31058120727539,253.0160446166992
4504.837,-8.173498153686523,218.5179748535156,106.28079986572266,-0.3575019538402557,-0.2561167180538177,0.7451253533363342,-27.57657241821289,10.110601425170898,-96.80034637451172,-41.28098678588867,-20.81266975402832,-11.35484504699707,-1.007786989212036,-0.2098436951637268,-0.2096986472606659,-120.21136474609376,73.57356262207031,157.7085418701172,243.13066410111207,0.8652255269297456,47.60482746894767,1.0505439137361088,-92.63479232788086,63.46296119689941,254.5088882446289
4527.74,-4.844162940979004,218.4638214111328,109.1443328857422,-0.5290720462799072,-0.5300047397613525,1.0965691804885864,-27.680004119873047,15.019936561584473,-96.69961547851562,-35.77219772338867,7.161520957946777,6.3906965255737305,-1.035677194595337,-0.2182644009590149,-0.1286586225032806,-121.5725555419922,73.63668823242188,157.07150268554688,244.2588638744309,1.3278878800266676,37.03752846066142,1.0662174455875812,-93.89255142211914,58.6167516708374,253.7711181640625
4537.264,42.94990539550781,191.35694885253903,113.65542602539062,-0.5945892930030823,-0.5252842903137207,0.9193503856658936,-26.72988510131836,19.489858627319336,-96.15257263183594,-35.6738166809082,18.90911865234375,20.9759464263916,-1.0315632820129397,-0.2951739132404327,-0.0774864256381988,-124.08827209472656,73.76309204101562,155.2139434814453,226.6709776584761,1.2143579145492165,45.49908013657319,1.075757681828562,-97.3583869934082,54.27323341369629,251.36651611328125
4558.6140000000005,49.68287658691406,183.66680908203125,115.92378997802734,-0.7207431197166443,-0.1154285669326782,0.6318407654762268,-25.55191993713379,23.80595970153809,-95.54036712646484,-25.3645076751709,31.77568817138672,20.27902603149414,-0.7186948657035828,-0.1733226329088211,-0.3063328862190246,-127.23445129394533,73.69831085205078,152.49461364746094,222.80083049036332,0.96541035399492,45.43447485285844,0.8002517617890103,-101.68253135681152,49.892351150512695,248.03498077392572
4581.086,-0.7556775808334351,199.36378479003903,105.1868896484375,-0.8701183795928955,-0.1948446929454803,0.6312617659568787,-25.476850509643555,28.3076229095459,-95.09725189208984,-5.388002395629883,34.84999084472656,31.739145278930664,-1.0171916484832764,-0.187333196401596,-0.2631078362464905,-130.63270568847656,73.7560043334961,149.0948944091797,225.4124475008595,1.0925025702639706,47.44392242142196,1.0672386376591103,-105.155855178833,45.4483814239502,244.1921463012696
4603.595,-9.888623237609863,208.2801971435547,103.46233367919922,-0.7834329605102539,-0.4208086729049682,1.0543535947799685,-25.612201690673828,32.95639419555664,-94.90088653564452,5.115559101104736,26.72677993774414,15.338895797729492,-1.2475346326828003,-0.2568142712116241,-0.2141420394182205,-132.62059020996094,73.63656616210938,146.9389190673828,232.7721630308044,1.379314556448725,31.237340396568683,1.2915699914008385,-107.00838851928712,40.680171966552734,241.8398056030273
4627.228,40.92801284790039,181.1602783203125,107.4904556274414,-0.8197399377822876,-0.660132646560669,0.9899026155471802,-24.52893447875977,37.128448486328125,-94.3668212890625,1.235018014907837,37.85052108764648,45.769229888916016,-0.8826166987419128,-0.2411791682243347,-0.0689382180571556,-136.57476806640625,73.76107025146484,142.82470703125,214.58878518637903,1.4448722659521327,59.40546793627638,0.9175685838085076,-112.04583358764648,36.63262176513672,237.1915283203125
4636.144,62.46931076049805,166.24917602539062,111.9247817993164,-0.8695198893547058,-0.0605375804007053,0.4971623718738556,-22.693283081054688,41.06938552856445,-93.31400299072266,-5.948007583618164,27.46696662902832,27.91316604614257,-0.9275816679000854,-0.2039109617471695,-0.2113202363252639,-139.3927459716797,73.71126556396484,140.04367065429688,209.9246533802964,1.0034440994053575,39.61007307156175,0.9729561517486416,-116.699462890625,32.64188003540039,233.3576736450196
4663.724,-2.795802593231201,189.8656005859375,89.79296875,-0.9676946401596068,-0.146103024482727,0.5331645607948303,-22.56410217285156,45.282470703125,-93.07415771484376,7.284209728240967,34.281288146972656,32.45689010620117,-1.051464319229126,-0.1242195218801498,-0.27913698554039,-142.54220581054688,73.59908294677734,136.6660614013672,210.04651874034369,1.1144700351486243,47.76731250286944,1.0949544104320863,-119.97810363769533,28.316612243652344,229.7402191162109
4686.112999999999,-3.664954662322998,189.85333251953125,88.20049285888672,-0.9934338927268982,-0.4311155080795288,0.8956261873245239,-22.48174476623535,49.44389343261719,-92.76785278320312,9.852228164672852,35.65216445922852,21.60669708251953,-1.0563336610794067,-0.2425396144390106,-0.1701696813106537,-144.87417602539062,73.29743194580078,134.07301330566406,209.372984651791,1.4053176679835246,42.836813481541874,1.0970979849307063,-122.39243125915527,23.8535385131836,226.8408660888672
4696.194,28.44009780883789,167.05746459960938,92.9605484008789,-0.9951762557029724,-0.3738124072551727,0.8536025285720825,-21.33677673339844,53.19667434692383,-92.06784057617188,1.591578245162964,37.15773010253906,20.23594093322754,-0.9121963381767272,-0.2323676347732544,-0.2894251048564911,-147.20761108398438,72.8852310180664,131.64361572265625,193.28398588816964,1.3633593702753313,42.34056368468289,0.9848166166319178,-125.87083435058594,19.68855667114257,223.71145629882807
4718.604,34.77592468261719,155.73402404785156,89.10437774658203,-1.122865080833435,-0.1802328824996948,0.4916952252388,-19.83711242675781,56.7635498046875,-91.1064224243164,7.077650547027588,32.70822525024414,35.63816833496094,-0.948344588279724,-0.1004023924469947,-0.248639777302742,-150.20814514160156,72.71253967285156,128.4311065673828,182.7622535352239,1.2389810637018872,48.88762807252527,0.9855251581698344,-130.37103271484375,15.948989868164062,219.5375289916992
4745.880999999999,6.739055156707764,157.09681701660156,71.00647735595703,-1.1268315315246582,-0.0986491739749908,0.4748207330703735,-19.215784072875977,60.22857666015625,-90.55692291259766,-4.860207557678223,25.522605895996094,19.052385330200195,-1.0572776794433594,-0.0663032159209251,-0.269951194524765,-152.2752685546875,72.47984313964844,126.4416046142578,172.53041647099442,1.2267582029551063,32.218293188753414,1.0932089714761488,-133.05948448181152,12.251266479492188,216.99852752685547
4756.098,-12.28977870941162,158.64649963378906,63.70962905883789,-1.116830348968506,-0.2638466358184814,0.6077834367752075,-19.2119197845459,63.62348937988281,-90.42218017578124,-17.317733764648438,17.858139038085938,8.514704704284668,-1.0378066301345823,-0.127257764339447,-0.2925198972225189,-153.64144897460938,72.24427032470703,125.43909454345705,171.40206341113534,1.2985860701655965,26.292912140879736,1.0857278804594848,-134.42952919006348,8.620780944824219,215.86127471923828
4778.646,2.7013087272644043,135.30902099609375,65.24066162109375,-1.2531784772872925,-0.3526458740234375,0.7354000806808472,-18.46226119995117,66.55696868896484,-89.68413543701172,-25.41740608215332,17.148313522338867,-0.8334735631942749,-0.8752118945121765,-0.1979885846376419,-0.4332199990749359,-154.55979919433594,71.90492248535156,125.06404876708984,150.2403812579008,1.4952018883974325,30.67252625373493,0.9964310851940024,-136.09753799438477,5.347953796386719,214.7481842041016
4796.055,24.019088745117188,103.18800354003906,59.18947982788086,-1.2182087898254397,-0.1423774510622024,0.3831165730953216,-16.775806427001953,68.92434692382812,-88.51921844482422,-14.375551223754885,20.81397819519043,25.613937377929688,-0.8416805267333984,-0.0913981571793556,-0.5297616124153137,-156.78488159179688,71.73575592041016,123.08522033691406,121.35928156107404,1.2849444745821643,35.99933262294132,0.998712720559254,-140.00907516479492,2.8114089965820312,211.60443878173828
4818.606,4.890990734100342,94.52047729492188,41.73714447021485,-1.203765630722046,-0.0877095535397529,0.3665114641189575,-15.914037704467772,71.00390625,-87.84341430664062,9.05976104736328,25.664445877075195,21.593151092529297,-1.0079529285430908,-0.0632233023643493,-0.4637091755867004,-158.5072784423828,71.38463592529297,121.1702117919922,103.44095729907222,1.2613783384934156,34.74200953481883,1.111302160370322,-142.59324073791504,0.3807296752929687,209.0136260986328
4835.961,-4.683681964874268,86.96275329589844,27.39034843444824,-1.1749675273895264,-0.3634869158267975,0.5688744187355042,-15.882135391235352,72.8226318359375,-87.842529296875,23.06736183166504,27.844377517700195,11.045584678649902,-1.0107052326202393,-0.2954721450805664,-0.4392994940280914,-159.2017822265625,70.91824340820312,120.02082824707033,91.29451530575024,1.3550976100225374,37.8076378806504,1.14097015789975,-143.31964683532715,-1.904388427734375,207.8633575439453
4858.312,15.823003768920898,61.94149398803711,25.05418968200684,-1.177011013031006,-0.395048588514328,0.6680245995521545,-15.057146072387695,74.15310668945312,-87.50285339355469,37.45075988769531,25.073490142822266,11.040206909179688,-0.961215317249298,-0.2791175544261932,-0.4163907766342163,-159.49227905273438,70.49736022949219,119.00628662109376,68.66460912554079,1.409849345742393,46.40178329229936,1.084076922625684,-144.43513298034668,-3.6557464599609375,206.50914001464844
4881.291,30.19611549377441,34.201690673828125,14.221701622009276,-1.130346655845642,-0.2685061991214752,0.5753012895584106,-14.084465026855469,74.88848114013672,-87.25244140625,44.151329040527344,21.57855033874512,18.72254180908203,-0.9220207333564758,0.0015042563900351,-0.3553915619850158,-160.13734436035156,70.22725677490234,117.49901580810548,47.78930667928806,1.2964377019801832,52.58809050117236,0.9881435411197352,-146.0528793334961,-4.661224365234375,204.75145721435547
4895.771,23.545970916748047,9.818940162658691,4.647096633911133,-1.074198603630066,-0.1532775610685348,0.571077287197113,-13.452524185180664,75.10185241699219,-87.22746276855469,26.57209014892578,19.86003875732422,15.581602096557615,-0.9633198380470276,0.0104392999783158,-0.2976741790771484,-160.8806610107422,69.96791076660156,116.25769805908205,25.93105935852072,1.2261834767767488,36.65083134419337,1.0083174134409476,-147.42813682556152,-5.133941650390625,203.48516082763672
