Timestamp (ms),Wrist Gyroscope X (deg/s),Wrist Gyroscope Y (deg/s),Wrist Gyroscope Z (deg/s),Wrist Accelerometer X (g),Wrist Accelerometer Y (g),Wrist Accelerometer Z (g),Wrist Roll (deg),Wrist Pitch (deg),Wrist Yaw (deg),Arm Gyroscope X (deg/s),Arm Gyroscope Y (deg/s),Arm Gyroscope Z (deg/s),Arm Accelerometer X (g),Arm Accelerometer Y (g),Arm Accelerometer Z (g),Arm Roll (deg),Arm Pitch (deg),Arm Yaw (deg),Wrist Gyroscope Magnitude (deg/s),Wrist Accelerometer Magnitude (g),Arm Gyroscope Magnitude (deg/s),Arm Accelerometer Magnitude (g),Difference Roll (deg),Difference Pitch (deg),Difference Yaw (deg)
0.0,8.24336051940918,-4.716952323913574,-6.175812721252441,-0.9635252356529236,-0.2156824469566345,-0.0837610512971878,-112.74596405029295,76.60204315185547,-141.85479736328125,2.168930053710937,-2.315879344940185,-5.071913719177246,-0.9840213060379028,-0.0910402089357376,0.2112593054771423,-20.64202690124512,79.98151397705078,-139.32826232910156,11.328869963372831,0.9909166016268136,5.98263014843718,1.0105526926045407,92.10393714904784,3.3794708251953125,2.5265350341796875
10.224,8.476337432861328,-3.683557868003845,-5.642139434814453,-0.951733410358429,-0.2247761413455009,-0.0768180936574935,-112.44501113891602,76.55971908569336,-141.6366424560547,2.723371386528015,-4.164119958877564,-5.9169020652771,-0.9742394387722016,-0.0953498259186744,0.2071286886930465,-20.87611675262451,79.88568115234375,-139.5853042602539,10.883916490486222,0.9810166953532466,7.803167571337337,1.000583985299093,91.5688943862915,3.32596206665039,2.051338195800781
33.442,9.62895139058431,-2.7155629793802896,-5.096972783406575,-0.9427759250005088,-0.2283561527729034,-0.0751321638623873,-112.18630472819012,76.51839192708333,-141.48382059733072,3.747014284133911,-5.707085450490316,-6.8801774978637695,-0.963526964187622,-0.0915826434890429,0.200175459186236,-21.10883394877116,79.77105712890625,-139.85931905110678,11.460248074520038,0.9730348484432484,9.778008904617955,0.9883928609039536,91.07747077941896,3.2526652018229165,1.6245015462239585
53.395,10.730018854141235,-1.8623271882534027,-4.868714094161987,-0.9373111426830292,-0.2270843386650085,-0.0765122212469577,-111.96467971801758,76.47492408752441,-141.3848533630371,4.938260495662689,-6.573326706886292,-7.801980257034302,-0.9549479484558104,-0.078767891973257,0.1898318603634834,-21.335421085357662,79.65292739868164,-140.14591598510742,12.260248939366956,0.9675314666214524,11.428094108604212,0.9771808301836808,90.62925863265993,3.1780033111572266,1.2389373779296875
70.095,11.302180671691897,-1.3373064637184142,-5.0417890548706055,-0.9352826714515686,-0.2244328975677489,-0.0807046920061111,-111.7624252319336,76.42535858154297,-141.30968322753907,5.273414754867554,-6.760079193115234,-8.502965927124023,-0.9505544662475586,-0.0639810040593147,0.177787160873413,-21.57504730224609,79.543701171875,-140.4453094482422,12.762329869805637,0.9653223551238448,12.162064571046107,0.9701351493837,90.1873779296875,3.1183425903320314,0.864373779296875
92.405,12.07780590057373,-0.6540951371192932,-5.370076751708984,-0.929909348487854,-0.2211770683526992,-0.087035572528839,-111.30980072021484,76.32333984375,-141.09241638183593,5.692657995223999,-7.1659321784973145,-9.74476890563965,-0.9418761014938356,-0.0477089960128068,0.1577938318252563,-22.09352226257324,79.34419555664063,-141.0626708984375,13.392982537337028,0.9600547444114778,13.529372402336907,0.9574726074003952,89.21627845764161,3.020855712890625,0.0297454833984375
116.533,12.54012565612793,-0.8423177838325501,-6.228860664367676,-0.933203661441803,-0.2140038669109344,-0.096799199283123,-110.8486831665039,76.20913848876953,-140.873779296875,5.748910617828369,-6.017933756113052,-10.34129524230957,-0.9405369400978087,-0.0359095428138971,0.1404200255870818,-22.67834396362305,79.17398986816406,-141.74891662597656,14.290237009528294,0.9626073730958066,13.680173898488173,0.9524761387147668,88.17033920288085,2.9648513793945312,-0.8751373291015625
130.50400000000002,11.8220947265625,-1.8820582032203677,-7.595538902282715,-0.9405486822128296,-0.2070841401815414,-0.1045114785432815,-110.32082824707032,76.0800552368164,-140.56973571777343,5.499422550201416,-3.6751398146152496,-10.304359817504883,-0.9467902898788452,-0.0331609357148408,0.1334396511316299,-23.3374439239502,79.05260314941407,-142.50662841796876,14.753412875649914,0.9688986285393132,12.969783432463744,0.95718873323249,86.98338432312012,2.972547912597656,-1.9368927001953125
152.476,10.586769294738769,-3.2632309794425964,-8.936574935913086,-0.9499064445495604,-0.2073847025632858,-0.1077799767255782,-109.6986526489258,75.93609008789062,-140.1420928955078,5.151243495941162,-0.930327421426773,-9.855014991760251,-0.9566907286643982,-0.0421920184046029,0.1375703871250152,-24.074478149414062,78.98145751953125,-143.3372589111328,14.780039539990328,0.9783324840180738,12.024796754922344,0.9682186146948591,85.62417449951172,3.045367431640625,-3.195166015625
175.928,9.904683876037598,-4.299299526214599,-9.829265213012697,-0.9580142617225648,-0.2104915261268615,-0.1041126236319541,-108.99447631835938,75.78290100097657,-139.61592712402344,5.96421709060669,1.411749929189682,-9.143416023254394,-0.9664133667945862,-0.060294460132718,0.1511218905448913,-24.84388008117676,78.94725799560547,-144.21587524414062,14.840176767773016,0.9865675454655058,11.774700388740175,0.9809818351312096,84.15059623718261,3.164356994628906,-4.599948120117188
197.533,9.833463668823242,-4.43388249874115,-10.102679252624512,-0.9641991138458252,-0.2164804607629775,-0.0956344604492187,-108.26844787597656,75.62523498535157,-139.06658935546875,7.590685367584228,2.977788823843002,-8.389390182495116,-0.9748411536216736,-0.0770871192216872,0.1697642654180526,-25.587022399902345,78.93310852050782,-145.09952087402343,14.954876054542671,0.9930659500407784,12.192512935010008,0.9931696452682284,82.68142547607422,3.30787353515625,-6.032931518554688
219.833,9.789296913146972,-3.821397137641907,-9.847853660583496,-0.966548538208008,-0.2217840671539306,-0.0873376727104186,-107.58982849121094,75.46812438964844,-138.56600646972657,9.045974922180177,3.6009521007537844,-7.939920043945312,-0.9807064533233644,-0.0887994438409804,0.1857740551233291,-26.287541580200195,78.92159729003906,-145.96941833496095,14.6753046863637,0.9956595357658298,12.812903279881132,1.0022977893230085,81.30228691101074,3.453472900390625,-7.403411865234375
229.865,10.291484260559082,-2.446430778503418,-9.129018592834472,-0.967897701263428,-0.2283531188964843,-0.0817277699708938,-107.0181381225586,75.31454772949219,-138.1866424560547,10.026750755310058,3.4665579319000246,-7.603115940093994,-0.9825356006622314,-0.0929133251309394,0.1915660172700882,-26.92633056640625,78.90504455566406,-146.79774169921876,14.305928959130307,0.997862065924916,13.165311991185384,1.0053932167578563,80.09180755615235,3.590496826171875,-8.611099243164062
254.552,10.978690910339356,-0.8649701595306396,-8.204402828216553,-0.9664612531661988,-0.2304151266813277,-0.0789239764213561,-106.5746322631836,75.16917114257812,-137.95384216308594,10.48477020263672,3.143257474899292,-7.264326477050782,-0.9821377277374268,-0.0967608541250228,0.1892663240432739,-27.51599044799805,78.88424682617188,-147.58602905273438,13.952421225298826,0.9966934470455848,13.155283451068277,1.004969629803913,79.05864181518555,3.71507568359375,-9.632186889648438
276.367,11.259660720825195,0.4302599906921386,-7.268686771392822,-0.9641978979110718,-0.2327314138412475,-0.0812144279479979,-106.2524871826172,75.03333129882813,-137.85166625976564,9.938584327697754,2.989673614501953,-6.952822208404541,-0.980037248134613,-0.0974610596895217,0.1818116873502731,-28.086083221435548,78.86549072265625,-148.34473876953126,13.53749707855478,0.9952464245554092,12.514690696073623,1.0016460240336065,78.16640396118164,3.832159423828125,-10.493072509765623
297.527,10.940523719787596,1.2632751226425172,-6.4579691886901855,-0.9605823397636414,-0.2350154966115951,-0.0844189450144767,-106.0252212524414,74.90727081298829,-137.84039916992188,8.995860576629639,3.0928497314453125,-6.444672012329102,-0.9754732131958008,-0.0968231052160262,0.1725465923547744,-28.639289093017577,78.8563949584961,-149.06902770996095,12.846275264628034,0.9925512715165044,11.530549428447715,0.995428037633786,77.38593215942383,3.949124145507812,-11.228628540039065
319.818,10.512859344482422,1.784964919090271,-5.838144302368164,-0.9562139630317688,-0.238255938887596,-0.0850272580981253,-105.85970458984374,74.78894348144532,-137.8840759277344,8.397815418243407,3.460713148117065,-5.771147060394287,-0.969822871685028,-0.0978289067745208,0.1642242103815078,-29.171654510498048,78.86217803955078,-149.76061096191407,12.186702360216618,0.9891313639097514,10.839910994525289,0.9885321417314604,76.6880500793457,4.073234558105469,-11.876535034179687
329.791,10.077741622924805,1.9317705631256104,-5.338537311553955,-0.9513750910758972,-0.2423386007547378,-0.0838655963540076,-105.72122192382812,74.67784881591797,-137.94696655273438,8.102103900909423,4.375807905197144,-5.075118780136108,-0.963322925567627,-0.1022245407104491,0.1583881080150603,-29.71077194213867,78.89037628173828,-150.4510986328125,11.57563408125573,0.985371032990036,10.66220398798746,0.9816340583566298,76.01044998168945,4.212527465820313,-12.504132080078126
352.299,9.768914794921876,1.9219990730285643,-4.940923881530762,-0.9472236990928652,-0.2467174887657165,-0.0811390563845634,-105.5898193359375,74.57299041748047,-138.0113037109375,8.296247577667236,5.410978746414185,-4.236743783950805,-0.9592416167259216,-0.1061566457152366,0.1563105911016463,-30.23724479675293,78.94273223876954,-151.13110961914063,11.125055666583572,0.9822480081713796,10.967284060968618,0.9777506608396084,75.35257453918457,4.369741821289063,-13.119805908203125
377.578,9.438419151306151,1.883129334449768,-4.62036099433899,-0.9431579589843752,-0.250980406999588,-0.0769557893276214,-105.45899200439452,74.47328643798828,-138.07013854980468,8.803522968292237,6.368125915527344,-3.327981829643249,-0.9560362577438356,-0.1122415140271186,0.1569040358066558,-30.739234924316406,79.01667175292968,-151.79700927734376,10.693397493308142,0.9790828855991148,11.52332550491884,0.9754145816254794,74.71975708007812,4.543385314941406,-13.726870727539062
397.559,9.206282806396484,1.7365657567977906,-4.182023191452027,-0.9397976517677308,-0.2555919080972672,-0.0732139483094214,-105.32215423583985,74.38135681152343,-138.11862182617188,9.596389770507812,7.083408260345459,-2.486567413806916,-0.9558132529258728,-0.1223366022109984,0.1580987721681594,-31.21569480895996,79.1062255859375,-152.45313720703126,10.291069666136243,0.9767334137899356,12.309191581175666,0.9765844804153654,74.10645942687988,4.724868774414063,-14.334515380859376
419.578,9.18045654296875,1.6472123384475708,-3.607373857498169,-0.9373457908630372,-0.2640331029891967,-0.0710496187210082,-105.18286743164064,74.29728393554687,-138.16464233398438,10.511403274536132,7.594273281097412,-1.752979165315628,-0.95658597946167,-0.1310352250933646,0.1596135735511779,-31.660070419311523,79.20710601806641,-153.09278869628906,10.035358995754644,0.9764708670984582,13.180381333611342,0.9787006987003954,73.52279701232911,4.909822082519531,-14.928146362304688
440.464,9.51894588470459,1.8578169107437132,-2.89205379486084,-0.9348876237869262,-0.2712259173393249,-0.0690316811203956,-105.05779724121092,74.22278900146485,-138.23300170898438,11.54314422607422,7.617841529846191,-1.1237629890441894,-0.9608102202415466,-0.135969603061676,0.1623997032642364,-32.042263412475585,79.31079406738282,-153.68629455566406,10.185485869881118,0.9759682775173972,13.941813576061856,0.9839125996840264,73.01553382873536,5.088005065917969,-15.453292846679688
449.775,9.631872749328611,2.140797734260559,-2.151116502285004,-0.934587550163269,-0.2770768404006957,-0.0686663344502448,-104.96048583984376,74.1587631225586,-138.3327850341797,12.17232608795166,7.153121089935302,-0.7898860931396483,-0.9635749220848084,-0.1353116855025291,0.1648562610149383,-32.35504493713379,79.40774536132812,-154.21906127929688,10.185728310043274,0.9772767996711984,14.198711440075073,0.986943316796457,72.60544090270996,5.248982238769531,-15.886276245117188
472.44000000000005,9.709909629821777,2.4328364372253417,-1.3751123145222663,-0.9355375289916992,-0.2789086937904358,-0.0668627217411994,-104.8915298461914,74.10830841064453,-138.46398010253907,12.44574031829834,6.594904994964599,-0.6231079220771789,-0.9662307500839232,-0.1327957168221473,0.1658560246229171,-32.61150283813477,79.49612426757812,-154.70130310058593,10.18706603396456,0.9785682011671588,14.126075178934832,0.98939373737978,72.28002700805663,5.387815856933594,-16.237322998046874
495.871,10.119330024719238,2.9026119232177736,-0.6897222772240639,-0.9377904891967772,-0.2816763937473297,-0.0639666467905044,-104.85145568847656,74.06849060058593,-138.63426208496094,12.551124954223631,6.060344696044922,-0.5089106231927871,-0.9684868097305298,-0.1276019573211669,0.1674075573682784,-32.8113410949707,79.576611328125,-155.12942504882812,10.610186903756178,0.9813071944509998,13.968156896461853,0.9911884066173272,72.04011459350586,5.508120727539064,-16.495162963867188
509.718,10.685265350341798,3.3774001121521,-0.0902742996811866,-0.9403273463249208,-0.2797219455242157,-0.0617106586694716,-104.83939056396484,74.04002685546875,-138.84568786621094,12.502486991882323,5.517445373535156,-0.3881271064281463,-0.969903528690338,-0.1200868800282478,0.1691608130931853,-32.94899215698242,79.64985504150391,-155.4923309326172,11.23547840434366,0.983035327758518,13.689808288029084,0.9918877328626522,71.89039840698243,5.609828186035156,-16.64664306640625
532.256,10.80691032409668,3.698106002807618,0.2853540167212486,-0.9438180208206176,-0.2769384026527405,-0.0600081175565719,-104.85103149414064,74.01978759765625,-139.08445739746094,12.282809257507324,5.037974262237549,-0.2805259972810745,-0.9705252170562744,-0.1148770585656165,0.1713561534881591,-33.03744888305664,79.71592407226562,-155.79923095703126,11.441737285984887,0.9854626820358708,13.291374376572929,0.9922197794654124,71.81358261108399,5.696136474609375,-16.71477355957031
555.8389999999999,10.919026184082032,3.995840072631836,0.5762568816542626,-0.9453980922698976,-0.2762933611869811,-0.0577205121517181,-104.88088836669922,74.00475463867187,-139.34487915039062,12.139189529418946,4.678125143051148,-0.1521050095558166,-0.9717464566230772,-0.1148393183946609,0.1726293206214904,-33.09509048461914,79.77616424560547,-156.07033081054686,11.651211597317252,0.986642747432725,13.025368152417188,0.9936298863949942,71.78579788208008,5.771409606933593,-16.72545166015625
577.299,11.289792823791505,4.337040662765503,0.8031433761119843,-0.9478739738464356,-0.280730903148651,-0.0550028055906295,-104.92194366455078,73.99087524414062,-139.62531433105468,12.431414604187012,4.39817624092102,-0.0904651880264282,-0.972857975959778,-0.1155397281050681,0.1733913898468017,-33.126773071289065,79.83128967285157,-156.31820373535157,12.126319301204711,0.9901303399624872,13.19674797517322,0.9949309302159554,71.79517059326172,5.840414428710938,-16.692889404296874
600.3810000000001,11.61897087097168,4.63838472366333,0.9273862600326538,-0.950925076007843,-0.2818130314350128,-0.0534191191196441,-104.9744888305664,73.978076171875,-139.92488708496094,12.81285343170166,4.211759614944458,-0.1931000560522079,-0.9758350610733032,-0.1154900088906287,0.173563128709793,-33.15011749267578,79.8818588256836,-156.56246337890624,12.548304209438598,0.9932757031621708,13.501069236377214,0.997867280179896,71.82437133789062,5.903782653808594,-16.637576293945312
609.559,11.74980812072754,4.911573314666748,0.995492947101593,-0.9539817929267884,-0.2830097794532775,-0.0532385870814322,-105.04217224121092,73.96511688232422,-140.24306640625,13.061184692382811,3.977213668823242,-0.4454240679740905,-0.98012455701828,-0.1159279733896255,0.1732695877552032,-33.18060531616211,79.92568511962891,-156.82184753417968,12.77599246889286,0.9965286398031242,13.678105644606063,1.0020661918827094,71.86156692504883,5.960568237304687,-16.578781127929688
633.423,11.720833587646483,5.098916912078858,1.06794912815094,-0.9583016753196716,-0.2847837924957275,-0.052189416438341,-105.12039184570312,73.95250549316407,-140.57191467285156,13.163221549987792,3.630358648300171,-0.733518847823143,-0.9848521947860718,-0.115579941868782,0.172133794426918,-33.216732788085935,79.96127777099609,-157.09371948242188,12.829517652871312,1.0011078041979964,13.687452021800729,1.0064607797979914,71.90365905761719,6.008772277832032,-16.521804809570312
654.8040000000001,11.537774276733398,5.20950231552124,1.0765101552009582,-0.963260281085968,-0.2865120470523834,-0.050765773653984,-105.20516357421874,73.93960113525391,-140.90414428710938,12.945229721069335,3.2071614503860477,-0.9855602741241456,-0.98921560049057,-0.1154079318046569,0.1723181337118148,-33.254530334472655,79.98707427978516,-157.3663330078125,12.711092907708808,1.0062719727412446,13.39196579939168,1.0107369936654236,71.9506332397461,6.04747314453125,-16.462188720703125
677.107,11.125039863586426,5.195954704284668,1.1203025221824645,-0.9661989331245422,-0.2866487205028534,-0.051110541075468,-105.29766693115236,73.927978515625,-141.23587341308593,12.282000160217285,2.5754537582397465,-1.3299044132232667,-0.994147789478302,-0.1172865167260169,0.1741018295288086,-33.30099182128906,79.99736938476562,-157.633935546875,12.335341651731753,1.0091351726492106,12.663988421750185,1.0160987632534006,71.99667510986328,6.069390869140625,-16.39806213378906
699.6569999999999,10.724682998657226,5.200775527954102,1.2079029202461242,-0.9681127548217774,-0.2875935852527618,-0.0507188469171523,-105.39771118164064,73.91785125732422,-141.56731567382812,11.291171646118164,1.7189871430397037,-1.7244351863861085,-0.996078050136566,-0.1178624406456946,0.1761232584714889,-33.34899978637695,79.9879150390625,-157.8829132080078,11.984167607061314,1.011217930283144,11.637793584818745,1.0184071899374123,72.04871139526367,6.070063781738281,-16.315597534179688
709.7170000000001,10.266481018066406,5.231319522857666,1.3185652852058412,-0.9693686962127686,-0.2890637040138245,-0.0490521974861621,-105.50568237304688,73.90927276611328,-141.8979064941406,10.260981178283693,0.7522657752037047,-2.1080602407455444,-0.9966847419738768,-0.1172868609428405,0.1782141000032425,-33.387787628173825,79.95735626220703,-158.10189819335938,11.6048534855422,1.0127464837849152,10.64907425488253,1.019298277222825,72.11789474487304,6.04808349609375,-16.20399169921875
734.6080000000001,10.02905330657959,5.3296300888061525,1.418442189693451,-0.9691935181617736,-0.2893111586570739,-0.0465103447437285,-105.62033081054688,73.90221862792968,-142.23102111816405,9.310139751434326,-0.1896100640296936,-2.4661901712417604,-0.9941503405570984,-0.1161198034882545,0.1778284043073654,-33.41736755371094,79.90756072998047,-158.29229125976562,11.454233439462014,1.0125323169062592,9.779130298570989,1.016626219963073,72.20296325683594,6.005342102050781,-16.06127014160156
757.3800000000001,9.8586181640625,5.333671283721924,1.4680936336517334,-0.9678789377212524,-0.2852036654949187,-0.04553400054574,-105.73843841552734,73.8980697631836,-142.56427917480468,8.575954723358155,-0.9239578127861025,-2.666029167175293,-0.9896644592285156,-0.111252774298191,0.1745378822088241,-33.42676696777344,79.84627990722656,-158.4486846923828,11.311495996829894,1.0100807937677885,9.109497290599316,1.0111571837193805,72.31167144775391,5.948210144042969,-15.884405517578124
777.956,9.50779037475586,5.097718286514282,1.3089868783950809,-0.9658199787139892,-0.2806220769882201,-0.0463069394230842,-105.84754638671876,73.89399566650391,-142.8806579589844,7.808229064941406,-1.3417728304862977,-2.6416742324829103,-0.9844539403915404,-0.104986460506916,0.1698458969593048,-33.41409912109375,79.78238983154297,-158.56969299316407,10.881107268496544,1.0068572554553226,8.377917208594601,1.0045581022115662,72.433447265625,5.888394165039062,-15.689035034179687
800.687,9.047162055969238,4.652592515945434,1.0496487081050874,-0.9640723466873168,-0.2802163660526275,-0.0485900044441222,-105.93488159179688,73.88684844970703,-143.1645294189453,7.210900688171387,-1.303026282787323,-2.4319221496582037,-0.9789857149124146,-0.1036991000175475,0.1616555124521255,-33.4065299987793,79.72576293945312,-158.68577880859374,10.261375304700143,1.0051859960928176,7.745333985625621,0.9977236990085286,72.52835159301758,5.838914489746093,-15.521249389648435
809.4670000000001,8.60803050994873,3.8753510236740114,0.6864519581198693,-0.9607736825942992,-0.2788491785526276,-0.0493356510996818,-105.97384643554688,73.87703094482421,-143.38883361816406,6.966850471496582,-0.9002496719360351,-2.149508833885193,-0.9752066135406494,-0.1063091695308684,0.1557226032018661,-33.41877212524414,79.68109893798828,-158.81366271972655,9.538839128242,1.0016776909438154,7.409287245210599,0.99334903288346,72.55507431030273,5.804067993164063,-15.4248291015625
837.4209999999999,7.915093612670899,2.7651644140481944,0.3228148862719536,-0.9580282211303712,-0.2771108984947205,-0.0529216334223746,-105.95384063720704,73.86626586914062,-143.53674926757813,6.543949031829834,-0.3300957441329956,-1.862194561958313,-0.9731512665748596,-0.1080406710505485,0.1537324666976928,-33.454871368408206,79.64977416992187,-158.95407409667968,8.512348045380755,0.9987326656500904,6.889682005400677,0.9911956565782806,72.49896926879883,5.78350830078125,-15.417324829101563
859.356,7.118881607055664,1.5221143633127212,-0.0261384442448616,-0.9560922741889952,-0.2797531485557556,-0.0552842468023299,-105.86444702148438,73.85361175537109,-143.59559936523436,5.844657039642334,0.2448484659194946,-1.657420825958252,-0.9736640691757202,-0.1107199862599372,0.1548176378011703,-33.525210571289065,79.62931976318359,-159.11314086914064,7.463340232779721,0.9977271481359258,6.147313832805649,0.9921523321682194,72.33923645019532,5.7757080078125,-15.51754150390625
869.501,6.24811954498291,0.4952371746301651,-0.2629993513226509,-0.957069969177246,-0.2820757567882537,-0.0546229898929595,-105.71866149902344,73.84112854003907,-143.5777618408203,5.424658393859863,0.6803513050079346,-1.5064654111862184,-0.975737702846527,-0.1123197868466376,0.1573313534259796,-33.61510314941406,79.61654052734374,-159.28290100097655,6.48107816148691,0.999274966227557,5.69981114271924,0.9947635301545844,72.10355834960937,5.775411987304688,-15.70513916015625
891.9820000000001,5.271891927719116,-0.4726306051015854,-0.537159825861454,-0.9581287384033204,-0.2797587752342224,-0.0530107989907264,-105.52317962646484,73.83029327392578,-143.48790893554687,4.695209884643555,0.9630425333976744,-1.401307201385498,-0.9785335302352904,-0.1101470634341239,0.1645264625549316,-33.70745010375977,79.60731964111328,-159.4403503417969,5.504139939858408,0.9995583614548752,5.032858669551331,0.998433560288884,71.81572952270508,5.7770263671875,-15.95244140625
909.428,3.865219628810882,-1.231804785132408,-0.8619051039218902,-0.9608184814453123,-0.2780057668685912,-0.0519760526716708,-105.30097045898438,73.81875457763672,-143.34088439941405,3.3895132780075072,1.1682386636734008,-1.2471154808998108,-0.9809951186180116,-0.1061284631490706,0.169776901602745,-33.80347366333008,79.60235137939453,-159.5781707763672,4.521493169040484,1.001605179507547,3.952373655160296,1.0012511062955955,71.4974967956543,5.783596801757812,-16.237286376953126
931.81,2.38628431558609,-1.6301801681518555,-1.1643323659896851,-0.9630124807357788,-0.2777475416660309,-0.0502193756401538,-105.07580261230468,73.80422821044922,-143.16009216308595,2.0459481954574583,1.2111636638641357,-1.1274625420570374,-0.9828723192214964,-0.1052286878228187,0.1729157626628875,-33.90920181274414,79.59844818115235,-159.7015869140625,3.845888735360689,1.0035454282261322,3.128068783497272,1.0035134307939588,71.16660079956054,5.794219970703125,-16.54149475097656
954.646,1.180001723766327,-1.8188704967498777,-1.4070478081703186,-0.965373146533966,-0.2760916769504547,-0.0494709737598895,-104.85999145507812,73.78732604980469,-142.96380310058595,0.9622320652008056,1.0901768624782562,-0.965950846672058,-0.984551727771759,-0.1067492455244064,0.1732854574918746,-34.016902923583984,79.59387969970703,-159.8042755126953,3.362379210595578,1.0053050201941802,2.5020929809599948,1.0053912997290129,70.84308853149415,5.806553649902344,-16.840472412109374
969.509,0.1432770133018493,-1.9352733612060544,-1.5420239448547364,-0.9632403731346132,-0.2739234387874603,-0.0514108382165431,-104.6621353149414,73.7689422607422,-142.7640625,-0.1190115690231323,0.8604379415512085,-1.0485488653182984,-0.9822442650794982,-0.1106143623590469,0.1701233059167862,-34.153619384765626,79.58452606201172,-159.91062927246094,3.032609856182698,1.0027620453354822,2.0710822208955566,1.0030661323531942,70.50851593017578,5.815583801269531,-17.146566772460936
992.15,-1.078376829624176,-2.099344515800476,-1.5028752207756042,-0.9615054249763488,-0.2751195192337036,-0.0530131950974464,-104.48321685791016,73.75100860595703,-142.55824584960936,-0.6499448657035828,0.7925953030586242,-0.678048849105835,-0.9805934071540832,-0.117073306441307,0.1624345600605011,-34.29297866821289,79.57963562011719,-160.00526733398436,2.9677898050371185,1.001513762750448,1.7123976401786691,1.000978950655955,70.19023818969727,5.828627014160157,-17.447021484375
1014.705,-1.7517966270446776,-2.406084656715393,-1.2989686489105223,-0.9598458170890808,-0.2767668008804321,-0.0545184902846812,-104.30513610839844,73.73715667724609,-142.33895263671874,-0.7611682072281838,1.2480199933052063,-0.324842083454132,-0.976713752746582,-0.1242852389812469,0.1527199566364288,-34.466253662109374,79.58805541992187,-160.1303955078125,3.354173650055894,1.0004499093963466,2.130542469837805,0.9965640063014188,69.83888244628906,5.850898742675781,-17.791442871093754
1034.662,-1.6599794030189514,-3.0877933740615844,-0.9069747686386108,-0.9544876217842102,-0.2770652353763579,-0.0587892733514308,-104.09694366455078,73.73249969482421,-142.0893524169922,-0.0546109333634376,1.834181797504425,0.1681020379066467,-0.972334909439087,-0.1265308022499084,0.144476443529129,-34.63739013671875,79.61424865722657,-160.2666473388672,3.850348103883488,0.99565351575212,2.76655516903552,0.991249252460595,69.45955352783203,5.881748962402344,-18.177294921875003
1056.657,-1.3961987912654876,-3.910377717018128,-0.3218725919723511,-0.9490126967430116,-0.275244653224945,-0.0610288493335246,-103.84583129882812,73.74263458251953,-141.79992065429687,1.159937106072903,2.497624176740646,0.7245038509368896,-0.967500901222229,-0.1245321840047835,0.1405403316020965,-34.77643051147461,79.6594024658203,-160.39476928710937,4.532383116825917,0.9900294767653216,3.793496129875065,0.985656982595183,69.06940078735352,5.916767883300781,-18.594848632812504
1079.37,-1.2057635694742204,-4.815546655654908,0.191215968132019,-0.9469679951667784,-0.2747485518455504,-0.0600620910525321,-103.53934783935549,73.76651000976562,-141.45672912597655,2.297559104859829,3.3950008273124697,1.6965164422988892,-0.9654271006584167,-0.1177753254771232,0.1414706796407699,-34.84114379882813,79.73152465820313,-160.47136840820312,5.322203556652232,0.9878751580646864,4.717502608661515,0.9830247295328564,68.69820404052734,5.9650146484375,-19.014639282226565
1089.398,-0.9168901354074478,-5.583351564407349,0.6396425366401672,-0.9445898532867432,-0.271198171377182,-0.0584985293447971,-103.18367004394533,73.80360717773438,-141.06822204589844,3.000977562367916,4.215194940567017,2.325678992271423,-0.96218044757843,-0.1123505204915999,0.145286813378334,-34.86456298828125,79.82323303222657,-160.5209197998047,5.896378467374073,0.984534550674362,5.914823641456586,0.979761769223204,68.31910705566406,6.019625854492188,-19.45269775390625
1111.692,-0.6500677019357681,-6.046588802337647,1.0723030328750611,-0.9415126800537108,-0.2687666416168213,-0.0564350798726081,-102.7973892211914,73.85127258300781,-140.6534210205078,3.278530669212341,4.785546970367432,2.7002023458480835,-0.9605930209159852,-0.1086211144924163,0.1533364713191985,-34.861420440673825,79.92496948242187,-160.54935607910156,6.226070762814812,0.9808058348322664,6.600066237337032,0.9789278228492948,67.93596878051758,6.073696899414063,-19.89593505859375
1131.688,-0.8170089989900589,-6.171663856506347,1.4540757656097412,-0.9416465401649476,-0.2665125250816345,-0.0508149176836013,-102.40304565429688,73.90765838623047,-140.2273712158203,2.888450789451599,5.279552745819092,3.1650198459625245,-0.9616477847099304,-0.1065784856677055,0.1585400134325027,-34.840912628173825,80.03753509521485,-160.55215148925782,6.452896088882471,0.9799859907237,7.118932819657337,0.9804991676795408,67.56213302612305,6.129876708984375,-20.3247802734375
1154.158,-1.0592340916395186,-6.048717403411866,1.8175619125366207,-0.9408252239227296,-0.2692513287067413,-0.0485377095639705,-102.0224349975586,73.96795959472657,-139.81083068847656,2.0052047789096834,5.8507545471191404,3.5479060649871825,-0.9614064812660216,-0.1034087166190147,0.1617374420166015,-34.82481079101562,80.16231536865234,-160.54176635742186,6.46457609832386,0.9798315049570472,7.377470053459805,0.9804526698290242,67.19762420654297,6.194355773925781,-20.730935668945317
1177.879,-1.0763546884059907,-5.694976234436036,2.1895194053649902,-0.9399852752685548,-0.2687009215354919,-0.0468570329248904,-101.66909332275392,74.033154296875,-139.42237243652343,1.037347859144211,6.447402286529541,3.7398770809173594,-0.9602750301361084,-0.1014955088496208,0.1616607546806335,-34.843685913085935,80.29846649169922,-160.54766235351562,6.273669045982941,0.9787880492842586,7.677877618313492,0.9791576662818744,66.82540740966797,6.265312194824219,-21.125289916992188
1199.313,-1.199260801076889,-5.225906753540039,2.4846435546875,-0.9402052402496338,-0.266525387763977,-0.0437362238764762,-101.34930877685548,74.10256805419922,-139.06654357910156,-0.4710992157459259,7.653009414672852,3.732498645782471,-0.9585236430168153,-0.0977210938930511,0.1587513208389281,-34.9718635559082,80.45554809570312,-160.63593139648438,5.993246234342576,0.9782971715073524,8.727809267473372,0.9766085379126712,66.37744522094727,6.352980041503907,-21.56938781738281
1209.295,-1.6321315228939055,-4.8586012840271,2.6200411319732666,-0.9434354782104492,-0.262844380736351,-0.0403654508292674,-101.06009368896484,74.17484741210937,-138.7338073730469,-2.4410638868808747,9.546274375915528,3.9532267093658446,-0.9567349791526796,-0.0887264341115951,0.1482699126005172,-35.25529327392578,80.6523452758789,-160.84620666503906,5.914000205036372,0.9803245976648216,10.986602576154038,0.97241703005081,65.80480041503907,6.477497863769531,-22.112399291992183
1234.41,-2.069939345121384,-4.945527362823486,2.499038648605347,-0.9483957648277282,-0.2607525020837783,-0.0371200900524854,-100.76598510742188,74.24601135253906,-138.38727722167968,-4.907235437631607,12.738324546813963,4.049335384368897,-0.952861988544464,-0.0827594190835952,0.1354978039860725,-35.84402694702148,80.90737609863281,-161.32018432617187,6.127201671853593,0.9844405426579655,14.621069137999976,0.966349370117754,64.9219581604004,6.66136474609375,-22.932907104492184
1259.6,-2.4147738397121428,-5.67981481552124,2.1169009447097777,-0.9513260841369628,-0.2572000354528426,-0.0348200533539056,-100.41908569335938,74.31355743408203,-137.97894287109375,-7.710773980617523,16.516244316101073,4.47645149230957,-0.952144491672516,-0.0805417612195014,0.1200416728854179,-36.80495834350586,81.23263397216797,-162.1169189453125,6.782533007127077,0.9861613833548968,18.971031183101196,0.9634492413323392,63.61412734985352,6.919076538085937,-24.13797607421875
1279.142,-2.6259306907653808,-7.056528949737549,1.6869724631309508,-0.952071976661682,-0.2553672820329665,-0.0338717181235551,-99.97351379394532,74.37697906494141,-137.4637481689453,-10.29673900604248,20.42390098571777,5.275879573822022,-0.9506471157073976,-0.0793240323662757,0.1084234222769736,-38.14081649780273,81.63069000244141,-163.24440002441406,7.99614044668604,0.986344328579254,23.51232921950717,0.9603126856550456,61.83269729614258,7.2537109375,-25.78065185546875
1289.402,-3.026096153259277,-9.184891414642331,1.240543508529663,-0.9510658621788024,-0.2577870041131972,-0.0298455532640218,-99.3719467163086,74.43516693115234,-136.7788513183594,-12.44217357635498,24.518595886230468,6.114557218551636,-0.9480461835861206,-0.0761166185140609,0.0933763667941093,-39.94882431030273,82.10328369140625,-164.80359497070313,9.985902104874253,0.985913043152325,28.18431351988493,0.9557920252387976,59.42312240600586,7.668116760253906,-28.02474365234375
1309.309,-2.776836395263672,-12.299722957611085,0.7345387816429138,-0.949845504760742,-0.2626384615898132,-0.0205988038331269,-98.51983795166016,74.48704071044922,-135.8404296875,-13.637145614624025,28.19578399658203,7.15096607208252,-0.9430875420570374,-0.0723758786916732,0.0770800322294234,-42.2881362915039,82.64178466796875,-166.86549682617186,12.770332962312123,0.9859697868321982,32.15826159680122,0.9493129103680036,56.23170166015625,8.154743957519532,-31.02506713867188
1331.833,-1.6541996717453002,-16.27683296203613,0.2064940810203552,-0.9511518597602844,-0.2666374325752258,-0.0067441157996654,-97.330517578125,74.53157043457031,-134.5772216796875,-13.54015827178955,31.520072174072265,8.819305419921875,-0.9401670336723328,-0.0670321911573409,0.050377707183361,-45.28596801757813,83.24700927734375,-169.58022766113282,16.525731715368256,0.9884046392596202,35.53359782086075,0.9452355224024798,52.04454956054688,8.715438842773438,-35.00300598144531
1349.296,0.2458608388900756,-21.506669425964358,-0.491946542263031,-0.9555315256118776,-0.267246264219284,0.0051786039024591,-95.70588073730468,74.56321563720704,-132.9030029296875,-12.689791297912596,33.93326568603516,10.254345893859863,-0.9423922777175904,-0.0733507335186004,0.0336322210729122,-49.05996170043945,83.88597869873047,-101.07592163085936,21.82922225168999,0.9926591893039476,37.816796904513694,0.947288691848722,46.64591903686524,9.322763061523435,31.827081298828126
1371.541,2.9297312498092647,-27.667280387878417,-0.8752706050872803,-0.9614605188369753,-0.2721381723880768,0.0100311141461134,-93.5846450805664,74.577490234375,-130.7689956665039,-12.557464790344238,37.01568069458008,11.38433609008789,-0.9529544591903688,-0.0846209749579429,0.0187179081141948,-54.1153450012207,84.54678649902344,-33.840963745117186,28.30443709468504,0.9995495285952858,40.8452514389741,0.9579979842823176,39.4693000793457,9.969296264648438,96.92803192138672
1394.245,5.042772650718689,-34.189358139038085,-1.2795024037361145,-0.9712566256523132,-0.280075466632843,0.0233464669436216,-90.94825744628906,74.55993347167968,-128.1446975708008,-12.34175624847412,39.12726516723633,12.13766918182373,-0.9661046147346496,-0.0944809451699256,0.0058285916224121,-60.779771423339845,85.18582000732422,31.799972534179688,34.831304510750115,1.0114337640507756,42.85675909493538,0.9715451553057622,30.168486022949217,10.625886535644533,159.94467010498047
1409.551,6.578776335716247,-40.7876522064209,-1.3128901839256286,-0.982684087753296,-0.2907085180282592,0.0450013514608144,-87.80958862304688,74.49927978515625,-125.03149871826172,-11.993717002868651,40.32182006835937,12.59148120880127,-0.9850789666175842,-0.1057704478502273,-0.0024050598032772,-69.2393699645996,85.75675659179687,95.65672912597655,41.45069935658237,1.026941301419039,43.9411206578408,0.9912954150551836,18.570218658447267,11.257476806640623,220.68822784423827
1431.695,7.200591373443603,-47.20158309936524,-1.2374008297920227,-0.9920345067977904,-0.2971800565719604,0.065707391873002,-84.23487548828125,74.37967376708984,-121.47757568359376,-11.7974458694458,39.296807861328126,12.625669860839844,-1.0064119577407835,-0.1145699888467788,0.0050957133062183,-79.07824249267578,86.21099548339843,158.14129028320312,47.88973557238624,1.0395630423232844,42.96697312649685,1.0130693203716843,5.156632995605469,11.831321716308594,279.6188659667969
1454.161,6.767512416839599,-52.80081634521484,-0.8945577025413514,-1.0050696849822998,-0.3092927098274231,0.0936769567430019,-80.33676452636719,74.18441314697266,-117.57688446044922,-12.187165641784668,37.5661117553711,11.210903358459472,-1.0232229709625245,-0.1059807464480399,0.0025848315097391,-89.78635711669922,86.52177734375,147.7610855102539,53.37331984267526,1.057766828091421,41.10772914030455,1.0290555787643672,-9.449592590332031,12.337364196777344,265.3379699707031
1477.382,5.458146667480468,-58.1156478881836,-1.035779058933258,-1.0199641942977906,-0.3234630107879638,0.1333123140037059,-76.19791107177734,73.88489227294922,-113.39585571289062,-13.088545036315915,34.47517051696777,9.555494117736815,-1.032434272766113,-0.0995830655097961,-0.0128914794884621,-100.6220703125,86.67034606933593,137.2602340698242,58.39788438879416,1.0791611541642134,38.33287685242777,1.0376716057233235,-24.424159240722656,12.78545379638672,250.65608978271484
1498.921,7.216183090209961,-63.73826446533203,-1.0595188975334169,-1.0327301979064942,-0.3333302855491638,0.1665058284997939,-71.82946395874023,73.4654037475586,-109.00515899658204,-13.04457416534424,31.133320236206053,8.056634044647216,-1.0359255075454712,-0.0947611242532729,-0.0299407147802411,-110.79795837402344,86.66836242675781,127.39825744628908,64.24097978967959,1.0983276568352065,34.986610939859574,1.0412685814308875,-38.9684944152832,13.202958679199218,236.4034164428711
1509.14,9.102651500701905,-70.06289749145508,-1.2869250059127808,-1.0443307876586914,-0.3220170438289642,0.1908207595348357,-67.28781585693359,72.9068099975586,-104.46167449951172,-12.644832420349122,28.342788696289062,5.706235671043396,-1.0436426401138306,-0.0812604010105132,-0.0473430255427956,-119.67455139160155,86.52668609619141,118.80397491455078,70.76949171360707,1.110378207898991,31.92579037606431,1.0487646745881305,-52.38673553466797,13.619876098632812,223.26564941406247
1531.88,8.483721947669983,-77.34824829101562,-1.617347288131714,-1.0557723999023438,-0.3210417807102203,0.2170444995164871,-62.68602752685547,72.17638702392578,-99.82546997070314,-14.31933650970459,26.041651916503906,1.9980651617050167,-1.0436686515808105,-0.0745145753026008,-0.0628857228904962,-126.8736801147461,86.2622802734375,111.9038818359375,78.02169556160261,1.1258739216730027,30.331941274918357,1.0488673672832458,-64.18765258789062,14.085893249511718,211.72935180664055
1551.783,8.436620163917542,-84.91807861328125,-1.9949403047561645,-1.0639663934707642,-0.3305049538612366,0.2507815867662429,-58.1048469543457,71.25267791748047,-95.18738403320312,-16.743297386169434,24.60594711303711,-1.2537378549575806,-1.0438780307769775,-0.0711927734315394,-0.0710231758654117,-132.46693725585936,85.91536254882813,106.65273590087892,85.58164075594411,1.1435395456780095,30.678624426629987,1.0491155842452649,-74.36209030151367,14.662684631347656,201.84011993408205
1574.237,9.647305798530578,-92.6298049926758,-2.3247971534729004,-1.0657281875610352,-0.3253639519214629,0.2922426909208298,-53.59174423217773,70.12785034179687,-90.62058868408204,-19.041905403137207,22.421248817443846,-4.944852471351624,-1.049512267112732,-0.0610076695680617,-0.0632721481844782,-136.35633239746093,85.52605743408203,103.15325164794922,93.37956737611466,1.1539560002264098,31.28104965672117,1.0537771623077836,-82.7645881652832,15.398207092285157,193.77384033203128
1593.905,8.787905049324035,-99.86898345947266,-2.873374104499817,-1.0671273231506349,-0.317596685886383,0.3368433564901351,-49.29019927978516,68.79888458251953,-86.22921752929688,-22.64769039154053,20.161408996582036,-9.107941746711733,-1.060416340827942,-0.0608569979667663,-0.0530100440606474,-138.65884704589843,85.10480194091797,101.32629852294922,100.4271477327749,1.1656798448774877,33.125474404093325,1.064064382440136,-89.36864776611328,16.30591735839844,187.5555160522461
1618.21,8.072896313667297,-106.43905029296874,-3.52160234451294,-1.0645820140838622,-0.3313123762607574,0.3815059661865234,-45.30546417236328,67.26302947998047,-82.12216186523438,-26.6404167175293,17.28531131744385,-13.103518867492676,-1.0598751068115235,-0.0789338245987891,-0.046748143993318,-139.5239227294922,84.66685791015625,101.03240356445312,106.86624105178872,1.1807296865245052,35.15853860372389,1.0645983602971525,-94.21845855712893,17.403828430175782,183.1545654296875
1640.1460000000002,9.918103504180907,-112.12257690429688,-3.807913494110108,-1.0604851007461549,-0.3371894478797912,0.4227679133415222,-41.63859252929687,65.54380645751954,-78.35281524658203,-28.331779098510744,14.78978672027588,-16.969137573242186,-1.063489603996277,-0.0891696006059646,-0.0453181272372602,-139.37235107421876,84.21600036621093,101.8032440185547,112.65144452056252,1.19193168185418,36.85141897041535,1.0689448781601816,-97.73375854492188,18.672193908691405,180.15605926513672
1649.314,10.823116111755372,-118.0192886352539,-3.8690149784088135,-1.051122236251831,-0.3261900782585144,0.4516365349292755,-38.29530029296875,63.65471649169922,-74.90651397705078,-29.982990264892575,12.756205177307129,-20.817339134216308,-1.058864378929138,-0.0989214725792407,-0.0510179733857512,-138.50462951660157,83.74248504638672,103.3331283569336,118.59054270138068,1.1901241081529594,39.070881977416185,1.0654012968206,-100.2093292236328,20.0877685546875,178.23964233398436
1680.0759999999998,9.858319282531738,-123.81143646240234,-4.173535585403442,-1.0468106985092165,-0.3259918987751007,0.478232729434967,-35.32049217224121,61.601260375976565,-71.79124450683594,-30.653173446655277,11.930752563476563,-24.21686172485352,-1.050369644165039,-0.1065376743674278,-0.0676631070673465,-137.30030212402343,83.22848358154297,105.21998291015623,124.29897589869763,1.196483713255042,41.104589436381175,1.058295974125078,-101.97980995178224,21.62722320556641,177.0112274169922
1699.706,9.138781547546388,-129.8435485839844,-4.594297456741333,-1.037875509262085,-0.325893235206604,0.5035015225410462,-32.6778060913086,59.38761062622071,-68.97533264160157,-31.48671264648437,11.7941104888916,-27.625929260253905,-1.0439841508865355,-0.1163971662521361,-0.0795423254370688,-135.92206420898438,82.66257934570312,107.30132904052736,130.27125014399812,1.1993631599110368,43.60367185450026,1.0537330700731724,-103.24425811767578,23.274968719482423,176.27666168212892
1709.3529999999998,8.348158836364746,-135.75146026611327,-5.454278230667114,-1.0257798790931705,-0.3236024379730224,0.5295795619487762,-30.348017501831052,57.02024765014649,-66.44065628051757,-33.41393432617188,12.216265869140624,-31.531330490112303,-1.038437652587891,-0.1218291223049163,-0.0885033294558524,-134.49552001953126,82.03007354736329,109.47264862060548,136.146469221366,1.2000711989397352,47.54480454852065,1.0497475716034914,-104.1475025177002,25.0098258972168,175.91330490112304
1732.063,7.53892822265625,-141.37362976074218,-6.8557624340057375,-1.005612552165985,-0.3179942309856414,0.5579342603683471,-28.314180755615237,54.50428695678711,-64.17348022460938,-35.39332656860351,13.692179870605468,-34.7978328704834,-1.0330132722854617,-0.1299085348844528,-0.095536296069622,-133.2160430908203,81.32443237304688,111.54004669189452,141.76757229225936,1.1947752247106744,51.53068041634761,1.0460051142395728,-104.90186233520508,26.820145416259766,175.7135269165039
1750.153,6.092556118965149,-146.32383422851564,-8.903029346466065,-0.9862127423286436,-0.3115440368652343,0.5950239539146424,-26.57714424133301,51.85020980834961,-62.167851257324216,-36.95136108398437,15.30319366455078,-37.86868667602539,-1.024570369720459,-0.1498684614896774,-0.1082863077521323,-132.09913940429686,80.54026947021484,113.48121490478516,146.76142033975583,1.194720577388367,55.14332819923222,1.0420057275286558,-105.52199516296386,28.690059661865234,175.64906616210936
1772.148,4.681395655870437,-151.1355224609375,-11.159979724884034,-0.9556472778320312,-0.3079938471317291,0.6289578557014466,-25.10827026367188,49.065040588378906,-60.39671020507812,-35.16769104003906,16.466119003295898,-40.93167419433594,-1.014426589012146,-0.1769872486591338,-0.1150727406144141,-131.0074462890625,79.68341369628907,115.3665985107422,151.68459783349095,1.186450269402576,56.81598703013829,1.036915779937703,-105.89917602539064,30.61837310791016,175.7633087158203
1794.09,3.010662478208542,-155.72875061035157,-13.426294898986816,-0.924093234539032,-0.3020472407341003,0.6591280221939086,-23.88094711303711,46.16125411987305,-58.8289794921875,-31.572821044921877,18.13461856842041,-43.48247375488281,-1.0086508750915528,-0.1856273800134658,-0.1200677603483199,-130.0161163330078,78.76475372314454,117.0820327758789,156.39811727004425,1.1763426862442123,57.47757118622248,1.0330997129370472,-106.1351692199707,32.60349960327149,175.9110122680664
1809.75,0.9426505267620088,-160.18944396972657,-15.84474811553955,-0.8915426015853882,-0.2923394858837128,0.6911332368850708,-22.870624160766603,43.14659652709961,-57.43472137451172,-28.026804733276368,18.69066200256348,-45.033268737792966,-1.0052509546279906,-0.1828400999307632,-0.1295771241188049,-129.14334259033205,77.81744689941407,118.61149291992189,161.04005766340345,1.167220452833727,56.86412196507795,1.030547461160201,-106.27271842956544,34.670850372314455,176.04621429443358
1832.644,-1.627723008394241,-164.30459594726562,-18.31514892578125,-0.8488544344902038,-0.2857063829898834,0.7211400866508484,-22.064670944213866,40.02873840332031,-56.19639587402344,-24.58134651184082,18.77659454345703,-45.09325637817383,-1.011116623878479,-0.191994959115982,-0.126965881884098,-128.35460815429687,76.87222442626953,119.98352813720705,165.37638179934268,1.152284391915494,55.11917115581592,1.0375810723574117,-106.289937210083,36.84348602294922,176.17992401123047
1854.103,-3.458536821603775,-168.05017700195313,-20.84461555480957,-0.8005048274993897,-0.2893826484680176,0.7509894013404846,-21.43180046081543,36.81536712646484,-55.09726409912109,-21.17347564697265,16.760449600219726,-44.66617202758789,-1.019642972946167,-0.198204880952835,-0.1254576101899146,-127.53773498535156,75.96339721679688,121.32305297851562,169.41898440404856,1.137945791870422,52.36687093765206,1.0469306781068244,-106.10593452453614,39.14803009033203,176.42031707763672
1877.672,-5.024461662769317,-170.9110076904297,-23.06753044128418,-0.7460648059844971,-0.2814176976680755,0.7869427800178528,-20.937767028808597,33.52559852600098,-54.10437316894532,-20.071133041381835,14.330519676208496,-42.04475860595703,-1.034284520149231,-0.1943705052137374,-0.1144367039203643,-126.80151672363282,75.13575897216796,122.56441040039064,172.57774390520697,1.124921381155661,49.02560281193213,1.0593195518749383,-105.86374969482422,41.610160446166994,176.66878356933594
1899.088,-6.617892074584961,-172.98743286132813,-25.28313789367676,-0.6838279724121094,-0.2856588304042816,0.8226843118667603,-20.57606430053711,30.172483062744146,-53.215972137451175,-22.30748748779297,8.166014099121094,-38.774435424804686,-1.0273756861686707,-0.2020568072795867,-0.1078906714916228,-125.97947540283204,74.4354248046875,123.92840118408203,174.97657192692694,1.1128372170328935,46.7238634547023,1.0535187507589376,-105.40341110229492,44.26294174194336,177.1443733215332
1909.138,-7.5838446617126465,-174.56587829589844,-26.775537490844727,-0.6188727140426635,-0.28362278342247,0.8499183297157288,-20.311700439453126,26.77432861328125,-52.389828491210935,-22.01969757080078,0.909823989868164,-32.80886306762695,-1.0124384760856628,-0.2246423423290252,-0.0890795379877089,-125.04144744873048,73.90704803466797,125.39835205078126,176.78225316488746,1.0936415755145907,42.37307066015372,1.041619165448671,-104.72974700927736,47.13271942138672,177.78818054199218
1931.654,-9.183010959625244,-175.92230224609375,-28.032305908203124,-0.5614114940166474,-0.2847336530685424,0.8733478426933289,-20.146785736083984,23.34109992980957,-51.62083740234375,-19.380154514312743,-10.205168151855467,-30.076994323730467,-0.9647020816802978,-0.2519690543413161,-0.0967226907610892,-123.59373168945312,73.51849822998047,127.34516296386718,178.39612178653277,1.0801292214972094,41.9669266433467,1.004535000307213,-103.44694595336914,50.1773983001709,178.96600036621095
1953.722,-11.141251182556152,-177.0771484375,-29.094677352905272,-0.4968915283679962,-0.2794414520263671,0.8862605214118957,-20.075319290161133,19.87839107513428,-50.88486938476562,-14.49808521270752,-15.484150695800782,-30.37681427001953,-0.9809736490249634,-0.2568478912115096,-0.0993845865130424,-121.85699310302736,73.16947021484376,129.4780059814453,179.8340689835789,1.056270040435099,41.59696976307133,1.0216842350336337,-101.78167381286622,53.291079139709474,180.36287536621091
1977.304,-12.832922744750975,-178.03147583007814,-30.098786544799804,-0.4310325562953949,-0.2826104640960693,0.888188099861145,-20.090843200683597,16.391287803649902,-50.17736129760742,-10.772810101509094,-18.74142990112305,-32.99993362426758,-0.9916913032531738,-0.259135240316391,-0.1006854936480521,-119.88289337158204,72.79932556152343,131.77471313476562,181.05479984368827,1.03047117710115,43.4945378460609,1.0327059553384277,-99.79205017089843,56.40803775787354,181.95207443237305
1999.412,-13.972387886047365,-178.64700927734376,-30.85907440185547,-0.3529491782188415,-0.2742375612258911,0.8847309350967407,-20.16991767883301,12.882277297973634,-49.48841934204101,-4.5282965898513785,-20.589144706726078,-34.85656585693359,-1.0004015564918518,-0.2711340636014938,-0.0919417157769202,-117.7162841796875,72.39446868896485,134.16329650878907,181.86267661538503,0.9979808989695392,43.62817075681373,1.0435935781020933,-97.54636650085448,59.51219139099121,183.65171585083007
2009.471,-15.87116756439209,-178.03449096679688,-31.791455078125,-0.2656616970896721,-0.276878273487091,0.8727421998977661,-20.333829879760746,9.36703233718872,-48.82526931762696,1.3315569639205933,-20.83115291595459,-37.90515441894532,-1.0099296689033508,-0.2827403396368027,-0.090082673728466,-115.39586639404295,71.91797180175782,136.60855102539062,181.55957202827148,0.962317333249406,44.83344598444755,1.0559456399927625,-95.06203651428224,62.55093946456909,185.4338203430176
2032.244,-16.76223545074463,-175.85855712890626,-32.60593872070312,-0.1782567139714956,-0.2816131770610809,0.8687226295471191,-20.559202194213867,5.874389815330505,-48.18818817138672,4.759644865989685,-16.425469970703126,-39.15760803222656,-1.0484289884567262,-0.2841472893953323,-0.0604757577180862,-113.32278137207032,71.36595764160157,138.73880920410156,179.6543804310739,0.9390959023799624,43.17114791600336,1.090598824718234,-92.76357917785644,65.49156782627105,186.92699737548827
2096.364,-16.70899829864502,-172.72062072753906,-32.835417938232425,-0.1036233212798833,-0.289980137348175,0.8776793956756592,-20.823528671264647,2.4319387197494504,-47.55983200073242,4.628937411308288,-15.795265579223631,-38.137054443359375,-1.0186259150505066,-0.3017723232507706,-0.0348019510507583,-111.40220489501954,70.80421142578125,140.7321533203125,176.6191651629877,0.9358797406159935,41.99145935258362,1.0650256783319247,-90.57867622375488,68.3722727060318,188.29198532104493
2096.441,-15.184895133972168,-169.01007385253905,-32.184061431884764,-0.0377214331179857,-0.2981309056282043,0.8649957656860352,-21.10080337524414,-0.9397905588150024,-46.93795776367188,4.213936924934387,-16.063386917114258,-36.56812744140625,-0.9903194546699524,-0.3248109579086303,-0.0389173924922942,-109.62854919433592,70.24599609375,142.59939880371093,172.75038743014133,0.918824127877204,40.55492787986773,1.0439956063702531,-88.52774581909179,71.185786652565,189.5373565673828
2098.693,-14.06371898651123,-164.56463623046875,-31.054497528076173,0.0067139785736798,-0.3047445058822631,0.8555423021316528,-21.39628753662109,-4.211891770362854,-46.31572799682617,4.312718319892883,-12.92757577896118,-35.39714050292969,-0.9748390436172484,-0.3422787129878998,-0.0438726797699927,-108.14049377441408,69.66781005859374,144.16834411621093,168.11061993921314,0.9097252172929714,38.60374439200318,1.0351376245026354,-86.74420623779297,73.8797018289566,190.48407211303712
2118.757,-12.034881019592286,-160.79801330566406,-29.42645683288574,0.0458439137786626,-0.312676590681076,0.8459329962730407,-21.69371948242188,-7.392188000679016,-45.67509384155274,2.6574061036109926,-7.027933597564697,-38.07173233032226,-0.96412011384964,-0.3421449184417724,-0.0509936600923537,-107.03992004394532,68.9942611694336,145.36654663085938,163.97840676905724,0.9047701723825966,40.12655573375381,1.025439742450451,-85.34620056152343,76.38644917011261,191.0416404724121
2128.802,-10.196172332763672,-157.5220458984375,-27.33222885131836,0.0900509096682071,-0.3098581969738007,0.8377579808235168,-21.991686248779292,-10.48979434967041,-45.00305252075195,0.0367192864418029,0.0029034614562988,-39.45976181030274,-0.9541366219520568,-0.3511050403118133,-0.0651848785579203,-106.37832489013672,68.2481460571289,146.15247192382813,160.24680382320966,0.900742550122202,41.42948385737081,1.019451319908233,-84.38663864135742,78.73794040679931,191.15552444458007
2148.978,-7.852013778686524,-154.61509704589844,-25.782989501953125,0.1331943936645984,-0.3115755200386046,0.8248396396636963,-22.28367729187012,-13.5146240234375,-44.31481170654297,1.166351568698883,7.294257068634034,-40.40534362792969,-0.9496370196342466,-0.3531484544277191,-0.0741407863795756,-106.0859619140625,67.44140625,146.51866455078124,156.95958801607,0.8944042717815746,43.12401339609717,1.0163045212825554,-83.80228462219239,80.9560302734375,190.8334762573242
2171.806,-5.62483320236206,-151.98036193847656,-24.86862487792969,0.1777670204639434,-0.3040753960609436,0.8223275184631348,-22.564324188232423,-16.479202651977538,-43.60378570556641,4.182897317409515,7.7507004737854,-41.18052749633789,-0.9378882288932798,-0.3548567056655883,-0.0679349862039088,-105.79400177001952,66.61670989990235,146.81642456054686,154.16132343494456,0.8976850894508219,44.188167455565086,1.0053194034846884,-83.22967758178712,83.09591255187988,190.4202102661133
2188.675,-3.1304296493530277,-149.66069946289062,-24.5734977722168,0.2260122954845428,-0.3097932398319244,0.8037860512733459,-22.83848876953125,-19.39907665252685,-42.87581558227539,7.924819314479828,3.4309358596801767,-40.1231803894043,-0.930289316177368,-0.3561537504196167,-0.0692299015820026,-105.29804229736328,65.83781433105469,147.24333801269532,151.78717501321734,0.8933098905981518,46.03528095865354,0.9988701276184722,-82.45955352783203,85.23689098358155,190.1191535949707
2211.13,-0.5978569984436035,-147.18881225585938,-24.50023078918457,0.2717187285423278,-0.3056770145893096,0.8009010672569274,-23.09510040283203,-22.27007522583008,-42.15959548950195,11.59088306427002,-3.125742149353026,-38.71195068359375,-0.9195126175880431,-0.3714834332466125,-0.0704233951866626,-104.50660552978516,65.10981826782226,147.90047912597657,149.32202171201493,0.901743280181767,46.45808471661572,0.9946097664086488,-81.41150512695313,87.37989349365235,190.06007461547853
2233.231,2.2386940002441404,-144.96141052246094,-24.684508514404296,0.3141131281852721,-0.3087068736553192,0.7820454955101013,-23.336816787719727,-25.098844909667967,-41.43037872314453,16.98104600906372,-11.703866386413576,-35.90927963256836,-0.9244370937347413,-0.3730242311954498,-0.0689924836158752,-103.32090606689454,64.478271484375,148.86117858886718,147.11715176611364,0.900876973998414,46.00444576542866,0.9996782083039736,-79.98408927917481,89.57711639404297,190.2915573120117
2249.389,4.45469331741333,-142.18572998046875,-24.408304595947264,0.3573168337345123,-0.3046670436859131,0.7474766850471497,-23.57778549194336,-27.877129364013676,-40.684356689453125,19.352581787109376,-20.966908836364745,-33.09723739624023,-0.8950115323066712,-0.3860591292381287,-0.0737157478928565,-101.78506469726562,63.933231353759766,150.14543762207032,144.3428702240654,0.8857912009977799,44.51373897872696,0.978602178485716,-78.20727920532227,91.81036071777343,190.82979431152344
2271.134,5.51134958267212,-138.75100402832032,-23.79090614318848,0.4013138055801392,-0.3036186575889587,0.714185106754303,-23.84426460266113,-30.59195709228516,-39.932228088378906,20.563155364990237,-23.07892723083496,-29.38582382202149,-0.8937888503074646,-0.4021835446357727,-0.0693589687347411,-100.22144927978516,63.45826568603516,151.4369689941406,140.89206171325628,0.8773296124408384,42.88192522954834,0.9834301431198856,-76.37718467712402,94.05022277832032,191.36919708251952
2293.5370000000003,4.691509956121445,-134.97044372558594,-22.83869590759277,0.444269573688507,-0.2973988473415375,0.6935920119285583,-24.168968963623048,-33.23148002624512,-39.15382843017578,20.07250137329101,-21.88048400878906,-27.06775817871094,-0.8854448556900024,-0.4182003617286682,-0.0706302791833876,-98.78333435058592,63.005192565917966,152.62413024902344,136.9954807218798,0.8792645272739381,40.52610295274159,0.982853307395536,-74.61436538696289,96.23667259216307,191.77795867919923
2316.005,3.9338933646678926,-130.77215728759765,-21.766754150390625,0.4829679846763611,-0.2974261581897735,0.6595024824142456,-24.56102676391601,-35.78734016418457,-38.33364028930664,19.98867416381836,-19.831627082824703,-22.957485580444335,-0.8785539150238038,-0.4241475760936737,-0.0643206566572189,-97.4939178466797,62.61948089599609,153.66919555664063,132.66020708967648,0.8724271325586894,36.47484819537842,0.9786964428156856,-72.93289108276367,98.40682106018066,192.0028358459473
2339.432,3.547647255659103,-126.07894287109374,-20.58498420715332,0.5112425029277802,-0.2984999299049377,0.6291116595268249,-25.01401176452637,-38.24313888549805,-37.48003463745117,18.605086517333984,-16.06108636856079,-20.810058975219725,-0.8491985321044921,-0.4289023578166961,-0.0692157104611396,-96.42781066894533,62.253973388671874,154.51802978515624,127.82798613978044,0.8655830984211373,32.68139559173027,0.9541774391945704,-71.41379890441894,100.49711227416992,191.99806442260743
2349.668,3.0172830283641816,-120.7832244873047,-19.624949645996093,0.5453209102153778,-0.2956921637058257,0.5951772928237915,-25.52287101745605,-40.59647979736328,-36.6037956237793,18.54764595031738,-12.022785472869874,-16.526714706420897,-0.8642825603485107,-0.4354243576526642,-0.0620482720434665,-95.55599212646484,61.96104278564453,155.16997680664062,122.43034173796303,0.8617669779136998,28.35645176864649,0.9699822647089404,-70.03312110900879,102.5575225830078,191.7737724304199
2370.844,1.9418139159679413,-115.04186096191408,-18.988034439086917,0.5704104661941528,-0.3014018177986145,0.569486927986145,-26.09321174621582,-42.83343963623047,-35.70689239501953,18.587882614135744,-5.665896892547608,-11.960250833630562,-0.841728937625885,-0.4422428607940674,-0.068825951963663,-94.96258850097657,61.7372802734375,155.5196746826172,116.62596988250188,0.8628393262267604,25.65689009676445,0.9536042019757426,-68.86937675476074,104.57071990966796,191.22656707763676
2391.85,1.973276582360268,-109.07899322509766,-18.450226974487304,0.5878887295722961,-0.3021487832069397,0.542422866821289,-26.69340591430664,-44.949755859375,-34.80429382324219,18.520940399169923,2.492990589141845,-9.381903198361396,-0.8343279480934143,-0.4400636434555053,-0.0707599960267543,-94.69214935302736,61.552216339111325,155.5056915283203,110.66024435932223,0.8566453758957392,25.34667924924459,0.946240453405784,-67.99874343872071,106.50197219848631,190.3099853515625
2413.471,1.4414568334817883,-102.89422149658203,-18.007575225830077,0.6128294944763184,-0.3013619720935822,0.5159944415092468,-27.32802391052246,-46.94702301025391,-33.90255966186523,18.85956687927246,12.146043300628662,-4.933369758725166,-0.8387701630592346,-0.4445359885692596,-0.0773816101253032,-94.79563751220704,61.43641052246094,155.06064453125,104.49137708079824,0.8574927490542541,27.510911342183256,0.9527477603793204,-67.46761360168458,108.38343353271485,188.96320419311525
2436.078,0.818979574739933,-96.29571380615236,-17.839583969116212,0.6351398229598999,-0.3014276742935181,0.4909143209457397,-27.98578186035156,-48.82005767822265,-33.0169174194336,19.450484848022462,23.095821571350097,-1.639000204205513,-0.8289502739906311,-0.4475256085395813,-0.0848707698285579,-95.29993743896485,61.35875549316406,154.1475402832031,97.95748694840847,0.8581507746455905,33.456012936329586,0.9462004437975332,-67.31415557861328,110.17881317138672,187.16445770263672
2458.411,-0.0519500955939292,-90.1214096069336,-17.556687545776366,0.6503299117088318,-0.3003529489040374,0.4764375805854797,-28.666078948974608,-50.57000885009766,-32.14773254394531,19.71658325195313,33.96806449890137,-1.489957025647163,-0.8274338126182557,-0.4473224282264709,-0.0972325071692466,-96.19515533447266,61.254737091064456,152.7846893310547,91.82983514228906,0.8612260737767865,40.4068583680377,0.9458157891396968,-67.52907638549804,111.8247459411621,184.932421875
2468.7380000000003,-1.114218543469906,-84.06528015136719,-17.48732566833496,0.670782721042633,-0.3014457762241364,0.4554364264011383,-29.36671371459961,-52.20722961425781,-31.301450347900392,20.87770156860352,43.83878364562988,-2.5925359725952144,-0.8235743999481201,-0.4481477797031402,-0.1011435762047767,-97.39898986816408,61.09113388061523,151.04076232910157,85.89923198568711,0.8663296461190064,49.01980947260673,0.9433168878368328,-68.03227615356445,113.29836349487304,182.34221267700195
2495.878,-1.3009375467896462,-78.33973999023438,-17.394387435913085,0.6973958015441895,-0.2976346671581268,0.4398934721946716,-30.058990478515625,-53.740821075439456,-30.48592872619629,22.220361328125,46.603677368164064,-0.1431429386138912,-0.830018413066864,-0.454229062795639,-0.1065428867936133,-98.6733657836914,60.95393447875976,149.18474731445312,80.29173767477138,0.8774414969434308,52.15965442275548,0.9523985818600996,-68.61437530517578,114.69475555419922,179.67067604064945
2516.037,-2.0161743059754373,-72.9679786682129,-17.389335250854494,0.7171789884567261,-0.2958875119686126,0.4257558584213257,-30.75174217224121,-55.17494583129883,-29.702081298828126,23.2993522644043,46.2537712097168,1.55298285484314,-0.8181405901908875,-0.4558126926422119,-0.1127367198467254,-99.91317138671874,60.83253860473633,147.330322265625,75.08524733622876,0.8859161876196164,52.76128722360882,0.943482187087854,-69.16142921447754,116.00748443603516,177.03240356445312
2539.314,-3.030460429191589,-67.84571762084961,-17.555834197998045,0.7387805104255676,-0.2946656346321106,0.4111014902591705,-31.44163932800293,-56.518541717529295,-28.958506393432614,23.12911720275879,39.22147254943848,3.546407985687256,-0.8239803314208984,-0.4566453218460083,-0.116141141951084,-100.90508880615234,60.76200714111328,145.7408416748047,70.2024049492885,0.8960176648193036,47.24560023730511,0.9494030090562118,-69.46344947814941,117.28054885864258,174.6993480682373
2559.323,-3.5526432275772093,-62.822384643554685,-17.787602615356445,0.7657270073890686,-0.2935404419898987,0.397609931230545,-32.10950355529785,-57.77692642211914,-28.26412048339844,22.57107353210449,30.03400421142578,8.397869491577149,-0.8222943544387817,-0.4645771503448486,-0.1150777772068976,-101.59914245605468,60.80671081542969,144.48195190429686,65.43644553080404,0.912052410561046,41.12971122490872,0.9516065005424236,-69.48963890075683,118.58363723754884,172.7460723876953
2569.343,-3.891972374916077,-58.1608154296875,-17.872752380371093,0.7879110813140869,-0.2890634715557098,0.3900656580924987,-32.74426803588867,-58.95297775268555,-27.622652435302733,20.66172218322754,18.17159512042999,12.345781707763672,-0.8356005549430847,-0.4651079893112183,-0.1195862755179404,-101.94085083007812,60.97037811279297,143.66767272949218,61.03678271949032,0.9261246490009054,32.25040288228016,0.963881009979254,-69.19658279418945,119.92335586547853,171.29032516479492
2591.888,-4.275371170043945,-53.27687454223633,-17.84300537109375,0.809820020198822,-0.2932805299758911,0.3712459743022919,-33.35273742675781,-60.04603652954101,-27.030552673339844,18.93069381713867,9.401081204414368,13.935664176940918,-0.8311192750930786,-0.460562938451767,-0.119993507862091,-102.02193603515624,61.19715576171875,143.1916076660156,56.40370003609545,0.9385681101232556,28.150166954412832,0.9578497375835168,-68.66919860839843,121.24319229125976,170.22216033935547
2609.9790000000003,-3.330174121260643,-47.38753433227539,-17.75526237487793,0.8297868609428406,-0.2916758954524994,0.3509462416172027,-33.875769805908206,-61.04157333374023,-26.522161102294923,16.98500328063965,0.1894746065139774,15.7878231048584,-0.840449059009552,-0.4641550123691559,-0.1125796169042586,-101.81965942382811,61.49580688476563,143.07419128417968,50.80207625967228,0.9479402209177265,25.35739521557818,0.9668504435496276,-67.94388961791992,122.53738021850586,169.59635238647462
2632.263,-2.672349700331688,-41.326832962036136,-17.47051124572754,0.8508283615112304,-0.2837061285972595,0.3310568451881408,-34.3014778137207,-61.93911361694336,-26.113574981689453,15.476877403259277,-6.032746767997741,17.415831565856934,-0.8540761828422546,-0.4752121150493621,-0.1026926845312118,-101.42032012939453,61.84737319946289,143.21237487792968,45.08202003843126,0.9569595625294076,25.44902180340733,0.9829806884774448,-67.11884231567383,123.78648681640624,169.32594985961913
2653.5,-3.1245778650045395,-35.434320068359376,-17.07918930053711,0.8644631505012512,-0.2780947327613831,0.3100340664386748,-34.65210189819336,-62.73972091674805,-25.80420265197754,13.899629402160643,-9.432004809379578,16.40330390930176,-0.8580118894577027,-0.4763102948665619,-0.094318801164627,-100.91031341552734,62.18983917236328,143.51038818359376,39.67547061590852,0.9605727885092188,24.36256326553308,0.986190231086451,-66.25821151733399,124.92956008911132,169.3145908355713
2673.629,-4.016991958022118,-29.343307495117188,-16.264113426208496,0.8770229339599609,-0.2738900423049927,0.2848958104848861,-34.94052658081055,-63.43800048828125,-25.589089584350585,12.20021905899048,-11.557083320617677,14.897820949554443,-0.8635666728019714,-0.482359778881073,-0.0827907025814056,-100.33007049560548,62.50661849975586,143.9073913574219,34.228864570674595,0.9626652769672244,22.79618044667412,0.9928153690815013,-65.38954391479493,125.9446189880371,169.49648094177246
2689.574,-5.581857165694236,-23.377480125427248,-14.981956481933594,0.8860443711280823,-0.2656132102012634,0.271073094010353,-35.17711868286133,-64.02737731933594,-25.46772766113281,10.02685480117798,-11.087624168395996,12.199270296096802,-0.8671128869056701,-0.4861133694648742,-0.0752846524119376,-99.78223876953123,62.76459274291992,144.29591369628906,29.01629007477394,0.9642116517002972,19.526915858448938,0.9969725280786422,-64.60512008666993,126.79197006225586,169.76364135742188
2711.088,-7.71284065246582,-17.972081565856932,-13.179326152801512,0.8902531862258911,-0.2626547217369079,0.2629259675741195,-35.39786224365234,-64.5076515197754,-25.41202583312988,7.75114483833313,-9.384431648254395,8.085348081588744,-0.8690127849578857,-0.4865590214729309,-0.0713354900479316,-99.31096954345703,62.93283386230469,144.6586181640625,24.38230572132256,0.96485526728796,14.889990334528628,0.9985282948144258,-63.913107299804686,127.44048538208008,170.07064399719238
2754.428,-9.44201774597168,-12.87567367553711,-11.00747709274292,0.8906670212745667,-0.2610890269279479,0.2581276088953018,-35.60804901123047,-64.87797546386719,-25.406268310546874,5.946950149536133,-6.639128398895264,4.296094632148742,-0.8646641731262207,-0.4797475099563598,-0.068477788567543,-98.95385284423828,63.01715393066407,144.95285339355468,20.312616519950677,0.9634371819297136,10.264512038592532,0.9912761177427252,-63.34580383300781,127.89512939453124,170.35912170410157
2764.583,-10.080842781066895,-7.66871576309204,-8.646461391448975,0.8948742389678955,-0.2636177480220795,0.2556274265050887,-35.7890983581543,-65.13411254882813,-25.447087860107423,4.514377593994141,-4.409387481212616,1.7640439033508302,-0.8632712483406066,-0.4708492398262024,-0.0670740388333797,-98.69661254882811,63.047357177734376,145.18690490722656,16.483258758821393,0.9673474521226588,6.880007635859809,0.9857175662630112,-62.90751419067383,128.1814697265625,170.633992767334
2778.312,-9.744541549682618,-2.6672529220581054,-6.4068115234375,0.8969609260559082,-0.2552580505609512,0.2574069678783416,-35.90466384887695,-65.28317565917969,-25.549934005737303,2.974598002433777,-2.610525649785996,0.1447457313537596,-0.8617364645004273,-0.4610167443752287,-0.0661061339080333,-98.53228912353516,63.04413986206055,145.36961669921874,13.711954060837732,0.9675621080749076,4.376373561379632,0.979632989384326,-62.6276252746582,128.32731552124022,170.91955070495607
2788.205,-9.45827522277832,2.7083532333374025,-4.560184931755066,0.894524073600769,-0.2545083671808242,0.2581497967243195,-35.941514587402345,-65.3217758178711,-25.732545471191408,1.474253249168396,-1.7570098102092744,-0.4128729879856109,-0.861221992969513,-0.4563221096992492,-0.0645927943289279,-98.42799682617188,63.02966384887695,145.5362976074219,13.1107255965911,0.9653127273338482,3.091984450451384,0.9768341173723396,-62.48648223876953,128.35143966674804,171.2688430786133
2812.166,-8.29294729232788,8.010709190368653,-2.7921695947647094,0.891752302646637,-0.2499277055263519,0.2633736848831176,-35.874566650390626,-65.25211639404297,-26.00198440551758,0.2777297735214233,-0.5681590497493744,-0.2149240076541901,-0.8576972842216491,-0.4498613774776459,-0.0659099481999873,-98.39862518310548,63.01790924072266,145.6551971435547,14.007961235626334,0.9630364893656768,2.533396342130417,0.970782940347507,-62.52405853271485,128.27002563476563,171.65718154907228
2833.664,-6.213421511650086,13.359136962890624,-0.7396694421768188,0.8894682645797729,-0.2467848032712936,0.2662900030612945,-35.70137405395508,-65.07162170410156,-26.342015075683594,-1.2791320562362671,-0.1911003232002258,0.2114125907421111,-0.8511680960655212,-0.4459331393241882,-0.0697505690157413,-98.42337341308594,63.01348419189453,145.7487335205078,16.552900400299194,0.9609464382221472,2.7501269664521044,0.9634839862062762,-62.72199935913086,128.0851058959961,172.09074859619142
2853.019,-4.064220237731933,19.32523202896118,1.7789798498153686,0.8836049675941468,-0.2388320356607437,0.2695819675922393,-35.421775817871094,-64.76621475219727,-26.750905990600582,-3.354980444908142,-1.2075246095657348,0.9069295823574066,-0.8453600525856018,-0.4447566092014313,-0.0761127352714538,-98.46234893798828,63.02434768676758,145.8733642578125,21.10837698763953,0.9543443777733996,4.394433010647606,0.95831436392011,-63.04057312011719,127.79056243896484,172.6242702484131
2875.625,-1.6045934677124023,26.03477458953857,4.808769869804382,0.8763902306556701,-0.2373809278011322,0.2728818118572235,-35.04493789672851,-64.3161865234375,-27.214042282104494,-5.790843152999878,-4.007514065504074,2.589256089925766,-0.8436726927757263,-0.4433533251285553,-0.0812865749001502,-98.4571533203125,63.0763557434082,146.10303955078126,27.45735372513748,0.948167623996817,8.086196986825627,0.956586204767958,-63.41221542358399,127.39254226684572,173.31708183288575
2898.513,1.755846118927002,33.15463714599609,8.335858297348022,0.8686400175094604,-0.2317774206399917,0.275017899274826,-34.56863555908203,-63.71142730712891,-27.714566040039063,-8.395702981948853,-7.265241330862045,4.494287347793579,-0.843830692768097,-0.4351272583007812,-0.0858829289674758,-98.39417724609376,63.17867126464844,146.4565399169922,34.58162958907367,0.9401981778000672,12.629855509450786,0.9534106244664278,-63.82554168701172,126.89009857177734,174.17110595703124
2908.152,4.344833564758301,41.2940559387207,11.914190673828124,0.8607769131660461,-0.225502997636795,0.2739497542381287,-34.0028076171875,-62.93682632446289,-28.26049346923828,-11.760728454589843,-11.896549671888351,6.188336181640625,-0.8528419971466065,-0.427521538734436,-0.0867243438959121,-98.22659759521484,63.3323371887207,146.99993896484375,43.27943732909911,0.93110851388662,18.12757149334669,0.95821166075538,-64.22378997802734,126.2691635131836,175.26043243408202
2936.248,6.154401564598084,50.53186149597168,15.210287857055665,0.8476120591163635,-0.2207997530698776,0.278093409538269,-33.34533081054688,-61.973575592041016,-28.873341751098632,-15.445792198181152,-16.246593761444093,7.717670726776123,-0.863262677192688,-0.4223045885562896,-0.0833687290549277,-97.96318359375,63.53164520263672,147.72759704589845,53.15564320522061,0.9191919843752114,23.80396350712608,0.964950862226468,-64.61785278320312,125.50522079467774,176.60093879699707
2957.5840000000003,8.277670001983642,60.247056579589845,18.060590744018555,0.8311707496643066,-0.2190027147531509,0.2799228429794311,-32.5916072845459,-60.81844024658203,-29.5551872253418,-18.74454402923584,-19.71166248321533,8.636114597320557,-0.8708448886871338,-0.4139301359653473,-0.0744632422924041,-97.61866455078123,63.76213073730469,148.61181640625,63.44925750363032,0.9041551462359788,28.64406454298554,0.9673656226143844,-65.02705726623535,124.58057098388672,178.1670036315918
2978.029,9.038006687164309,70.30006637573243,20.646722412109376,0.8116682529449463,-0.2143506675958633,0.2919974088668823,-31.76709289550781,-59.46359100341797,-30.308334350585938,-20.960274696350098,-21.501188659667967,8.929636001586914,-0.8759161829948425,-0.4074273467063903,-0.0662088856101035,-97.23194274902345,64.00393753051758,149.5835693359375,73.85105759596277,0.8892441562877863,31.42163726543941,0.9684933625616216,-65.46484985351563,123.46752853393556,179.89190368652345
2988.016,8.469598388671875,80.34977722167969,22.95869827270508,0.788552212715149,-0.2170880556106567,0.3087719857692718,-30.91596565246582,-57.90630111694336,-31.11737823486328,-22.65367889404297,-21.9598690032959,8.995017433166504,-0.8809688448905945,-0.410875004529953,-0.0577673025429248,-96.84211730957033,64.24357070922852,150.58689880371094,84.0618617839381,0.8753722352600237,32.87637243246074,0.9739076113981892,-65.9261516571045,122.14987182617188,181.70427703857425
3018.43,8.233529663085937,90.16595611572264,25.19927024841309,0.7654823422431946,-0.2234601497650146,0.3229198694229126,-30.057427597045898,-56.1520248413086,-31.957264709472657,-23.53538284301758,-21.97419662475586,7.641630077362061,-0.878454041481018,-0.4128933012485504,-0.0505498811602592,-96.44548645019532,64.45004730224609,151.6100341796875,94.05033336021988,0.8615301772718148,33.19746417848162,0.9720249003770168,-66.38805885314942,120.6020721435547,183.56729888916016
3028.083,8.298830223083495,99.6786117553711,27.541556930541997,0.7440809726715087,-0.2262334465980529,0.33489990234375,-29.2076416015625,-54.20758590698242,-32.804390335083006,-23.35527572631836,-25.67179183959961,6.006287586688995,-0.8802983045578003,-0.4200914323329925,-0.0401791954413055,-95.86084289550782,64.62211151123047,152.83003845214844,103.80125310631036,0.847973335399393,35.81322864711944,0.976407461473982,-66.65320129394532,118.82969741821287,185.63442878723143
3050.646,7.349137973785401,108.7248275756836,29.981418228149412,0.71940758228302,-0.2312045693397521,0.3541880786418915,-28.404778671264648,-52.07530288696289,-33.639422225952146,-21.984138870239256,-32.156058883666994,4.13583937883377,-0.8828157424926758,-0.4270448625087738,-0.0270564118400215,-94.94510498046876,64.75431060791016,154.37940673828126,113.03452658823922,0.8352643668456811,40.55654237093329,0.9814819998772304,-66.5403263092041,116.82961349487304,188.0188289642334
3073.53,6.391567802429199,117.8090591430664,32.386389923095706,0.693483579158783,-0.2371920406818389,0.3825980484485626,-27.654902267456052,-49.75021057128906,-34.45615234375,-21.865516662597656,-37.14372177124024,1.4708914875984191,-0.886229646205902,-0.4266315460205077,-0.0129704365506768,-93.79042358398438,64.82746124267578,156.18671569824218,122.36634286901626,0.8284777615306711,44.47234232320329,0.9842397169652968,-66.13552131652833,114.57767181396484,190.6428680419922
3088.301,6.468525695800781,126.87607269287108,35.33578224182129,0.6680667519569397,-0.2419139862060546,0.4077660918235778,-26.95178184509277,-47.23105163574219,-35.237342834472656,-24.76419792175293,-40.05454025268555,-2.450856864452362,-0.8920748114585877,-0.4232642471790312,0.0102483047172427,-92.53954162597655,64.81749267578125,158.15966796875,131.88994096829214,0.8223255688259096,48.41172053161635,0.9882895935340376,-65.58775978088379,112.04854431152344,193.39701080322263
3110.68,6.600182151794433,135.64486083984374,38.42948913574219,0.6321410298347473,-0.245842546224594,0.4328822910785675,-26.2999813079834,-44.51870269775391,-35.975521850585935,-29.69076805114746,-44.425830078125,-4.896815860271454,-0.892488420009613,-0.4261573493480681,0.0353727972134947,-91.1812973022461,64.74667053222656,160.3522979736328,141.16612271328546,0.8081907387715124,55.08763905027276,0.9904073777740344,-64.88131599426269,109.26537322998048,196.32781982421875
3133.077,5.514402866363525,144.10016937255858,41.43238754272461,0.5911183476448059,-0.2554465353488921,0.4628549158573151,-25.727777862548827,-41.61446914672852,-36.667911529541016,-34.736565017700194,-43.42023620605469,-7.257479190826416,-0.8850849151611329,-0.4212400496006012,0.0543569356203078,-89.96202087402344,64.61201477050781,162.49558715820314,150.05933399884287,0.7967242216725539,57.893468694104186,0.982261958583079,-64.2342430114746,106.22648391723632,199.16349868774412
3155.762,3.113733100891113,152.3879821777344,44.41902618408203,0.5371402144432068,-0.2629045724868774,0.5202918887138367,-25.246664428710936,-38.505924987792966,-37.32550888061523,-40.81528358459472,-39.00052032470703,-9.549813842773435,-0.8826187968254089,-0.4189574360847473,0.0639975205063819,-89.06571197509766,64.41572189331055,164.41124877929687,158.81758586601168,0.8000945884043723,58.269552303992896,0.9794642569050344,-63.81904754638672,102.92164688110353,201.7367576599121
3176.784,2.470634365081787,158.6453063964844,47.563795471191405,0.4847567319869995,-0.2649475008249283,0.5725589990615845,-24.83293228149414,-35.236734771728514,-37.92593078613281,-47.927676391601565,-36.53750152587891,-9.473819541931151,-0.8854668021202088,-0.4225730001926421,0.0767550945281982,-88.4238784790039,64.21072463989258,166.19621887207032,165.6999424567771,0.8060490823642839,61.25871915232417,0.9842562395080816,-63.590946197509766,99.4474594116211,204.1221496582031
3187.872,2.013876724243164,163.64913940429688,50.28012924194336,0.4263726115226746,-0.2718643456697464,0.6158665597438813,-24.48132705688477,-31.83358764648437,-38.47212829589844,-51.678976440429686,-35.126145935058595,-7.263682222366333,-0.8708720564842224,-0.4191843628883361,0.076854757964611,-87.93123931884766,64.04437942504883,167.892919921875,171.27084746595605,0.8072173062749238,63.44698530036739,0.9696301984597412,-63.44991226196289,95.8779670715332,206.36504821777345
3211.1,1.4232842445373537,167.4760772705078,52.57004318237305,0.3522885710000992,-0.2809354394674301,0.6655055522918701,-24.188260650634767,-28.325910568237312,-38.96948699951172,-52.94018020629883,-31.35535659790039,-3.676912736892701,-0.8655405163764953,-0.4152501344680785,0.0683528065681457,-87.63992767333984,63.94935302734375,169.39484252929688,175.5850930441582,0.8146046166863143,62.42541436217116,0.9625950202340434,-63.45166702270508,92.27526359558104,208.36432952880855
3234.637,0.4203158617019654,169.8856658935547,54.10424423217773,0.2794242173433304,-0.2844353705644608,0.7211148738861084,-23.955154418945312,-24.74449615478516,-39.42705612182617,-53.51114807128906,-28.00234870910645,1.178011465072632,-0.8735332131385803,-0.4088584184646606,0.0628364197909831,-87.50422973632813,63.95743408203125,170.73480529785155,178.33141609109165,0.8323105507950128,61.41855570428682,0.9667455481907864,-63.549075317382815,88.70193023681641,210.1618614196777
3256.106,-0.1755117177963256,170.20277709960936,54.83483657836914,0.2092859208583831,-0.2877906709909439,0.7647513151168823,-23.78063545227051,-21.154749488830568,-39.84343032836914,-51.89757614135742,-23.55394115447998,7.732479429244995,-0.8769449830055237,-0.4002439141273498,0.0588557519018649,-87.51321716308594,64.10431289672852,171.87525939941406,178.8685223693508,0.8537132522867251,58.565946073338736,0.9660212294948948,-63.73258171081543,85.25906238555908,211.7186897277832
3277.904,-0.8354379892349243,170.2767120361328,54.85284271240234,0.1335726657882332,-0.3065551936626434,0.8057766556739807,-23.66391067504883,-17.56806163787842,-40.2335823059082,-47.357032775878906,-16.601684880256652,15.942606115341189,-0.8767073750495911,-0.3807593762874603,0.0498639315366744,-87.71117248535157,64.43008804321289,172.7030029296875,178.94928035016505,0.8807863083158329,55.06815949199485,0.9578650882376982,-64.04726181030273,81.9981496810913,212.9365852355957
3287.928,-2.067249131202698,169.70607299804686,53.635501098632815,0.0606565447524189,-0.3143942773342132,0.8376783013343811,-23.597728729248047,-14.010286712646485,-40.62701950073242,-43.90413970947266,-12.84914047718048,25.04381446838379,-0.9119135022163392,-0.3778396725654602,0.0432546861469745,-87.98243865966796,64.94789962768554,173.37052307128906,178.0453967744244,0.9013878061572692,54.9216234533714,0.9887936931555537,-64.38470993041992,78.95818634033203,213.99754257202147
3312.897,-4.957746815681458,169.15003051757813,51.405320739746095,0.0072962315753102,-0.3303785979747772,0.8737594366073609,-23.60953254699707,-10.484853839874267,-41.04955062866211,-38.9947998046875,-11.207375645637512,32.595777893066405,-0.9151005029678344,-0.3747654676437378,0.0420135177671908,-88.19307861328124,65.61672973632812,173.99114685058595,176.9129931936428,0.9379221351988788,54.40535115059289,0.9903289152700456,-64.58354606628419,76.10158357620239,215.04069747924805
3335.4750000000004,-5.084560751914978,167.86141662597657,49.03063583374024,-0.0527438579127192,-0.3503094434738159,0.90403311252594,-23.647121810913085,-7.0086673438549045,-41.50257415771485,-31.51832447052002,-10.329951977729795,35.57993698120117,-0.9474536776542664,-0.3787932634353638,0.0248309195041656,-88.27836456298829,66.34448547363282,174.5843536376953,175.01256874175792,0.974233490650908,50.16697173679815,1.0215646172073345,-64.6312427520752,73.35315281748771,216.08692779541016
3355.508,-4.530192542076111,166.11736145019532,47.35997619628906,-0.0980057774111628,-0.3577482521533966,0.916296374797821,-23.69445915222168,-3.571565979719162,-41.97131958007813,-25.70656681060791,-6.162964749336243,37.57269439697266,-0.9616621255874632,-0.3948026478290557,0.0215562436729669,-88.43776245117188,67.103125,174.9685852050781,172.84533583915373,0.9910750300189246,47.51247640447705,1.0409998837759296,-64.7433032989502,70.67469097971916,216.93990478515624
3377.41,-6.233168911933899,164.41123962402344,45.62752838134766,-0.1488893546164035,-0.378198516368866,0.9124294638633728,-23.803836059570312,-0.1641005218029022,-42.46138916015625,-20.206253242492675,-3.857354354858399,35.083000564575194,-0.968998157978058,-0.403189605474472,0.0158084198832511,-88.61585998535156,67.80262451171875,175.2116271972656,170.7912330881882,1.0015323200187842,42.82864081667329,1.0506273271916051,-64.81202392578125,67.96672503352166,217.6730163574219
3398.601,-6.793108201026916,162.26346740722656,44.62467041015625,-0.1939050167798995,-0.3981243908405304,0.926051127910614,-23.95315933227539,3.2091897308826445,-42.96047134399414,-13.38051929473877,8.209445571899414,33.06814689636231,-0.9618270874023438,-0.3862016439437866,-0.0097941972315311,-89.3181137084961,68.45425415039062,174.74734497070312,168.46634827450765,1.029040584835568,43.30425343049773,1.0391377090257303,-65.36495437622071,65.24506441950798,217.70781631469723
3417.726,-5.229827570915222,159.41837158203126,44.30437316894531,-0.2427178144454956,-0.405603951215744,0.9296229243278504,-24.100455474853515,6.54069750905037,-43.45252532958985,-8.990885162353516,14.448227691650391,30.125927352905272,-0.9849196434020996,-0.3956245601177215,0.0116026349365711,-90.2803466796875,69.04078369140625,173.9091064453125,165.5868359301427,1.0453368366689575,38.944509434739786,1.065761952855726,-66.17989120483398,62.50008618235588,217.36163177490235
3429.16,-5.803957986831665,156.61488342285156,44.13205795288086,-0.2829961627721786,-0.4080104172229767,0.9333161950111388,-24.28543701171875,9.826187038421631,-43.93653106689453,-6.996277904510498,16.83378686904907,30.70766258239746,-0.9671934604644776,-0.3921840786933899,0.0288640111684799,-91.3130889892578,69.63480072021484,172.94695739746095,162.84715728718942,1.059728743914274,38.35580669806105,1.048213976826584,-67.02765197753907,59.80861368179321,216.88348846435548
3450.3740000000003,-5.478450441360474,155.08733825683595,43.38971099853516,-0.3266353666782379,-0.4285595417022705,0.9098191380500792,-24.505305099487305,13.075515079498292,-44.44043960571289,-4.180962181091308,13.07377862930298,31.50479621887207,-0.9741011619567872,-0.3669567465782165,0.0326075192540883,-92.09666595458984,70.2537826538086,172.18995361328126,161.16997017811298,1.0594205343599303,38.72553103616877,1.0452045599518451,-67.59136085510254,57.178267574310304,216.63039321899413
3470.375,-3.4919374704360964,153.93240051269532,42.4849609375,-0.3739005565643311,-0.4311953902244568,0.9012962579727172,-24.723089599609374,16.28711929321289,-44.97273025512696,-1.752122402191162,8.155286502838134,33.121055603027344,-0.981177055835724,-0.3675069868564605,0.0317636990919708,-92.56486511230467,70.90125274658203,171.71883239746094,159.74228548865554,1.0697197758793218,40.34033049406446,1.0520046012388566,-67.8417755126953,54.61413345336914,216.6915626525879
3487.685,-2.4676109313964845,152.76611938476563,41.16415176391602,-0.4232337355613708,-0.4232781648635864,0.8912388801574707,-24.95721282958984,19.459286308288576,-45.5411491394043,-0.138697338104248,-5.975754070281982,31.231852340698243,-0.9729169130325316,-0.3753752529621124,0.057415291853249,-92.1876495361328,71.50942993164062,172.1115295410156,158.24983511747308,1.07658886527422,34.172187170619665,1.045876745337813,-67.23043670654297,52.05014362335205,217.6526786804199
3511.272,-1.9917949914932247,151.4623596191406,39.80807952880859,-0.4706121742725372,-0.4203549206256866,0.873819088935852,-25.225706481933592,22.589091110229493,-46.1502555847168,3.236176013946533,-13.212183284759522,29.54704933166504,-0.9765000700950622,-0.3497701823711395,0.0378241391852497,-91.27030181884766,72.09294891357422,172.99866943359376,156.6359536301755,1.081223879110638,33.595186159048026,1.0384790895115188,-66.04459533691406,49.50385780334473,219.1489250183105
3533.7000000000003,-0.5301496267318726,150.6066101074219,38.30619583129883,-0.5243517279624939,-0.4190621733665465,0.8387569785118103,-25.521977615356445,25.6895393371582,-46.813720703125,5.208890533447265,-17.118805122375488,27.84543113708496,-0.9852888703346252,-0.3350485205650329,0.0359836952760815,-90.02869262695313,72.64136199951172,174.18328552246095,155.42307450179814,1.0777413094085126,33.79953591631629,1.0416423550257785,-64.50671501159668,46.95182266235352,220.99700622558595
3555.487,-0.1089372396469116,149.99517211914062,36.38966369628906,-0.5751785457134246,-0.4113295912742615,0.8291398644447326,-25.871149826049805,28.755430221557617,-47.54701614379883,7.824215602874756,-20.88088188171387,25.475482940673828,-0.988528335094452,-0.3239985942840576,0.0330296808853744,-88.4339111328125,73.13277130126953,175.67967834472657,154.3738457604353,1.0925894694113096,34.61227608622893,1.0413625641001911,-62.562761306762695,44.37734107971191,223.2266944885254
3567.621,0.3532626867294312,149.06685791015624,34.31303939819336,-0.6301962614059449,-0.3967070579528808,0.8162653565406799,-26.279854202270503,31.779608154296877,-48.357363891601565,9.324736404418946,-22.94139518737793,23.467851638793945,-0.982010555267334,-0.3126145541667938,0.0419258065521716,-86.59037017822266,73.56979370117188,105.40075378417968,153.0059989682634,1.108036404365201,34.53973407619213,1.031721446834824,-60.31051597595215,41.790185546875,153.75811767578125
3590.415,0.2451717615127564,147.42820434570314,32.17850227355957,-0.6810645699501038,-0.38510023355484,0.7755742907524109,-26.773435592651367,34.75454978942871,-49.25104598999023,11.393945693969728,-22.84994239807129,22.866214752197266,-0.9860486507415772,-0.2974324882030487,0.0372721076011657,-84.64942932128906,73.98664245605468,35.17901306152344,150.94469916182328,1.10554139288458,34.52783377161585,1.0309210867528027,-57.875993728637695,39.23209266662597,84.43005905151367
3612.632,-0.941731548309326,146.1552703857422,29.32624397277832,-0.7349806785583496,-0.378522253036499,0.7442070960998535,-27.39842071533203,37.675289154052734,-50.262333679199216,13.218749809265136,-23.02512397766113,22.87108993530273,-0.9888227939605712,-0.2816145539283752,0.0340812809765338,-82.58432464599609,74.39097747802734,-34.95341796875,149.13868838435084,1.1160960623696716,35.34131107429703,1.0293418869162276,-55.18590393066406,36.71568832397461,15.308915710449208
3635.867,-1.9210660934448245,144.92699279785157,26.255772399902344,-0.7826557993888855,-0.3726865112781524,0.7189130306243896,-28.171588516235357,40.5330696105957,-51.41451721191406,15.175595474243163,-24.19237098693848,22.44001159667969,-0.9920506477355956,-0.2759130895137786,0.0404323086142539,-80.31092224121093,74.76140594482422,-104.9130401611328,147.36056151621003,1.130175034225022,36.55464519557756,1.0311456476962375,-52.13933372497559,34.22833633422851,-53.49852294921876
3657.757,-3.0108201026916506,143.20626831054688,23.146392822265625,-0.8275580763816833,-0.3624028921127319,0.6862890243530273,-29.115147399902344,43.317353057861325,-52.72490005493164,16.861155700683593,-25.105684280395508,21.807686233520503,-0.995395278930664,-0.2792106032371521,0.0578185133635997,-77.83830413818359,75.081982421875,-174.7065856933594,145.18829088476383,1.137151487376459,37.73329217038701,1.0365203256092188,-48.72315673828125,31.764629364013672,-121.98168563842772
3667.524,-6.465058970451355,141.44561157226562,20.150404930114743,-0.8514235138893127,-0.3557970106601715,0.6449336528778076,-30.304016876220704,46.0173698425293,-54.21853179931641,19.63353614807129,-26.10681800842285,21.77572898864746,-1.0082561254501343,-0.2722676396369933,0.0715337432920932,-75.13541564941406,75.36995544433594,-172.32310791015624,143.19325290709352,1.1267630157449815,39.694275415878685,1.0479863328030912,-44.83139877319336,29.35258560180664,-118.10457611083984
3692.406,-8.911619901657104,140.70342407226562,17.63884029388428,-0.881954038143158,-0.3667022943496704,0.6060205876827239,-31.760788345336916,48.6489860534668,-55.93863754272461,22.477231597900392,-28.291454696655272,21.259741592407227,-1.0061241269111634,-0.2643311083316803,0.0812529087066649,-72.12938079833984,75.60823516845703,-169.68934631347656,142.226069067909,1.1336677361280192,42.16532974945546,1.0443387344985644,-40.36859245300293,26.95924911499024,-113.75070877075196
3715.184,-10.581934118270874,139.79090270996093,15.763260078430177,-0.905512535572052,-0.3630240142345428,0.5557551085948944,-33.48739814758301,51.21111221313477,-57.8989974975586,25.28279838562012,-30.1282112121582,20.09557495117188,-0.9980355739593506,-0.263220676779747,0.0859424337744712,-68.89889297485351,75.77575073242187,-166.88505859375,141.19432093388278,1.1266243015908892,44.40483299529866,1.0363902699503718,-35.41149482727051,24.564638519287108,-108.9860610961914
3737.77,-14.19755153656006,138.0956298828125,14.610657882690427,-0.9285099148750304,-0.3596612751483917,0.5094603955745697,-35.53364219665527,53.68895263671875,-60.104199981689455,28.29206275939941,-31.02335357666016,19.376951217651367,-0.9854751467704772,-0.2511024266481399,0.0856305971741675,-65.53523178100586,75.88681640625,-164.00660400390626,139.6717894924399,1.122564366857765,46.393934715970666,1.0211739004655258,-30.001589584350587,22.19786376953125,-103.9024040222168
3747.644,-17.668475341796874,135.7086944580078,14.351228332519533,-0.9542509555816652,-0.3662039577960968,0.4630431354045868,-37.9139518737793,56.070848846435545,-62.563664245605466,29.45592918395996,-30.534630966186523,19.712268447875974,-0.9745233654975892,-0.2379957795143127,0.0778997957706451,-62.17303466796875,75.97065124511718,-161.15448913574218,137.67326150405452,1.1256765822753854,46.89159380716755,1.006541050750548,-24.259082794189453,19.89980239868164,-98.59082489013672
3769.921,-19.1878345489502,132.5413589477539,14.54999237060547,-0.9818633556365968,-0.3666184663772583,0.4076437294483185,-40.604241943359376,58.346717834472656,-65.28764114379882,30.01680374145508,-29.385165786743165,18.143127250671387,-0.96866717338562,-0.2229467093944549,0.0730730712413787,-58.93626098632812,76.00782775878906,-158.44349060058593,134.81458209080878,1.1263115086406796,45.85738531576941,0.996900640304666,-18.33201904296875,17.661109924316406,-93.15584945678712
3795.307,-21.531298828125,128.46789093017577,14.744604682922365,-0.9984678626060486,-0.3557193219661713,0.3702734291553496,-43.61859817504883,60.48839569091797,-68.27463912963867,29.51909484863281,-28.36364669799805,15.606688499450684,-0.9758792638778686,-0.2145549833774566,0.0829852797091006,-55.87614440917969,75.98123626708984,-155.9101531982422,131.1988001463557,1.1242350451075471,43.89875184649407,1.003101426437992,-12.25754623413086,15.492840576171876,-87.63551406860351
3817.494,-24.443073654174803,123.80489044189451,15.317353248596191,-1.0107871651649476,-0.3514741778373718,0.3319619476795196,-46.98543167114258,62.48302688598633,-71.5379623413086,26.68329277038574,-26.30128059387207,14.33414192199707,-0.9754937648773192,-0.2090053528547286,0.0906694278120994,-53.0843391418457,75.92770080566406,-153.60153198242188,127.19305243545054,1.1224231709266863,40.22915092160811,1.0020605165276468,-6.098907470703124,13.444673919677737,-82.06356964111328
3837.644,-26.912438201904298,118.992626953125,15.9207576751709,-1.0210588455200196,-0.3485071778297424,0.2915788948535919,-50.71353607177734,64.32162551879883,-75.09488525390626,24.72526550292969,-23.17494430541992,13.54874668121338,-0.9744988679885864,-0.204289960861206,0.0890034705400466,-50.60581970214844,75.87689514160157,-151.58247985839844,123.1342430011114,1.119248172914294,36.64758062940162,0.9999210297447771,0.1077163696289062,11.555269622802737,-76.48759460449219
3847.64,-28.311611557006835,113.75770568847656,16.725415802001955,-1.026016616821289,-0.3457687437534332,0.2478174299001693,-54.77926483154297,65.99642410278321,-78.94207763671875,24.120262908935548,-20.454746627807616,11.591303062438964,-0.9697046637535096,-0.1953889995813369,0.0885658606886863,-48.43073425292969,75.81276397705078,-149.8698272705078,118.5277264363312,1.1122670775184866,33.9061319333492,0.9933184098377904,6.34853057861328,9.816339874267578,-70.92774963378906
3869.794,-27.88769149780273,107.77657928466796,17.614823722839354,-1.023896622657776,-0.3510794043540954,0.2028969392180442,-59.11988372802735,67.4947494506836,-83.05036926269531,23.38494873046875,-18.274981880187987,11.296299743652344,-0.9689059734344484,-0.1974790334701537,0.0888761162757873,-46.44910507202148,75.75722808837891,-148.34738464355468,112.8036817259543,1.1033659080550375,32.104687388081054,0.99299623480148,12.67077865600586,8.262478637695313,-65.29701538085938
3887.354,-26.16680145263672,101.72217712402345,18.49394874572754,-1.0241024255752564,-0.3452529072761535,0.1629613921046256,-63.67067031860351,68.82251586914063,-87.38177032470703,23.848970794677733,-14.54527187347412,11.292510223388671,-0.9601598381996156,-0.1920586109161376,0.082653647661209,-44.701350402832034,75.7465591430664,-147.0781707763672,106.768717857056,1.0946851412858276,30.81881065998617,0.982912409197332,18.96931991577149,6.924043273925781,-59.69640045166015
3909.904,-24.86300163269043,95.30190887451172,19.01778030395508,-1.023900866508484,-0.339687293767929,0.1396918416023254,-68.3702163696289,69.97136993408203,-91.8674072265625,25.56285858154297,-10.138888931274414,11.03181209564209,-0.955085062980652,-0.1804081737995147,0.0835474029183387,-43.17084197998047,75.7905288696289,-146.07042236328124,100.42404085130696,1.0890193028058746,30.474865840401588,0.9759729401807756,25.19937438964844,5.819158935546875,-54.20301513671875
3932.106,-23.61998405456543,87.9411849975586,19.192880630493164,-1.016388487815857,-0.3314316928386688,0.1104159921407698,-73.11812820434571,70.9406524658203,-96.40259094238282,24.99827461242676,-6.10913872718811,9.756595134735107,-0.9547005772590638,-0.1645020514726638,0.0913639530539512,-41.90964126586914,75.872802734375,-145.3329864501953,93.19961637501856,1.0755135310997157,28.462391369940995,0.9735216018039304,31.20848693847656,4.932150268554688,-48.9303955078125
3947.543,-22.5419548034668,80.2853759765625,18.87137489318848,-1.0139198541641234,-0.324207854270935,0.0861646145582198,-77.82063751220703,71.735009765625,-100.89083709716796,22.44320297241211,-1.234737253189087,9.11025161743164,-0.9585421800613404,-0.1528504699468612,0.0970548748970031,-40.97077102661133,76.01670379638672,-144.87840270996094,85.69928019425711,1.0686298535543446,25.3410718326196,0.975937735744174,36.849866485595705,4.281694030761718,-43.98756561279297
3969.812,-21.841043853759764,72.85184249877929,18.20494079589844,-1.01128032207489,-0.3190215826034546,0.0700281865894794,-82.3972900390625,72.3679214477539,-105.24610443115236,20.697948455810547,3.2531898021698,8.147754001617432,-0.957125186920166,-0.1434804171323775,0.1010893017053603,-40.33656692504883,76.21315155029296,-144.70611877441405,78.38447416248209,1.0634887296492832,23.26555991344569,0.973249404421663,42.06072311401367,3.8452301025390634,-39.46001434326172
3993.57,-20.84459228515625,65.42355041503906,17.22281436920166,-1.0100245952606202,-0.3242116570472717,0.0616018064320086,-86.74751281738281,72.85090484619141,-109.37419128417967,19.20228500366211,6.979844617843628,7.827259254455567,-0.9656474590301514,-0.1435484170913696,0.1132860347628592,-39.92546615600586,76.45493927001954,-144.7347381591797,70.8978490601958,1.063286990165063,22.433209974249863,0.982982392030743,46.82204666137695,3.604034423828125,-35.360546875
4014.983,-18.6041259765625,58.1044418334961,16.081825256347656,-1.0097729682922365,-0.3252323925495147,0.0496885590255259,-90.77196655273436,73.20846252441406,-113.20057525634766,17.817233657836915,9.971334600448609,7.226779174804688,-0.9743786573410034,-0.1357228502631187,0.1258812397718429,-39.701750946044925,76.73049468994141,-144.92926635742188,63.20683825762217,1.0623351669094578,21.97262021912539,0.9921710362096564,51.07021560668945,3.522032165527344,-31.72869110107421
4036.847,-14.940476608276366,51.4146598815918,14.865792083740237,-1.012273120880127,-0.3291514158248901,0.0434949822723865,-94.39665832519532,73.46477661132812,-116.6819091796875,17.070524597167967,12.40826416015625,7.345621395111084,-0.9814139485359192,-0.1306737229228019,0.1367390200495719,-39.59154968261719,77.04020385742187,-145.22637939453125,55.68444036578266,1.065509503399839,22.476965950007035,0.9999397888054018,54.805108642578126,3.57542724609375,-28.54447021484375
4047.500000000001,-10.88884048461914,45.073220825195314,13.37347469329834,-1.013317894935608,-0.3271710038185119,0.0434521801769732,-97.56673889160156,73.64126739501953,-119.7725357055664,16.616960525512695,13.799018096923827,7.264727592468262,-0.9889630198478698,-0.1320574805140495,0.1489960342645644,-39.56056900024414,77.3624038696289,-145.59450073242186,48.31953793094697,1.065897464765158,22.959891258457507,1.0092252264964652,58.00616989135742,3.721136474609375,-25.82196502685547
4069.841,-7.495371460914612,39.02794952392578,11.737983894348144,-1.018607258796692,-0.323959219455719,0.0474246159195899,-100.2682373046875,73.75771942138672,-122.44629974365236,15.66874008178711,14.827900886535645,6.808210182189941,-0.9987158179283142,-0.1281359359622001,0.1603087067604064,-39.61924514770508,77.68916168212891,-146.03479919433593,41.50824922216665,1.0700015937912988,22.77703286317011,1.019817519935588,60.64899215698242,3.931442260742188,-23.588499450683592
4089.879,-4.8279108762741085,32.906925201416016,9.95163402557373,-1.0232974529266357,-0.3235418915748596,0.0482355415821075,-102.4901351928711,73.82887573242188,-124.67687683105468,13.413734817504883,15.239018630981445,6.0640589714050295,-1.0065465092658996,-0.1256884589791297,0.1688409805297851,-39.79381790161133,78.00750885009765,-146.54378356933594,34.86812781474386,1.07436374857061,21.366026746398862,1.0284668659878466,62.69631729125977,4.178633117675782,-21.86690673828125
4112.336,-1.3964439153671264,26.649933052062988,8.210353088378906,-1.024465274810791,-0.3314600944519043,0.0513320326805114,-104.18765716552734,73.86745758056641,-126.43448791503906,9.922025012969971,16.18083610534668,4.910559368133545,-1.007036602497101,-0.1367406487464904,0.1708638221025467,-40.22369155883789,78.31665954589843,-147.2366516113281,28.39850669003126,1.0781241256772254,20.260079751767822,1.030703882444516,63.963965606689456,4.449201965332032,-20.802163696289064
4135.062,4.146529793739319,20.415562915802003,6.645350742340088,-1.0249844312667846,-0.340838885307312,0.0582533702254295,-105.32732543945312,73.88960418701171,-127.72745819091796,8.014264392852784,17.29943504333496,3.605962800979614,-1.0080213785171508,-0.1417794346809386,0.1674204021692275,-40.90762023925781,78.62068634033203,-148.14418029785156,24.424171444063138,1.0819699830689606,20.054264149194104,1.0317441965534635,64.41970520019531,4.731082153320313,-20.416722106933594
4157.277,10.864075112342835,13.93550741672516,5.2031630992889415,-1.0258280277252196,-0.3396796941757202,0.0674934923648834,-105.85375213623048,73.91246337890625,-128.52374725341798,7.36415433883667,17.85367088317871,2.5680845260620115,-1.010214376449585,-0.1319358646869659,0.1645801603794097,-41.73389129638672,78.9194091796875,-149.1781036376953,23.24806976790304,1.0829664026356502,19.95760126171048,1.032369154393609,64.11986083984375,5.00694580078125,-20.654356384277342
4167.148,16.949098825454712,6.986945176124574,3.552882899343968,-1.0255119562149049,-0.3332352936267853,0.0733846858143806,-105.75506896972657,73.9409393310547,-128.79686584472657,6.202217769622803,17.529524993896484,1.574097716808319,-1.0093631744384766,-0.1222911104559898,0.1605344802141189,-42.650926971435545,79.20022125244141,-150.27577209472656,23.567352596587547,1.081074053114104,18.91964879217373,1.0297799099735738,63.10414199829101,5.259281921386719,-21.47890625
4194.727000000001,22.750498867034917,-0.1226356267929077,1.803449811041355,-1.0232543706893922,-0.3325722098350525,0.0788761600852012,-105.0260498046875,73.97081604003907,-128.53527221679687,4.519105100631714,16.881866264343262,0.5049091935157776,-1.0058666110038756,-0.1175527796149253,0.1505494087934493,-43.67777481079101,79.45693969726562,-151.45022277832032,26.01569867686417,1.0790835460263442,17.7472908005858,1.0242506188015603,61.34827499389648,5.486123657226562,-22.91495056152344
4215.776,28.7397876739502,-7.746581435203552,-0.0687134847044944,-1.0248835325241088,-0.3285427629947662,0.0839948773384094,-103.63395385742189,73.99911956787109,-127.7081527709961,3.8917802810668944,15.014777565002442,-0.0092318654060364,-1.006137442588806,-0.1090245366096496,0.1367687046527862,-44.66802062988281,79.68187103271484,-152.5747314453125,31.5340103793942,1.079770088509127,15.871930438593967,1.0215679224862364,58.96593322753906,5.68275146484375,-24.866578674316408
4237.3640000000005,33.33548011779785,-16.108138728141785,-2.0839472874999045,-1.027997088432312,-0.3208952665328979,0.0882379457354545,-101.5458465576172,74.01624298095703,-126.25297393798829,3.496424102783203,13.259298515319824,0.0309719204902648,-1.0026228547096252,-0.1054670929908752,0.1232578635215759,-45.59057083129883,79.8828125,-153.61878356933593,38.23264806623677,1.0806429093077208,14.078651084649522,1.0162061495711694,55.95527572631836,5.866569519042969,-27.365809631347656
4248.476000000001,36.94708633422852,-25.160278511047363,-4.307318268716335,-1.030746078491211,-0.317677503824234,0.0943400770425796,-98.75543518066408,74.00065765380859,-124.14122619628908,2.352731800079346,12.543182373046877,0.0842936873435973,-0.9975638389587402,-0.1088525906205176,0.1111337602138518,-46.544122314453126,80.07232971191407,-154.66449584960938,45.56975749387971,1.0829180821107944,13.01896862759059,1.0100391672510045,52.21131286621094,6.071672058105468,-30.523269653320312
4269.610000000001,40.04244956970215,-34.766984367370604,-6.386334943771362,-1.0325328350067138,-0.3180186927318573,0.1067472323775291,-95.25198822021484,73.9294921875,-121.3508514404297,0.4377074241638185,12.76838436126709,0.0493013858795165,-0.995329213142395,-0.1138269394636153,0.1017119005322456,-47.62032241821289,80.26082763671874,-155.7902587890625,53.98147918780023,1.0858826785419575,13.122548553473328,1.007135654340812,47.63166580200196,6.33133544921875,-34.43940734863281
4287.107,42.62634963989258,-44.87180938720703,-8.257535934448242,-1.0354857444763184,-0.3231187880039215,0.1214736491441726,-91.06595916748049,73.77430419921875,-117.90067291259766,-0.141619539260864,12.729114723205566,0.1164960861206054,-0.9957722544670105,-0.120032387971878,0.0965529695153236,-48.75269775390625,80.44355773925781,-156.95924377441406,63.07774468852487,1.0918963628772986,13.133298537275266,1.007758236504033,42.31326141357422,6.669253540039063,-39.058570861816406
4309.69,45.22110824584961,-54.97776565551758,-9.793957996368407,-1.037275314331055,-0.3243452608585357,0.1436000064015388,-86.26142883300781,73.50629577636718,-113.85538024902344,-0.7875701904296873,11.992048835754394,-0.1549333810806274,-0.9987437963485718,-0.12407938092947,0.1059492304921149,-49.85481033325196,80.60267181396485,-158.084033203125,72.36237019418698,1.097106426797364,12.67678426482252,1.0123002789515645,36.40661849975586,7.096376037597656,-44.22865295410156
4330.275000000001,47.35977859497071,-64.68272552490234,-10.953996467590333,-1.0398303747177124,-0.3204516112804413,0.1702009201049804,-80.96425323486328,73.09713592529297,-109.33312377929688,-3.553962898254394,10.500268459320068,-0.9902795314788818,-1.003542149066925,-0.1201415672898292,0.119431485235691,-50.91017303466797,80.72259674072265,-159.1081573486328,81.18728582858009,1.102414798495934,12.430889021759956,1.0180978499321252,30.054080200195312,7.625460815429688,-49.77503356933594
4357.386,48.4092514038086,-73.71468048095703,-11.758208656311036,-1.0425650596618652,-0.3235063254833221,0.1975243240594863,-75.36748046875,72.51579132080079,-104.50713348388672,-7.229165744781494,8.368016767501832,-2.173702073097229,-1.007827377319336,-0.1219343423843383,0.1247919440269469,-51.92978820800781,80.79088745117187,-160.0267364501953,89.07246351944215,1.1103964770944832,12.78442405581112,1.0231002959149778,23.43769226074219,8.275096130371093,-55.5196029663086
4367.064,50.17272872924805,-82.0689208984375,-12.129658317565918,-1.0480636835098267,-0.3294281721115112,0.2260239601135253,-69.63361587524415,71.74200897216797,-99.55576629638672,-9.590268039703368,5.382517921924591,-3.287406659126282,-1.0105036497116089,-0.1238514393568038,0.1257371380925178,-52.797900390625,80.80061798095703,-160.74862060546874,97.02113059012596,1.122442275870159,13.14679637487556,1.0260766969652495,16.83571548461914,9.058609008789062,-61.19285430908203
4389.464,52.71487808227539,-89.98434753417969,-12.036371803283693,-1.052257251739502,-0.3233082890510558,0.2540669858455657,-63.89732208251953,70.76896820068359,-94.6302017211914,-12.674859046936032,2.846457004547119,-4.221870756149292,-1.0102591276168824,-0.1219150900840758,0.123734600841999,-53.54591217041016,80.76395874023437,-161.28508605957032,105.06537543789528,1.1301559656304678,14.457727831161318,1.0253697832233837,10.351409912109377,9.99499053955078,-66.6548843383789
4412.206,54.12426528930664,-97.70988159179689,-11.661500358581543,-1.054353618621826,-0.3157674074172973,0.277809190750122,-58.30888061523437,69.58581848144532,-89.85826721191407,-16.061131095886232,1.2434765219688415,-4.85476336479187,-1.0073479175567628,-0.1196430832147597,0.1163221701979636,-54.25425796508789,80.70026092529297,-161.71141967773437,112.39447679435136,1.1356647260903423,17.06974018377944,1.0213014291649585,4.054622650146484,11.114442443847656,-71.85315246582032
4434.473,54.67040100097656,-105.30560913085938,-11.073419570922852,-1.0542386770248413,-0.3146828889846801,0.3030990719795227,-52.97813110351562,68.1850082397461,-85.33262176513672,-19.38937091827393,0.2783493340015411,-5.47206449508667,-1.006033968925476,-0.1261673897504806,0.1105959609150886,-54.99249649047852,80.61363983154297,-162.09828186035156,119.24196597725384,1.141873162606441,20.229833060946454,1.0199870163453482,-2.014365386962891,12.428631591796876,-76.76566009521484
4455.344,55.11884384155273,-112.64688568115234,-10.115604972839355,-1.052286648750305,-0.3076961874961852,0.3305672109127044,-47.960567474365234,66.57514419555665,-81.10773315429688,-22.48316478729248,-0.4594083607196808,-6.067701911926269,-1.002371108531952,-0.1287922292947769,0.1065369009971618,-55.759003448486325,80.50832977294922,-162.44988708496095,125.91732900802356,1.14601334095697,23.30659408425425,1.0162383585515835,-7.798435974121094,13.933185577392578,-81.34215393066407
4477.035,54.719811248779294,-119.87342529296876,-8.846166896820069,-1.045975971221924,-0.2990033388137817,0.3625704169273376,-43.29578704833985,64.76203842163086,-77.20622100830079,-26.03692741394043,-0.7053169667720794,-6.56391487121582,-0.9978713393211364,-0.132034346461296,0.106399743258953,-56.59083023071289,80.3906036376953,-162.79569396972656,132.21444122213356,1.1478245358241703,26.876669248230986,1.0122289194143217,-13.295043182373046,15.628565216064452,-85.58947296142578
4488.253000000001,53.616189575195314,-126.60719604492188,-7.479165935516358,-1.0377277135849,-0.2913907468318939,0.3966209113597869,-39.01559410095215,62.757423400878906,-73.64720764160157,-29.671941375732423,-1.0664349853992463,-7.258439540863037,-0.994593346118927,-0.1318038672208786,0.1085027411580085,-57.47367553710937,80.2568344116211,-163.12303771972657,137.83892437382505,1.1496940813835796,30.57831914954344,1.0091779065624824,-18.458081436157222,17.499411010742186,-89.475830078125
4509.525,52.36847763061523,-132.67870635986327,-6.0067760944366455,-1.0267247557640076,-0.283688074350357,0.4292996108531952,-35.12663459777832,60.57851943969727,-70.43629150390625,-32.872398376464844,-1.4761079490184783,-8.039281177520753,-0.9946270704269408,-0.1345339059829711,0.1064646884799003,-58.41346817016601,80.10539398193359,-163.44699096679688,142.88113832612848,1.1497165200774095,33.88898186674883,1.0093645249463947,-23.286833572387696,19.526874542236328,-93.01069946289064
4532.192,50.83088836669922,-137.87683868408203,-4.540644431114196,-1.0146100282669068,-0.2768443763256072,0.4650701284408569,-31.622866058349608,58.246569061279295,-67.56433563232422,-35.52302627563476,-2.134008228778839,-8.791233539581299,-0.9903175115585328,-0.1392091363668441,0.1045698598027228,-59.37162780761719,79.9328125,-163.7342559814453,147.0965610471273,1.1512445329248977,36.668641989418006,1.0055553082301958,-27.74876174926758,21.6862434387207,-96.1699203491211
4552.389,50.058292388916016,-142.54203186035156,-2.861436438560486,-0.9973751544952392,-0.2753769993782043,0.4985223770141601,-28.460200119018555,55.77970199584961,-65.00209121704101,-37.56004028320312,-2.8827189922332765,-9.933454895019532,-0.98672434091568,-0.1495411157608032,0.1019795402884482,-60.35278167724609,79.72891845703126,-164.00189208984375,151.1438904664468,1.149696131753282,38.97766068246438,1.0033535749055802,-31.89258155822754,23.94921646118164,-98.99980087280274
4575.299,49.98337936401367,-146.5438232421875,-1.264472222328186,-0.9775916576385498,-0.2663707375526428,0.5325316607952117,-25.594999694824217,53.19644470214844,-62.7232421875,-38.224177551269534,-3.269105625152588,-11.26427173614502,-0.98373783826828,-0.1584813684225082,0.0978946417570113,-61.36990661621094,79.49559478759765,-164.29019165039062,154.86753564820984,1.146146526083769,40.02986265141047,1.0015000145825168,-35.77490692138672,26.29915008544922,-101.56694946289062
4596.924,49.65028839111328,-150.33936767578126,0.2928457021713256,-0.9559023141860962,-0.2523446589708328,0.5648472845554352,-22.99487190246582,50.50830078125,-60.69208984375,-38.61676559448243,-3.287462663650513,-12.777040481567385,-0.9827348589897156,-0.168625646829605,0.095297086238861,-62.44835739135742,79.23206329345703,-164.62897033691405,158.35380214192887,1.1402947994696129,40.894358974467245,1.001872824828105,-39.4534854888916,28.72376251220703,-103.93688049316408
4607.632,48.41328506469726,-153.68117065429686,1.6946537256240846,-0.9282156467437744,-0.238416102528572,0.5984615802764892,-20.64937629699707,47.72634048461914,-58.8829345703125,-39.48999481201172,-2.37252254486084,-14.576292037963867,-0.9775074362754822,-0.1776992559432983,0.0928151667118072,-63.68054428100586,78.94073486328125,-165.10309753417968,161.18297542392355,1.1318702415849289,42.30855750926224,0.9979840328914756,-43.03116798400879,31.21439437866211,-106.22016296386718
4635.424000000001,46.58827438354492,-156.54215393066406,3.040218877792358,-0.8953514695167542,-0.2264542669057845,0.6309111833572387,-18.540950012207038,44.86445999145508,-57.26718978881836,-40.24639282226563,-0.5645253658294678,-16.83081474304199,-0.9747675776481628,-0.1917900383472442,0.0846086174249648,-65.1628662109375,78.6181869506836,-165.81934509277343,163.4460217539605,1.1207641794555063,43.8508753612807,0.99722192202381,-46.62191619873047,33.75372695922852,-108.55215530395508
4655.603,43.70439910888672,-158.9409942626953,4.031321287155151,-0.8617396473884582,-0.2106822341680526,0.6626925349235535,-16.666450881958006,41.934835815429686,-55.83197174072266,-39.45497665405274,2.036740064620972,-18.67130641937256,-0.9661014914512634,-0.2037486851215362,0.0741550303995608,-66.89208450317383,78.27608947753906,-166.8077850341797,165.01012081399776,1.1093050941338405,44.03041099129535,0.9906566220286616,-50.22563362121582,36.341253662109374,-110.97581329345704
4676.921,40.047540283203126,-160.9862518310547,4.801109981536865,-0.8254862070083618,-0.1973533123731612,0.6944158673286438,-15.020887565612792,38.94666137695312,-54.55077590942383,-38.04379310607911,5.916838455200195,-19.49311294555664,-0.9610889911651612,-0.2087468594312667,0.0630830623209475,-68.90793151855469,77.94306335449218,-168.12054138183595,166.07536148889776,1.0989728169407995,43.748830449706034,0.9860621165238116,-53.887043952941895,38.996401977539065,-113.56976547241212
4696.900000000001,35.49132652282715,-162.3933563232422,5.487620830535889,-0.7831841707229614,-0.1872308999300002,0.7205706596374511,-13.602183151245118,35.895290756225585,-53.412007904052736,-36.63451995849609,10.197276926040647,-20.596149063110357,-0.9584789514541626,-0.2125910997390746,0.0522599302232264,-71.22317962646484,77.61150817871093,-169.77022705078124,166.43910722839573,1.082659561628684,43.93098520483532,0.9835378752945204,-57.62099647521973,41.71621742248535,-116.35821914672852
4706.974,30.940373992919923,-163.17611083984374,5.967977046966553,-0.7404093265533447,-0.1805302739143371,0.7471294283866883,-12.393171501159667,32.800301742553714,-52.396759033203125,-34.06154365539551,15.101025104522703,-21.318544387817383,-0.9580641746520996,-0.2222431868314742,0.0406670864671468,-73.8330795288086,77.27975769042969,-171.7772003173828,166.32663337131086,1.0695357544929422,43.7936886644228,0.9845191553612882,-61.439908027648926,44.47945594787598,-119.38044128417968
4729.536,26.5507137298584,-163.85047912597656,6.146944999694824,-0.6942264080047608,-0.16941659450531,0.7761638641357422,-11.370992851257324,29.680318069458007,-51.48723831176758,-30.11673164367676,20.00080299377441,-21.45073013305664,-0.9543026328086852,-0.230492666363716,0.0281499551841988,-76.66453857421875,76.94912109375,-174.09385681152344,166.24450287401822,1.0580600055477094,42.88865189309308,0.9824684499301736,-65.29354572296143,47.26880302429199,-122.60661849975584
4751.844,21.946192932128906,-164.3137451171875,6.414744186401367,-0.6411680221557617,-0.1565640658140182,0.800696873664856,-10.521742630004884,26.54060516357422,-50.6514389038086,-25.84144401550293,25.01323471069336,-20.324953079223636,-0.9617573380470276,-0.2373191714286804,0.0213849522406234,-79.67332763671875,76.63734130859375,-104.6834228515625,166.03734238587535,1.0409985349117736,42.2595771825684,0.9912981780973632,-69.15158500671387,50.096736145019534,-54.03198394775391
4766.907,16.398205471038818,-164.22586059570312,6.580091857910157,-0.5821608304977417,-0.1509088814258575,0.8247919917106629,-9.855776023864744,23.391136169433597,-49.88657684326172,-22.26480865478516,28.840282440185547,-19.580545043945317,-0.9820357322692872,-0.2454235076904296,0.0172714498126878,-82.78609771728516,76.32542419433594,-35.45350341796875,165.32927430445832,1.0252371852729527,42.49579170677123,1.0127752450312333,-72.93032169342041,52.93428802490234,14.433073425292967
4789.3150000000005,11.017136597633362,-163.73370666503905,6.77054271697998,-0.5185070216655732,-0.1415297850966453,0.8506405711174011,-9.356348037719728,20.258922958374026,-49.15423812866211,-18.513823127746583,30.57497749328613,-17.032917022705078,-0.9933150291442872,-0.2570724010467529,0.0162641655886545,-85.80973663330079,76.03987579345703,33.7918212890625,164.44215756497724,1.0111393622271898,40.294934825811296,1.026367612010333,-76.45338859558106,55.780952835083006,82.94605941772461
4812.053,5.998537564277649,-162.69815063476562,6.84045639038086,-0.4508661925792693,-0.1405731335282325,0.871703028678894,-9.011219215393066,17.149655723571776,-48.46359405517578,-14.252330970764165,29.608574676513676,-12.937184762954711,-1.0079405665397645,-0.2596881240606307,0.0148735959315671,-88.53742980957031,75.81224212646484,103.2571014404297,163.14799480372167,0.9965831587878944,35.89056869613582,1.0411664468830346,-79.52621059417724,58.66258640289307,151.72069549560547
4835.528,1.3106609582901003,-160.9775177001953,6.897271728515625,-0.3805200606584548,-0.1366178259253501,0.8823002338409424,-8.803566932678223,14.062977981567382,-47.79352493286133,-10.83648147583008,27.37679252624512,-7.212042665481567,-1.0152361392974854,-0.2540131509304046,0.0251318467780947,-90.89730987548828,75.68088226318359,173.03512878417968,161.2725085477663,0.975672872853548,31.24465421744503,1.0471033706066826,-82.09374294281005,61.61790428161621,220.82865371704105
4855.437,-3.095935034751892,-158.46575927734375,6.554696750640869,-0.312557128071785,-0.138257373869419,0.8968743443489074,-8.726246070861816,11.013203620910645,-47.14837112426758,-9.703708076477051,21.505127811431883,-1.2041824817657472,-1.009133529663086,-0.2542134106159209,0.0314201198518275,-92.71421966552734,75.65514526367187,171.35672302246093,158.7079661946546,0.9643722473575812,26.53599431674156,1.0414096017776395,-83.98797359466553,64.64194164276122,218.5050941467285
4866.653,-6.320655512809753,-155.47463684082032,6.270939636230469,-0.2430318593978881,-0.1352295354008674,0.8996484994888305,-8.748322486877441,8.0112886428833,-46.52401428222656,-6.038560295104983,11.305936527252197,4.991148710250855,-0.9519198417663576,-0.2614715337753295,0.0438096974045037,-93.63026580810546,75.75066833496093,170.53762817382812,155.77932046725192,0.9463483982719288,23.433265282633226,0.9895335117001468,-84.88194332122802,67.73937969207763,217.0616424560547
4889.244,-8.821134757995605,-151.9634521484375,5.676326942443848,-0.181765954196453,-0.1464395970106124,0.903938400745392,-8.860793304443359,5.070494365692139,-45.92442169189453,1.4549873352050766,6.1990984916687015,2.5843310832977293,-0.978134560585022,-0.2819144070148468,0.0138414401561021,-93.9969207763672,75.79923553466797,170.13990478515626,152.37220527834808,0.9376587883152931,23.718874609768037,1.021360267138982,-85.13612747192383,70.72874116897583,216.0643264770508
4911.6140000000005,-10.032185077667236,-148.46123046875,5.410717391967774,-0.1215966664254665,-0.1436890065670013,0.8973866462707519,-9.02637538909912,2.192299032211304,-45.33890228271484,6.434782409667967,7.390802669525146,0.1100669860839843,-0.9871439695358276,-0.2588351011276245,0.0067090984433889,-94.34722747802736,75.79518127441406,169.66538696289064,148.92249156472104,0.9206300684258693,26.25974874642348,1.026185649536341,-85.32085208892822,73.60288224220275,215.00428924560543
