Timestamp (ms),Wrist Gyroscope X (deg/s),Wrist Gyroscope Y (deg/s),Wrist Gyroscope Z (deg/s),Wrist Accelerometer X (g),Wrist Accelerometer Y (g),Wrist Accelerometer Z (g),Wrist Roll (deg),Wrist Pitch (deg),Wrist Yaw (deg),Arm Gyroscope X (deg/s),Arm Gyroscope Y (deg/s),Arm Gyroscope Z (deg/s),Arm Accelerometer X (g),Arm Accelerometer Y (g),Arm Accelerometer Z (g),Arm Roll (deg),Arm Pitch (deg),Arm Yaw (deg),Wrist Gyroscope Magnitude (deg/s),Wrist Accelerometer Magnitude (g),Arm Gyroscope Magnitude (deg/s),Arm Accelerometer Magnitude (g),Difference Roll (deg),Difference Pitch (deg),Difference Yaw (deg)
0.0,10.179831504821776,32.45070266723633,12.586190223693848,-0.8676666021347046,0.0203960333019495,0.5181357860565186,-2.613403797149658,58.63331985473633,-35.698246002197266,8.722919464111328,-21.557466506958008,3.196287155151367,-0.9485905766487122,-0.1136614754796028,0.1257860362529754,-40.64186477661133,78.8865737915039,-143.03053283691406,36.26415940582309,1.010804641573655,23.47402687555278,0.9636208486905892,-38.02846097946167,20.25325393676757,-107.3322868347168
45.47,6.249489784240723,31.799102783203125,14.084667205810549,-0.8671731948852539,0.0112658375874161,0.5197387337684631,-2.0281693935394287,59.282474517822266,-35.17233657836914,10.622297286987305,-19.72823715209961,4.537684440612793,-0.9704881310462952,-0.1013344898819923,0.1542359441518783,-38.75543212890625,78.64505767822266,-141.4115753173828,35.33577380896704,1.0110611358386248,22.86103936537446,0.9878788477388288,-36.72726273536682,19.36258316040039,-106.23923873901369
57.538,3.2813644409179688,31.42238426208496,13.13640022277832,-0.9203110933303832,0.0116873616352677,0.5134136080741882,-1.5185118913650513,59.93222427368164,-34.666656494140625,9.234208106994627,-19.155086517333984,2.71330189704895,-1.0113084316253662,-0.0700774565339088,0.1495052427053451,-37.10347366333008,78.39923858642578,-139.996337890625,34.215473051256446,1.053898778766118,21.437116084827384,1.024698692976235,-35.58496177196503,18.46701431274414,-105.32968139648438
69.002,0.0233390629291534,25.01893615722656,11.152265548706056,-0.9335983395576476,0.0240008383989334,0.492902934551239,-1.1104637384414673,60.45835876464844,-34.20817184448242,3.788508892059326,-18.564037322998047,-1.3431143760681152,-0.982337236404419,-0.0471628308296203,0.1067820638418197,-35.998565673828125,78.13488006591797,-139.0204620361328,27.391983097616222,1.055999622517864,18.99421589805901,0.9892487997449646,-34.88810193538666,17.67652130126953,-104.8122901916504
76.266,-3.0298006534576416,17.48065948486328,8.540781021118164,-0.8955729603767395,0.0237464122474193,0.4941109418869018,-0.8414716124534607,60.81633758544922,-33.840335845947266,-6.205949783325195,-14.804673194885254,-4.107127189636231,-0.9207465052604676,-0.0251373536884784,0.1019027829170227,-35.50772857666016,77.90487670898438,-138.46470642089844,19.6900504945042,1.0231131131722155,16.56987190271419,0.9267093345089698,-34.666256964206696,17.088539123535156,-104.62437057495116
103.953,-3.983816146850586,12.03813934326172,7.508028984069824,-0.8871076107025146,0.0289873629808425,0.474342793226242,-0.6156578063964844,61.0689582824707,-33.50204086303711,-12.855220794677734,-9.305987358093262,-2.10567593574524,-0.9203173518180848,-0.037456676363945,0.1301112920045852,-35.295623779296875,77.7712173461914,-138.06771850585938,14.736284781630872,1.0063802788531684,16.009121572880975,0.9302236177225282,-34.67996597290039,16.702259063720703,-104.56567764282228
121.427,-5.307775020599365,7.401181221008301,5.983375549316406,-0.909972071647644,0.0288790129125118,0.4827251434326172,-0.4687265753746032,61.22777938842773,-33.223472595214844,-15.207267761230469,-4.391263008117676,0.4362392425537109,-0.9501038789749146,-0.0754475593566894,0.141634464263916,-35.278282165527344,77.73239135742188,-137.8361053466797,10.897281408666196,1.0304885892951687,15.834597823909707,0.9635611223598568,-34.80955559015274,16.50461196899414,-104.61263275146484
142.7,-8.195364952087402,1.9905380010604856,5.319952011108398,-0.91004741191864,0.0434199795126915,0.5167136192321777,-0.3856819868087768,61.26051712036133,-32.95602798461914,-11.550640106201172,-1.254801869392395,1.3452144861221311,-0.9692001342773438,-0.1130187138915062,0.1387474536895752,-35.37550735473633,77.74649810791016,-137.79417419433594,9.971365885978948,1.0474084928339629,11.696213772331902,0.9855825616752012,-34.98982536792755,16.485980987548828,-104.8381462097168
165.156,-13.702234268188477,-0.8410816192626953,3.099924325942993,-0.885733962059021,0.0301178321242332,0.4931345582008362,-0.5070797801017761,61.241024017333984,-32.79240036010742,-3.627930402755737,-0.8749987483024597,1.1062562465667725,-0.9943639636039734,-0.096167080104351,0.1825299561023712,-35.24742126464844,77.75186920166016,-137.67422485351562,14.073669495094492,1.0142058113857209,3.892467687706384,1.0155417196180243,-34.74034148454666,16.510845184326172,-104.8818244934082
175.042,-12.832334518432615,-1.723326325416565,1.4976450204849243,-0.8754446506500244,0.0199372302740812,0.5050010681152344,-0.6789522767066956,61.1953239440918,-32.70355224609375,-0.6899425983428955,-2.5593907833099365,0.4087109267711639,-0.987874150276184,-0.0714713111519813,0.1983247995376587,-34.94797134399414,77.7214584350586,-137.44198608398438,13.033863718184808,1.0108545435918428,2.682078781908194,1.0101169294756565,-34.269019067287445,16.526134490966797,-104.73843383789062
200.009,-13.885852813720703,-3.531645536422729,1.857956051826477,-0.8700266480445862,0.0395064577460289,0.5165420770645142,-0.833437442779541,61.10724639892578,-32.577274322509766,-2.7004075050354004,-2.00361442565918,-0.5412599444389343,-0.959273874759674,-0.0929683148860931,0.1951106488704681,-34.84193420410156,77.68047332763672,-137.36361694335938,14.44788667071307,1.0125822662329511,3.4058235109023367,0.9833197036934904,-34.00849676132202,16.573226928710938,-104.7863426208496
222.919,-20.18745994567871,-4.231333255767822,1.5471513271331787,-0.8514152765274048,0.0228849854320287,0.5092703104019165,-1.1412715911865234,61.00424957275391,-32.47770309448242,-7.4632463455200195,-2.2785840034484863,-1.7844338417053225,-0.9663392305374146,-0.0980791375041008,0.208307683467865,-34.90260696411133,77.6141128540039,-137.35928344726562,20.684085607268187,0.992364824406491,8.004760784065473,0.993389710376013,-33.761335372924805,16.60986328125,-104.8815803527832
242.918,-22.14343643188477,-2.6694393157958984,1.1400516033172607,-0.8552798628807068,0.0081430794671177,0.4889188408851623,-1.5177136659622192,60.9445915222168,-32.408058166503906,-10.840700149536133,-6.080013751983643,-4.0360307693481445,-0.9823272824287416,-0.0822672471404075,0.1926242262125015,-34.99101257324219,77.47469329833984,-137.31515502929688,22.33287713063108,0.9851962172912252,13.068163272915896,1.004409718332047,-33.47329890727997,16.530101776123047,-104.90709686279295
264.947,-17.544395446777344,-4.010740280151367,-0.0398400574922561,-0.8819816708564758,0.007916497066617,0.4999005496501922,-1.8395533561706543,60.86039733886719,-32.38194274902344,11.890676498413086,-8.61882495880127,-0.4660007953643799,-0.921256184577942,-0.0107333399355411,0.1086987629532814,-34.19621658325195,77.39451599121094,-136.83084106445312,17.997039657063358,1.013831789890784,14.6931782811497,0.9277087815024996,-32.3566632270813,16.53411865234375,-104.44889831542967
275.378,-15.242094993591309,-6.486693859100342,-0.8222319483757019,-0.8757489323616028,0.0269164182245731,0.4624744951725006,-2.115112543106079,60.74463272094727,-32.362239837646484,43.8619499206543,-8.655614852905273,19.25777816772461,-0.8882414102554321,-0.1426963955163955,0.2560358047485351,-31.40091133117676,77.48523712158203,-134.94102478027344,16.5853767636518,0.9907286938347888,48.6790749632849,0.935355225301682,-29.28579878807068,16.740604400634766,-102.57878494262695
303.373,-15.33571720123291,-9.12995147705078,-0.8376597762107849,-0.8953520059585571,0.0274082738906145,0.4326668083667755,-2.386833667755127,60.59785842895508,-32.33641052246094,25.84977531433105,-4.510700225830078,36.28760528564453,-0.983134388923645,-0.2202624827623367,0.0715574473142623,-27.777612686157227,77.76217651367188,-131.83895874023438,17.867341994548998,0.9947899251168396,44.78110759790829,1.010044185302322,-25.3907790184021,17.164318084716797,-99.50254821777344
314.924,-13.75772190093994,-9.046642303466797,0.8254919648170471,-0.8865253329277039,-0.0092284847050905,0.4342398345470428,-2.607403516769409,60.45193099975586,-32.27689743041992,79.2768783569336,-4.304262638092041,47.60400390625,-0.9420822858810424,-0.3160662055015564,0.1394356340169906,-22.176963806152344,78.08320617675781,-127.80370330810548,16.486299944331204,0.9872064448533404,92.57154696116936,1.0034237268794886,-19.56956028938293,17.631275177001953,-95.52680587768556
337.17,-8.338705062866211,-4.797301292419434,4.322868824005127,-0.8576036095619202,-0.0017064436106011,0.431751012802124,-2.592832326889038,60.389259338378906,-32.07443618774414,96.58213806152344,3.280158042907715,54.97784805297852,-1.039695382118225,-0.2289645224809646,0.2360067367553711,-15.443422317504885,78.49718475341797,-122.96112823486328,10.546814527869314,0.9601540502123034,111.18197968132256,1.0904542264335615,-12.850589990615845,18.107925415039062,-90.88669204711914
359.872,-5.401038646697998,-0.5590304732322693,5.360112190246582,-0.8796685338020325,-0.0084382556378841,0.4293875694274902,-2.498897790908813,60.41908645629883,-31.845779418945312,105.82921600341795,-1.3775546550750732,57.13875198364258,-0.9792144894599916,-0.0283504612743854,0.1660704761743545,-7.734906196594238,78.72012329101562,-117.3351058959961,7.62984509837242,0.9789083809522092,120.27700359991528,0.9936016143704876,-5.236008405685425,18.3010368347168,-85.48932647705078
374.7480000000001,-3.630118846893311,0.5144345760345459,6.413375377655029,-0.8793924450874329,-0.0275180414319038,0.4109774231910705,-2.358577251434326,60.47988128662109,-31.597627639770508,102.29596710205078,7.878902435302734,47.38212585449219,-0.9722760915756226,0.0470919907093048,0.1545166820287704,-0.7868806719779968,78.9745864868164,-112.39791107177734,7.387407495887962,0.9710771120018604,113.01153852337296,0.985603296901808,1.5716965794563291,18.494705200195312,-80.80028343200684
397.247,2.0274081230163574,4.371722221374512,5.735822677612305,-0.8621243238449097,-0.0413364693522453,0.4029170274734497,-2.152268171310425,60.61557769775391,-31.39866828918457,77.58937072753906,19.77357482910156,34.74809265136719,-0.9248051643371582,0.2247529923915863,0.1899999380111694,4.510867118835449,79.3493423461914,-108.65037536621094,7.491461851143874,0.9525277867293912,87.28421767035306,0.9705042380216063,6.663135290145874,18.7337646484375,-77.25170707702637
419.586,13.014894485473633,6.725605010986328,6.6767897605896,-0.8443583846092224,-0.0120176710188388,0.3891060948371887,-1.660641074180603,60.80049514770508,-31.133852005004883,26.482555389404297,21.895919799804688,16.62407875061035,-1.0288891792297363,0.165730744600296,0.2223910689353943,7.251410961151123,79.74182891845703,-106.47026824951172,16.099713125982415,0.92977903779127,38.17220242714376,1.065615976974837,8.912052035331726,18.94133377075196,-75.33641624450684
434.811,19.89903259277344,11.52427864074707,6.352039337158203,-0.845848798751831,0.0128627549856901,0.3647223711013794,-1.0162254571914673,61.09208297729492,-30.85937690734864,18.22403717041016,16.506389617919922,-11.16508960723877,-1.0469207763671875,0.1573053747415542,0.1931564658880233,6.792500019073486,80.0949935913086,-107.37393188476562,23.85642261653335,0.921220955470266,27.004363627842388,1.0761493916860272,7.808725476264954,19.002910614013672,-76.51455497741699
457.361,21.787559509277344,19.49919509887696,7.88712215423584,-0.8548915982246399,0.0272554010152816,0.3768905401229858,-0.2597323954105377,61.53374481201172,-30.50448989868164,-17.31229019165039,-5.589913368225098,-40.471824645996094,-1.153754472732544,0.1551617681980133,0.2783168256282806,2.013406991958618,80.02937316894531,-111.94900512695312,30.284039604223977,0.9346812188301308,44.3726392422226,1.1969481246438742,2.273139387369156,18.4956283569336,-81.44451522827148
479.806,20.4606990814209,25.43026161193848,10.101062774658203,-0.8809841275215149,0.0379336327314376,0.3366320431232452,0.5768544673919678,62.115234375,-30.031883239746094,-77.17447662353516,0.1413674503564834,-47.07246017456055,-0.8911103010177612,0.3605652153491974,0.2245867997407913,-4.832340717315674,80.01297760009766,-117.40969848632812,34.16679501694116,0.94387135028794,90.39765668289296,0.9871798588492314,-5.409195184707642,17.897743225097656,-87.37781524658203
502.433,16.97708511352539,30.14523124694824,7.27988862991333,-0.86957848072052,0.0400671474635601,0.3215083181858063,1.2610641717910769,62.78886795043945,-29.65483283996582,-177.22547912597656,-0.4873517751693725,-63.19609069824219,-1.1066337823867798,0.2735807001590729,0.2110534012317657,-15.311725616455078,79.77629852294922,-124.4782943725586,35.354676696977606,0.9279761360620972,188.1564610709001,1.1593223304977334,-16.572789788246155,16.987430572509766,-94.82346153259276
524.652,17.319337844848633,34.23046875,8.820282936096191,-0.8762069344520569,0.0290386490523815,0.3266997635364532,2.0212721824646,63.5328254699707,-29.19751739501953,-238.0800018310547,-4.75858211517334,-59.14425277709961,-0.8073105216026306,-0.1540762484073639,0.0229146983474493,-25.87414932250977,79.30549621582031,-130.35739135742188,39.36345824875556,0.935582476650473,245.3625358773896,0.8222012235541576,-27.895421504974365,15.77267074584961,-101.15987396240234
538.157,24.76768112182617,37.26966857910156,13.79913330078125,-0.9003028869628906,0.0476109869778156,0.3192783892154693,3.195913314819336,64.33138275146484,-28.452289581298828,-177.69412231445312,11.503353118896484,-11.348902702331545,-0.836141049861908,-0.5230870246887207,-0.0254519041627645,-31.082931518554688,79.4007568359375,-132.06640625,46.82822123464936,0.9564260474154508,178.42736850222514,0.9866102016943584,-34.27884483337402,15.069374084472656,-103.61411666870116
557.133,25.879972457885746,40.48423385620117,10.60909938812256,-0.8586281538009644,0.0252063050866127,0.3090061545372009,4.279151439666748,65.18013000488281,-27.827608108520508,-44.817142486572266,16.656536102294922,7.7478251457214355,-0.9124733805656432,-0.4375948905944824,0.0688391849398613,-32.220977783203125,79.76863861083984,-132.32318115234375,49.206698275454045,0.9128868866719688,48.43599126762503,1.0143154301786377,-36.50012922286987,14.588508605957031,-104.49557304382324
577.426,23.29916763305664,47.54678726196289,6.487897872924805,-0.8127968907356262,0.0111272353678941,0.3044075667858124,5.182538986206055,66.15681457519531,-27.34435272216797,54.02880096435547,18.74276733398437,18.19932746887207,-0.8886820673942566,-0.1907090693712234,0.0987990796566009,-30.722606658935547,80.27477264404297,-131.89520263671875,53.344549957208685,0.8680014790729869,60.01348332917405,0.914268573335844,-35.9051456451416,14.117958068847656,-104.55084991455078
599.595,33.06257247924805,53.03035736083984,10.717337608337402,-0.921563684940338,0.0292880795896053,0.3231197893619537,6.58405876159668,67.23098754882812,-26.5380802154541,74.21263122558594,24.02143859863281,22.684473037719727,-0.9721503853797911,-0.0728537738323211,0.1472507417201995,-28.25483703613281,80.92185974121094,-130.96461486816406,63.40515614817926,0.9770075819993288,81.2350260834065,0.9859344933071552,-34.83889579772949,13.690872192382812,-104.42653465270996
619.7439999999999,33.416099548339844,52.102577209472656,10.929354667663574,-0.9354710578918456,0.0809974148869514,0.3374942541122436,8.165037155151367,68.25849151611328,-25.561479568481445,56.37138366699219,23.76405906677246,13.086980819702148,-1.010344386100769,0.0214839801192283,0.1725760698318481,-26.68316650390625,81.47883605957031,-130.58523559570312,62.85511160076957,0.9977820668514932,62.55983109660332,1.0252023409092033,-34.84820365905762,13.220344543457031,-105.02375602722168
642.061,18.58273124694824,53.04428863525391,5.779338359832764,-0.9095494747161864,0.0996828451752662,0.3402734696865082,9.32241153717041,69.29269409179688,-24.730243682861328,30.057674407958984,22.8125,5.558826446533203,-0.9444611072540284,0.0470841340720653,0.1492087990045547,-26.34213256835937,81.95870208740234,-130.9108123779297,56.50146201023357,0.9762187002671184,38.1415062435603,0.957333256759214,-35.664544105529785,12.666007995605469,-106.18056869506836
664.605,10.139768600463867,54.88987731933594,6.461762428283691,-0.9369029998779296,0.0628355890512466,0.2980681359767914,10.401479721069336,70.37640380859375,-23.80028533935547,-1.543325662612915,26.561750411987305,7.439907073974609,-0.9277112483978271,-0.0343448296189308,0.1323004961013794,-27.006977081298828,82.50479125976562,-131.6056365966797,56.19135087433191,0.98518026579726,27.627172427140724,0.9377265854150022,-37.40845680236816,12.128387451171877,-107.80535125732422
675.29,10.397689819335938,55.51691818237305,7.981141567230225,-0.9480245113372804,0.0585428439080715,0.2718133628368377,11.686027526855469,71.4659194946289,-22.66368293762207,-18.286148071289062,28.33637809753418,8.197835922241211,-0.9999274611473083,-0.0570254884660244,0.1534164994955063,-28.198490142822266,83.07340240478516,-132.4976348876953,57.04330616964268,0.987957611887172,34.7064554338168,1.0132341566532117,-39.88451766967773,11.60748291015625,-109.83395195007324
699.628,7.590597629547119,57.09162521362305,8.026856422424316,-0.9660369753837584,0.0720968246459961,0.3013054728507995,13.08382797241211,72.55228424072266,-21.356040954589844,-23.33147048950196,25.68877220153809,5.229446887969971,-1.0041308403015137,-0.0382243320345878,0.1251074373722076,-29.86738014221192,83.57843017578125,-133.76319885253906,58.150677261169534,1.0145000630371983,35.09441048342478,1.0126162722818328,-42.95120811462402,11.026145935058594,-112.40715789794922
725.7289999999999,-0.2083632349967956,56.11170196533203,6.840723991394043,-0.9818836450576782,0.0821305960416793,0.3110824823379516,14.402183532714844,73.60118865966797,-19.976337432861328,-25.71606636047364,29.757640838623047,2.136575937271118,-0.9508689045906068,-0.0460988208651542,0.0538055412471294,-32.947479248046875,84.14193725585938,-136.40121459960938,56.52753326840274,1.0332537142713092,39.38779270373621,0.953505013763113,-47.34966278076172,10.540748596191406,-116.42487716674805
744.533,-1.6419546604156494,53.92286682128906,8.712201118469238,-1.005488038063049,0.0666744858026504,0.2751703262329101,15.931482315063477,74.6021728515625,-18.35256004333496,-26.236364364624023,33.29837417602539,6.328085899353027,-0.9907288551330566,-0.0885557457804679,0.0511555597186088,-36.507083892822266,84.78263092041016,-139.49729919433594,54.646811706283415,1.044591015749252,42.86225856146056,0.995993311119164,-52.43856620788574,10.180458068847656,-121.14473915100098
754.659,1.0218204259872437,52.3403549194336,8.947799682617188,-1.007897973060608,0.0828920006752014,0.258111834526062,17.738008499145508,75.55522918701172,-16.506641387939453,-10.490521430969238,30.22126197814941,7.524778366088867,-1.0537797212600708,-0.1202952861785888,0.09080620855093,-39.82667541503906,85.3412857055664,-142.6571044921875,53.10950940495953,1.0437198508211043,32.86332309588188,1.0645038395079354,-57.56468391418457,9.786056518554688,-126.15046310424805
775.6619999999999,-1.1108601093292236,53.98516082763672,8.291709899902344,-1.0070183277130127,0.0930764302611351,0.2655410766601562,19.74288558959961,76.51277160644531,-14.419978141784668,3.146898031234741,25.846752166748047,4.611262321472168,-1.0507503747940063,-0.073803924024105,0.1137455478310585,-43.02230453491211,85.78136444091797,-145.9654998779297,54.62951631519759,1.0455913148137297,26.442793063247173,1.0594627973565132,-62.76519012451172,9.268592834472656,-131.54552173614502
798.027,-8.331503868103027,56.571537017822266,6.918364524841309,-1.0120059251785278,0.0873517170548439,0.2527027130126953,21.85186004638672,77.50899505615234,-12.085845947265623,-1.982440710067749,22.38980293273925,3.2752013206481934,-1.0426874160766602,-0.0286315530538558,0.1278678923845291,-46.18049240112305,86.14521789550781,-149.10655212402344,57.59875454349368,1.0467306130198228,22.71475930373485,1.0508886769671464,-68.03235244750977,8.636222839355469,-137.0207061767578
814.98,-14.38659381866455,57.70042037963867,6.389133453369141,-1.013993740081787,0.0683636963367462,0.2337156385183334,24.15631103515625,78.51387023925781,-9.435097694396973,-16.17544174194336,20.64840316772461,0.0776592791080474,-1.0306754112243652,-0.019055426120758,0.0956283435225486,-50.53213119506836,86.4334945678711,-153.15496826171875,59.80914328073275,1.0428230432771928,26.22989706208423,1.0352775920747173,-74.68844223022461,7.919624328613281,-143.71987056732178
836.9689999999999,-15.199980735778809,59.61979675292969,9.033872604370115,-1.0303585529327393,0.064020074903965,0.1658906042575836,27.30047035217285,79.53012084960938,-5.923770427703857,-30.80491828918457,16.751272201538086,-0.6652398705482483,-1.0514333248138428,-0.0776302069425582,0.0732120648026466,-55.327266693115234,86.61666107177734,-157.3587188720703,62.18657759887322,1.0455893123847928,35.07122260855369,1.0568341837732649,-82.62773704528809,7.086540222167969,-151.43494844436646
859.0210000000001,-16.002704620361328,61.01093292236328,9.081366539001465,-1.042086839675903,0.0657812058925628,0.1489330977201461,31.198162078857425,80.52722930908203,-1.642662525177002,-34.0331916809082,12.536626815795898,-4.183533668518066,-1.054765224456787,-0.1179548949003219,0.0496857725083828,-60.28927612304688,86.64998626708984,-161.6765899658203,63.725126201831415,1.054728977543952,36.50927418976713,1.0625025703235156,-91.4874382019043,6.1227569580078125,-160.0339274406433
874.447,-18.237764358520508,59.76076889038086,8.084782600402832,-1.0319372415542605,0.0627514198422432,0.1495613902807235,35.693119049072266,81.448974609375,3.2780706882476807,-26.86125946044922,10.542799949645996,-4.81110429763794,-0.9931429028511048,-0.0961057022213935,0.0010225002188235,-64.9407730102539,86.6487045288086,-165.82362365722656,63.00261309550748,1.0446055813854032,29.25448025760462,0.997782630130272,-100.63389205932616,5.199729919433594,-169.10169434547424
897.0169999999999,-16.289409637451172,55.49224090576172,5.900246620178223,-1.0113921165466309,0.0615938305854797,0.146003857254982,40.58465576171875,82.25672912597656,8.550176620483398,-17.95429801940918,13.08616065979004,-1.2180602550506592,-0.9492288827896118,-0.0327960401773452,-0.0403012186288833,-69.8774185180664,86.7618408203125,-170.39161682128906,58.13386773008232,1.0237308922330124,22.25057502557026,0.950649904221476,-110.46207427978516,4.5051116943359375,-178.94179344177246
919.261,-5.959577083587647,48.37516021728516,5.498371601104736,-1.0254950523376465,0.0724614858627319,0.1149230077862739,45.98941040039063,82.89763641357422,14.122172355651855,-14.131028175354004,15.99928855895996,5.880528450012207,-0.9758816361427308,-0.0395876839756965,-0.0514947995543479,-75.39073944091797,87.01010131835938,-175.60765075683594,49.05002319395034,1.0344554446766043,22.14144996464592,0.9780408308778908,-121.3801498413086,4.112464904785156,-189.7298231124878
941.768,-1.1144330501556396,41.33715438842773,3.92960262298584,-1.033068060874939,0.0936914831399917,0.1085800528526306,51.389739990234375,83.38541412353516,19.58589744567871,-7.821755409240723,15.930852890014648,8.575543403625488,-1.00154447555542,-0.0595245845615863,-0.0566669292747974,-81.35370635986328,87.27106475830078,178.62139892578125,41.53846495395041,1.0429752347445065,19.71070460822594,1.0049107689522716,-132.74344635009766,3.885650634765625,159.03550148010254
963.987,-9.113092422485352,35.3973274230957,1.9012662172317505,-1.0324894189834597,0.0947073027491569,0.1151399239897728,56.21295547485352,83.76683807373047,24.627174377441406,0.2473185509443283,23.82526397705078,7.278616428375244,-0.979716658592224,-0.0147283794358372,-0.0897549539804458,-91.61813354492188,87.4948501586914,168.4080047607422,36.60101167218455,1.0431975247301888,24.913502908126123,0.9839296763732408,-147.8310890197754,3.7280120849609375,143.78083038330078
975.075,-18.31033515930176,26.459941864013672,-0.3082227706909179,-1.0686057806015017,0.0639213696122169,0.1492686867713928,59.48140335083008,84.05122375488281,28.28951072692871,-1.7918517589569092,35.260623931884766,7.701442718505859,-0.9745572209358216,0.0371106155216693,-0.1412692219018936,-108.10655212402344,87.56924438476562,152.00144958496094,32.17905993607206,1.080872516385953,36.13633286234657,0.9854420164166512,-167.58795547485352,3.5180206298828125,123.71193885803224
997.047,-11.811283111572266,6.943579196929932,-2.410032272338867,-1.1150233745574951,0.070199579000473,0.1745931804180145,59.59169006347656,84.14946746826172,28.64377212524414,-11.54137134552002,45.171348571777344,9.448897361755373,-0.9852842092514038,0.0149519685655832,-0.2694283425807953,-126.18746185302734,87.29816436767578,134.11065673828125,13.91143257754086,1.1307908229862431,47.57032316141219,1.021567504450873,-185.7791519165039,3.1486968994140625,105.46688461303712
1016.724,-8.122827529907227,-18.246807098388672,-9.591830253601074,-1.1287107467651367,0.1016196087002754,0.1369143575429916,55.231048583984375,84.09222412109375,24.422731399536133,-8.201274871826172,46.90362930297852,14.95019245147705,-0.9779807329177856,-0.0257980469614267,-0.3175441920757293,-142.1057586669922,86.81819152832031,118.24696350097656,22.156929028643,1.1415165509255307,49.90710977055948,1.0285651010541146,-197.33680725097656,2.7259674072265625,93.82423210144044
1039.117,-32.11651611328125,-37.5944938659668,-20.316978454589844,-1.0932939052581787,0.0747255757451057,0.2121969759464264,46.42757797241211,83.8990478515625,16.21521759033203,2.220386505126953,54.32193374633789,16.566665649414062,-0.9677954912185668,-0.0049616890028119,-0.1700666099786758,-155.2447509765625,85.98516845703125,104.9635772705078,53.45648875316389,1.116200264982017,56.835350028948966,0.982636953818849,-201.6723289489746,2.08612060546875,88.74835968017578
1061.774,-15.094935417175291,-56.57656097412109,-19.273048400878903,-1.071574330329895,-0.0418849140405654,0.3750435411930084,37.01879119873047,83.29489135742188,7.050450325012207,-1.976128935813904,52.84331893920898,17.280424118041992,-0.983040690422058,-0.0098525797948241,-0.1455292701721191,-164.04629516601562,85.04132080078125,96.11661529541016,61.64588162699724,1.1360825450805678,55.63213549542505,0.9938032203766094,-201.0650863647461,1.746429443359375,89.06616497039795
1084.181,23.828014373779297,-81.77892303466797,-21.78132438659668,-1.203162670135498,0.071373701095581,0.4091000258922577,27.841028213500977,82.11627960205078,-2.678042411804199,16.906625747680664,50.58023834228516,33.05274963378906,-1.0489449501037598,-0.0455903224647045,-0.1204967349767685,-172.37069702148438,84.14495086669922,87.37812042236328,87.92037655595733,1.2728147733274895,62.742957878063535,1.0568270667382986,-200.21172523498527,2.028671264648437,90.05616283416748
1094.413,-3.5244719982147217,-103.34749603271484,-33.121639251708984,-1.2921898365020752,0.0546490736305713,0.418274849653244,18.383739471435547,80.38909912109375,-12.162869453430176,25.17395401000977,46.73756790161133,36.98314666748047,-1.197965145111084,-0.0596202611923217,-0.0760680064558982,-178.82740783691406,83.2757339477539,80.37319946289062,108.58254844043108,1.359299431567741,64.69838754779124,1.201857481589159,-197.2111473083496,2.886634826660156,92.5360689163208
1121.718,-37.100040435791016,-117.27081298828124,-26.036609649658203,-1.018718123435974,-0.0826680809259414,0.5707083344459534,11.775102615356444,78.24349975585938,-18.12395668029785,7.335620403289795,32.708499908447266,5.3463134765625,-1.1397830247879028,-0.0432850904762744,-0.1030039638280868,-179.44635009765625,82.63158416748047,79.61882781982422,125.72494430827336,1.1706103662734944,33.94466616055798,1.1452461566041154,-191.2214527130127,4.388084411621094,97.74278450012208
1141.596,-11.992168426513672,-127.3405303955078,-28.449737548828125,-1.4949871301651,0.0776199549436569,0.6916167736053467,7.284879684448242,75.80686950683594,-22.474365234375,-40.58048248291016,28.90629005432129,-11.64951229095459,-0.9321686029434204,0.0294285081326961,-0.1288983225822448,-178.7707977294922,82.03996276855469,81.163818359375,131.0298071111162,1.6490437041803976,51.16698447111608,0.9414983372098544,-186.05567741394043,6.23309326171875,103.63818359375
1165.379,-49.27854537963867,-174.08123779296875,-36.22628402709961,-1.1503995656967163,0.0943766236305236,0.6030752062797546,2.662216901779175,72.37438201904297,-26.24814414978028,-84.67012023925781,33.14097595214844,-1.482563853263855,-0.95003342628479,0.1314996182918548,-0.0760184898972511,179.3796844482422,81.37952423095703,81.03307342529297,184.51286145057023,1.3023155578708483,90.9370746393915,0.9620989925551214,176.717467546463,9.005142211914062,107.28121757507324
1184.804,-53.54826736450195,-182.10818481445312,-50.441856384277344,-1.0080939531326294,-0.1416310966014862,0.6135976910591125,-1.3897984027862549,68.72676086425781,-29.40468978881836,-104.64070129394533,26.599008560180664,8.658405303955078,-1.0773226022720337,0.0453840494155883,-0.0599936358630657,176.1695098876953,80.89326477050781,79.91923522949219,196.4056740261016,1.1886189096342803,108.31505715310688,1.079945803108477,177.55930829048157,12.16650390625,109.32392501831056
1195.107,-15.51766300201416,-198.03836059570312,-32.9671745300293,-1.1647124290466309,-0.0856078416109085,0.7867669463157654,-2.8780105113983154,64.72855377197266,-30.6860580444336,-103.64361572265624,13.459654808044434,-3.258335590362549,-1.0408425331115725,-0.1532255709171295,-0.1085034161806106,174.812255859375,80.64828491210938,80.6523208618164,201.36242134264089,1.4081498402996806,104.56470790107326,1.0576408868986946,177.69026637077332,15.91973114013672,111.33837890625
1214.371,-22.83499526977539,-206.92117309570312,-40.03829574584961,-1.1476764678955078,0.0834234654903411,0.8432766199111938,-4.362491607666016,60.51293182373047,-31.839445114135746,-75.57516479492188,0.7251983880996704,-7.269353866577148,-1.0555648803710938,-0.2407663762569427,-0.0617710463702678,174.17620849609375,80.64765930175781,81.53516387939453,211.9926272550645,1.4266170499627344,75.92743214490545,1.084435948674895,178.53870010375977,20.134727478027344,113.37460899353027
1237.137,-18.608200073242188,-226.6392974853516,-45.51029968261719,-1.0880993604660034,-0.1222565397620201,0.8598822951316833,-5.593525409698486,55.860328674316406,-32.83771896362305,-22.94486618041992,-19.15811920166016,0.2323114275932312,-1.1411484479904177,-0.1854896247386932,-0.0540291108191013,173.47445678710938,81.04112243652344,81.32568359375,231.91124089146933,1.3922300245440906,29.892380032071515,1.1573872843834696,179.06798219680786,25.18079376220703,114.16340255737305
1254.359,-21.711631774902344,-216.63052368164065,-6.150173187255859,-0.9916374683380128,0.0649891570210456,0.9545100331306458,-5.613890171051025,51.52880096435547,-32.31882858276367,17.513675689697266,-30.207887649536133,-3.7080118656158447,-1.0687639713287354,0.0154838925227522,0.0178613942116498,173.9016876220703,81.71458435058594,81.45088195800781,217.8026707254621,1.3779179447591194,35.11402375698972,1.0690253536475225,179.51557779312134,30.18578338623047,113.76971054077148
1277.39,-8.340505599975586,-253.27685546875,-45.16563415527344,-1.1198225021362305,-0.1050614416599273,0.9499931931495668,-6.179142475128174,46.37248992919922,-32.8674201965332,25.952367782592773,-54.13988494873047,0.7282623052597046,-1.1190483570098877,0.0772250443696975,0.0865508392453193,173.4542999267578,82.80414581298828,80.5276107788086,257.40758352940827,1.4722524952754603,60.043175313852224,1.1250439905081489,179.633442401886,36.43165588378906,113.3950309753418
1300.195,-0.7823834419250488,-248.98280334472656,-49.4862174987793,-0.9259587526321412,-0.0779856592416763,1.0351989269256592,-6.6235432624816895,41.31216430664063,-33.48273468017578,16.54770851135254,-74.89139556884766,-7.123133659362793,-1.1680853366851809,0.0014468487352132,0.1066595911979675,173.54808044433594,84.33848571777344,80.36554718017578,253.85415932693613,1.391085257247544,77.02783146600618,1.1729457427966188,180.17162370681763,43.02632141113281,113.84828186035156
1315.237,-1.3673765659332275,-264.7844543457031,-45.16964721679688,-0.9396735429763794,-0.1688027083873748,0.9576687812805176,-6.890355110168457,35.988983154296875,-33.87213897705078,14.12240982055664,-85.47561645507812,-16.650386810302734,-1.0916337966918943,-0.1175267770886421,0.0360015928745269,176.4868927001953,86.18910217285156,83.15896606445312,268.61305629383446,1.3522611494707697,88.21994586513914,1.0985322043992642,183.37724781036377,50.20011901855469,117.0311050415039
1336.765,17.67490005493164,-270.49957275390625,-44.38518142700195,-0.9379185438156128,-0.220005378127098,0.9323710799217224,-6.698235511779785,30.537750244140625,-34.13629913330078,26.705585479736328,-88.25663757324219,-18.96344375610352,-1.0579975843429563,-0.1545061767101287,0.041832361370325,-174.83416748046875,88.16665649414062,91.5570831298828,274.68612138640265,1.340674976238628,94.13837990235986,1.0700378467955844,-168.13593196868896,57.62890625,125.6933822631836
1359.0390000000002,33.01407241821289,-279.1606750488281,-37.34799957275391,-0.7966172099113464,-0.1201746463775634,0.9901031255722046,-6.103017807006836,24.93275260925293,-34.30791091918945,50.75526428222656,-90.9828643798828,-18.09036064147949,-1.063205361366272,-0.1735917180776596,0.0432382896542549,-118.54537200927734,90.0,147.99948120117188,283.5762411476653,1.2764580384903998,105.74138078947902,1.078150858978169,-112.44235420227052,65.06724739074707,182.30739212036133
1381.664,35.55450439453125,-283.3724670410156,-31.02155876159668,-0.7770373821258545,-0.0764970481395721,0.9630544185638428,-5.412858963012695,19.234235763549805,-34.32700729370117,87.2470474243164,-92.32283782958984,-17.7531795501709,-1.067112684249878,-0.1332904249429702,0.1240063160657882,-34.295711517333984,88.56796264648438,-131.0183868408203,287.2741112033095,1.239803494393531,128.26039549802687,1.0825310086517916,-28.88285255432129,69.33372688293457,-96.69137954711914
1405.817,34.4731559753418,-286.8582763671875,-32.31593704223633,-0.7114659547805786,-0.1475967913866043,0.9001741409301758,-4.762417793273926,13.465093612670898,-34.46530532836914,100.13094329833984,-86.52872467041016,-15.406682968139648,-0.9865555763244628,-0.0308130588382482,0.0917234644293785,-21.04110717773437,86.60223388671875,-119.76495361328124,290.72390508895506,1.1568414332305188,133.2320977804664,0.9912893339982984,-16.27868938446045,73.13714027404785,-85.29964828491211
1414.02,51.32503128051758,-289.37213134765625,-29.43348693847656,-0.6095219254493713,-0.1542337983846664,0.9173271656036376,-3.7650458812713614,7.652758598327637,-34.5944709777832,110.4132080078125,-94.72782135009766,-2.942920684814453,-1.0277986526489258,-0.0788297057151794,0.1139285415410995,-12.868000984191896,84.6596908569336,-113.7283706665039,295.3587977189588,1.1121124812365315,145.50978462794038,1.0370939713776042,-9.102955102920532,77.00693225860596,-79.1338996887207
1436.507,60.88423538208008,-289.7240905761719,-25.79401397705078,-0.5121690630912781,-0.1013747230172157,0.887370765209198,-2.5642194747924805,1.841349720954895,-34.735130310058594,133.11416625976562,-99.50799560546876,-0.90189528465271,-1.0341713428497314,-0.1162305772304534,0.1427317708730697,-7.642107963562012,82.63243865966797,-111.11479949951172,297.17380425484794,1.0295731438817606,166.19878418193977,1.050424805434213,-5.077888488769531,80.79108893871307,-76.37966918945312
1459.046,63.030517578125,-289.29345703125,-21.635639190673828,-0.3995826840400696,-0.0982757359743118,0.8672921657562256,-1.298802614212036,-3.952667474746704,-34.99876403808594,154.53060913085938,-95.12896728515624,-0.128873586654663,-0.9797800183296204,-0.036737572401762,0.1686926782131195,-3.3988115787506104,80.69840240478516,-109.87109375,296.8697547923113,0.9599584066239968,181.46417327807745,0.9948747424810226,-2.100008964538574,84.65106987953186,-74.87232971191406
1481.437,67.1807632446289,-288.1701965332031,-17.1973876953125,-0.2869479954242706,-0.0415441133081913,0.8454957008361816,0.0775482505559921,-9.716776847839355,-35.25143814086914,151.47113037109375,-92.806396484375,14.533238410949709,-0.9678019285202026,0.0179608166217803,0.2105356454849243,1.4754562377929688,78.8095932006836,-108.00555419921876,296.396807107733,0.8938277493796202,178.23508516288646,0.9906000311936692,1.3979079872369766,88.52637004852295,-72.75411605834961
1504.865,61.03390502929688,-286.8569641113281,-8.786996841430664,-0.2137867510318756,-0.0169274732470512,0.8374637961387634,1.3532156944274902,-15.448431968688965,-35.51546859741211,141.20787048339844,-75.74856567382812,27.112037658691406,-0.9884213805198668,0.0728286504745483,0.2192837446928024,6.512278079986572,77.24309539794922,-105.73695373535156,293.4097250191008,0.8644865089233279,162.5194464490474,1.0150695535209604,5.159062385559082,92.69152736663818,-70.22148513793945
1514.934,57.16761016845703,-284.67315673828125,-5.5309367179870605,-0.1386932432651519,-0.0494079738855361,0.7139160633087158,2.5991694927215576,-21.13176727294922,-35.881446838378906,113.2031478881836,-75.7052993774414,29.813400268554688,-0.9891852140426636,0.0730906277894973,0.1875862181186676,10.399092674255373,75.67190551757812,-104.07481384277344,290.4092510246344,0.728939715656305,139.40976967628578,1.0094643216970858,7.799923181533813,96.80367279052734,-68.19336700439453
1538.568,53.93507766723633,-282.5281677246094,-5.006443500518799,-0.0025530587881803,-0.0256942547857761,0.7080518007278442,3.863704681396485,-26.765060424804688,-36.33320999145508,87.58053588867188,-72.56594848632812,28.70974540710449,-0.9904618859291076,0.0260403137654066,0.2660989463329315,13.081329345703123,74.12923431396484,-103.16893005371094,287.6738129154611,0.7085224522568887,117.30480223591924,1.0259149548859992,9.21762466430664,100.89429473876952,-66.83572006225586
1561.464,51.39014053344727,-275.5250549316406,-0.6579908132553101,0.125900000333786,0.0364254601299762,0.6665768623352051,5.14389705657959,-32.25523376464844,-36.8466682434082,70.93546295166016,-53.05226135253906,14.604728698730469,-0.9709062576293944,0.0927102044224739,0.2400810122489929,14.662938117980955,73.04230499267578,-103.03431701660156,280.2774257606941,0.6793396334900348,89.77572299429274,1.004436675729473,9.519041061401367,105.29753875732422,-66.18764877319336
1581.4779999999998,42.83537292480469,-269.5859375,3.666440963745117,0.2108731120824813,0.0431366898119449,0.6007623672485352,6.3270649909973145,-37.62515258789063,-37.4479866027832,38.07196044921875,-56.83106231689453,25.686803817749023,-0.9705671072006226,0.0699312835931778,0.2543022632598877,16.036447525024414,71.82978820800781,-102.4281768798828,272.9924718022488,0.6381564583308286,73.06884224404511,1.0057636576770288,9.7093825340271,109.45494079589844,-64.98019027709961
1604.054,32.95501708984375,-257.07568359375,3.271329879760742,0.2954754531383514,0.0707896426320076,0.5349933505058289,7.455734252929687,-42.72312545776367,-38.19071960449219,38.61237716674805,-48.51565933227539,-6.740020275115967,-0.9920026659965516,0.0502132624387741,0.2264316082000732,15.618226051330566,70.98619842529297,-103.76287841796876,259.2000035605092,0.6152518199865272,62.37076834721199,1.0187550904221694,8.162491798400879,113.70932388305664,-65.57215881347656
1614.128,23.905101776123047,-245.60340881347656,5.410995006561279,0.3587339222431183,0.0559759363532066,0.4128567576408386,8.508883476257324,-47.57853698730469,-39.00406265258789,41.431617736816406,-36.04841613769531,-14.504297256469728,-0.9575873017311096,0.0159580819308757,0.1753209829330444,15.097097396850586,70.38677215576172,-105.23342895507812,246.8233521745613,0.5497945386671789,56.80177720133558,0.9736352232084604,6.588213920593262,117.9653091430664,-66.22936630249023
1641.288,30.04303741455078,-233.4937744140625,6.67906379699707,0.4507767558097839,-0.0094456728547811,0.366185188293457,9.72745418548584,-52.22786712646485,-39.86719131469727,38.76290512084961,-30.923734664916992,-24.106170654296875,-0.8937147259712219,0.0017280217725783,0.1530171036720276,14.12962818145752,69.93213653564453,-107.0824737548828,235.51334713858907,0.5808446405361658,55.13572020612646,0.9067211431819812,4.40217399597168,122.16000366210938,-67.21528244018555
1654.359,52.702293395996094,-217.38504028320312,5.474526882171631,0.505229651927948,0.0144183905795216,0.3194358944892883,11.68440055847168,-56.5592155456543,-41.006568908691406,43.868408203125,-21.584657669067383,-36.79656600952149,-0.8349562287330627,0.0454566963016986,0.1422757506370544,12.796049118041992,69.71945190429688,-109.4380340576172,223.7493193569784,0.5979165341937877,61.19086496414237,0.8482102359428002,1.1116485595703125,126.27866744995116,-68.43146514892578
1676.205,50.74910736083984,-201.1121826171875,1.189443588256836,0.5231562852859497,0.1607946902513504,0.328862190246582,14.15305995941162,-60.46932220458984,-42.70621490478516,45.66584014892578,-8.923205375671387,-35.455055236816406,-0.902523398399353,0.0898601487278938,0.1330397427082061,11.736861228942873,69.69537353515625,-111.5408935546875,207.419856019188,0.6385121544818084,58.49832042485797,0.916691280708823,-2.41619873046875,130.1646957397461,-68.83467864990234
1698.626,30.54361343383789,-185.003662109375,15.561187744140623,0.7155295610427856,0.1542843878269195,0.1882344484329223,16.03380584716797,-64.14086151123047,-44.1404914855957,45.41865539550781,9.377680778503418,-17.02450180053711,-0.8909047842025757,0.1142658740282058,0.1679457873106002,11.92051887512207,69.99971008300781,-112.32395935058594,188.1526451567554,0.7557899394871933,49.402720737585845,0.9137690145533746,-4.113286972045898,134.14057159423828,-68.18346786499023
1714.883,27.662532806396484,-150.10223388671875,5.803765296936035,0.5752060413360596,0.0915704667568206,0.2074947506189346,18.3357048034668,-67.06829071044922,-46.052764892578125,54.4450569152832,21.64706039428711,-11.913379669189451,-0.9443361759185792,0.0376591347157955,0.1678852587938308,12.624673843383787,70.5279541015625,-112.73553466796876,152.74023710427485,0.6183051123078125,59.78953136933419,0.9598825364055436,-5.711030960083008,137.59624481201172,-66.68276977539062
1736.083,28.42462539672852,-133.0833282470703,6.808703422546387,0.66477370262146,0.1858550012111663,0.085232563316822,20.825071334838867,-69.62496948242188,-48.121578216552734,48.811767578125,42.22759628295898,-7.918928146362305,-0.7979108691215515,0.034122671931982,0.0940102040767669,13.72827434539795,71.41093444824219,-112.6061019897461,136.25523853620456,0.6955075463442536,65.02667118132925,0.8041542328885938,-7.096796989440918,141.03590393066406,-64.48452377319336
1758.589,21.378978729248047,-108.47522735595705,14.356050491333008,0.8094009160995483,0.2101674079895019,0.0160666052252054,22.787158966064453,-71.74957275390625,-49.74957275390625,37.54451751708984,45.1264877319336,0.1243447512388229,-0.874205470085144,0.091558426618576,0.1666676253080368,15.274871826171877,72.35034942626953,-111.7831802368164,111.49005277217296,0.8363960295023384,58.70269288736744,0.8946486722381457,-7.512287139892578,144.09992218017578,-62.03360748291016
1774.591,19.25214385986328,-77.90950775146484,14.718039512634276,0.7961862683296204,0.1414320915937423,0.0214046370238065,24.287353515625,-73.2989501953125,-50.92005920410156,34.283870697021484,42.645729064941406,-4.96652364730835,-0.9658383727073668,0.1171580404043197,0.1771133691072464,16.53582763671875,73.25582122802734,-111.1967544555664,81.59140352005164,0.8089337234256883,54.942773451926776,0.9889079401753808,-7.75152587890625,146.55477142333984,-60.27669525146485
1796.6519999999998,23.830196380615234,-51.38996505737305,13.346949577331545,0.809356153011322,0.1552142947912216,-0.0223331153392791,25.41353416442871,-74.3465805053711,-51.59758758544922,22.44912910461425,50.00098419189453,-12.56162452697754,-0.8891308903694153,0.1109398379921913,0.1351777464151382,17.29126739501953,74.33745574951172,-110.89281463623048,58.19748990426083,0.8244074403870821,56.23038527762805,0.9061646710111348,-8.12226676940918,148.6840362548828,-59.29522705078125
1818.6,31.391843795776367,-22.49721336364746,13.782638549804688,0.8621901273727417,0.1951795220375061,-0.0344069488346576,25.844207763671875,-74.8731689453125,-51.39390563964844,1.851909637451172,52.92584991455078,-14.045587539672852,-0.8178083300590515,0.1096833571791648,0.0759424492716789,17.605661392211914,75.47200775146484,-110.64227294921876,41.00650669616303,0.8846754770478973,54.78917491455272,0.8286182228007348,-8.238546371459961,150.34517669677734,-59.24836730957031
1841.183,28.38483619689941,10.16775894165039,14.236327171325684,0.8883273601531982,0.2131753861904144,-0.0453890524804592,25.14227104187012,-74.8121109008789,-50.07868576049805,-16.441205978393555,45.74507141113281,-8.938468933105469,-0.9277827143669128,0.0984140262007713,0.0958791449666023,17.873355865478516,76.46898651123047,-110.04235076904295,33.342994153935074,0.9146744831683326,49.42490302774196,0.9379013253379106,-7.268915176391602,151.28109741210938,-59.96366500854492
1864.589,24.67630386352539,36.70865631103516,16.55877113342285,0.9250870943069458,0.2193945795297622,0.0265847723931074,23.457500457763672,-74.27781677246094,-47.818092346191406,-30.01522445678711,42.42337417602539,-12.879186630249023,-0.956316351890564,0.1082533225417137,0.0931442454457283,17.523591995239258,77.41967010498047,-109.81100463867188,47.229633938617575,0.9511187432195324,53.539983413586846,0.9669206778191536,-5.933908462524414,151.6974868774414,-61.99291229248047
1874.969,25.159557342529297,66.8574447631836,17.562885284423828,0.9162095785140992,0.1344770491123199,-0.0120221273973584,21.11703109741211,-73.17051696777344,-44.85538482666016,-47.352149963378906,43.46693420410156,-14.621511459350586,-0.9680677652359008,0.1190947443246841,0.0850022286176681,16.714845657348633,78.39566040039062,-109.75572967529295,73.56205669669654,0.9261039898662022,65.91956517312549,0.9790628861746132,-4.402185440063477,151.56617736816406,-64.90034484863281
1896.18,30.889259338378903,96.8021469116211,10.357006072998049,0.872107744216919,0.1112537905573844,-0.0043783588334918,19.04917335510254,-71.41921997070312,-42.0351448059082,-59.36152267456055,36.444610595703125,-18.56969451904297,-1.0184619426727295,0.1002140194177627,0.1285877227783203,14.902066230773926,79.23233795166016,-110.40328979492188,102.13750321977145,0.8791862677854927,72.08906692588951,1.0314273512031218,-4.147107124328613,150.65155792236328,-68.36814498901367
1916.252,37.62946319580078,123.06963348388672,8.524654388427734,0.8434534072875977,0.1452554017305374,0.1046745553612709,17.272045135498047,-69.1456069946289,-39.34000396728516,-72.27638244628906,29.3269100189209,-21.96860694885254,-0.9747519493103028,0.0914259701967239,0.1231587454676628,12.075799942016602,79.9340591430664,-111.88166809082033,128.9758927811879,0.8622468002474916,81.03433100885881,0.98674624260537,-5.196245193481445,149.0796661376953,-72.54166412353516
1938.603,33.97386169433594,141.8854522705078,1.66914701461792,0.8032132983207703,0.1401439011096954,0.1442041546106338,15.940945625305176,-66.45364379882812,-37.15975189208984,-86.989501953125,33.313987731933594,-19.40753173828125,-0.91987407207489,0.1115522235631942,0.0451139546930789,9.197612762451172,80.72474670410156,-113.04974365234376,145.90576032559107,0.8280016629358556,95.15065694375711,0.9277108795123524,-6.743332862854004,147.1783905029297,-75.8899917602539
1958.653,42.71586990356445,160.06265258789062,-0.906662940979004,0.747575044631958,0.1002651154994964,0.1552382707595825,15.03393840789795,-63.383426666259766,-35.209617614746094,-83.71814727783203,27.260841369628903,-17.096067428588867,-1.0367958545684814,0.0995320677757263,0.1135724335908889,6.1406755447387695,81.33915710449219,-114.4753646850586,165.6668957057461,0.7700782177487082,89.68922553649186,1.047736118609002,-8.89326286315918,144.72258377075195,-79.2657470703125
1981.024,45.498023986816406,178.23289489746094,-5.22163200378418,0.7639493346214294,0.0869435295462608,0.0381499379873275,14.449145317077637,-59.907997131347656,-33.51152801513672,-79.15122985839844,4.748180866241455,-22.01729965209961,-0.991713523864746,0.0412417501211166,0.2055007666349411,1.8253357410430908,81.43291473388672,-117.31993865966795,184.0225541911024,0.7698267213905498,82.29352279253763,1.0136208169018794,-12.623809576034546,141.34091186523438,-83.80841064453125
2003.608,39.39095687866211,198.13803100585932,-11.229621887207031,0.7300697565078735,0.0913900732994079,0.3946087658405304,13.999736785888672,-56.00665664672852,-32.06111145019531,-95.15874481201172,-0.3097342252731323,-13.93956470489502,-0.8699980974197388,0.0296041741967201,0.2208101898431778,-1.7864375114440918,81.3721923828125,-119.05498504638672,202.3275345137808,0.8349072241532729,96.1748101825516,0.8980702848788703,-15.786174297332764,137.37884902954102,-86.9938735961914
2013.585,45.78084564208984,201.23602294921875,-12.046683311462402,0.6353152394294739,0.0722906738519668,0.3056850731372833,13.896499633789062,-52.06372833251953,-30.80605697631836,-100.05281066894533,6.4304375648498535,9.256084442138672,-0.8955552577972412,0.0204709284007549,0.1185550987720489,-2.4979031085968018,81.52174377441406,-117.82585144042967,206.72915938234263,0.708727563254208,100.68560249226924,0.903600348673418,-16.394402742385864,133.5854721069336,-87.01979446411133
2038.355,56.16896438598633,213.0744781494141,-21.61794662475586,0.5730997920036316,0.0664327517151832,0.2476187050342559,14.275772094726562,-47.85414505004883,-29.839466094970703,-82.39447784423828,6.174513816833496,18.53631401062012,-1.0180871486663818,0.0020679896697402,0.11714369058609,-1.6663416624069214,81.68033599853516,-115.35935974121094,221.41143018170973,0.6278309527077324,84.67921549707019,1.0248065003233768,-15.942113757133484,129.53448104858398,-85.51989364624023
2063.369,49.53516006469727,235.5010986328125,-32.74231719970703,0.5569033622741699,0.0530879013240337,0.2948697507381439,14.703526496887209,-43.12970352172852,-29.05744743347168,-75.40760040283203,-1.926763772964477,19.776500701904297,-1.06197988986969,-0.0245875939726829,0.222711443901062,-0.5700873136520386,81.61502838134766,-112.75373077392578,242.87148633691663,0.6323826769288046,77.98159139926821,1.0853599511265837,-15.273613810539246,124.74473190307616,-83.6962833404541
2083.466,73.79098510742188,232.0900421142578,-30.689022064208984,0.3862291276454925,0.0492521449923515,0.8226103186607361,15.64179801940918,-38.48966598510742,-28.23802375793457,-67.09354400634766,-3.5028107166290283,18.87908935546875,-1.0584378242492676,-0.0591698251664638,0.2077296525239944,0.3930619657039642,81.52112579345703,-110.49772644042967,245.4642809187912,0.9101024388470034,69.78705714629335,1.0802515006004356,-15.248736053705215,120.01079177856444,-82.25970268249512
2093.519,90.61748504638672,231.9263916015625,-45.19879531860352,0.2699106633663177,0.3462345600128174,0.6692818999290466,17.131484985351562,-33.786495208740234,-27.69093513488769,-42.92795944213867,12.311854362487791,30.792823791503903,-0.9280247688293456,-0.0907789319753646,0.0424236059188842,3.363762855529785,81.81140899658203,-106.7169952392578,253.06977459923272,0.8004176399347713,54.24563997929808,0.933418742253716,-13.767722129821776,115.59790420532228,-79.02606010437012
2113.391,41.87112808227539,235.5401153564453,-50.31842041015625,0.2220240980386734,0.1518940031528473,0.3749540150165558,17.69490623474121,-29.000459671020508,-27.16144180297852,-22.73056602478028,14.77720069885254,26.15645408630371,-0.903087079524994,-0.0758163705468177,0.1540167033672332,6.330939292907715,82.05512237548828,-103.33525848388672,244.4673408485949,0.4614726445638129,37.67232913784304,0.9192581466399878,-11.363966941833496,111.0555820465088,-76.1738166809082
2136.015,72.9469223022461,255.9652404785156,-51.87979507446289,0.212089255452156,0.0851135551929473,0.7128959894180298,18.834522247314453,-23.82763862609864,-26.47499084472656,-19.226512908935547,36.948516845703125,9.045860290527344,-1.0170994997024536,-0.0089506609365344,0.2968171238899231,7.862109184265137,82.73152923583984,-101.49091339111328,271.16594724183665,0.7486299895703781,42.622520856120325,1.0595621320434532,-10.972413063049316,106.55916786193848,-75.01592254638672
2153.676,119.47198486328124,239.2875518798828,-48.3937873840332,-0.0028211439494043,0.3019784390926361,1.0836983919143677,20.93947982788086,-18.99899673461914,-25.70454788208008,-29.58035469055176,44.14063262939453,-0.5185403823852539,-0.9456746578216552,-0.0495379418134689,0.114039696753025,7.862433433532715,83.63394165039062,-100.98567199707033,271.79780409195865,1.1249893960246,53.13813806175543,0.9538131989864376,-13.077046394348145,102.63293838500977,-75.28112411499023
2176.386,89.2612533569336,235.9337310791016,-61.41175079345703,-0.0692908316850662,0.4608975052833557,0.6152524352073669,22.543676376342773,-14.160581588745115,-25.06513023376465,-38.45320892333984,55.26761245727539,6.397680759429932,-0.9392504692077636,-0.024732107296586,0.0866804122924804,9.724756240844728,84.7455062866211,-98.45809936523438,259.622225449352,0.7718570390691688,67.6320085634693,0.9435659038527878,-12.818920135498049,98.9060878753662,-73.39296913146973
2198.787,73.00483703613281,239.67344665527344,-66.55140686035156,-0.0733050182461738,0.1281426548957824,0.4447852969169616,23.865020751953125,-9.235529899597168,-24.39275932312012,-36.872989654541016,54.03398895263672,12.644770622253418,-1.0844298601150513,0.0048878621309995,0.2148402333259582,14.22909450531006,85.72510528564453,-93.27120971679688,259.2337883405297,0.468644989365427,66.62716827456319,1.1055172267137738,-9.635926246643066,94.9606351852417,-68.87845039367676
2214.904,161.39230346679688,253.83335876464844,-69.87140655517578,-0.1759772002696991,0.339661031961441,0.9959532022476196,26.98891258239746,-4.051678657531738,-23.48453521728516,-28.3232364654541,59.94378662109375,3.3462839126586914,-1.0924872159957886,-0.0025169807486236,0.1911999285221099,19.219343185424805,86.86436462402344,-87.82967376708984,308.8055425248388,1.066892859060909,66.38268520011349,1.1090951559596578,-7.769569396972656,90.91604328155518,-64.34513854980469
2237.079,155.77757263183594,236.87879943847656,-73.60818481445312,-0.3482278883457184,0.7801105380058289,1.042646408081055,30.075984954833984,0.8091784715652466,-22.504425048828125,-47.490535736083984,69.6803207397461,-14.620375633239746,-0.9297806024551392,-0.0137711139395833,0.0543732717633247,22.718692779541016,88.48482513427734,-83.68019104003906,292.91019550394554,1.3479416330144964,85.58302090105951,0.9314709147167328,-7.357292175292969,87.6756466627121,-61.17576599121094
2258.564,84.33120727539062,234.28884887695312,-74.01001739501953,-0.4525133967399597,0.6873865127563477,0.647659957408905,31.82620048522949,5.585019111633301,-21.355857849121094,-57.33561706542969,70.88652801513672,-8.938488006591797,-0.9467632174491882,-0.0139430779963731,0.0823370218276977,50.86642456054688,90.0,-55.70081329345703,259.77009047121606,1.047249737445359,91.60878454688908,0.9504390482835848,19.040224075317383,84.4149808883667,-34.34495544433594
2281.0350000000003,89.12393951416016,227.6743927001953,-78.20072174072266,-0.3981505334377289,0.2525964379310608,0.4426015019416809,33.76681900024414,10.2609281539917,-20.20766258239746,-63.72270584106445,61.70984649658203,3.786224365234375,-1.107013702392578,-0.0003278641961514,0.0836917608976364,140.2496337890625,90.0,36.671634674072266,256.6983805299448,0.6467030982245563,88.78639473073812,1.1101728494347185,106.48281478881836,79.7390718460083,56.87929725646973
2302.822,207.6534423828125,234.9771270751953,-80.12818145751953,-0.3879603743553161,0.5847160220146179,0.9063400626182556,38.25604248046875,15.036136627197266,-18.71705436706543,-45.785186767578125,58.43486785888672,12.32643699645996,-1.1461875438690186,0.0302746221423149,0.0920179411768913,154.2443389892578,88.41217041015625,51.68351745605469,323.6583504957561,1.146236619366778,75.25196447970816,1.1502737673983472,115.98829650878906,73.37603378295898,70.40057182312012
2313.61,183.26373291015625,245.3663024902344,-87.62997436523438,-0.7308944463729858,1.356376051902771,1.057853937149048,42.51905059814453,19.90453338623047,-16.756532669067383,-26.92351531982422,72.29734802246094,-13.66759204864502,-0.9799615144729614,0.0198504216969013,-0.1307093501091003,169.07460021972656,86.86717987060547,67.11646270751953,318.5423529220972,1.868961647079994,78.34912431333123,0.9888394931917052,126.55554962158205,66.962646484375,83.87299537658691
2336.041,-8.89222526550293,218.9520568847656,-101.9266128540039,-1.022207260131836,1.0516222715377808,0.5244258046150208,42.94652938842773,24.49653434753418,-15.146371841430664,-62.71985626220703,60.9028549194336,-24.639135360717773,-0.8267669081687927,0.1038463786244392,-0.043877612799406,176.1317138671875,85.65187072753906,75.42296600341797,241.6776971342869,1.5575106770762852,90.82964878393652,0.8344176626254803,133.18518447875977,61.15533638000488,90.56933784484865
2355.997,-27.39051818847656,181.9755401611328,-91.24366760253906,-0.8106688857078552,0.3873688578605652,0.3934668302536011,42.964473724365234,28.40555000305176,-13.881239891052246,-100.45568084716795,59.203643798828125,12.762821197509766,-0.9997158050537108,0.1694752871990203,-0.0893080458045005,171.7035369873047,84.39435577392578,72.95841979980469,205.40385726936088,0.9808439329500032,117.30006333521816,1.0179044605908742,128.73906326293945,55.98880577087402,86.83965969085693
2378.405,98.01959991455078,192.18862915039065,-78.58189392089844,-0.6230922341346741,0.5160159468650818,0.6228389739990234,45.83938980102539,32.26852035522461,-12.080106735229492,-94.87006378173828,49.59898376464844,33.618499755859375,-1.1994454860687256,0.1923569738864898,-0.119065523147583,165.1760711669922,83.24880981445312,68.27128601074219,229.6071105046844,1.0210018497486488,112.20780595961968,1.2205930027063965,119.3366813659668,50.98028945922852,80.35139274597168
2400.887,119.62452697753906,208.50439453125,-96.62069702148438,-1.0030534267425537,1.1838459968566897,0.7773668766021729,49.54517364501953,36.51432037353516,-9.857695579528809,-76.35301208496094,40.84017181396485,36.10371398925781,-1.224451184272766,-0.005622605793178,-0.2311650663614273,160.46424865722656,82.21111297607422,65.03067016601562,259.0746399907961,1.7354845957287568,93.81460575016284,1.2460937381548662,110.91907501220705,45.69679260253906,74.88836574554443
2423.173,-35.06694793701172,180.5292510986328,-108.86897277832033,-1.04684317111969,0.9509198665618896,0.4064058363437652,49.94342803955078,40.50776290893555,-8.10595417022705,-50.1054801940918,27.275745391845703,18.7188720703125,-0.9718433022499084,-0.0727696418762207,-0.1304958313703537,158.8016357421875,81.58729553222656,64.38324737548828,213.7123173185321,1.4714941118999714,60.04099935665664,0.9832619116552008,108.85820770263672,41.079532623291016,72.48920154571533
2434.936,-67.40966033935547,186.17901611328125,-92.62195587158205,-0.7677326202392578,0.4972416460514068,0.1570918262004852,50.11268615722656,44.3355712890625,-5.864981651306152,-35.39242935180664,30.61469459533692,27.88988304138184,-0.9513684511184692,-0.0045942058786749,-0.0390037633478641,156.3653106689453,80.86644744873047,62.64536285400391,218.5989822882394,0.9280843025320236,54.47686808775201,0.952178728005676,106.25262451171876,36.53087615966797,68.51034450531006
2460.686,-3.636913299560547,204.5003662109375,-85.93397521972656,-0.8439947366714478,0.4561592936515808,0.6591126918792725,52.21072769165039,48.24966049194336,-2.844107389450073,-29.82164764404297,13.819819450378418,34.98797607421875,-1.1569117307662964,0.053007211536169,0.0487799011170864,152.654052734375,80.33158874511719,59.51593780517578,221.851921370586,1.163975067306064,48.00496378101556,1.159152274730331,100.4433250427246,32.08192825317383,62.360045194625854
2480.773,-0.5181379318237305,216.47586059570312,-86.5538330078125,-0.9462845921516418,0.8248625993728638,0.3943212628364563,55.22604370117188,52.18928146362305,1.0545161962509155,-28.6606388092041,-4.632310390472412,31.627206802368164,-1.2049221992492676,0.0406490042805671,0.0133396778255701,148.55625915527344,80.1517333984375,55.97320556640625,233.1386555162206,1.3158047330484468,42.932164243432894,1.2056814648974177,93.33021545410156,27.962451934814453,54.91868937015533
2503.279,-68.70387268066406,224.852294921875,-91.5285415649414,-1.0661375522613523,0.6436437964439392,0.2108266204595565,57.71291732788086,56.2070198059082,5.788549423217773,-39.01710510253906,-31.06542587280273,18.075061798095703,-1.1139730215072632,0.0308397468179464,0.085673376917839,144.02723693847656,80.47062683105469,52.20042037963867,252.3019036273012,1.2630813437530433,53.04811998785782,1.1176881989814165,86.3143196105957,24.263607025146484,46.4118709564209
2513.273,-90.96427917480467,237.0692443847656,-91.66322326660156,-1.030833721160889,0.432511031627655,0.0818960964679718,60.96338272094727,60.223121643066406,11.744991302490234,-47.96985626220703,-38.31907653808594,13.442049026489258,-0.9862177968025208,0.1646174788475036,0.0733158439397811,138.915283203125,80.90663146972656,48.02378082275391,269.96013264661576,1.12088845287063,62.85019823818404,1.0025465924557964,77.95190048217773,20.68350982666016,36.27878952026367
2536.466,-59.3667221069336,244.53909301757807,-87.37737274169922,-1.1638174057006836,0.3816672265529632,0.2938199043273926,66.51380920410156,64.02764892578125,19.38302993774414,-63.65454864501953,-48.72752380371094,20.76776695251465,-0.9375047087669371,0.2430331856012344,0.031208174303174,131.2843475341797,81.3028793334961,41.61829376220703,266.3805191353592,1.2595518892905757,82.81046602595794,0.968996469759824,64.77053833007812,17.275230407714844,22.23526382446289
2553.356,-58.70624542236328,251.8881378173828,-75.93065643310547,-1.2903820276260376,0.4925239682197571,0.1570267081260681,74.73348236083984,67.17230224609375,29.687152862548828,-83.59584045410156,-32.172325134277344,15.35569953918457,-0.8858725428581238,0.2433334439992904,-0.1112950444221496,124.83137512207033,81.39608764648438,36.785675048828125,269.55430215647067,1.390080221985814,90.87970375232838,0.9254014880425698,50.09789276123047,14.223785400390623,7.098522186279297
2576.603,-101.293212890625,223.27816772460932,-49.003902435302734,-0.4528592824935913,0.67904132604599,-0.1903589516878128,83.11434173583984,69.00064849853516,40.89859390258789,-95.41062927246094,-8.327720642089844,16.08884048461914,-0.8685066103935242,0.1790248155593872,-0.3283699750900268,120.89119720458984,81.21502685546875,34.72111511230469,250.02967346707652,0.8381021314294517,97.11534326459022,0.9456111555094654,37.77685546875,12.214378356933594,-6.177478790283203
2593.166,-101.0615692138672,268.86529541015625,-40.25654602050781,-2.2718515396118164,-0.0107036307454109,-0.2623478174209595,95.34855651855467,69.88545989990234,56.15578842163086,-113.7224578857422,2.003736019134521,18.940975189208984,-0.8546477556228638,0.1656357944011688,-0.522150993347168,117.67745971679688,80.86136627197266,33.752628326416016,290.03892384550926,2.286974062610517,115.30643055236344,1.0151352926736117,22.328903198242188,10.975906372070312,-22.403160095214844
2616.203,-87.68843078613281,181.8737945556641,-22.000980377197266,-1.2711451053619385,0.3555715382099151,-0.1654222309589386,103.55581665039062,69.7236099243164,66.76575469970703,-105.75672912597656,27.33504867553711,35.16508483886719,-0.8465187549591064,0.2202589809894561,-0.6443206071853638,116.55228424072266,79.97957611083984,34.731727600097656,203.104360311068,1.3302652036966205,114.7530994494,1.086396366915752,12.996467590332031,10.255966186523438,-32.034027099609375
2639.128,-102.1456069946289,172.82177734375,-29.181486129760746,-1.2521185874938965,0.3255702257156372,-0.027354821562767,110.747802734375,69.29210662841797,76.6319351196289,-73.8743667602539,42.0961799621582,52.5241813659668,-0.9602733850479126,0.1367800235748291,-0.5735209584236145,116.57323455810548,78.65449523925781,36.20920181274414,202.86116159899927,1.2940421999621852,99.94148317790712,1.126836296287819,5.825431823730469,9.362388610839844,-40.422733306884766
2653.416,-125.78128051757812,144.00787353515625,-18.483619689941406,-1.115638017654419,0.3108936846256256,-0.0570850074291229,115.38019561767578,68.55595397949219,84.30535888671875,-42.767852783203125,50.48081588745117,37.14030075073242,-1.0146031379699707,0.0749856233596801,-0.3444910049438476,118.33007049560548,77.52394104003906,38.86331558227539,192.09591970055385,1.1595523996996266,75.87360505606237,1.0741119233005345,2.9498748779296875,8.967987060546875,-45.44204330444336
2675.755,-139.681884765625,138.73780822753906,-9.177371978759766,-1.0593359470367432,0.3188622593879699,0.032620832324028,118.84408569335938,67.47476196289062,91.06153869628906,-19.94701194763184,49.82173538208008,39.18265914916992,-1.0498872995376587,0.1099388226866722,-0.1585843563079834,120.22187042236328,76.3841781616211,41.16826629638672,197.0873728068221,1.1067655161992296,66.44824587693047,1.067473130589162,1.3777847290039062,8.909416198730469,-49.89327239990234
2698.756,-163.96202087402344,133.89181518554688,-11.899114608764648,-1.060710072517395,0.3639535307884216,0.0239897277206182,121.2220687866211,66.3487319946289,97.21842956542967,-8.696327209472656,40.05905151367188,32.68907165527344,-1.037421941757202,0.1761471629142761,0.0056536928750574,121.33382415771484,75.45231628417969,42.48281097412109,212.0192241077371,1.1216699771097225,52.43023098168492,1.0522851669035147,0.11175537109375,9.10358428955078,-54.735618591308594
2720.596,-141.1985626220703,115.6173095703125,-15.692083358764648,-1.0282832384109497,0.2261542379856109,0.0215395092964172,123.13079071044922,65.38372802734375,102.40367889404295,-12.503043174743652,31.902687072753903,26.796401977539062,-1.0181208848953247,0.1931152492761612,0.0137024587020277,121.8257064819336,74.71973419189453,43.27059173583984,183.1683319762305,1.0530793456413874,43.49890446934753,1.0363645078530592,-1.305084228515625,9.33600616455078,-59.133087158203125
2743.414,-120.1446304321289,105.67877197265624,-10.660842895507812,-0.994419813156128,0.2321394383907318,0.0631040632724762,124.71810150146484,64.38031768798828,106.80862426757812,-26.804229736328125,30.099254608154297,23.14416885375977,-0.9768247008323668,0.1834655255079269,-0.0786847919225692,122.17035675048828,74.04774475097656,44.182010650634766,160.36330203186827,1.0231039079464654,46.47670827044121,0.9970142384570247,-2.5477447509765625,9.66742706298828,-62.62661361694336
2753.089,-112.36737060546876,98.12049865722656,-2.3090813159942627,-1.0125352144241333,0.260430634021759,-0.0368870384991169,125.78168487548828,63.28470993041992,110.49600219726562,-40.247501373291016,26.77842712402344,19.521615982055664,-0.9841289520263672,0.148072138428688,-0.1159380674362182,122.24256896972656,73.48483276367188,45.12721252441406,149.19581123494532,1.046141639165145,52.13481578159213,1.001936518885406,-3.5391159057617188,10.200122833251951,-65.36878967285156
2776.002,-111.66422271728516,81.42393493652344,-5.718900203704834,-1.0092967748641968,0.2416584938764572,-0.0417640954256057,126.2421646118164,62.41875076293945,113.52206420898438,-44.728458404541016,18.20895767211914,16.901138305664062,-0.9860352873802184,0.1396304070949554,-0.1430129259824752,121.8693618774414,73.05957794189453,45.68447113037109,138.3165269775908,1.0386640684459176,51.16492555236417,1.0060889302355742,-4.372802734375,10.640827178955078,-67.83759307861328
2799.367,-118.02838897705078,65.6063232421875,-5.059394836425781,-0.9504495859146118,0.2555229365825653,0.0011796467006206,125.99143981933594,61.72615051269531,115.90773010253906,-45.47566223144531,13.805389404296877,11.698546409606934,-0.9581758975982666,0.17361581325531,-0.1426485031843185,121.38428497314452,72.75518798828125,46.14468383789063,135.1313721161272,0.9841990540796984,48.94364739259326,0.984170766082428,-4.607154846191406,11.029037475585938,-69.76304626464844
2820.443,-120.26612091064452,54.12091827392578,-4.795340061187744,-0.9497357606887816,0.2618571519851684,-0.0045623602345585,125.3028564453125,61.17287063598633,117.86006927490234,-55.12801361083984,12.159873962402344,7.097792148590088,-0.969009280204773,0.220540776848793,-0.1270317733287811,120.7028350830078,72.53423309326172,46.60425567626953,131.9697272862574,0.985184245868656,56.89761921946331,1.0018753868675965,-4.600021362304688,11.36136245727539,-71.25581359863281
2840.334,-116.72312927246094,41.97180938720703,-9.774096488952637,-0.9452178478240968,0.2365159839391708,-0.0327685549855232,124.41133880615234,60.85337066650391,119.5076904296875,-57.35548782348633,6.221447467803955,2.8732006549835205,-0.9760631918907166,0.1901780366897583,-0.1316121220588684,119.83697509765624,72.46430969238281,46.90866470336914,124.42449378063398,0.974910441373858,57.76342851725934,1.003089622554188,-4.574363708496094,11.610939025878906,-72.59902572631836
2862.964,-105.283203125,29.35653686523437,-12.881933212280272,-0.93826162815094,0.2024835795164108,-0.0437553413212299,123.43328857421876,60.73947525024414,120.79754638671876,-46.22112655639648,1.5732442140579224,-2.868716239929199,-0.9591966271400452,0.1356800645589828,-0.1461607217788696,119.2055892944336,72.5622787475586,47.25289916992188,110.0559099742741,0.960858476950882,46.33677988773843,0.9797092456573474,-4.227699279785156,11.822803497314451,-73.54464721679688
2873.231,-87.2848129272461,15.614205360412598,-15.365533828735352,-0.94730806350708,0.1794925034046173,-0.0178895220160484,122.4540023803711,60.827518463134766,121.6740493774414,-28.04884910583496,-3.523425579071045,-7.214605331420898,-0.9726325273513794,0.0825397968292236,-0.1527363955974578,118.70783233642578,72.74468231201172,47.35833358764648,89.99189744984542,0.964328865565038,29.17538335757249,0.9880056972824826,-3.746170043945313,11.917163848876951,-74.31571578979492
2900.5200000000004,-72.77650451660156,4.323983669281006,-21.369115829467773,-0.9525169730186462,0.1597024351358413,-0.0422867871820926,121.53813934326172,61.14430236816406,122.2897491455078,-8.518077850341797,-8.16428279876709,-13.211679458618164,-0.9804989099502563,0.099369503557682,-0.1814252138137817,118.615478515625,73.09639739990234,47.46649932861328,75.97207089292976,0.9667376190296444,17.713318096844556,1.0020815929146276,-2.9226608276367188,11.95209503173828,-74.82324981689453
2920.329,-59.60010528564453,-5.999593257904053,-23.69924736022949,-0.9766566753387452,0.1846989542245865,-0.0716071426868438,120.60597229003906,61.6120719909668,122.58460998535156,11.463342666625977,-1.0803436040878296,-15.358238220214844,-0.95738422870636,0.2151207476854324,-0.1952002495527267,119.40851593017578,73.38013458251953,48.084102630615234,64.4191120302162,0.9965438013751132,19.195073550894485,1.000482201183938,-1.1974563598632812,11.768062591552734,-74.50050735473633
2942.7490000000003,-50.89409255981445,-20.39323806762696,-28.71556854248047,-0.9887137413024902,0.1251456141471862,-0.0696766227483749,119.46466064453124,62.31329345703125,122.4437026977539,17.859834671020508,11.50265121459961,-22.98271942138672,-0.98799467086792,0.2311439514160156,-0.2161195874214172,121.35504150390624,73.65318298339844,49.77482604980469,61.89246071281836,0.9990350938471898,31.296806090128467,1.037433695233976,1.890380859375,11.339889526367188,-72.66887664794922
2952.904,-32.611228942871094,-38.742462158203125,-31.091047286987305,-1.0127476453781128,0.0709152519702911,0.0122078340500593,118.07459259033205,63.23098373413086,121.61331176757812,-5.602786540985107,9.506291389465332,-42.77706909179688,-1.0013619661331177,0.0651019960641861,-0.2759892642498016,123.461669921875,74.28919219970703,52.12697219848633,59.42326016507202,1.0153008408314823,44.1773520380028,1.0407373016715944,5.387077331542969,11.058208465576172,-69.4863395690918
2980.289,-23.475887298583984,-54.71743392944336,-34.750282287597656,-1.0538419485092163,0.067441776394844,-0.0806597620248794,116.2749481201172,64.34923553466797,120.12993621826172,-1.708118915557861,18.438695907592773,-50.75225830078125,-0.9285131692886353,0.0428503863513469,-0.3749149739742279,126.62782287597656,74.91232299804688,55.49543762207031,68.93980692855573,1.0590737664822525,54.024947011835046,1.0022644854842366,10.352874755859377,10.563087463378906,-64.6344985961914
2993.01,-8.689380645751953,-74.23079681396484,-46.318458557128906,-1.0778486728668213,0.0095064546912908,-0.1306250840425491,114.0582275390625,65.81886291503906,117.87698364257812,20.063793182373047,16.808147430419922,-52.78611373901367,-0.9470899701118468,-0.1319200545549392,-0.3230750560760498,130.50540161132812,75.53254699707031,59.13737106323242,87.92676574713396,1.0857767021182063,58.91895637717847,1.009336318646456,16.447174072265625,9.71368408203125,-58.7396125793457
3016.387,25.17539978027344,-98.08490753173828,-53.97706604003906,-1.0346269607543943,0.0231100637465715,-0.0278488621115684,111.3293914794922,67.57171630859375,114.35796356201172,60.20813751220703,16.167266845703125,-49.95867919921875,-0.9343290328979492,-0.0809670984745025,-0.3083625137805938,135.35537719726562,76.05242156982422,62.94656753540039,114.7517908265356,1.035259668917492,79.8891104424092,0.9872253302344324,24.02598571777344,8.480705261230469,-51.41139602661133
3038.842,53.97554016113281,-111.60969543457033,-58.43730545043945,-1.0979089736938477,0.1077620014548301,0.1072858348488807,108.0837173461914,69.42647552490234,109.70943450927734,101.26114654541016,15.111955642700195,-44.888301849365234,-0.9934217929840088,0.1662836819887161,-0.1531435847282409,140.87530517578125,76.44148254394531,66.60159301757812,137.05838799209468,1.108389378257591,111.7906554500764,1.018817981395452,32.791587829589844,7.015007019042969,-43.10784149169922
3052.84,60.73444366455078,-117.05944061279295,-69.53849029541016,-1.1611920595169067,0.1722747534513473,0.0771568045020103,104.07115936279295,71.414794921875,104.1612319946289,101.1720962524414,-0.3395729064941406,-37.037723541259766,-1.0792112350463867,0.1947474330663681,-0.0583682209253311,145.10385131835938,76.94335174560547,68.93875885009766,149.0878496604849,1.1764347675255094,107.73904276069509,1.0981941093223344,41.032691955566406,5.528556823730469,-35.22247314453125
3075.648,62.86578369140625,-122.98265075683594,-81.30352020263672,-1.1695010662078855,0.1012677997350692,0.0517574362456798,98.73590850830078,73.50110626220703,97.24791717529295,94.18983459472656,-11.88438320159912,-46.07075500488281,-1.0694475173950195,0.0760217234492302,-0.1033820956945419,149.84608459472656,77.7025146484375,71.94900512695312,160.27196118988846,1.175017762985432,105.52477420863944,1.0771189129380083,51.11017608642578,4.201408386230469,-25.298912048339844
3098.951,75.51610565185547,-133.5960693359375,-82.32624816894531,-1.1815422773361206,0.0412919260561466,0.0713914036750793,91.22003936767578,75.38101959228516,87.87996673583984,87.46550750732422,-17.27446746826172,-55.70505142211914,-0.9862402677536012,-0.0263961777091026,-0.2181568145751953,155.88348388671875,78.53942108154297,76.37245178222656,174.14994427908837,1.1844171177455811,105.12694699156236,1.0104251677793568,64.66344451904297,3.1584014892578125,-11.50751495361328
3112.85,96.89083862304688,-145.38050842285156,-80.87594604492188,-1.270922303199768,0.047827735543251,0.0306791402399539,81.02836608886719,76.8076171875,75.38526153564453,90.8453369140625,-16.218616485595703,-45.75018310546875,-0.9706529378890992,-0.0137190371751785,-0.2701601088047027,161.7213592529297,79.14788055419922,80.53260040283203,192.5207663786565,1.272191889104651,102.99999035883587,1.00764171321116,80.6929931640625,2.3402633666992188,5.1473388671875
3135.289,113.23456573486328,-163.37899780273438,-83.83740234375,-1.3578215837478638,0.1024511158466339,0.1152514964342117,67.29252624511719,77.60971069335938,58.9857292175293,114.70284271240234,-10.046180725097656,-34.701663970947266,-1.027558207511902,0.0631007924675941,-0.332155168056488,167.3255615234375,79.45696258544922,83.97428131103516,215.73936551296515,1.3665498863415495,120.2575293103096,1.081750727063192,100.03303527832033,1.847251892089844,24.98855209350586
3157.885,121.0265884399414,-183.4082946777344,-92.56809997558594,-1.390041470527649,0.1634192913770675,0.1994073390960693,51.09971618652344,77.33879852294922,39.92749786376953,141.05592346191406,-11.715954780578612,-26.40377426147461,-1.009058117866516,0.1539677828550338,-0.3656068444252014,172.70724487304688,79.76045227050781,86.64906311035156,238.44263628616355,1.413748365681187,143.98331999007672,1.0842383170134526,121.60752868652344,2.4216537475585938,46.72156524658203
3180.394,121.70994567871094,-210.10142517089844,-99.44508361816406,-1.3878259658813477,0.2387827038764953,0.218097299337387,35.55629348754883,75.62095642089844,21.439620971679688,152.13954162597656,-12.309687614440918,-19.657814025878903,-0.9405788779258728,0.1380998194217682,-0.2890326082706451,177.6669464111328,80.01372528076172,88.66373443603516,262.38377311065,1.425006850237334,153.89736251022438,0.9936297269950972,142.11065292358398,4.392768859863281,67.22411346435547
3202.45,106.03126525878906,-225.33273315429688,-97.70001983642578,-1.3436179161071775,0.2108390182256698,0.1867766082286834,23.95232963562012,72.6923599243164,7.170745372772217,135.2422637939453,-9.572425842285156,-18.794544219970703,-0.9327397346496582,0.0643062368035316,-0.18634133040905,-177.71853637695312,80.19383239746094,90.6848373413086,267.5121748990188,1.372824714765862,136.8770840756537,0.9533424338110422,-201.67086601257324,7.501472473144531,83.51409196853638
3212.963,99.73362731933594,-236.23260498046875,-92.46240234375,-1.3986737728118896,0.1996463239192962,0.2746511697769165,16.39274787902832,68.9330062866211,-2.9503252506256104,127.18955993652344,-10.304854393005373,-9.990528106689451,-0.9941676259040833,0.0804204270243644,-0.2301305681467056,-174.25411987304688,80.35895538330078,91.69084930419922,272.5838144888795,1.439298524443822,127.99681571335312,1.0236194565726404,-190.6468677520752,11.425949096679688,94.64117455482484
3235.24,101.61117553710938,-255.097885131836,-90.60968780517578,-1.4793124198913574,0.220199167728424,0.4624375700950622,11.576099395751951,64.44987487792969,-10.41540813446045,96.15046691894533,-10.18140697479248,-4.662282466888428,-0.9626659750938416,0.1528339087963104,-0.2584503889083862,-171.75839233398438,80.54095458984375,92.3063507080078,289.15372644481005,1.5654716271298372,96.80036267761916,1.0084049716300647,-183.3344917297364,16.091079711914062,102.72175884246826
3258.865,90.72095489501952,-269.45269775390625,-89.34686279296875,-1.4388421773910522,0.2529100477695465,0.478505790233612,8.371922492980957,59.47015380859375,-16.10613250732422,48.352516174316406,-5.225770473480225,1.0858348608016968,-0.9604145288467408,0.2656871974468231,-0.1667937934398651,-170.82562255859375,80.64889526367188,92.33818817138672,298.02333780237365,1.53726968843769,48.6462078149362,1.0103494067089438,-179.1975450515747,21.178741455078125,108.44432067871094
3278.931,73.785888671875,-275.4166564941406,-92.58618927001952,-1.338458776473999,0.2459202259778976,0.5169904232025146,5.981682777404785,54.2327766418457,-20.719287872314453,6.0009870529174805,-10.902633666992188,6.376036167144775,-1.0317634344100952,0.3322230875492096,-0.1306622624397277,-171.2643585205078,80.88666534423828,91.8433074951172,299.7847469186077,1.45575676249448,13.98331518956263,1.0917786365890811,-177.2460412979126,26.65388870239257,112.56259536743164
3300.128,76.728271484375,-282.23846435546875,-99.5969467163086,-1.296924352645874,0.2310919165611267,0.7112116813659668,4.3809990882873535,48.78868865966797,-24.720115661621094,-8.093147277832031,-25.5329647064209,20.901254653930664,-1.1327699422836304,0.2080950736999511,-0.0917835980653762,-173.7796173095703,81.47234344482422,89.52796173095703,308.9746432992914,1.497076586583739,33.974899053102035,1.1553767916629076,-178.16061639785767,32.68365478515625,114.24807739257812
3322.659,70.08148956298828,-286.2617492675781,-94.26818084716795,-1.167349100112915,0.1980990022420883,0.7427887320518494,3.4280343055725098,43.205196380615234,-27.987512588500977,17.33995819091797,-56.16272735595703,23.372074127197266,-1.2361462116241455,-0.1766091287136078,-0.0763362720608711,-175.8322296142578,82.67098999023438,87.18321990966797,309.42477953993176,1.397741834777416,63.25488078503943,1.2510297627514133,-179.26026391983032,39.46579360961914,115.17073249816896
3332.58,60.189300537109375,-286.3197631835937,-81.26026916503906,-0.9886696338653564,0.1455790400505066,0.7277458310127258,2.9765353202819824,37.57903289794922,-30.54524612426757,75.28669738769531,-71.53327941894531,5.172636032104492,-1.1001180410385132,-0.3511585593223572,-0.0313210748136043,-174.16224670410156,84.13167572021484,87.451171875,303.6527458025537,1.2362341592052404,103.9800607400089,1.1552285694749973,-177.13878202438354,46.552642822265625,117.99641799926758
3360.083,61.05986785888672,-286.49267578125,-67.56121063232422,-0.8772043585777283,0.1063728779554367,0.8202173709869385,3.051125288009644,31.92923355102539,-32.58635330200195,132.99105834960938,-76.34477996826172,8.130377769470215,-0.9957592487335204,-0.1504186689853668,0.017396068200469,-170.76425170898438,85.74604797363281,88.3070068359375,300.6174943700889,1.205636434229246,153.56187701387933,1.0072064736718631,-173.81537699699402,53.81681442260742,120.89336013793944
3380.0,57.43412780761719,-283.68048095703125,-54.270450592041016,-0.7764884233474731,0.0875806733965873,0.8471159934997559,3.4154391288757324,26.32763290405273,-34.18073272705078,166.3417510986328,-85.0727310180664,12.622522354125977,-1.0924482345581057,-0.0468012914061546,0.0828708261251449,-165.16583251953125,87.67449951171875,90.75347137451172,294.4801795036424,1.152480000862628,187.2599150699695,1.0965861023599877,-168.58127164840698,61.346866607666016,124.9342041015625
3402.4390000000003,54.74018096923828,-280.6925354003906,-43.45626831054688,-0.6891990900039673,0.085653431713581,0.8704920411109924,3.973522901535034,20.78360176086425,-35.55674743652344,155.611328125,-88.34356689453125,8.346212387084961,-1.1020084619522097,-0.060588926076889,0.0925669968128204,-138.2320556640625,90.0,115.6083526611328,289.26326088448,1.113592515089874,179.13439232510677,1.1075478847780666,-142.20557856559753,69.21639823913574,151.16510009765625
3422.631,59.128074645996094,-284.5696105957031,-36.31008529663086,-0.6414017677307129,0.109175905585289,0.934407353401184,4.779970645904541,15.16645622253418,-36.7322883605957,141.18536376953125,-93.49674987792967,3.8040480613708496,-0.980474293231964,0.0130073148757219,0.1098488345742225,-22.656572341918945,89.45751190185547,-133.16305541992188,292.9068363493437,1.138609989460244,169.37951458817042,0.98669437841021,-27.436542987823486,74.29105567932129,-96.43076705932616
3432.739,65.59222412109375,-289.2725830078125,-31.751928329467773,-0.6037421226501465,0.1349042505025863,0.9177058935165404,5.836208820343018,9.466692924499512,-37.95328521728516,131.4416046142578,-100.9065170288086,8.610331535339355,-0.956969141960144,0.0454207956790924,0.1553324460983276,-3.682063102722168,86.85974884033203,-116.79396057128906,298.3104961240942,1.1067464996379075,165.9311857717065,0.9705571369862498,-9.518271923065186,77.39305591583252,-78.8406753540039
3452.886,65.2200698852539,-289.21368408203125,-18.097900390625,-0.4516885280609131,0.1240501850843429,0.9038938283920288,7.020786285400391,3.7615814208984375,-38.94206237792969,119.33423614501952,-107.06084442138672,10.05459213256836,-1.1113877296447754,-0.0572982691228389,0.21707384288311,1.468489408493042,84.55463409423828,-113.90166473388672,297.0281915486935,1.018054530860942,160.6355475836154,1.1338372151739784,-5.552296876907349,80.79305267333984,-74.95960235595703
3475.446,62.04677963256836,-286.5606384277344,1.6447296142578125,-0.3250543475151062,0.1298635154962539,0.8875072002410889,8.247430801391602,-1.920812964439392,-39.62282180786133,97.78150177001952,-94.46630096435548,3.5004358291625977,-1.0270429849624634,-0.115375779569149,0.2182921171188354,2.823781728744507,82.57227325439453,-114.43620300292967,293.205572072543,0.9540408230129848,136.00498945730854,1.0563050278532329,-5.423649072647095,84.49308621883392,-74.81338119506836
3492.581,57.15298461914063,-289.4971923828125,13.458706855773926,-0.2371692210435867,0.1491572111845016,0.8851210474967957,9.442160606384276,-7.680564403533935,-40.28419494628906,89.66212463378906,-94.81040954589844,19.82902908325196,-0.9885059595108032,-0.0676313117146492,0.1728370040655136,5.99131965637207,80.6153335571289,-113.01757049560548,295.3916465281924,0.9284052896125616,131.9905327911459,1.0057786318504485,-3.450840950012207,88.29589796066284,-72.7333755493164
3515.097,57.10767364501953,-293.12237548828125,20.99092102050781,-0.1646517962217331,0.1645911931991577,0.9230122566223145,10.697956085205078,-13.523422241210938,-40.890716552734375,121.26565551757812,-101.364501953125,27.8814697265625,-0.9938966631889344,-0.0010088235139846,0.1904071122407913,9.82547378540039,78.51081848144531,-111.5198974609375,299.3703929354541,0.951920217640524,160.49142599661275,1.0119715723353386,-0.8724822998046875,92.03424072265624,-70.62918090820312
3537.743,52.89060592651367,-290.99920654296875,25.65865707397461,-0.1239016503095626,0.2266753166913986,0.8333733081817627,11.945183753967283,-19.327823638916016,-41.55339431762695,140.7213897705078,-96.2467803955078,26.77106666564941,-1.041414499282837,0.0390702150762081,0.2492986321449279,13.24862289428711,76.49522399902344,-110.91099548339844,296.87761971349573,0.8724932028024025,172.57648242405722,1.071550488316792,1.3034391403198242,95.82304763793944,-69.35760116577148
3552.775,27.11620140075684,-295.9400634765625,31.66722297668457,-0.007248515728861,0.1770349442958831,0.7729972004890442,12.75291919708252,-25.242164611816406,-42.30133056640625,123.15574645996094,-88.3160171508789,25.36864471435547,-0.9946593046188354,0.0396169014275074,0.2751312553882599,15.825801849365234,74.63921356201172,-110.77275848388672,298.8622133358001,0.7930438729641743,153.6574921900905,1.0327699835079749,3.072882652282715,99.88137817382812,-68.47142791748047
3574.987,24.407379150390625,-299.30859375,38.47474670410156,0.1403005719184875,0.1765408962965011,0.7011390924453735,13.569219589233398,-31.24398231506348,-42.989688873291016,100.8321533203125,-88.14566040039062,12.288307189941406,-0.9267272353172302,0.0648912638425827,0.2897639572620392,16.91118049621582,72.85777282714844,-111.7356414794922,302.7567680226789,0.7365099900890338,134.49082899672516,0.9731379119785446,3.341960906982422,104.10175514221191,-68.74595260620117
3597.797,31.87171936035156,-291.4350891113281,48.54741668701172,0.2382275909185409,0.2011450231075287,0.5774742960929871,14.525798797607422,-37.1320915222168,-43.56046676635742,86.13664245605469,-85.40277862548828,7.993717670440674,-0.8545737862586975,0.1460189968347549,0.3194233179092407,17.634958267211914,71.13370513916016,-112.8459243774414,297.165054014255,0.6562684420600086,121.560911862124,0.9239313608820204,3.109159469604492,108.26579666137695,-69.28545761108398
3619.878,33.67108917236328,-285.041748046875,52.85983657836914,0.3038452565670013,0.1860975325107574,0.4847438931465149,15.64391040802002,-42.88933563232422,-44.24520492553711,66.55365753173828,-76.87594604492188,8.114192008972168,-0.9026890993118286,0.1767545342445373,0.3345281481742859,18.19042015075684,69.58898162841797,-113.6988296508789,291.8504800386035,0.6016069094414551,102.00559064635678,0.9787741605259718,2.5465097427368164,112.4783172607422,-69.4536247253418
3642.175,25.919227600097656,-270.85498046875,53.65794372558594,0.404843807220459,0.1793448776006698,0.44715416431427,16.7166805267334,-48.3392219543457,-44.97819900512695,39.45050048828125,-64.1913070678711,-6.697741985321045,-1.0286319255828855,0.1336416751146316,0.2916063964366913,17.673023223876953,68.44296264648438,-115.14061737060548,277.33265535989585,0.6292932067247736,75.64208907453263,1.077486902982395,0.9563426971435548,116.78218460083008,-70.16241836547852
3652.393,39.91283416748047,-264.58135986328125,49.53038024902344,0.44220170378685,0.1028158515691757,0.2230893820524215,18.328754425048828,-53.70254135131836,-46.009552001953125,20.299570083618164,-63.42317199707031,-34.99845886230469,-0.8913924098014832,0.1475194692611694,0.2476371079683303,15.638715744018556,67.46916961669922,-117.8742218017578,272.1205410952962,0.5058481180655109,75.22940525144489,0.9368385983218832,-2.690038681030273,121.17171096801758,-71.86466979980469
3674.955,91.3412094116211,-243.92958068847656,52.60828399658203,0.5603936314582825,0.0581527464091777,0.3906193971633911,21.1075496673584,-58.64738845825195,-47.17023849487305,2.9015026092529297,-37.77025604248047,-17.523319244384766,-0.8709169626235962,0.0927543714642524,0.0984167829155922,14.437477111816406,66.84063720703125,-119.27941131591795,265.7301044607077,0.6855700383871969,41.73820403714874,0.8813544079260588,-6.670072555541992,125.4880256652832,-72.10917282104492
3698.001,37.11064147949219,-208.99008178710932,42.77338409423828,0.5504733324050903,0.349645048379898,0.1955534964799881,23.272262573242188,-62.845436096191406,-48.79536819458008,5.091156005859375,-10.935857772827148,-9.88443660736084,-0.9047054648399352,0.1062090769410133,0.1364926695823669,13.968870162963867,66.67652130126953,-119.8997039794922,216.5262487165824,0.6808184189130719,15.595350004037646,0.9210877238274466,-9.30339241027832,129.52195739746094,-71.10433578491211
3719.603,29.009990692138672,-197.99468994140625,58.97597503662109,0.6651586294174194,0.2223535925149917,0.0887937620282173,25.01695251464844,-66.94395446777344,-50.08333969116211,27.654226303100582,1.2435708045959473,5.946305751800537,-0.9332396388053894,0.0811789631843566,0.2618354260921478,14.812251091003418,66.71605682373047,-119.5858383178711,208.61841346456387,0.7069380839705176,28.31362309671865,0.972668513861818,-10.20470142364502,133.6600112915039,-69.50249862670898
3742.297,19.13544273376465,-156.6326446533203,44.682350158691406,0.6082704067230225,0.0817323252558708,0.0444044172763824,26.831274032592773,-70.15641021728516,-51.62215042114258,31.00661849975586,6.046320915222168,17.162731170654297,-0.9822689294815063,0.0203773789107799,0.2638835608959198,16.243289947509766,66.78662109375,-118.6987075805664,164.00141144336047,0.6153412166923143,35.951741663449404,1.0173013423303483,-10.587984085083008,136.94303131103516,-67.07655715942383
3752.537,40.81269836425781,-129.06089782714844,46.84212112426758,0.6357353329658508,0.1076025664806366,0.0013018995523452,28.76189422607422,-72.88212585449219,-52.80029296875,34.176849365234375,15.618006706237791,9.666911125183104,-0.8805537819862366,0.005746160633862,0.133654773235321,17.57476043701172,67.0299072265625,-117.99566650390624,143.23608486391302,0.6447785827994487,38.79984969960836,0.8906579476661508,-11.1871337890625,139.9120330810547,-65.19537353515625
3774.886,41.980567932128906,-101.73064422607422,52.42439651489258,0.7382227182388306,0.1582556366920471,-0.0448858253657817,29.88649559020996,-75.17547607421875,-53.09922409057617,20.88653564453125,25.973106384277344,4.492133140563965,-0.7412232160568237,0.101149171590805,0.1242689788341522,18.581771850585938,67.49666595458984,-117.35857391357422,121.90081791565986,0.7563282128728905,33.63077291160309,0.758344110569608,-11.304723739624023,142.6721420288086,-64.25934982299805
3799.985,31.844207763671875,-71.8023681640625,44.843223571777344,0.7779265642166138,0.1132421046495437,-0.0579443648457527,30.29836845397949,-76.87358856201172,-52.86967849731445,-0.0946776866912841,25.14931297302246,1.869331121444702,-0.82369464635849,0.1555933058261871,0.1238826811313629,19.06268119812012,67.9615707397461,-116.83797454833984,90.44638379930888,0.7882582463867417,25.21886804995408,0.8473659575070586,-11.235687255859377,144.8351593017578,-63.96829605102539
3822.07,38.03460693359375,-40.04946899414063,39.06143951416016,0.7705003023147583,0.06265539675951,-0.0816327705979347,29.828144073486328,-77.96295166015625,-51.610469818115234,-21.05926513671875,35.641300201416016,-8.112457275390625,-0.853061318397522,0.1272913962602615,0.1033500656485557,18.837974548339844,68.6899642944336,-116.62760162353516,67.64900108814616,0.7773418320441274,42.18538717602475,0.8686759744447673,-10.990169525146484,146.65291595458984,-65.01713180541992
3842.258,44.26015090942383,-6.761022090911865,30.35128402709961,0.7979995012283325,0.0648818239569664,-0.0602510087192058,28.504732131958008,-78.37899780273438,-49.35496520996094,-47.97578430175781,53.27677536010742,-18.44895362854004,-0.9348162412643432,0.0984847992658615,0.1445647478103637,17.855302810668945,69.84300231933594,-116.65583038330078,54.09133775691299,0.8028966553002522,74.03009227421077,0.951041338180158,-10.649429321289062,148.2220001220703,-67.30086517333984
3852.914,39.6556510925293,25.895612716674805,20.899288177490234,0.8329021334648132,0.1223729997873306,-0.0596761554479599,26.380577087402344,-78.11053466796875,-46.37506484985352,-59.53173065185547,58.85394287109375,-23.8122787475586,-0.9203975200653076,0.0852084085345268,0.115109197795391,16.356884002685547,71.1113510131836,-116.9838638305664,51.76807575977895,0.8439563724128378,87.03354620507235,0.93147313178881,-10.023693084716797,149.22188568115234,-70.60879898071289
3874.91,29.73815155029297,58.876583099365234,11.172541618347168,0.8067867755889893,0.0859756246209144,0.009599451906979,23.90060234069824,-77.18670654296875,-43.22097396850586,-71.84575653076172,68.41985321044922,-27.29755592346192,-0.9200083017349244,0.0964713990688324,0.0933075323700904,14.421282768249512,72.57977294921875,-117.52257537841795,66.90018969553338,0.8114116456960356,102.89920118354388,0.9297463641749146,-9.47931957244873,149.7664794921875,-74.30160140991211
3893.719,33.13257598876953,82.66181945800781,-0.7441712617874146,0.7714087963104248,0.0483563505113124,0.0100883105769753,21.976526260375977,-75.66387176513672,-40.55764389038086,-74.2474365234375,67.29423522949219,-25.61165237426757,-0.9585304260253906,0.1011285260319709,0.0901619270443916,12.31224536895752,74.01228332519531,-118.17596435546876,89.057833898129,0.7729887720207641,103.42704028813952,0.9680582262871248,-9.664280891418455,149.67615509033203,-77.61832046508789
3914.889,43.88282775878906,104.71890258789062,-6.8587846755981445,0.8401777148246765,0.0466822162270545,-0.0153001379221677,20.556549072265625,-73.65614318847656,-38.173789978027344,-79.55207824707031,63.90922546386719,-31.316539764404297,-0.9627075791358948,0.095091164112091,0.1258171647787094,9.489818572998049,75.4470443725586,-119.4632568359375,113.74882003144424,0.8416126876540789,106.74103201503593,0.975539938378148,-11.066730499267578,149.10318756103516,-81.28946685791016
3933.348,41.11739730834961,134.8510284423828,-18.294404983520508,0.8585383296012878,0.0901583582162857,0.0303422100841999,19.55516242980957,-70.9917221069336,-36.258785247802734,-89.58539581298828,50.30614471435547,-35.17083740234375,-1.0214799642562866,0.0906398594379425,0.1914622634649276,5.579794406890869,76.57115936279297,-121.65373229980467,142.16232091198452,0.8637923608504646,108.5966810845228,1.0432136405487935,-13.9753680229187,147.56288146972656,-85.39494705200195
3954.525,35.319637298583984,159.93934631347656,-28.74942398071289,0.7501825094223022,0.1026875376701355,0.1492137759923935,18.98158264160156,-67.83871459960938,-34.87944793701172,-100.99266815185548,46.32511138916016,-34.91531753540039,-0.9537169933319092,0.0730881690979003,0.1419759541749954,0.9232287406921388,77.58676147460938,-124.36522674560548,166.29672473415857,0.7717404218918472,116.46722442063576,0.966992841439915,-18.058353900909424,145.42547607421875,-89.48577880859375
3977.698,40.734153747558594,176.25534057617188,-37.58550262451172,0.7049257159233093,0.0880484580993652,0.1284355670213699,18.82909393310547,-64.25706481933594,-33.82127380371094,-108.47783660888672,60.79338836669922,-25.808578491210938,-0.919455111026764,0.0442914925515651,0.0648052617907524,-3.764224529266357,78.8543701171875,-126.99400329589844,184.76440774859552,0.7219200030611195,127.00141663849912,0.9227996312642588,-22.593318462371823,143.11143493652344,-93.1727294921875
3992.069,36.2005615234375,194.85162353515625,-40.40406799316406,0.796412467956543,0.0702708810567855,0.2014529258012771,18.627342224121094,-60.30567169189453,-32.77378463745117,-101.8393325805664,43.78348922729492,-25.555889129638672,-1.1093895435333252,-0.1168300807476043,0.246735006570816,-9.213700294494627,79.6496353149414,-130.45169067382812,202.2625139745244,0.8244962687332329,113.7600415725058,1.1424852692862486,-27.841042518615723,139.95530700683594,-97.67790603637695
4015.303,38.71358489990234,223.6531982421875,-37.88783264160156,0.7673367261886597,0.080624520778656,0.1890757530927658,18.28407096862793,-55.8219108581543,-31.4563045501709,-110.80435943603516,30.424501419067383,-35.77076721191406,-0.9518491625785828,-0.1706395149230957,0.1888148933649063,-16.474851608276367,80.05982971191406,-135.56634521484375,230.1194963536101,0.7943900837222948,120.34452269861664,0.9852845966070614,-34.7589225769043,135.88174057006836,-104.11004066467284
4037.846,32.333091735839844,241.344970703125,-40.16106414794922,0.6629016399383545,0.0722204148769378,0.4048228859901428,17.86935043334961,-51.01679229736328,-30.166215896606445,-126.5382843017578,32.18507766723633,-29.948955535888672,-0.9268834590911864,-0.0341563001275062,0.2695909440517425,-23.52379608154297,80.43231201171875,-140.21029663085938,246.790872558906,0.7800871371708067,133.95804028190753,0.9658979639123138,-41.39314651489258,131.44910430908203,-110.04408073425292
4060.044,42.64128112792969,242.22857666015625,-44.50719833374024,0.5180648565292358,0.0521380268037319,0.3025180995464325,17.96517562866211,-46.1567611694336,-29.17802619934082,-137.1034698486328,25.39543342590332,-10.682716369628906,-0.8838186264038086,0.1224854886531829,0.279130607843399,-28.769397735595703,80.79971313476562,-142.73818969726562,249.94770035060372,0.6021849964610789,139.8442344626992,0.9349074582780638,-46.73457336425781,126.95647430419922,-113.5601634979248
4081.81,74.81591796875,239.3777618408203,-56.7221908569336,0.4754450023174286,0.0695306360721588,0.295065701007843,19.03565216064453,-41.25753021240234,-28.56454086303711,-138.83689880371094,18.99394416809082,4.313615322113037,-0.9917418956756592,0.0221537947654724,0.2223713248968124,-32.11069107055664,81.17047119140625,-143.3567352294922,257.1313698890853,0.5638672073214299,140.1965108754123,1.016607979703693,-51.14634323120117,122.4280014038086,-114.79219436645508
4092.085,65.76982116699219,249.61590576171875,-69.22348022460938,0.4588077068328857,0.2081339061260223,0.6511828899383545,20.065309524536133,-36.09389877319336,-28.10013961791992,-129.89337158203125,-4.610260009765625,4.947383880615234,-1.0555810928344729,-0.150512009859085,0.1926330626010894,-33.932861328125,81.10626220703125,-142.65138244628906,267.25579507278843,0.8233245963026941,130.06928571176002,1.0835187148676837,-53.99817085266113,117.2001609802246,-114.55124282836914
4114.658,63.73219299316406,242.5009002685547,-63.81268310546875,0.2822807133197784,0.2477548420429229,0.7712596654891968,21.003719329833984,-31.10590934753418,-27.494653701782227,-109.4782257080078,18.382152557373047,9.0652494430542,-0.9455360770225524,-0.212408497929573,0.0908173471689224,-36.95481491088867,81.48649597167969,-143.5078887939453,258.72869492945,0.8578498321259639,111.38026837946131,0.973346615287019,-57.958534240722656,112.59240531921388,-116.01323509216309
4137.889,64.61660766601562,235.77706909179688,-72.40039825439453,0.1868087947368621,0.3419876992702484,0.6517977714538574,22.08305549621582,-26.190439224243164,-27.052106857299805,-78.4531478881836,32.712158203125,27.459413528442383,-0.9975572824478148,-0.1855046153068542,0.1914235651493072,-38.408111572265625,82.28468322753906,-143.44850158691406,254.9665663634679,0.7594033494233561,89.32525454314411,1.0325577346372865,-60.491167068481445,108.47512245178224,-116.39639472961426
4159.442999999999,24.83867645263672,233.3487091064453,-72.52881622314453,0.1943171024322509,0.3971224129199981,0.766548752784729,22.39253807067871,-21.32422065734864,-26.58587455749512,-32.37785339355469,28.674436569213867,31.561748504638672,-0.9777904152870178,-0.1432583183050155,0.1262208819389343,-38.15288925170898,83.10516357421875,-142.614990234375,245.61964309129243,0.8849080955313331,53.54150419633774,0.9962573728852312,-60.545427322387695,104.42938423156738,-116.02911567687988
4182.223,18.695167541503903,234.87600708007807,-63.376556396484375,0.1061343625187873,0.3833241164684295,0.9895125031471252,22.555049896240234,-16.500873565673828,-25.929407119750977,6.291797161102295,42.73980712890625,21.507970809936523,-0.9489505887031556,-0.1766585111618042,0.0832001715898513,-40.273094177246094,84.01908111572266,-144.88900756835938,243.9935160859046,1.0664599734908295,48.25837371165383,0.9688331734197336,-62.82814407348633,100.51995468139648,-118.9596004486084
4192.15,36.43775177001953,228.32969665527344,-59.31585693359375,-0.0594013333320617,0.3616150319576263,0.8180107474327087,23.111928939819336,-11.833477020263672,-25.23262596130371,-3.166791677474976,51.99240112304688,20.896286010742188,-1.01619553565979,-0.0872482806444168,0.107361614704132,-44.29623031616211,85.07876586914062,-148.88352966308594,238.70595093652213,0.8963456546750035,56.123908569441866,1.0255691812267824,-67.40815925598145,96.9122428894043,-123.65090370178224
4217.799,44.5903434753418,231.3837738037109,-64.11469268798828,-0.1086101233959198,0.4121651649475097,0.7227703332901001,23.89250946044922,-7.08088493347168,-24.553205490112305,-34.247318267822266,54.30065155029297,24.545146942138672,-1.1182947158813477,-0.0076391263864934,0.1380175054073333,-50.242794036865234,86.22005462646484,-154.1613006591797,244.2077872005129,0.8390907202350454,68.7306613218222,1.126805333506616,-74.13530349731445,93.30093955993652,-129.60809516906738
4239.38,35.42097473144531,237.76617431640625,-63.567474365234375,-0.1889932602643966,0.470537781715393,0.8111077547073364,24.536237716674805,-2.224828720092773,-23.76079368591309,-48.64685821533203,59.70268630981445,17.20398712158203,-1.0212087631225586,0.0489748790860176,0.060505922883749,-63.94792938232422,87.2811279296875,-166.84671020507812,248.65281598477847,0.9565668017411986,78.91073906452964,1.0241712959089462,-88.48416709899902,89.50595664978027,-143.08591651916504
4259.876,41.53248977661133,236.68069458007807,-65.39480590820312,-0.2908086478710174,0.4495691359043121,0.8759229183197021,25.369802474975582,2.616919755935669,-22.953903198242188,-52.51214218139648,48.34720230102539,25.40250015258789,-1.0146443843841553,0.0346658267080783,0.0170225966721773,-81.98218536376953,88.23131561279297,176.298583984375,249.036502412245,1.026607537704659,75.76453036096576,1.0153790992043903,-107.35198783874512,85.6143958568573,199.2524871826172
4281.746,69.59154510498047,235.0350952148437,-69.86467742919922,-0.4054917097091675,0.4868771135807037,0.7086384296417236,26.83159637451172,7.451364517211914,-22.14077949523925,-43.45208740234375,43.041160583496094,39.31501388549805,-1.0992220640182495,-0.0340758934617042,-0.0034331509377807,-113.28211212158205,89.23587036132812,146.255126953125,254.88340919925577,0.9506004809259404,72.70691659541149,1.0997554723960756,-140.11370849609375,81.78450584411621,168.39590644836426
4301.924,59.38818359375,243.7289886474609,-76.86163330078125,-0.4653461873531341,0.5965650677680969,0.6708491444587708,28.177520751953125,12.481606483459473,-21.23735618591309,-25.508731842041016,44.79925155639648,24.089982986450195,-1.0642253160476685,-0.0615578219294548,0.0231608897447586,-148.71536254882812,88.85123443603516,111.17820739746094,262.37089573987214,1.0111753204990304,56.9033884798604,1.066255745856137,-176.89288330078125,76.36962795257568,132.41556358337402
4311.992,39.98717880249024,250.95492553710932,-66.7306900024414,-0.629418671131134,0.5780861377716064,0.8423998951911926,29.311912536621094,17.521156311035156,-19.94886589050293,-18.69058990478516,65.37828826904297,13.721940994262695,-0.8660380244255066,-0.02290197648108,-0.0510621704161167,-167.65090942382812,87.4464111328125,92.2577896118164,262.73624437469675,1.1999954290205892,69.3682232194898,0.8678442864507312,-196.9628219604492,69.92525482177734,112.20665550231934
4331.870999999999,25.84336853027344,239.31979370117188,-68.823486328125,-0.7146772742271423,0.4077559411525726,0.5845543146133423,30.25697898864746,22.35724449157715,-18.693092346191406,-30.20706367492676,56.73379898071289,23.40575408935547,-0.9619140625,0.0321468636393547,-0.0106097618117928,-178.7468719482422,86.31564331054688,81.61007690429688,250.35677666985688,1.0093226741607624,68.40336225023152,0.9625095591851563,-209.00385093688965,63.95839881896973,100.30316925048828
4355.703,61.298484802246094,250.5153350830078,-68.58123779296875,-0.7371116280555725,0.4715842604637146,0.6426088213920593,32.140235900878906,27.353071212768555,-17.13484001159668,-34.126220703125,44.50970458984375,35.315032958984375,-1.2199084758758545,-0.0002412283793091,0.0011165339965373,171.97994995117188,85.3844985961914,72.91049194335938,266.8685510284392,1.085666322708196,66.27868658209597,1.219909010686062,139.83971405029297,58.03142738342285,90.04533195495605
4376.919,75.03507232666016,259.0350341796875,-65.43989562988281,-0.9015669822692872,0.709357738494873,0.7502797842025757,34.6529541015625,32.39639663696289,-15.106306076049805,-36.336570739746094,49.98670959472656,15.038222312927246,-1.055140733718872,-0.0238189250230789,-0.0584993138909339,169.9228973388672,84.33869934082031,71.57725524902344,277.50998351696995,1.3707411058488663,63.60161664270118,1.057029554396548,135.2699432373047,51.94230270385742,86.68356132507324
4399.992,16.899044036865234,254.9523468017578,-72.64202880859375,-1.0893313884735107,0.6085669994354248,0.474784791469574,36.23219299316406,37.38866424560547,-12.935349464416504,-56.15352249145508,69.50160217285156,-7.696365833282471,-0.7656027674674988,0.2101653963327407,-0.1321602314710617,171.8931884765625,82.95538330078125,74.6867904663086,265.6372360541953,1.33507200739371,89.68235523129059,0.8048499351755429,135.66099548339844,45.56671905517578,87.6221399307251
4421.789000000001,-1.3269503116607666,241.5466766357422,-72.09611511230469,-1.057464599609375,0.3747248351573944,0.3738839328289032,37.65990829467773,42.117794036865234,-10.668018341064451,-103.55628204345705,57.03901290893555,18.98867988586425,-0.9637339115142822,0.1303523182868957,-0.1379273682832718,168.35606384277344,81.74816131591797,73.2210464477539,252.0801610702201,1.1825562467546142,119.74106441859269,0.982241690220353,130.6961555480957,39.630367279052734,83.88906478881836
4431.843,44.99765396118164,253.1558532714844,-47.12674331665039,-0.9983067512512208,0.5209566950798035,0.5773982405662537,40.98613357543945,46.647579193115234,-7.208988666534424,-120.97864532470705,38.05191040039063,25.20962715148925,-1.282376408576965,-0.0868719816207885,-0.1500861942768097,164.2677764892578,80.91229248046875,71.5262680053711,261.40697168066697,1.265464727264748,129.30315468246596,1.294048631303312,123.28164291381836,34.26471328735352,78.73525667190552
4454.207,25.628978729248047,264.9838256835937,-57.08349609375,-1.2508407831192017,0.7996938824653625,0.6755093932151794,44.74034881591797,51.31453323364258,-2.940303564071656,-70.58793640136719,35.63436508178711,-3.398415327072144,-1.0640342235565186,-0.0720534175634384,-0.2391664087772369,164.79859924316406,80.21836853027344,73.49137115478516,272.2715518575208,1.6310812091029443,79.14552398538294,1.0929597865289895,120.0582504272461,28.90383529663086,76.43167471885681
4478.2880000000005,-71.4751968383789,249.0579376220703,-67.83534240722656,-1.4141557216644287,0.701945424079895,0.3198167383670807,46.88183975219727,55.75508880615234,1.494400978088379,-54.90275955200195,42.08438491821289,-8.86762523651123,-0.7209615111351013,0.1801989525556564,-0.3802942931652069,165.83163452148438,79.44219207763672,75.7061538696289,267.8435993917901,1.610852733691911,69.74269307751499,0.8347939341264938,118.94979476928712,23.68710327148437,74.21175289154053
4499.646000000001,-113.7688446044922,217.11016845703125,-57.902320861816406,-1.305089235305786,0.382717490196228,0.3840835094451904,48.42564010620117,59.54624938964844,6.018672943115234,-67.68218994140625,57.63333511352539,31.82620048522949,-0.746897280216217,0.282490611076355,-0.4481651186943054,162.96420288085938,78.15070343017578,74.17974090576172,251.8587977642757,1.4132412149526616,94.42132804032433,0.9157010790399648,114.5385627746582,18.604454040527344,68.16106796264648
4520.212,-106.12107849121094,220.0475311279297,-70.56864929199219,-0.6166508197784424,0.3439979553222656,0.0007309839129447,50.75994491577149,63.49475860595703,11.084305763244627,-68.00850677490234,66.99104309082031,52.14335632324219,-1.0501898527145386,0.0894915163516998,-0.397226870059967,159.2712860107422,76.5039291381836,71.8205337524414,254.28828820559377,0.7061114367695834,108.77447520811435,1.1263643480424743,108.5113410949707,13.009170532226562,60.73622798919678
4542.194,-78.37194061279297,232.3998413085937,39.78521728515625,-2.026606798171997,0.4031214118003845,0.5085952877998352,58.176849365234375,65.54225158691406,21.003984451293945,-61.88462829589844,55.67302703857422,33.00846099853516,-1.2634193897247314,-0.1008770242333412,-0.2744981646537781,157.34814453125,75.22676849365234,71.13725280761719,248.4647074135516,2.127982883817698,89.54748269187218,1.2968245720793847,99.17129516601562,9.68451690673828,50.13326835632324
4551.789000000001,-74.64999389648438,210.48399353027344,-39.882808685302734,-1.1800488233566284,0.4576312303543091,0.2363746017217636,64.42389678955078,68.2595443725586,29.41884994506836,-54.15977478027344,36.687896728515625,15.04738712310791,-1.171854853630066,0.0123375607654452,-0.1730110198259353,156.36972045898438,74.49256134033203,71.28002166748047,226.8628915222272,1.287561462936851,67.1245620458327,1.1846218073137074,91.9458236694336,6.2330169677734375,41.86117172241211
4574.353999999999,-127.32520294189452,204.08018493652344,-5.358931541442871,-1.187524676322937,0.3964820504188537,0.3212150633335113,71.47148895263672,69.8851318359375,39.71891784667969,-53.45326232910156,24.70380210876465,23.755184173583984,-1.083991289138794,0.1554479748010635,-0.1165314018726348,154.3856201171875,73.88780212402344,70.40569305419922,240.6016361855964,1.2925138258806312,63.49675477828491,1.1012632543678815,82.91413116455078,4.0026702880859375,30.68677520751953
4598.419,-135.57847595214844,202.8057861328125,-31.40498924255371,-1.0708231925964355,0.3611676096916199,0.3989155888557434,79.51991271972656,71.5194091796875,51.11867141723633,-71.51290130615234,10.14762020111084,11.758920669555664,-1.0404424667358398,0.1604421585798263,-0.1143269017338752,152.39309692382812,73.65757751464844,69.88591003417969,245.96337812727384,1.198431474521971,73.18019858050661,1.0589300511824096,72.87318420410156,2.138168334960937,18.76723861694336
4619.226000000001,-160.305908203125,197.70364379882807,-8.486464500427246,-1.1160324811935425,0.3535333275794983,0.2682936191558838,88.07736206054688,72.11800384521484,63.51372146606445,-93.45069122314452,0.9867150783538818,0.2076955586671829,-0.9437039494514464,0.1712371855974197,-0.1412847638130188,150.36810302734375,73.67851257324219,69.80862426757812,254.66985501994472,1.2010394576649883,93.4561310678676,0.9694641315836724,62.29074096679688,1.5605087280273438,6.294902801513672
4641.625999999999,-183.261962890625,189.64520263671875,0.5332436561584473,-1.113039493560791,0.3652107119560241,0.1462839990854263,95.85018920898438,71.97566986083984,75.56228637695312,-102.45274353027344,-8.356376647949219,2.00281023979187,-0.9433765411376952,0.0864224880933761,-0.2021635919809341,147.96995544433594,73.83557891845703,69.49920654296875,263.72435282780344,1.1805230987752475,102.81247461480048,0.968657969945948,52.11976623535156,1.8599090576171875,-6.063079833984375
4651.712,-207.22018432617188,180.8189697265625,6.970874786376953,-1.099586009979248,0.3383539021015167,0.0054627289064228,102.28960418701172,71.27828979492188,86.72196197509766,-102.52100372314452,-8.281990051269531,-0.0603523254394531,-0.9110746383666992,0.1595526188611984,-0.283468633890152,145.65708923339844,73.94007110595703,69.27977752685547,275.1077928747848,1.1504792904770216,102.8550008799452,0.9674029673615994,43.36748504638672,2.661781311035156,-17.442184448242188
4674.054,-211.6337432861328,164.19613647460938,17.717496871948242,-1.1701650619506836,0.286254733800888,-0.0026623648591339,106.77655029296876,70.16356658935547,95.96839904785156,-101.68498229980467,-7.011198043823242,15.54624366760254,-0.9255360960960388,0.2748807668685913,-0.3613548576831817,142.45394897460938,73.83846282958984,68.12690734863281,268.4457528550169,1.20467220978161,103.1051803523653,1.0308995267930785,35.677398681640625,3.674896240234375,-27.84149169921875
4699.396,-205.934814453125,139.92413330078125,22.595346450805664,-1.123039722442627,0.2925595641136169,-0.0499689951539039,109.34295654296876,68.91964721679688,103.10816955566406,-102.7037582397461,-0.1898804008960724,14.531013488769531,-0.9163743257522584,0.3225006461143493,-0.3733932971954345,139.6199951171875,73.65789031982422,67.3595199584961,249.9969211111404,1.161596408919661,103.72679675062592,1.0407550749492205,30.27703857421875,4.738243103027344,-35.74864959716797
4719.727,-203.7953186035156,118.34164428710938,25.38492202758789,-1.0904452800750732,0.2881152629852295,-0.0620840080082416,110.3641128540039,67.7011489868164,108.59857177734376,-110.05287170410156,2.676611423492432,17.47153091430664,-0.971360445022583,0.2743710577487945,-0.3541280329227447,136.71351623535156,73.3289794921875,66.67291259765625,237.0267303989824,1.1295732546645303,111.46323704038646,1.0696855870705164,26.349403381347656,5.627830505371094,-41.9256591796875
4740.177,-201.6378173828125,97.52911376953124,21.59663391113281,-1.0329804420471191,0.2854961156845093,-0.0240181535482406,110.21260833740234,66.69514465332031,112.82286071777344,-116.6651382446289,2.6333138942718506,10.855916976928713,-0.9650859236717224,0.260089248418808,-0.2862798571586609,134.0194854736328,73.08805847167969,66.3250732421875,225.0247809194936,1.0719764444346114,117.1987190933165,1.039708331132893,23.80687713623047,6.392913818359375,-46.49778747558594
4762.283,-194.4535369873047,84.41559600830078,21.996723175048828,-0.9885261058807372,0.2426870912313461,-0.0393310785293579,109.57280731201172,65.71861267089844,116.37201690673828,-130.58790588378906,-2.8293566703796387,8.269622802734375,-0.9492244124412536,0.2473157346248626,-0.2245969772338867,130.90072631835938,72.97965240478516,65.82953643798828,213.1244395341592,1.018640181809234,130.880071376742,1.0062980969623652,21.327919006347656,7.261039733886719,-50.54248046875
4782.340999999999,-170.8510284423828,73.33404541015625,18.33137321472168,-0.9713817238807678,0.2040920853614807,-0.0545007735490798,108.90147399902344,64.88922882080078,119.3912353515625,-124.97124481201172,-6.631541728973389,11.03290557861328,-0.95758855342865,0.197411835193634,-0.2260634899139404,127.71188354492188,72.89192199707031,65.1364974975586,186.82611000600576,0.994085694049672,125.63245751426452,1.0035197914362044,18.81040954589844,8.002693176269531,-54.25473785400391
4792.249,-141.75489807128906,61.28536605834961,18.7063217163086,-0.963699996471405,0.1778056323528289,-0.0522766411304473,108.25198364257812,64.14402770996094,121.80987548828124,-96.12815856933594,-5.106910705566406,13.689573287963867,-0.9422507882118224,0.124865174293518,-0.2268812358379364,125.21321868896484,72.7635269165039,64.53680419921875,155.564371538799,0.9813589421324171,97.23223654576992,0.9771913603857234,16.96123504638672,8.619499206542969,-57.2730712890625
4813.943,-120.0472640991211,50.6839485168457,14.227078437805176,-0.9319365620613098,0.2087035328149795,-0.028079867362976,107.63487243652344,63.56126403808594,123.79509735107422,-68.52593231201172,-8.645414352416992,11.297922134399414,-0.948560118675232,0.1007692068815231,-0.1870629340410232,123.16920471191406,72.73362731933594,63.85531234741211,131.08248554180628,0.955432571805687,69.98706761331226,0.9720664962278752,15.534332275390623,9.17236328125,-59.93978500366211
4831.487,-104.1666488647461,43.4173469543457,12.991806030273438,-0.9322765469551086,0.1725639402866363,-0.0265375021845102,107.04437255859376,63.0546989440918,125.4643096923828,-54.21940612792969,-13.621685981750488,7.366595268249512,-0.9283666610717772,0.1259053647518158,-0.1788957566022873,121.26109313964844,72.80397033691406,63.01041793823242,113.5981680142492,0.9484841129465392,56.38759664764046,0.9537926975989872,14.216720581054688,9.749271392822266,-62.45389175415039
4853.853,-81.20228576660156,36.11631393432617,6.775873184204102,-0.9385436773300172,0.131626695394516,-0.0634011030197143,106.69217681884766,62.71572113037109,126.89183807373048,-43.13836669921875,-13.586856842041016,7.110167980194092,-0.932263731956482,0.1432017236948013,-0.1831357032060623,119.58158111572266,72.86034393310547,62.15792846679688,89.12974701709885,0.9498471040439868,45.78292093159805,0.9608127212830648,12.889404296875,10.144622802734377,-64.7339096069336
4876.728,-50.72666549682617,25.18174934387207,4.691509246826172,-0.9410135746002196,0.1177933737635612,-0.0673289597034454,106.55599212646484,62.48195266723633,127.88031005859376,-30.864551544189453,-11.050223350524902,2.7728052139282227,-0.9420113563537598,0.1305058896541595,-0.1998652517795562,118.47339630126952,72.96416473388672,61.63322448730469,56.82715329362849,0.9507444532045576,32.90009767272433,0.9717835672631944,11.917404174804688,10.48221206665039,-66.24708557128906
4893.055,-25.348339080810547,14.022531509399414,1.082278847694397,-0.9237312078475952,0.1366262882947921,-0.0530746430158615,106.55139923095705,62.38139724731445,128.44664001464844,-21.49301528930664,-9.591032028198242,-3.4878199100494385,-0.9319343566894532,0.1053635850548744,-0.1989190280437469,117.85482788085938,73.17300415039062,61.42249298095703,28.98863590429901,0.9352876588173554,23.79290838290332,0.9587345357040548,11.303428649902344,10.791606903076172,-67.0241470336914
4914.072,-8.852478981018066,6.068692684173584,-3.791898727416992,-0.91704261302948,0.1438620388507843,-0.0468056760728359,106.63785552978516,62.419559478759766,128.7438201904297,-12.076456069946287,-10.02695369720459,-9.048026084899902,-0.9243651628494264,0.075628750026226,-0.1839881837368011,117.33296966552734,73.43531799316406,61.148902893066406,11.383053674796374,0.9294375781336132,18.117598286976573,0.9455275320554885,10.695114135742188,11.015758514404297,-67.59491729736328
4936.61,10.955068588256836,-2.7796196937561035,-8.103346824645996,-0.9238911271095276,0.099589355289936,-0.0615508705377578,106.84397888183594,62.5908317565918,128.7294158935547,2.2605347633361816,-5.5313005447387695,-13.121867179870604,-0.9218828678131104,0.0635236874222755,-0.1796949207782745,117.4538116455078,73.7203140258789,61.25210189819336,13.906978218715553,0.9312794232145012,14.418346001488665,0.9413785345888008,10.609832763671877,11.12948226928711,-67.47731399536133
4959.514,36.22762298583984,-11.159368515014648,-11.893088340759276,-0.9430404305458068,0.0941018164157867,-0.0645352005958557,107.28971862792967,62.88386154174805,128.41641235351562,26.58072280883789,-4.254753112792969,-17.345293045043945,-0.9562250971794128,0.0788928195834159,-0.1811764687299728,118.40664672851562,74.10137939453125,61.69665145874024,39.72930559598488,0.9499185215652544,32.023381144244375,0.9764299392578362,11.116928100585938,11.217517852783203,-66.71976089477539
