Timestamp (ms),Wrist Gyroscope X (deg/s),Wrist Gyroscope Y (deg/s),Wrist Gyroscope Z (deg/s),Wrist Accelerometer X (g),Wrist Accelerometer Y (g),Wrist Accelerometer Z (g),Wrist Roll (deg),Wrist Pitch (deg),Wrist Yaw (deg),Arm Gyroscope X (deg/s),Arm Gyroscope Y (deg/s),Arm Gyroscope Z (deg/s),Arm Accelerometer X (g),Arm Accelerometer Y (g),Arm Accelerometer Z (g),Arm Roll (deg),Arm Pitch (deg),Arm Yaw (deg),Wrist Gyroscope Magnitude (deg/s),Wrist Accelerometer Magnitude (g),Arm Gyroscope Magnitude (deg/s),Arm Accelerometer Magnitude (g),Difference Roll (deg),Difference Pitch (deg),Difference Yaw (deg)
0.0,65.071472,-137.73233,-24.196346,-0.739706,-0.346071,0.756669,-25.277889,38.139664,178.953873,4.361394,22.364538,-4.913103,-1.003537,-0.113163,-0.135066,-148.880264,78.940887,12.593335,154.2399246473733,1.1133184984711249,23.309502325560043,1.0188891987326196,-123.602375,40.801223,-166.360538
19.999,63.4233475,-138.7777405,-24.3224915,-0.7189209999999999,-0.3378615,0.7655620000000001,-24.3881445,36.7784655,179.400032,6.141731999999999,23.5801345,-5.349264,-0.9999525,-0.1166385,-0.13239,-149.134636,78.704212,12.2492435,154.51008335755523,1.103214835499981,24.94710885733275,1.015399750856036,-124.7464915,41.9257465,-167.1507885
39.969,61.76148866666667,-139.67810566666665,-24.09536933333333,-0.702468,-0.332093,0.777144,-23.552173666666665,35.406905,59.81324766666666,6.929228666666667,24.291763333333336,-5.781447666666668,-0.99499,-0.118768,-0.138703,-149.3667856666667,78.45642066666666,11.923796666666666,154.6125528806152,1.098953979204316,25.91387876949413,1.0116073646099062,-125.814612,43.04951566666667,-47.889451
59.953,59.66245475,-140.52452075,-23.659556,-0.68556225,-0.325567,0.78102725,-22.7738185,34.027257500000005,0.1996995000000012,8.026610250000001,25.63898525,-5.85523675,-0.9892295,-0.1204225,-0.1469405,-149.627407,78.188135,11.55350925,154.4879413706135,1.089033073582536,27.496687694223706,1.0073073476932202,-126.8535885,44.1608775,11.353809750000003
79.937,56.367830000000005,-141.1028442,-22.9777786,-0.6658032,-0.3199792,0.7927018,-22.069265,32.6420186,-35.43367,9.3222158,26.725480800000003,-5.835245,-0.9901718,-0.1229519999999999,-0.1570716,-149.893109,77.90590660000001,11.1584126,153.67277966389815,1.0835389855866375,28.899915495083437,1.010063797661217,-127.823844,45.263888,46.592082600000005
99.922,50.5771218,-142.36420299999995,-21.6573518,-0.6254862,-0.3072492,0.8128084,-20.6615132,29.8761128,-106.686316,12.336253200000002,28.7666022,-5.8010144,-0.9877216,-0.1291284,-0.1656641999999999,-150.40257259999998,77.3507508,10.3766356,152.625857679445,1.0706505276707428,31.83319514620803,1.0098082639564605,-129.7410594,47.474638000000006,117.0629516
119.906,43.5741504,-143.3738252,-20.3776758,-0.5855178000000001,-0.2949705999999999,0.8350522,-19.4546604,27.0916694,-177.9986756,14.4731816,31.2822034,-5.8859462,-0.9870208,-0.1301156,-0.1806357999999999,-150.9229826,76.7475082,9.53843,151.22833731338807,1.0616736436900185,34.96703587458972,1.0118149145163062,-131.46832220000002,49.655838800000005,187.5371056
139.89,35.879801,-144.1723512,-18.9164846,-0.546717,-0.291486,0.8462846,-18.455899,24.297743200000003,-177.35485239999997,15.6438552,33.1828302,-6.594917799999999,-0.9848258,-0.134608,-0.192253,-151.396121,76.1021256,8.7232752,149.7693572128751,1.0488380191822568,37.273628296549774,1.0124042601740868,-132.940222,51.8043824,186.0781276
159.875,28.2491978,-144.9188998,-17.484652399999998,-0.499588,-0.2785094,0.8700301999999999,-17.646976000000002,21.4901712,-176.73910240000004,16.180337,34.3750234,-8.1306634,-0.9862828,-0.1387236,-0.204881,-151.7530822,75.4197418,8.0155908,148.67823568073032,1.041205169284325,38.85296933965557,1.0168452305704148,-134.1061062,53.92957060000001,184.7546932
179.859,20.8348528,-145.62359020000002,-16.0635098,-0.4547872,-0.2676156,0.8815728,-17.019781000000002,18.6747486,-176.14012480000002,15.903879400000005,35.2296578,-10.3171372,-0.9896558,-0.1464252,-0.2116925999999999,-151.9560822,74.7032104,7.4710126,147.98093614053772,1.0274337488845886,40.00631810949952,1.0225813897012992,-134.9363012,56.0284618,183.6111374
199.843,13.992259,-146.0910156,-15.3847946,-0.411996,-0.2678592,0.8974904,-16.5668584,15.852481,-175.56363240000002,14.3474208,35.9583412,-13.5384536,-0.985201,-0.1389866,-0.2233025999999999,-152.00853579999998,73.9460006,7.1156098,147.5637491250704,1.0232195625244858,41.013906316604896,1.0197069856323042,-135.4416774,58.0935196,182.6792422
219.828,8.875384400000002,-146.65725700000002,-14.326831,-0.3704928,-0.2629704,0.905725,-16.2445526,13.0271202,-174.9915346,11.53277,35.096814800000004,-17.3389864,-0.9884472,-0.1434532,-0.236151,-151.8523408,73.1688766,7.0360348,147.62242907334365,1.013289752120784,40.80970034633658,1.0263400910902196,-135.60778820000002,60.1417564,182.0275694
239.812,4.543113,-146.98039839999998,-13.5112606,-0.3181498,-0.2523122,0.9183502,-16.031343,10.1959008,-174.4202578,8.4383994,33.832657,-20.2489964,-0.9946306,-0.1385337999999999,-0.2496934,-151.5798646,72.390013,7.1449348,147.67000898135885,1.0041154472215434,40.322166600032574,1.0348084065189846,-135.54852160000002,62.194112200000006,181.5651926
259.797,0.2898826,-146.8662504,-12.8549126,-0.2636623999999999,-0.2479494,0.9143488,-15.9306144,7.367114199999999,-173.8507722,4.104818799999999,30.3352128,-21.3130156,-0.9969982000000002,-0.1492946,-0.2573004,-151.23854980000002,71.6640732,7.417063799999999,147.4280445384491,0.9833770864706782,37.3003928527296,1.040431537503819,-135.3079354,64.296959,181.267836
279.781,-2.8612088,-146.50507199999998,-12.628009,-0.2053919999999999,-0.2535353999999999,0.9190824,-15.9244022,4.5401686,-173.28561399999998,1.2933638000000005,25.994376,-19.0158674,-0.9874584,-0.1477959999999999,-0.2613178,-150.963559,71.040561,7.679083800000001,147.07613419187513,0.9752838205911754,32.23326831897301,1.0320875650560857,-135.0391568,66.5003924,180.9646978
299.766,-4.5574710000000005,-145.8842224,-12.1011932,-0.1421571999999999,-0.2418314,0.9069062,-15.974152800000002,1.7208176000000002,-172.714798,-1.4371914,20.5107212,-16.1575446,-0.9906032,-0.155162,-0.265857,-150.7384826,70.5430832,7.9459518,146.45619059647913,0.9492997161783208,26.14997993814436,1.0373282462862177,-134.76432979999998,68.8222656,180.6607498
319.75,-6.4526384000000006,-144.5278808,-12.620317,-0.0796306,-0.242189,0.8973656,-16.0893304,-1.082874,-172.1587586,-3.8357064,15.2422534,-13.7405818,-0.9924452,-0.158445,-0.2585348,-150.542688,70.16824340000001,8.232892,145.2212700400346,0.9328781079223158,20.87684172712204,1.037734328158744,-134.4533576,71.2511174,180.3916506
339.734,-8.537010200000001,-142.72845160000003,-12.707429,-0.0214925999999999,-0.2434732,0.8790452,-16.2759486,-3.858599,-171.60654599999998,-4.7283594,11.013754,-11.853449,-0.9830558,-0.1629068,-0.2565688,-150.347165,69.88679200000001,8.538978799999999,143.54710094975272,0.9123933332812336,16.85717689839213,1.0289630122280005,-134.0712164,73.745391,180.1455248
359.718,-8.240637000000001,-140.4969056,-13.739341200000002,0.036098,-0.2547904,0.8664878,-16.4870746,-6.604501999999999,-171.0749452,-4.55015,8.042345399999999,-11.758785,-0.978035,-0.1552808,-0.2570678,-150.0962984,69.6605438,8.902904000000001,141.40741875146117,0.9038928703585398,14.955006159531534,1.0231072484693282,-133.60922380000002,76.2650458,179.97784919999998
379.703,-6.8814256,-137.641977,-14.9847058,0.0883166,-0.249178,0.8511642,-16.6887404,-9.3066046,-170.5718568,-4.9516122,5.407958799999999,-15.000356,-0.9759326,-0.1526318,-0.2624247999999999,-149.6517884,69.44600820000001,9.4843368,138.62614926004912,0.8912743645372058,16.69656137917093,1.0220605078805465,-132.963048,78.7526128,180.05619359999997
399.688,-5.602274400000001,-134.502826,-16.5711446,0.1364048,-0.2516616,0.8372428000000001,-16.8833172,-11.961161,-170.1052858,-4.769866,4.007885,-17.239747200000004,-0.9711694000000002,-0.1671462,-0.2638185999999999,-149.0631136,69.2260634,10.2153814,135.63553558633993,0.8848250315906756,18.330947802857573,1.0201510228278754,-132.1797964,81.1872244,180.3206672
419.672,-3.223212,-131.509926,-17.3966206,0.1860225999999999,-0.2516852,0.8297982000000002,-17.0453916,-14.567018,-169.6602418,-1.902356,3.1897694000000003,-18.3190886,-0.9617128,-0.1783904,-0.2700871999999999,-148.3562502,69.000978,11.0118772,132.694732903845,0.886856752995116,18.691778789365184,1.0147224941331696,-131.31085860000002,83.567996,180.672119
439.656,-1.3613586000000002,-128.4503342,-18.3111188,0.2276592,-0.2498786,0.82427,-17.1840126,-17.1201898,-169.23959959999996,0.3965386000000001,1.7143782,-19.7491168,-0.9572158,-0.1890268,-0.2791028,-147.5176272,68.7764052,11.9015876,129.75607394275306,0.8908922824800987,19.8273535766619,1.0148357462445436,-130.3336146,85.896595,181.1411872
459.641,2.2763632,-125.7396638,-19.273361,0.2634152,-0.2466072,0.8211094000000001,-17.256678400000002,-19.62381,-168.844989,3.3037206,2.7712960000000004,-20.4185962,-0.949653,-0.1939996,-0.2842552,-146.6480898,68.51971119999999,12.7640834,127.2285633267611,0.8968964965096252,20.868965525419195,1.010087958514604,-129.3914114,88.1435212,181.6090724
479.625,4.1648252,-123.5262086,-19.502575,0.2965522,-0.2419284,0.8072768,-17.3037366,-22.0846142,-168.4608674,6.202503800000001,4.61165,-20.3260514,-0.948081,-0.2084089999999999,-0.2899424,-145.79228240000003,68.22464140000001,13.5500042,125.12561852661466,0.8934027030794344,21.745959041324355,1.013093524389412,-128.4885458,90.3092556,182.0108716
499.61,6.0868042,-121.4951966,-19.5103474,0.32858,-0.2418022,0.8014714,-17.326426,-24.5026696,-168.081485,9.151849,6.8217586,-20.803117,-0.938994,-0.2011428,-0.2972354,-144.9598178,67.88629460000001,14.2512006,123.20221441967055,0.8993272626484754,23.728936078787097,1.005244766731466,-127.6333918,92.3889642,182.3326856
519.594,7.7860088,-119.2790832,-19.4973512,0.360423,-0.2398079999999999,0.7850542,-17.3286846,-26.876836000000004,-167.7080536,10.5025688,11.1071312,-21.1838196,-0.9316358,-0.2007756,-0.3095472,-144.2447482,67.4678086,14.799999,121.11262661622996,0.8965058353020576,26.12329473359153,1.0020357151443458,-126.9160636,94.3446446,182.5080526
539.578,10.9815778,-117.4059846,-20.246856,0.3971156,-0.2381336,0.7682826,-17.273779,-29.2222084,-167.355121,13.199440200000002,16.181718,-21.2438844,-0.9225822,-0.2052066,-0.3097718,-143.6395022,66.9645678,15.1729914,119.64403641117109,0.8970320867589298,29.788854348992064,0.994598528309609,-126.3657232,96.1867762,182.5281124
559.562,11.4222722,-115.4150834,-20.274606,0.4308138,-0.2286794,0.7507912,-17.21423,-31.5311732,-167.01336379999998,16.492530199999997,20.1123252,-21.2663544,-0.9177248,-0.2124579999999999,-0.3147914,-143.0968782,66.39613059999999,15.407367000000002,117.7377145476125,0.8953112443459202,33.59712795485451,0.993202313636552,-125.8826482,97.9273038,182.4207308
579.547,13.3247772,-113.4563294,-20.841157600000003,0.45859,-0.2347591999999999,0.732839,-17.1260354,-33.804143,-166.6881532,19.419017,24.114952,-20.941819400000004,-0.9076774,-0.2192898,-0.3199948,-142.6344422,65.7660982,15.4912178,116.12166989179488,0.8958067146464352,37.37899050256453,0.9870982478364756,-125.5084068,99.5702412,182.179371
599.531,13.3886,-111.5436388,-21.5858116,0.4960032,-0.2265911999999999,0.7175296,-17.029600199999997,-36.0482806,-166.3914094,23.5396998,27.748901,-20.0365924,-0.8990842000000001,-0.2364872,-0.3325992,-142.2244506,65.0827104,15.4263006,114.39923613877656,0.9012277587845594,41.54014935439759,0.9873706610458508,-125.1948504,101.130991,181.81771
619.516,12.659588199999998,-109.9683718,-21.9483838,0.5238434,-0.226709,0.6952194,-16.9557644,-38.264891,-166.105362,28.6371634,29.999821,-18.152549800000003,-0.8881007999999999,-0.2545482,-0.3401965999999999,-141.82965080000002,64.38286000000001,15.228879,112.84963234839852,0.899521479755164,45.27241380655355,0.9845057357554804,-124.8738864,102.647751,181.334241
639.5,12.7897212,-108.49508540000002,-22.124204,0.5569622000000001,-0.219428,0.6766403999999999,-16.882042199999997,-40.4571128,-165.8289612,34.5971976,33.9464876,-15.3301028,-0.8809241999999999,-0.2732719999999999,-0.3543572,-141.50183699999997,63.6502626,14.820989,111.46407908811088,0.9034366443337352,50.836425464512814,0.988065816290332,-124.6197948,104.1073754,180.6499502
659.484,12.7641122,-107.2930238,-21.8740212,0.589158,-0.214459,0.6508782,-16.8219806,-42.6291604,-165.5476288,40.7482302,38.23679059999999,-12.175005,-0.8725440000000001,-0.2906322,-0.3661422,-141.2436096,62.8854722,14.192966000000002,110.24149998915836,0.9037379282071988,57.19004429593026,0.9898788906900076,-124.421629,105.5146326,179.7405948
679.469,10.5169328,-105.7896912,-20.5441032,0.6263496,-0.2033314,0.6294096,-16.8363116,-44.770994,-165.2338714,46.8473648,42.908935,-9.2114362,-0.8589566,-0.3023974,-0.3773069999999999,-141.0509552,62.080935,13.3485614,108.2779978389115,0.9109412298377322,64.19270089663758,0.9857034038996314,-124.2146436,106.851929,178.5824328
699.453,9.6591366,-104.3341552,-19.916084,0.6552874,-0.1994322,0.5942270000000001,-16.8920206,-46.8881128,-164.899652,50.4811714,42.9335242,-5.093810400000001,-0.8535048,-0.3169126,-0.3810752,-140.8824586,61.330935,12.3875454,106.65629499963988,0.9067968386163464,66.46490104212383,0.9869763663415856,-123.990438,108.2190478,177.2871974
719.437,6.7536236,-102.0750838,-19.1698914,0.6910524,-0.1842223999999999,0.5619334,-17.023410000000002,-48.96843500000001,-164.5491942,53.3812462,41.785567400000005,-0.4562885999999999,-0.8469932,-0.3207928,-0.3874498,-140.7448762,60.66032259999999,11.3202524,104.07890708878188,0.9095385963460154,67.79232469897642,0.9851004257932894,-123.72146619999998,109.6287576,175.8694466
739.422,2.9489258,-98.7160628,-18.2854114,0.7155115999999999,-0.1813845999999999,0.5217302,-17.2448772,-50.9853602,-164.1863464,54.0676278,37.554338,4.1746804,-0.8433876,-0.3251603999999999,-0.389726,-140.60600000000002,60.118061,10.232811,100.43860556665798,0.9039135049570616,65.96260027454741,0.9843364692207234,-123.3611228,111.1034212,174.4191574
759.406,-2.701125,-94.0701034,-17.445979599999998,0.74413,-0.186361,0.485856,-17.594566200000003,-52.9109124,-163.8128906,51.523755,28.5338528,7.4288322,-0.8381842,-0.3298986,-0.3916239999999999,-140.39240439999998,59.7590048,9.2862166,95.71229092523036,0.9080285964423148,59.36384112208246,0.9822195257617312,-122.7978382,112.6699172,173.0991072
779.391,-7.485408799999999,-88.5302688,-16.8041686,0.7671006,-0.1774104,0.4443566,-18.059416,-54.7315392,-163.42892460000002,47.1725976,16.791243799999997,10.6715484,-0.8339306000000001,-0.3357134,-0.3941882,-140.08663040000002,59.6228636,8.544703199999999,90.42134660046042,0.9040854873915852,51.19650161813898,0.9815946564520204,-122.0272144,114.3544028,171.9736278
799.375,-12.536625,-81.0507698,-14.8244798,0.7910918,-0.1729914,0.4063677999999999,-18.6550094,-56.398520600000005,-163.0171694,42.3981762,7.390306400000002,11.7580194,-0.8298462000000001,-0.3336506,-0.3979916,-139.70342419999997,59.6424582,8.005478199999999,83.34362274885719,0.9060281725079192,44.61471723526783,0.9789610575530368,-121.0484148,116.0409788,171.02264760000003
819.359,-15.6213052,-71.9021034,-12.333775,0.8088492,-0.1700073999999999,0.3664436,-19.3428274,-57.8744416,-162.5775332,35.484874000000005,-2.9230209999999994,10.3510842,-0.8242522000000001,-0.3381885999999999,-0.3961735999999999,-139.1888794,59.7984336,7.778104399999999,74.60602961722641,0.904113077206806,37.07917580904148,0.9750470448710462,-119.846052,117.6728752,170.3556376
839.344,-18.390527,-61.30765060000001,-9.2534286,0.8252608,-0.168865,0.3318759999999999,-20.1149832,-59.1244202,-162.1118562,26.9923742,-12.1696518,7.779638600000001,-0.8190652,-0.3428802,-0.394049,-138.56783739999997,60.0570846,7.870944799999999,64.6719834726345,0.9053797300677988,30.61390969204487,0.9714469866153688,-118.4528542,119.1815048,169.982801
859.328,-19.9904068,-49.2015998,-5.1652544,0.8317964,-0.1573158,0.2977402,-20.9466246,-60.11266880000001,-161.61901559999998,19.2534636,-17.154081,5.9430498,-0.8135807999999999,-0.3417936,-0.3925851999999999,-137.9415372,60.362309200000006,8.1503242,53.358163760811394,0.8973754725189674,26.46277000762328,0.9658466350247538,-116.9949126,120.474978,169.76933979999998
879.313,-21.2067952,-35.405231400000005,-1.3870148,0.8387152,-0.161595,0.2742097999999999,-21.783264,-60.816614,-161.15084240000002,11.4408896,-20.014343,3.2192048,-0.8150656,-0.3343858,-0.3899022,-137.3377836,60.673584600000005,8.5862904,41.29385406083705,0.8970770006817028,23.277267023973845,0.9634155495474628,-115.5545196,121.4901986,169.73713279999998
899.297,-22.4547262,-20.8408014,2.7940574,0.8329088,-0.1705057999999999,0.2582346,-22.6284792,-61.2227778,-160.707904,3.5263132,-21.1630908,-0.0437972,-0.8098507999999999,-0.3311354,-0.3831706,-136.7735044,60.9545982,9.1585736,30.762972685774425,0.8885349771327182,21.45491121371204,0.9551589815827308,-114.1450252,122.177376,169.8664776
919.282,-21.9960416,-6.211470200000001,6.666214600000001,0.8257192,-0.1759474,0.2539028,-23.4092314,-61.333014000000006,-160.3312682,-3.7289266,-20.6151976,-2.0263762,-0.7990581999999999,-0.3255734,-0.379824,-136.3138152,61.1951904,9.778049200000002,23.808541013839378,0.8816100706453165,21.047504987032543,0.9427397927057072,-112.9045838,122.5282044,170.10931739999998
939.266,-21.315206,8.0016164,10.8969792,0.8166131999999999,-0.1776412,0.2561682,-24.1284006,-61.15701,-160.0134704,-10.4094576,-19.6433146,-2.931257,-0.7897190000000001,-0.3181132,-0.3784688,-135.9906646,61.405141400000005,10.3957012,25.240998940620745,0.8740913344970993,22.423400357680364,0.9317138721456713,-111.862264,122.5621514,170.40917159999998
959.25,-18.4735976,22.154984,15.0705546,0.8055896,-0.1870146,0.2583062,-24.730939,-60.70064240000001,-159.7684326,-17.3788352,-19.47071,-3.6580678,-0.7898056,-0.319341,-0.3755134,-135.78483580000002,61.5999206,11.0371756,32.54594813918566,0.8664128099236299,26.35363202373168,0.9310112102718848,-111.0538968,122.300563,170.8056082
979.235,-13.4443366,35.8088216,19.4954406,0.7929443999999999,-0.1879738,0.2685986,-25.1632198,-59.9614974,-159.6026092,-24.4183356,-20.040017,-4.4397276,-0.7946676,-0.3216186,-0.3710256,-135.6738648,61.7915062,11.7284766,42.93127176293354,0.8580443921498233,31.899350714343985,0.9341279966958916,-110.510645,121.7530036,171.3310858
999.219,-8.5793798,49.0488494,23.5088634,0.7797206,-0.188186,0.2789454,-25.4144736,-58.94720600000001,-159.5315094,-31.2234786,-20.2148436,-4.6644178,-0.8040048000000001,-0.3204988,-0.366786,-135.6799562,61.985072200000005,12.4392852,55.06416296990619,0.8492283090203246,37.48736201801983,0.9400399826712054,-110.2654826,120.9322782,171.97079460000003
1019.204,-4.6239406,61.9673224,27.4445244,0.7638128,-0.1968157999999999,0.2892576,-25.5225066,-57.6642432,-159.5376038,-37.3029232,-21.9232188,-5.173014,-0.8195870000000001,-0.3162498,-0.3616325999999999,-135.7414032,62.2026862,13.2231418,67.93034514589239,0.840128806631007,43.57632012529245,0.9500078546790024,-110.2188966,119.8669294,172.7607456
1039.188,-1.9315132,74.7029364,31.072695600000003,0.7449776,-0.1991856,0.3085976,-25.5034954,-56.1168996,-159.6297364,-42.0188992,-25.4544096,-6.1204284,-0.8374689999999999,-0.3154636,-0.3519278,-135.7608368,62.465087,14.156966,80.93066082687376,0.8306015931088021,49.5073176597547,0.9616261151293676,-110.2573414,118.5819866,173.78670240000002
1059.172,-2.7619646,86.3942778,33.7702298,0.7238142,-0.2073556,0.3337062,-25.4297164,-54.3291722,-159.81044,-44.4368592,-29.107684,-6.4820238,-0.8461426,-0.3079952,-0.3425288,-135.7078308,62.7804626,15.224122,92.80101349543568,0.8235673432643138,53.51549640943497,0.9634024712378726,-110.2781144,117.1096348,175.034562
1079.157,-3.4175346,96.941963,36.2270092,0.6993632,-0.2222464,0.3560652,-25.3251102,-52.3240484,-160.0531372,-44.4378252,-32.2292508,-5.8055016,-0.8542766,-0.306272,-0.3322566,-135.56604000000002,63.152417,16.386317,103.54622121841264,0.8156499092614674,55.200985176558746,0.9664292501446344,-110.2409298,115.4764654,176.4394542
1099.141,-4.2596828,106.2316114,38.0427832,0.672279,-0.2318407999999999,0.3651031999999999,-25.1939992,-50.125257,-160.3570862,-42.438884,-36.7878116,-4.7542268,-0.8627542,-0.3074398,-0.3214021999999999,-135.2547546,63.6037492,17.687331,112.91834887120616,0.7993807334655245,56.36492375536748,0.9706510260678244,-110.0607554,113.7290062,178.0444172
1119.125,-6.2501092,114.4120008,38.961695,0.6487608,-0.226341,0.4033502,-25.0482144,-47.7645714,-160.73365180000002,-38.7445422,-42.908905,-3.6926462,-0.8828113999999999,-0.308318,-0.3070718,-134.6740418,64.15635,19.197802,121.02554882893178,0.7967510324672822,57.93055596613051,0.9842301801149972,-109.6258274,111.9209214,179.9314538
1139.11,-7.218802800000001,122.6280256,40.03104019999999,0.6188212,-0.2387404,0.4351999999999999,-24.8968994,-45.2373398,-161.159314,-34.6096866,-46.991439,-2.6520974,-0.8938824000000001,-0.3086314,-0.2859148,-133.85014040000002,64.7765138,20.875499,129.1984053923018,0.793306810862985,58.42139476647255,0.9879404632642396,-108.953241,110.0138536,182.034813
1159.094,-6.824633199999999,130.2047912,41.5259246,0.5789972,-0.2341909999999999,0.4673102,-24.718406800000004,-42.5511438,-161.61972980000002,-31.4703662,-51.148719,-3.2845881999999995,-0.9011678,-0.3087504,-0.2624096,-132.7299592,65.43497640000001,22.7985648,136.83663867413225,0.7800397458545814,60.14452530153216,0.988073383625508,-108.0115524,107.9861202,184.4182946
1179.078,-9.4422878,137.1131392,42.94328,0.5363826,-0.2286644,0.495339,-24.5807076,-39.7195908,-162.10637839999998,-28.479465,-54.0461662,-4.960642,-0.9093466,-0.3037386,-0.2424287999999999,-131.3261536,66.0948014,24.9574988,143.9906074622057,0.7650845876967592,61.291728452185225,0.9889085393154212,-106.74544600000002,105.8143922,187.0638772
1199.063,-13.2678986,144.21196279999998,45.433654,0.4907872,-0.2317674,0.5532712,-24.5325676,-36.7277378,-162.5919864,-26.1531428,-54.532,-6.1600476,-0.9228632,-0.2943534,-0.2189238,-129.7373946,66.7310548,27.258322799999995,151.78057933635705,0.7750465948161053,60.79203968244081,0.9931002166006412,-105.204827,103.4587926,189.8503092
1219.047,-17.3465882,150.598535,47.9108992,0.4342208,-0.2519464,0.596527,-24.5945958,-33.578383200000005,-163.06637,-24.174577,-50.5108948,-6.0129624,-0.9209304,-0.2845352,-0.1929146,-128.1612776,67.3031252,29.492536,158.98514750906503,0.7796596394290268,56.31976902872924,0.9830000633653896,-103.5666818,100.8815084,192.55890600000004
1239.032,-21.9675052,155.22708740000002,49.1341832,0.3732824,-0.2624396,0.6494346,-24.7612248,-30.3207634,-163.5534854,-23.3427814,-44.8155152,-5.057382799999999,-0.931507,-0.272416,-0.1773045999999999,-126.74267559999998,67.8089922,31.53221,164.29299408718083,0.7937125383128831,50.78280188129987,0.9865863820700954,-101.9814508,98.1297556,195.0856954
1259.016,-25.747216,158.1541472,50.5559454,0.308674,-0.2856684,0.6912312,-25.032383,-26.9975414,-164.0350954,-22.478879400000004,-36.912385,-2.5530336,-0.9372356,-0.2639669999999999,-0.171868,-125.639691,68.24628759999999,33.2082378,168.02248963635108,0.809127088217914,43.29367351046454,0.98875060375221,-100.607308,95.243829,197.2433332
1279.001,-28.9823196,160.2173126,52.926129,0.248331,-0.3119796,0.741629,-25.401905,-23.613483,-164.4945526,-20.2140746,-28.162091999999998,1.6006864000000005,-0.9449044,-0.2652587999999999,-0.1684268,-124.9278242,68.63582779999999,34.4101104,171.203788617797,0.8420291740896868,34.70265745878798,0.9957781595692085,-99.5259192,92.2493108,198.904663
1298.985,-30.869693,160.235788,54.8724556,0.186353,-0.3376652,0.7963392,-25.8412288,-20.2167238,-164.92992840000002,-14.9221038,-20.5723814,3.8436468000000006,-0.960936,-0.2811852,-0.1773208,-124.4629256,68.9592332,35.229568400000005,172.1610643713298,0.8848171276352419,25.70341765229267,1.016811574928059,-98.6216968,89.175957,200.1594968
1318.969,-30.357517,159.00047920000003,56.1811288,0.1288348,-0.3690717999999999,0.8199023999999999,-26.3065308,-16.840332,-165.34418620000002,-8.676326399999999,-13.763046000000005,5.673444000000001,-0.95629,-0.2742214,-0.1775205999999999,-124.2090316,69.230127,35.6881302,171.34482909465672,0.9083239206208542,17.23043939714217,1.0105451517583564,-97.9025008,86.070459,201.0323164
1338.954,-31.4632736,157.2145446,59.1463084,0.0843319999999999,-0.3948556,0.832469,-26.8387334,-13.4742086,-165.7064512,-3.794962,-9.8400722,7.971511000000001,-0.9676112,-0.2785845999999999,-0.1828664,-124.0910308,69.4898346,35.89635320000001,170.89364065629172,0.9252175241727536,13.220202158279497,1.0233869913046385,-97.2522974,82.9640432,201.6028044
1358.938,-33.616982,155.4909332,61.0473436,0.0444377999999999,-0.4235384,0.8676501999999999,-27.439819,-10.113361,-166.0457152,0.5749788000000002,-8.1236746,9.0667666,-0.9881684,-0.2751942,-0.1678852,-123.9711562,69.7549058,36.0104226,170.39457135370142,0.9665279943713166,12.18732727902267,1.0394200666002364,-96.5313372,79.86826679999999,202.0561378
1378.922,-34.9137594,153.3999724,61.403985,0.0006293999999999,-0.4537746,0.8798,-28.0891618,-6.780859599999999,-166.3917022,0.1028064,-7.1002636,10.4246848,-0.9941634,-0.2700476,-0.1500583999999999,-123.9297072,70.036992,36.048852,168.88153096665744,0.9899292013823616,12.613420056618942,1.0410591220367265,-95.8405454,76.81785160000001,202.4405542
1398.907,-34.198934599999994,151.6666442,60.7170464,-0.0437776,-0.4923289999999999,0.8824159999999999,-28.748558600000003,-3.481472,-166.7686738,-4.7101388,-7.154002,14.301635600000004,-0.9835732,-0.2549068,-0.1332935999999999,-124.0920638,70.38904740000001,35.9716006,166.9098493624754,1.011415997282404,16.67039090622823,1.024773584869087,-95.3435052,73.8705194,202.7402744
1418.891,-33.8384304,149.7137634,60.9815972,-0.0946368,-0.5138982000000001,0.8852252,-29.429514,-0.2096961999999997,-167.158246,-10.426102,-9.2121234,15.9056886,-0.9959058,-0.262412,-0.1346756,-124.3175902,70.7877092,35.9477334,165.16054468422496,1.02794510485362,21.13191307694127,1.0386654598343974,-94.8880762,70.9974054,203.1059794
1438.875,-33.43924,147.00945140000002,59.268969000000006,-0.1518894,-0.53399,0.9026376,-30.121521,2.9955926,-167.58926419999997,-13.279681399999998,-10.593848,17.303671,-0.99193,-0.2634368,-0.132354,-124.5798614,71.2206682,35.9450478,161.9962106316982,1.059702952183356,24.248640861063755,1.0348147920329704,-94.4583404,68.2250756,203.534312
1458.86,-31.0673528,143.97586080000002,58.1587098,-0.2087618,-0.5549386000000001,0.9060924,-30.7923362,6.131508999999999,-168.04704299999997,-15.487648000000002,-11.6397934,18.1513762,-0.986597,-0.2739361999999999,-0.1396298,-124.858609,71.6680742,35.9708144,158.35613164226154,1.0828396816920591,26.54853082414381,1.0333978726160995,-94.0662728,65.53656520000001,204.0178574
1478.844,-28.0814752,140.4999636,57.433207,-0.2577904,-0.5645986,0.8987111999999999,-31.427481,9.1915564,-168.5192812,-15.6947594,-15.1765486,17.140612400000002,-0.988404,-0.2736438,-0.151826,-124.9450272,72.1313036,36.2051726,154.36120719699747,1.0922038685426634,27.757047636214555,1.036761559265408,-93.5175462,62.9397472,204.7244538
1498.829,-27.3010466,136.80954300000002,56.85680240000001,-0.3057958,-0.5670376,0.8898296,-32.071192399999994,12.1717454,-169.000821,-14.185405800000002,-18.9467104,12.9659022,-0.9989078,-0.266286,-0.150391,-124.6507416,72.5683992,36.8075292,150.648246523074,1.0985624370729048,26.987370982593077,1.044673384162648,-92.5795492,60.3966538,205.8083502
1518.813,-26.1544866,133.3746324,56.1620758,-0.3490358,-0.5700296,0.8817638000000001,-32.7168124,15.0746406,-169.4966706,-14.6591678,-21.9032584,12.442185,-0.9997602,-0.2607116,-0.1429448,-124.1582582,73.0288438,37.626055,147.0613086277613,1.1064660562115043,29.1453580643634,1.0430360548541169,-91.4414458,57.95420320000001,207.1227256
1538.797,-22.680973200000004,130.4490266,55.6560668,-0.3912104,-0.5700787999999999,0.852084,-33.3262092,17.9137566,-170.00878,-15.4862156,-25.7068786,10.1731108,-0.9961382,-0.2554288,-0.131746,-123.3421708,73.4909502,38.798254400000005,143.62789721301598,1.0973069572064145,31.688462637273805,1.0367700776376023,-90.0159616,55.57719360000001,208.8070344
1558.782,-20.055692800000003,128.37128,54.4219558,-0.4303276,-0.5714659999999999,0.8171168,-33.926958400000004,20.694735,-170.5608674,-16.5193126,-28.3426536,8.6767848,-0.9977196,-0.2502769999999999,-0.130165,-122.303885,73.950435,40.2229576,140.86577162541485,1.0860180004585558,33.933468675212424,1.0368345596951134,-88.37692659999999,53.2557,210.78382500000004
1578.766,-16.559583,127.009221,53.013363600000005,-0.4710257999999999,-0.5700114000000001,0.8089976,-34.4969154,23.4259276,-171.1614442,-15.132009,-31.473152400000004,7.6116592,-0.9970558,-0.2365409999999999,-0.117347,-120.9398286,74.4216324,41.9553406,138.62171088378088,1.0960179821523732,35.74177351708575,1.031427278776182,-86.44291319999999,50.9957048,213.1167848
1598.751,-12.862617600000002,124.796837,52.091893000000006,-0.5157952,-0.5518634,0.7889185999999999,-35.0225632,26.1048702,-171.7879458,-15.229469999999996,-33.8165576,8.7106686,-0.9858088,-0.2378572,-0.1046935999999999,-119.3535218,74.916983,43.9152634,135.8427869746931,1.092241025611362,38.09687745542991,1.019488002690684,-84.3309586,48.81211280000001,215.7032092
1618.735,-10.414035800000002,122.9970704,50.6886032,-0.5607492000000001,-0.5471536,0.7653356,-35.5453956,28.7325512,-172.4589754,-15.0771606,-35.8054954,6.3766322,-0.9849464,-0.2413329999999999,-0.1046086,-117.4504044,75.3673676,46.1969924,133.43937186225546,1.0952421229668623,39.37023889706145,1.0194625971343527,-81.90500879999999,46.634816400000005,218.6559678
1638.719,-7.244976000000003,121.2454072,49.2377952,-0.6072136,-0.546112,0.7483932,-36.056189,31.307863200000003,-173.1781984,-13.8452928,-36.98685,5.814448400000001,-0.9851797999999998,-0.2290744,-0.1021884,-115.3183274,75.80058900000002,48.687622,131.0621948560741,1.1077179489270723,39.91900569699219,1.0166104407087109,-79.2621384,44.4927258,221.8658204
1658.704,-4.043576800000001,119.0096222,47.953134,-0.6508428,-0.5299758000000001,0.7180690000000001,-36.551204,33.8297436,-173.9375186,-12.285720199999998,-38.9611694,5.96536,-0.9773998,-0.2256246,-0.0960588,-112.901451,76.22873080000001,51.4370918,128.37111727310855,1.1045785565809614,41.28555633363543,1.0076924740329465,-76.350247,42.3989872,225.3746104
1678.688,-2.7211570000000007,116.7408952,46.066371,-0.6909238,-0.5195964,0.6903018000000001,-37.080037,36.287423,-174.7512148,-11.4152902,-39.01511240000001,6.2068338,-0.9868246,-0.2365253999999999,-0.0863654,-110.3099944,76.6270204,54.343289000000006,125.53068088967602,1.1062877977193095,41.12192397925556,1.0184429479983057,-73.22995740000002,40.3395974,229.0945038
1698.673,-0.6055472000000014,116.0928376,44.3897514,-0.711765,-0.5138108000000001,0.6612018,-37.644394,38.701043000000006,-175.6389588,-9.086899,-40.2206094,5.559158,-1.0032066,-0.234291,-0.071806,-107.3779204,76.9843934,57.546395800000006,124.2914464425658,1.0989989871446106,41.60737184216919,1.0327012426643825,-69.7335264,38.2833504,233.1853546
1718.657,1.1997127999999986,116.38258679999998,43.1992806,-0.7288737999999999,-0.4939896,0.6429206,-38.2535608,41.089293000000005,-176.6144348,-7.282017400000001,-42.5262582,6.735307000000001,-1.016103,-0.224842,-0.0317064,-104.0283368,77.3357528,61.1341186,124.14718549133345,1.0902429266631175,43.66777729964303,1.0411649856645968,-65.774776,36.2464598,237.7485534
1738.642,2.0216421999999987,117.6076584,42.313244,-0.7480084,-0.4745428,0.6138374,-38.9528306,43.4724892,-105.6936004,-7.371208200000001,-44.699257800000005,6.8039236,-1.0141458,-0.2218364,-0.0066126,-100.2767316,77.6468338,65.12909,125.0042358055096,1.0777308519018838,45.81104380554154,1.038145856082545,-61.323901,34.1743446,170.8226904
1758.626,1.4486907999999985,119.322841,41.235602,-0.7734216,-0.4546209999999999,0.5884815999999999,-39.794063,45.8550712,-34.91667460000001,-8.503348200000001,-47.0635202,5.0814868,-1.018833,-0.2065472,0.0253542,-96.1416792,77.8809052,69.5338576,126.25535220990707,1.072926753569935,48.0947333117133,1.039867906598949,-56.3476162,32.025834,104.4505322
1778.61,0.3110051999999985,120.9097428,40.2318788,-0.8086092,-0.4405642,0.553441,-40.8157168,48.2362426,35.6813082,-8.4762742,-50.321351,5.3879334,-1.0110966,-0.2002816,0.0393996,-91.5709654,78.0599518,74.3804046,127.42788823477562,1.074356827654239,51.31389107348635,1.031494732080722,-50.7552486,29.823709200000003,38.6990964
1798.595,-1.6573932000000011,122.0819932,38.7288682,-0.8545148000000001,-0.425985,0.5172918,-42.0650782,50.602426,106.0663546,-8.3715378,-51.3850282,5.392135,-0.9934528,-0.198145,0.0427218,-86.8465926,78.15655220000001,79.3798278,128.08858359727935,1.0859325807762104,52.3409866940799,1.0139206374505256,-44.781514400000006,27.5541262,-26.686526800000003
1818.579,-3.6593078000000014,122.0486816,36.7366966,-0.9039932,-0.417295,0.4781762,-43.5707834,52.922334,176.2195986,-4.729647999999999,-51.705626,6.2863486,-0.9803728,-0.1941702,0.0335552,-81.9806854,78.1840684,84.4485488,127.5102195549587,1.104532163822168,52.30066451754224,0.9999794222857388,-38.409902,25.261734400000005,-91.7710498
1838.563,-6.630956200000002,120.2310822,34.513285,-0.9473534,-0.4069746,0.441776,-45.3544306,55.1568724,174.1338716,-1.8638664,-50.6283052,6.4589766,-0.9794232,-0.1877241999999999,0.0268278,-77.20444640000001,78.1423858,89.3678832,125.26232294110108,1.1217276067355748,51.072670422651136,0.9976121043856274,-31.8500158,22.9855134,-84.7659884
1858.548,-9.1701098,116.3722168,32.2920254,-0.9808634000000002,-0.403595,0.4072634,-47.3902064,57.2663848,171.8429384,1.2112346,-48.9425944,7.151941199999999,-0.9742406,-0.1812408,0.010624,-72.6319778,78.0488432,94.0174194,121.1171278602845,1.1361537794084569,49.47721595631069,0.9910125345569551,-25.2417714,20.782458400000003,-77.82551900000001
1878.532,-11.185314200000002,110.609558,30.132547,-1.0051674,-0.3980017999999999,0.3638196,-49.6368036,59.223632,169.4148622,0.4231435999999998,-46.3223176,7.340446399999999,-0.9706284,-0.178561,0.0056902,-68.42645639999999,77.90516339999999,98.3110946,115.18487732083275,1.140671572438868,46.9022207543818,0.986932571143338,-18.7896528,18.6815314,-71.1037676
1898.517,-13.2486968,103.0675062,27.958184,-1.0201324,-0.3977346,0.3232544,-52.0522728,60.999466000000005,166.88669439999998,-0.6595739999999999,-43.076194,7.8961724,-0.9696114,-0.1764452,-0.0048797999999999,-64.67653659999999,77.7421308,102.1654922,107.61086773074187,1.141646325569473,43.79889343302676,0.985547050150849,-12.6242638,16.7426648,-64.7212022
1918.501,-15.3339244,94.5661284,26.186388,-1.021295,-0.3968742,0.2884168,-54.5843178,62.5852754,164.32532959999998,-2.4713704,-38.39260420000001,7.2370386,-0.9679532,-0.1839128,-0.0165532,-61.532811,77.5581618,105.4419144,99.315702658526,1.1330211199147526,39.14683201243422,0.9854092164295604,-6.948493199999999,14.972886399999998,-58.8834152
1938.485,-16.9916936,85.821324,24.7607414,-1.0141006,-0.3979454,0.2521984,-57.1859512,63.986509,161.77259220000002,-2.1358999999999995,-34.25205,7.395419200000001,-0.9664116,-0.1951196,-0.0122929999999999,-58.8142768,77.3773682,108.2796616,90.9236581929419,1.118197031503876,35.10637012219048,0.9859889232479846,-1.6283255999999997,13.3908592,-53.4929306
1958.47,-18.467654200000005,77.78708400000001,23.4169006,-1.0043988,-0.3976453999999999,0.2300933999999999,-59.8204794,65.21721420000002,159.26084280000003,-0.7198268000000001,-29.051978600000005,8.9141514,-0.9641852,-0.2031892,0.0043668,-56.4813576,77.2487398,110.6961914,83.30807837529392,1.1044825875975413,30.397330579821947,0.9853720210346546,3.3391218,12.031525599999998,-48.5646514
1978.454,-19.804686600000004,70.38702219999999,22.082626,-0.9919104,-0.3944794,0.214165,-62.4551008,66.2929002,156.79924920000002,2.4562778,-22.5596352,8.574382199999999,-0.9592222,-0.1928409999999999,0.0169382,-54.59639059999999,77.1690782,112.5889542,76.38194077505092,1.0887455560770478,24.25882254149052,0.978561077742764,7.8587102,10.876178,-44.210295
1998.439,-20.985725,63.040628000000005,20.5804718,-0.9818342,-0.3921436,0.1956464,-65.046759,67.22247619999999,154.43673700000002,3.8060732,-16.4260316,7.866393199999999,-0.9595312,-0.191803,0.0354288,-53.1558974,77.13083359999999,113.9977142,69.55628837079078,1.0751988249359092,18.605935862110325,0.979154591702393,11.8908616,9.9083574,-40.43902280000001
2018.423,-21.9225644,56.1367752,19.033094,-0.9740382,-0.3962142,0.181392,-67.5645432,68.01582040000001,152.1878082,4.9895694,-9.9306148,7.3996582,-0.9527944,-0.1800318,0.0473426,-52.1490196,77.1573076,114.9368758,63.199644199475664,1.0670703655358815,13.351698565359488,0.970808909856806,15.4155236,9.1414872,-37.25093240000001
2038.408,-22.2366198,49.4117218,17.4597554,-0.969485,-0.3945246,0.1786504,-69.9422486,68.685985,150.1041932,6.511919000000001,-3.0067744000000003,7.292275399999999,-0.9511548,-0.1734302,0.052002,-51.587215400000005,77.26401519999999,115.388719,56.92827566331319,1.0618223912925928,10.22854153164084,0.9682343186641756,18.3550332,8.5780302,-34.7154742
2058.392,-22.470878,42.4718612,15.6091316,-0.9653614,-0.3951012,0.168366,-72.1376314,69.238225,148.227939,8.711284799999998,3.649672,7.369654800000001,-0.9520044,-0.1699506,0.0468192,-51.4497352,77.4551314,115.3620192,50.52172147887548,1.0565863432807563,11.979916545846972,0.9681878028297816,20.6878962,8.216906400000003,-32.86591980000001
2078.376,-21.8988988,35.0577676,13.579892999999998,-0.965354,-0.3962416,0.1631654,-74.06114679999999,69.6786774,146.63370060000003,9.3146898,8.6675416,7.533494399999999,-0.9596494,-0.1709416,0.0569364,-51.6304962,77.705551,114.9969802,43.50887646951711,1.0561906544955413,14.786590591910832,0.9764167937801356,22.4306506,8.026873600000002,-31.63672040000001
2098.36,-19.7841674,27.7142632,11.3852812,-0.9670674,-0.4057107999999999,0.1676468,-75.63556220000001,70.0118042,145.367093,10.9561654,12.812946,8.2185702,-0.9654946,-0.1614118,0.0636415999999999,-52.0259912,78.01959819999999,114.3785766,35.9042935097346,1.062038633444961,18.755107080563448,0.9809606745731246,23.609571000000003,8.007794,-30.9885164
2118.345,-14.4855136,19.9321418,9.0940378,-0.9678982,-0.4120856,0.1879468,-76.7733978,70.25821819999999,144.4552766,11.1187188,14.8440378,8.093780800000001,-0.9788804,-0.1620892,0.0801824,-52.554944,78.348013,113.6193878,26.264460864425164,1.0686278430402418,20.235628322336595,0.9954441036695932,24.2184538,8.089794800000002,-30.835888800000003
2138.33,-6.5253534,12.4393416,6.7624826,-0.9675042,-0.4182208,0.2035149999999999,-77.4109406,70.4210522,143.9078674,10.2371218,15.6864578,7.364228199999999,-0.9875824,-0.1653534,0.1037852,-53.1868686,78.6618436,112.7716202,15.590016913130174,1.0734949323565903,20.12698382870348,1.006693653213509,24.224072,8.2407914,-31.136247200000007
2158.314,3.344536399999999,5.7452484,4.5051296,-0.9686836,-0.4218828,0.2116558,-77.5106002,70.5030758,143.7131592,8.809304599999999,14.545953,6.1158816,-1.0017614,-0.1644536,0.1330262,-53.7899142,78.9294264,111.9797852,8.030566332546147,1.07755797594303,18.071873283060857,1.0238490411038923,23.720686,8.426350600000001,-31.733374000000005
2178.298,13.8126776,0.4822153999999999,2.4051978,-0.969989,-0.4281946,0.2185394,-77.13627460000001,70.51546,143.78091439999997,8.367340200000001,14.013577800000002,4.5281498,-1.0052626,-0.1625828,0.1464072,-54.4475206,79.1573638,111.14035800000002,14.028812160359973,1.0825842899943263,16.938030741217496,1.0287959613190751,22.688754,8.6419038,-32.6405564
2198.282,23.9514126,-4.274513000000001,0.4653571999999998,-0.9718228,-0.4192129999999999,0.2184726,-76.33022,70.4713942,144.08614500000002,6.9067514,15.6203836,3.1834628,-1.0011518,-0.165856,0.1384173999999999,-55.4227906,79.37611840000001,110.009352,24.3343005703102,1.0806985569156644,17.373371408898585,1.0241935930291697,20.9074294,8.904724199999999,-34.07679300000001
2218.267,31.03423,-9.6345754,-1.8033886000000003,-0.9758022,-0.4092008,0.1996086,-75.11603699999999,70.345697,144.6629334,5.428209,18.5283478,1.95077,-0.9973518,-0.1652273999999999,0.102795,-56.8869476,79.6047134,108.4150696,32.54536349887331,1.0767909831714977,19.40542781642151,1.0161582153872497,18.2290894,9.259016399999998,-36.247863800000005
2238.266,34.997504400000004,-16.5776982,-4.4284374,-0.9827938,-0.4048442,0.1820508,-73.5157958,70.12019660000001,145.54989340000003,4.7370608,20.9970604,1.3897158,-0.9890926,-0.1549383999999999,0.0567186,-58.80072700000001,79.85336459999999,106.382782,38.97764038065954,1.0783899913170187,21.569598987206845,1.002759731319163,14.7150688,9.733168,-39.1671114
2258.235,36.752124,-25.202651,-7.2355244,-0.9869956,-0.4027117999999999,0.1857612,-71.5384734,69.778386,146.7957064,3.9656306,24.6228948,0.9031368,-0.9769234,-0.152672,0.0118507999999999,-61.3186378,80.1265732,103.7582932,45.14692735150613,1.0820556047191106,24.956538831878063,0.988852117615268,10.2198356,10.348187200000002,-43.0374132
2278.22,37.6881584,-35.0172914,-10.274877,-0.9880218,-0.3990687999999999,0.1981362,-69.1811904,69.2966064,148.43740259999998,4.3793076,27.9167424,1.041224,-0.9710341999999998,-0.1547404,-0.0179486,-64.3434608,80.4182112,100.6153564,52.46123404897308,1.083836213714563,28.277322870129545,0.9834501315286708,4.837729599999999,11.1216048,-47.8220462
2298.204,37.30355,-44.8896492,-13.2186044,-0.9871496,-0.4016251999999999,0.2185095999999999,-66.5168318,68.66040639999999,150.4157656,6.4535912,28.892600400000003,1.1968732,-0.9811856,-0.1515612,-0.0128718,-67.52614439999999,80.6938888,97.2708024,59.84452314276771,1.0878941030023832,29.628764785385098,0.9929056663289014,-1.0093125999999994,12.0334824,-53.14496320000001
2318.189,36.4471528,-53.3343292,-15.75509,-0.9849604,-0.4037606,0.2458623999999999,-63.6668356,67.875711,152.6193422,8.1698376,28.3328672,0.8612996,-0.9922874,-0.1529264,0.0154072,-70.67798619999999,80.92454380000001,93.9213806,66.49186776853709,1.0925282291155134,29.49982113817251,1.0041205853021635,-7.011150599999999,13.0488328,-58.697961600000006
2338.173,35.6633034,-59.7736764,-17.8895456,-0.9812392,-0.4050511999999999,0.2806472,-60.7601004,66.9554702,154.92354740000002,9.113102,27.360868,-0.0901335999999999,-1.0089326,-0.16065,0.0472825999999999,-73.7395828,81.09412379999999,90.6414918,71.8665390953735,1.09802536086646,28.838756038388286,1.0227360647329886,-12.9794824,14.138653599999998,-64.2820556
2358.157,35.1674614,-64.5817262,-19.660396,-0.9791848,-0.4072394,0.3048791999999999,-57.9127166,65.91662679999999,157.1966674,9.0142214,26.377938,-1.136741,-1.0173334,-0.1595464,0.063499,-76.73721760000001,81.20589299999999,87.425995,76.11886015416331,1.1034482897064275,27.89881683299747,1.0317240054925156,-18.824501,15.289266199999997,-69.7706724
2378.142,34.74524219999999,-68.74784259999998,-21.0773078,-0.9779194,-0.4087633999999999,0.3263732,-55.1763176,64.76942919999999,159.3880674,7.6181178,25.037086,-2.6170262,-1.0215494,-0.1579354,0.060415,-79.6820846,81.2546236,84.29074119999999,79.86082031751849,1.109023595670606,26.300954741559465,1.0354500178369404,-24.505767,16.4851944,-75.0973262
2398.126,35.2049202,-73.17285039999999,-22.3920784,-0.9795176,-0.4100454,0.3474263999999999,-52.5452112,63.511871600000006,161.4842192,6.758268600000001,24.0354488,-3.6171112,-1.010382,-0.151881,0.0358276,-82.6293548,81.2576082,81.1707048,84.23216497883034,1.1172721522475533,25.228168520927813,1.0223615999277162,-30.0841436,17.745736600000004,-80.3135144
2418.111,36.019267400000004,-78.5717486,-23.8856354,-0.9829722,-0.4058286,0.3693407999999999,-49.9979456,62.1306848,163.5070676,6.2836054,23.8859812,-4.2434268,-1.0021082,-0.1495284,0.0136206,-85.6147582,81.223958,78.021451,89.67402567385966,1.125763663072956,25.060536022132897,1.0132941861365632,-35.6168126,19.09327320000001,-85.4856166
2438.095,37.06084299999999,-84.82141440000001,-25.3968014,-0.985349,-0.4068424,0.3941932,-47.522534400000005,60.6115236,165.4632718,5.7225264000000005,24.6629686,-4.5188034,-0.9922256,-0.1446455999999999,-0.0084682,-88.72729480000001,81.16311520000001,74.7544908,95.98529025865484,1.1365833313774227,25.71826029752274,1.002749071954674,-41.2047604,20.5515916,-90.708781
2458.08,38.7917672,-91.4919634,-26.678330800000005,-0.984822,-0.4064648,0.4217247999999999,-45.098968,58.950728600000005,167.3664976,5.1698582,25.3025014,-4.660506,-0.9924844,-0.1453472,-0.0197096,-91.8931076,81.07121599999999,71.4432588,102.8946738347528,1.145835857467412,26.24241465797584,1.0032644522374747,-46.7941396,22.1204874,-95.9232388
2478.064,41.205514,-98.0443392,-27.892143,-0.9817408,-0.3996626,0.4546284,-42.7215234,57.1493758,169.19233079999998,4.8044502,25.9462334,-4.459961000000001,-0.991249,-0.139086,-0.0246992,-95.0619354,80.9590226,68.13440399999999,109.94798076500224,1.1533569154038832,26.76155865216144,1.0012639741235274,-52.340412,23.809646800000003,-101.0579268
2498.048,43.6851106,-104.3175416,-28.929839,-0.971638,-0.3960271999999999,0.4866819999999999,-40.40681920000001,55.2105102,170.92784720000003,3.542821000000001,26.3485614,-4.664234,-0.9946586,-0.1417276,-0.023987,-98.1841476,80.8145616,64.8955842,116.73677209075076,1.1566232382707171,26.991727386263506,1.0049914523640089,-57.77732840000001,25.604051400000003,-106.032263
2518.033,47.0525682,-109.947461,-29.5237638,-0.9580512,-0.3994052,0.5198696,-38.1523728,53.14594040000001,172.5471496,2.1156624,26.9319954,-4.972901800000001,-0.9936594,-0.1432688,-0.0260336,-101.2590926,80.6355164,61.730758,123.1829573580711,1.1608837222618984,27.468857929095595,1.0042722243449531,-63.10671979999999,27.489576,-110.8163916
2538.017,51.0666604,-115.1065856,-29.235452400000003,-0.9400888,-0.3935758,0.5531194,-35.933994000000006,50.9739006,174.06034540000002,0.0774724,27.7526234,-5.3724442,-0.9941756,-0.1480756,-0.0329886,-104.3136856,80.4148514,58.6249512,129.27506151586903,1.159573168406134,28.2679547232746,1.005683724975541,-68.3796916,29.4409508,-115.4353942
2558.001,54.8193436,-120.0591964,-28.724643000000004,-0.9214238,-0.3870694,0.591166,-33.7537804,48.6983536,175.4682036,-1.0687516,28.7026566,-5.7963396000000005,-0.9918892,-0.1551406,-0.0380698,-107.3106644,80.14942479999999,55.597277,135.07211476994829,1.161172588024192,29.30157467848024,1.004670145130749,-73.556884,31.451071199999998,-119.8709266
2577.986,57.92625339999999,-124.948088,-27.817109800000004,-0.8975256,-0.3809776,0.6266022,-31.6183274,46.3233284,176.782617,-2.2944044,30.2470388,-6.2860548,-0.99188,-0.158359,-0.0505662,-110.3150178,79.8350054,52.58396380000001,140.5036196168697,1.1590196078591424,30.97841397922185,1.005713899607359,-78.69669040000001,33.511677000000006,-124.1986532
2597.97,60.2028822,-129.52734379999998,-26.731896400000004,-0.872715,-0.3743588,0.6676612000000001,-29.5389154,43.8546836,106.0043302,-3.3109044,31.9010344,-6.6491748,-0.9926368,-0.1635846,-0.0603202,-113.3065842,79.4737718,49.600705000000005,145.31453506862553,1.1608391190633955,32.75438305413304,1.0078324585958918,-83.7676688,35.6190882,-56.4036252
2617.955,62.1305776,-133.83835759999997,-25.8252542,-0.8407396,-0.3606284,0.7046889999999999,-27.519351,41.2962866,35.133721800000004,-3.1892310000000004,33.8635512,-6.2867376,-0.9885722,-0.169057,-0.074565,-116.299315,79.0725892,46.6100418,149.79939383211706,1.1547651296327406,34.58951233969101,1.0056914054951651,-88.779964,37.7763026,11.476320000000005
2637.939,62.8456824,-137.9181458,-25.6274954,-0.8046432000000001,-0.35218,0.7414462,-25.5947884,38.6437346,-35.8468384,-0.4156731999999998,35.146036800000005,-5.2857516,-0.9871264,-0.173928,-0.0863862,-119.18446199999998,78.6474412,43.6681106,153.71325010456565,1.14944503966074,35.54371754520137,1.0060477395786942,-93.5896736,40.0037066,79.514949
2657.923,63.1708518,-141.7614898,-25.2958212,-0.7649978000000001,-0.3376828,0.7799081999999999,-23.7607438,35.9031302,-106.9279724,3.8182366,36.3882486,-3.7069316,-0.9805308,-0.1716178,-0.0990774,-121.9670058,78.20974580000001,40.7404098,157.2474326583281,1.1434632079117897,36.77533016569749,1.0003547621800175,-98.206262,42.3066156,147.6683822
2677.908,62.9146866,-145.40580119999998,-25.0227568,-0.7238418,-0.3313086,0.8144792000000001,-22.0274598,33.0786018,-178.1091368,8.6139906,37.645376600000006,-1.9721976,-0.9782598,-0.1758027999999999,-0.110718,-124.6237746,77.75734539999999,37.8384154,160.39714202710124,1.1388980231319397,38.6686536717554,1.000078665059844,-102.5963148,44.6787436,215.9475522
2697.892,62.5738962,-148.8948148,-24.5464678,-0.6768934,-0.3176991999999999,0.842318,-20.3837292,30.176923,-177.37825600000002,13.0610196,40.0584136,-0.1560364000000001,-0.9756954,-0.1799878,-0.1169466,-127.2362212,77.279579,34.884990200000004,163.3636662218105,1.1263290237617958,42.13420321423409,0.9990263404843538,-106.85249199999998,47.102656,212.2632462
2717.877,60.74446880000001,-152.1782346,-23.6407214,-0.6246782,-0.3008124,0.8714138,-18.8434386,27.2037308,-176.7186888,16.9145342,41.289575,1.2480629999999997,-0.9800814,-0.178357,-0.1305936,-129.7280578,76.783116,31.9713428,165.5505641309604,1.1135856340575878,44.63729530488562,1.0047016763377674,-110.8846192,49.5793852,208.6900316
2737.861,57.8487938,-154.8781462,-22.1002916,-0.5691882,-0.281733,0.8928914000000001,-17.4147426,24.176109,-176.112213,19.062521800000003,42.8346166,1.4936884,-0.9887462,-0.1740326,-0.1336016,-132.08423299999998,76.2522048,29.147176,166.79971823497942,1.0957206498474874,46.90858366739253,1.0127960216152905,-114.6694904,52.0760958,205.259389
2757.845,52.6824158,-156.96892680000002,-20.616934,-0.5037967999999999,-0.2655754,0.9085158,-16.139479,21.102415,-175.55587140000003,18.5254276,43.6077924,0.201769,-1.000533,-0.177403,-0.1403406,-134.2297454,75.67216640000001,26.544978000000004,166.85244643944603,1.0722604476642044,47.380077421778246,1.0257843791491272,-118.0902664,54.56975140000001,202.1008494
2777.83,45.7686198,-158.3496154,-19.0369378,-0.4345375999999999,-0.2455657999999999,0.9257544,-15.041605999999998,17.9958238,-175.0386962,17.782732799999998,43.3126516,-1.2882166,-1.0074158,-0.1811476,-0.1427362,-136.10141579999998,75.0597412,24.2344128,165.9270088217284,1.051735088823588,46.838775351920695,1.033476980810816,-121.0598098,57.0639174,199.273109
2797.814,38.2742204,-159.2860748,-17.570719,-0.3669338,-0.2328758,0.934307,-14.1312854,14.8667088,-174.5540252,16.0265482,41.378086,-3.2049228,-1.017608,-0.1847994,-0.1474238,-137.639276,74.43673240000001,22.2997054,164.759520934591,1.030437345041939,44.48896243321797,1.0447060049175558,-123.5079906,59.57002359999999,196.8537306
2817.799,31.4098992,-159.89658200000002,-16.729371,-0.3011344,-0.2216014,0.9390818,-13.3919814,11.719919399999998,-174.104312,13.4138488,38.922723,-5.2606848,-1.0246752,-0.1893614,-0.1419762,-138.85478500000002,73.8185028,20.74746,163.80894529021464,1.0107738295170487,41.50403004442992,1.051653101869357,-125.4628036,62.09858340000001,194.851772
2837.783,25.262011,-160.269345,-16.6481176,-0.2375474,-0.2135958,0.9460856,-12.8071284,8.557828599999999,-173.6941008,10.004192,34.505328,-7.0971274,-1.0312834,-0.1798759999999999,-0.1465884,-139.76342459999998,73.2432066,19.5832788,163.09994471524683,0.9985639166081256,36.62063264462096,1.05706621623535,-126.9562962,64.685378,193.2773796
2857.767,21.2122598,-160.48141180000002,-16.8620558,-0.18197,-0.2029598,0.946674,-12.3284186,5.3876978,-173.32078540000003,5.1782272,28.8260376,-7.3508394,-1.0303132,-0.1819344,-0.148188,-140.44344180000002,72.7510282,18.755636,162.75310265843223,0.9851382763815646,30.19584939252456,1.0566953673323265,-128.1150232,67.3633304,192.0764214
2877.752,19.1941652,-160.78402720000005,-17.0640318,-0.1291814,-0.1964458,0.9407764,-11.914597,2.209922,-172.977783,0.5554866,23.02499,-8.0328734,-1.0212722,-0.1811812,-0.1577508,-140.91125200000002,72.33685899999999,18.2463096,162.8222974952959,0.9697107925771272,24.392330452896605,1.0491467240700512,-128.996655,70.126937,191.2240926
2897.736,17.5928544,-160.750113,-17.280338399999998,-0.0732128,-0.1815948,0.9303414,-11.5503,-0.97171,-172.6619536,-3.0012252,16.7521726,-8.215572,-1.0157252,-0.1810536,-0.1657703999999999,-141.1765046,72.0165602,18.0241822,162.63061658454993,0.9507217816084998,18.89810209540868,1.044967900705165,-129.6262046,72.98827019999999,190.6861358
2917.721,15.526371,-160.34417739999998,-17.1201254,-0.018534,-0.173225,0.921119,-11.244773,-4.1479442,-172.3635864,-5.724777399999999,9.89422,-8.717253600000001,-1.0150903999999998,-0.1840994,-0.1757664,-141.2048676,71.7940108,18.109182,162.0013028226132,0.9374489969817024,14.37564523820283,1.0465156169983705,-129.9600946,75.941955,190.4727684
2937.705,13.259042,-159.62765819999998,-16.4744558,0.0372394,-0.157426,0.9066902,-10.9963032,-7.3115778,-172.07097779999998,-7.6058772,4.3539746,-8.62583,-1.0087617999999998,-0.2011006,-0.1798886,-141.04434220000002,71.652304,18.4311974,161.02235605989603,0.9210085977689896,12.296804706419673,1.044223026402674,-130.04803900000002,78.9638818,190.5021752
2957.69,11.4651072,-158.55944519999997,-16.0905172,0.093558,-0.1643928,0.8863161999999999,-10.8069854,-10.4582318,-171.7832092,-6.7522264000000005,0.2320624000000002,-11.1988434,-1.0016788,-0.1954996,-0.1913292,-140.617038,71.5381378,19.0192666,159.785641060149,0.9062750677571793,13.079010200014157,1.0383580185765602,-129.8100526,81.9963696,190.8024758
2977.674,10.6273632,-156.9035766,-16.226782800000002,0.1520742,-0.1469826,0.8587431999999999,-10.638364200000002,-13.582576,-171.514801,-6.749534799999999,-3.6595966,-13.5509242,-1.001644,-0.2052342,-0.189471,-139.93141180000003,71.44958340000001,19.879308,158.09801288597893,0.884403940829438,15.57486481370828,1.0398610673674824,-129.2930476,85.0321594,191.394109
2997.658,8.573252199999999,-154.738336,-16.2074484,0.2053036,-0.1462584,0.8419734,-10.5249856,-16.6699332,-171.2581298,-5.235283,-6.8486874,-17.6748938,-0.9944024,-0.2091554,-0.1931026,-138.9266938,71.3473908,21.045638200000003,155.8208415616228,0.8788972033469443,19.66505982788474,1.0343455557025805,-128.4017082,88.017324,192.303768
3017.643,7.4205212,-151.908792,-16.071764199999997,0.2545756,-0.1393996,0.8160126,-10.4447364,-19.7066148,-171.0115324,-4.5085572,-8.265296600000001,-20.69585,-0.9835848,-0.2194974,-0.1981672,-137.7375764,71.2124572,22.3925212,152.93674125689785,0.86609326746851,22.73676369086294,1.0270776049323829,-127.29284,90.919072,193.4040536
3037.627,6.8259704,-148.6749268,-15.6894342,0.2991728,-0.1361336,0.7874752,-10.3912948,-22.6824312,-170.76830719999998,-2.492065,-9.346907,-25.030792,-0.9696128,-0.2214763999999999,-0.2111302,-136.3247834,71.01890560000001,23.937130000000003,149.65622632020083,0.8533193493199601,26.83496984492694,1.016748119758694,-125.9334886,93.7013368,194.7054372
3057.611,4.6912486,-144.4099152,-14.7839132,0.3413312,-0.1226141999999999,0.7620372,-10.3906718,-25.574858,-170.5197844,-0.8446701999999998,-10.1054914,-26.9011808,-0.9679906,-0.240119,-0.2124324,-134.79386,70.7929122,25.572686800000003,145.24047476858277,0.843944266121241,28.749051334201116,1.019701162311351,-124.4031882,96.3677702,196.0924712
3077.596,2.477446,-139.569403,-13.909598,0.3751301999999999,-0.1339638,0.7482530000000001,-10.4573228,-28.3644356,-170.2605682,2.3270786,-9.5050102,-28.135249400000003,-0.9591052,-0.2476514,-0.2213172,-133.226471,70.5232588,27.1833488,140.28268927056158,0.8476741819068693,29.788467105792517,1.0149853711284906,-122.7691482,98.8876944,197.443917
3097.58,2.9287506,-134.4504288,-13.269533,0.4061344,-0.1276894,0.7242805999999999,-10.5242018,-31.049596,-169.9994934,5.1158852,-7.783765,-27.2775464,-0.9460562,-0.2504056,-0.2326578,-131.7745392,70.2252394,28.617466,135.13539836260134,0.8401381560624895,28.82401458088302,1.005910010871072,-121.2503374,101.2748354,198.6169594
3117.565,1.7834784,-129.2544998,-12.4989442,0.4368894,-0.1229868,0.7069152,-10.6251504,-33.6273468,-169.7336,8.907249799999999,-5.852096199999999,-27.0560738,-0.9350558,-0.2428084,-0.2353584,-130.4009156,69.8973526,29.8930104,129.8696658957209,0.8400757113484713,29.079498936616854,0.9943233099323178,-119.7757652,103.5246994,199.6266104
3137.549,0.8182476,-123.982666,-12.5479762,0.464944,-0.1292044,0.6862866000000001,-10.7559196,-36.0993554,-169.47469500000005,10.6502966,-2.6809228000000003,-25.4475396,-0.9250576,-0.2443522,-0.2360652,-129.2326202,69.54472799999999,30.9162204,124.61870928684114,0.8389612609977413,27.716302719177744,0.9854777215207048,-118.4767006,105.6440834,200.3909154
3157.533,1.1892176,-119.1269456,-12.823367200000002,0.4949519999999999,-0.1225725999999999,0.6680798,-10.8753258,-38.4766488,-169.233066,13.2496474,0.3730437999999999,-24.2027252,-0.9082776,-0.2421124,-0.2404783999999999,-128.2351044,69.1654632,31.7061236,119.82104219556574,0.8404356868570015,27.594641237163422,0.9702661870652198,-117.3597786,107.642112,200.9391896
3177.518,0.7631209999999999,-114.4144716,-13.4641108,0.5276943999999999,-0.1190982,0.6473094,-10.991777,-40.766102,-169.018622,15.5302946,3.1762038,-21.3195368,-0.90206,-0.2456976,-0.2423664,-127.4344514,68.7931366,32.239049800000004,115.20649263302188,0.8435965981219696,26.56691495654845,0.9658266024989788,-116.44267440000002,109.5592386,201.2576718
3197.502,-0.5975008000000002,-109.802791,-14.214817200000002,0.561793,-0.1195646,0.6254658,-11.1237596,-42.972146,-168.832715,18.4110974,5.1469562,-18.8148998,-0.8977568,-0.249216,-0.237494,-126.75209220000002,68.437094,32.584134600000006,110.72068888254398,0.8491846297430259,26.82275377512617,0.9614984589890097,-115.6283326,111.40924,201.41684960000003
3217.487,-0.3263738000000001,-105.3416978,-15.6976244,0.5943004,-0.1276202,0.6035702,-11.2291318,-45.099364,-168.69198,20.8705046,7.28589,-15.861567599999995,-0.8952479999999999,-0.2567549999999999,-0.2390296,-126.2124468,68.10045299999999,32.7237846,106.50537651709104,0.8566077674269829,27.20756295738541,0.9615234064780532,-114.983315,113.19981699999998,201.4157646
3237.471,-0.6432590000000002,-100.9325394,-16.8595738,0.6273398,-0.1238172,0.5861919999999999,-11.3093084,-47.1474788,-168.59929820000002,24.2207246,9.8480492,-12.620476,-0.8941106,-0.2744926,-0.2389558,-125.7989382,67.7812042,32.6532906,102.3329688838904,0.8674716044596964,29.03280881453329,0.9653392288935324,-114.48962980000002,114.928683,201.2525888
3257.456,-0.3932892000000002,-96.8548858,-17.8685398,0.6585982,-0.1313292,0.5660608,-11.364814,-49.122182,-168.5436218,27.895738,13.1433072,-8.4606024,-0.8914197999999999,-0.2855322,-0.2428016,-125.5615892,67.4872436,32.3121594,98.49014313275244,0.8783073363649652,31.976561974188247,0.9670111240474124,-114.1967752,116.6094256,200.8557812
3277.44,0.5389661999999997,-93.2117386,-18.5447554,0.6880888000000001,-0.130358,0.5464002,-11.3748978,-51.0305902,-168.5254578,32.9211454,17.946766200000003,-5.361704400000001,-0.8884551999999999,-0.2918486,-0.2420977999999999,-125.485878,67.1875548,31.6846524,95.04013178781533,0.8882638028251968,37.876590469026944,0.9659915074646568,-114.1109802,118.218145,200.2101102
3297.424,1.1518728,-89.6792664,-19.1336394,0.718812,-0.1295382,0.528837,-11.3437818,-52.8742806,-168.5457764,35.214037600000005,21.0957398,-2.2272064,-0.8945958,-0.3083932,-0.2429798,-125.5522522,66.89849699999999,30.8497346,91.70492783748746,0.901742429506475,41.10984225403595,0.9769581333874652,-114.20847039999998,119.7727776,199.395511
3317.409,1.4888743999999998,-86.4043534,-18.9487532,0.7465188,-0.1295888,0.5072358,-11.2967488,-54.6561676,-168.5789826,38.0625944,24.3880912,1.1297962,-0.8904534,-0.3217698,-0.244971,-125.7578018,66.62006079999999,29.7981622,88.47024517477941,0.911795883210996,45.21964754718864,0.9779845870997148,-114.461053,121.2762284,198.3771448
3337.393,2.4208938,-83.3909104,-18.737012400000005,0.7746715999999999,-0.1284006,0.4850558,-11.21976,-56.3819816,-168.62657159999998,40.7446318,25.8544854,4.9314218,-0.8921728,-0.3242893999999999,-0.246384,-126.0518998,66.3858658,28.5892874,85.50427064076659,0.9229745018366216,48.50668363005144,0.980734926199837,-114.8321398,122.7678474,197.215859
3357.377,2.5798284,-80.47043,-18.948492,0.798837,-0.1185697999999999,0.4678046,-11.101308,-58.052249,-168.7157654,41.5683578,25.0274858,7.926200199999999,-0.8935997999999999,-0.3264786,-0.2448496,-126.362053,66.20978099999999,27.342256,82.71149235766701,0.9332955018761208,49.16429665182349,0.982374778502665,-115.260745,124.26203,196.0580214
3377.362,0.2936102,-77.3176102,-17.7254876,0.8153724,-0.111949,0.4398518,-11.0415026,-59.6603354,-168.78869920000002,39.5566712,19.9744254,9.865211,-0.8939872,-0.3285868,-0.2459589999999999,-126.5683642,66.1231142,26.2512094,79.32396841211641,0.9331850487689995,45.39857150351314,0.9837063731516026,-115.5268616,125.7834496,195.0399086
3397.346,-0.9456576,-73.89179220000001,-16.687671,0.8378678,-0.1135352,0.4117866,-11.019459800000002,-61.20034940000001,-168.8468016,38.9392288,16.916543400000002,11.4129764,-0.8923106000000001,-0.3240642,-0.2496134,-126.7207826,66.0971514,25.2335012,75.75862714060136,0.940468444901497,43.96235901825322,0.9816020894708608,-115.7013228,127.2975008,194.08030280000003
3417.331,-2.4603716,-69.969763,-16.5628446,0.8463552,-0.1071666,0.3901226,-10.995007,-62.6623664,-168.9393644,36.928186,11.9420622,12.258031,-0.8922445999999999,-0.3171351999999999,-0.2527047999999999,-126.7632004,66.1453324,24.3817964,71.94545839683006,0.9380817916116696,40.700897961055176,0.9800688125082032,-115.7681934,128.8076988,193.3211608
3437.315,-4.0749456,-65.2829558,-17.474109,0.8545621999999999,-0.0986546,0.3643728,-10.9105478,-64.03870839999999,-169.1307432,33.9465618,7.199434400000003,12.247255,-0.88788,-0.317819,-0.2574484,-126.6998108,66.2462312,23.7125332,67.70386979317794,0.9342252518262606,36.79940446197666,0.9775579214673472,-115.78926299999998,130.2849396,192.8432764
3457.3,-7.2760208,-59.8944076,-16.6276928,0.866934,-0.0986866,0.3342058,-10.8773022,-65.31209700000001,-169.3354184,30.8034748,3.536983000000001,12.1596184,-0.8861323999999999,-0.3214016,-0.2594962,-126.5671218,66.38612520000001,23.1886268,62.58402917908164,0.9343485014325222,33.30496401634661,0.9776849679864982,-115.6898196,131.6982222,192.5240452
3477.284,-8.9571798,-53.904431,-16.619044600000002,0.8835322,-0.0956172,0.311671,-10.8197004,-66.4698516,-169.60221840000003,28.3082772,1.3544632000000012,12.0874732,-0.8849544,-0.3241232,-0.257929,-126.400546,66.5487976,22.7561874,57.11489643534407,0.9417593161809868,30.81071464528066,0.9771015852502748,-115.5808456,133.0186492,192.3584058
3497.268,-11.598905,-47.3170776,-16.1643576,0.8868500000000001,-0.0879388,0.2919844,-10.769120400000002,-67.4997634,-169.91729719999998,24.3207012,-2.532739199999998,11.123001,-0.8813396000000001,-0.3287484,-0.2541912,-126.1358884,66.7392836,22.5168384,51.32959074865222,0.937811838744212,26.863216969694808,0.9743963091002348,-115.366768,134.239047,192.4341356
3517.253,-13.1732606,-39.9237232,-14.66603,0.9038412,-0.0872072,0.26325,-10.7472636,-68.3864638,-170.2341278,20.2726608,-5.388937599999998,9.2515428,-0.8873054,-0.3368342,-0.244703,-125.775987,66.9318054,22.4668528,44.52562076991887,0.9454282484933904,22.926239738535017,0.9801263741823296,-115.0287234,135.3182692,192.7009806
3537.237,-14.7599202,-32.1725652,-11.853358,0.9190436,-0.0903898,0.2436559999999999,-10.818561,-69.1155364,-170.4838532,15.9419684,-7.959298399999999,6.999810200000001,-0.8867294000000001,-0.3357518,-0.2351032,-125.3346936,67.11903219999999,22.5986888,37.32869260682436,0.9550809918436236,19.14403641667204,0.976878607953844,-114.5161326,136.23456860000002,193.082542
3557.221,-14.8074716,-24.0059634,-10.0750892,0.9259668,-0.090506,0.2292764,-10.9003676,-69.6801528,-170.7224702,12.3787826,-9.746263,4.9128436,-0.8927766,-0.3317658,-0.2251367999999999,-124.8313474,67.2971816,22.8747696,29.950875051238533,0.9582137122454468,16.503330977753937,0.9786752179714372,-113.9309798,136.9773344,193.5972398
3577.206,-14.4817326,-15.4650506,-8.4564012,0.9319068,-0.0924314,0.2222642,-10.976921,-70.0731398,-170.9595918,8.726907999999998,-11.0904034,2.6237626,-0.8989251999999999,-0.3255204,-0.218405,-124.2839904,67.45726,23.278215,22.812257459835592,0.9624942712524786,14.354097010831238,0.9806787394637452,-113.3070694,137.5303998,194.2378068
3597.19,-13.4399528,-7.1415036,-7.2648384,0.9363924,-0.0922362,0.2222259999999999,-11.0050252,-70.2958402,-171.2250458,5.6420974,-10.969516599999997,1.236457,-0.8996092000000001,-0.3207745999999999,-0.213197,-123.762169,67.5940108,23.7209362,16.864497677463014,0.9668105494067596,12.397273225254464,0.9785938981716574,-112.7571438,137.889851,194.945982
3617.175,-12.3578754,0.3715772000000001,-6.271515,0.9361958,-0.0827915999999999,0.2337944,-10.9686644,-70.3627074,-171.53352660000002,3.2521456,-10.161046999999998,1.0049704,-0.8958413999999999,-0.3141938,-0.2121096,-123.3184312,67.71758400000002,24.1319154,13.863154562101297,0.9684920476904082,10.71602970529125,0.9727487035841064,-112.3497668,138.08029140000002,195.665442
3637.159,-11.0170516,6.9366794,-5.132136,0.9313728,-0.0766054,0.2475067999999999,-10.8850798,-70.2882598,-171.8618072,0.8588008000000003,-9.326669999999998,0.6915338,-0.8964394,-0.307677,-0.210833,-122.952533,67.8280332,24.5114156,13.99399038794664,0.9667384837355136,9.391620259546436,0.9709373244913184,-112.0674532,138.11629299999998,196.3732228
3657.144,-7.1379424,12.8522858,-4.07531,0.9274208,-0.0692692,0.259808,-10.707555200000002,-70.08784940000001,-172.2057098,-1.9566606,-8.474598199999999,0.0669322,-0.894538,-0.305621,-0.2124483999999999,-122.6656434,67.9170942,24.8672628,15.255806225391671,0.965612634137147,8.697805198694233,0.9688842819178975,-111.9580882,138.0049436,197.0729726
3677.129,-0.5015633999999999,18.2873152,-2.527212,0.9205712,-0.0628558,0.2650264,-10.4216636,-69.7735916,-172.5227294,-4.9736198,-7.491532399999999,-0.0641304,-0.8885434,-0.3057742,-0.2145016,-122.4790146,67.9898864,25.1805136,18.467925264125224,0.9600214469271194,8.992444846837035,0.9638558872942364,-112.057351,137.763478,197.703243
3697.113,6.214264,23.7537676,-0.3312524,0.9158508,-0.0485116,0.2692218,-10.0539456,-69.3452684,-172.78140860000002,-8.389782199999999,-6.876956999999999,0.1267537999999999,-0.8848874,-0.303223,-0.2159546,-122.3951568,68.05808859999999,25.4572144,24.55541244632253,0.9558328519100188,10.848827101078728,0.9600032748219768,-112.3412112,137.403357,198.238623
3717.097,10.0664038,29.619141000000003,2.2834724,0.9081662,-0.0410662,0.2709477999999999,-9.6949522,-68.7950806,-172.94752179999998,-12.6305082,-7.458873599999999,0.1324065999999999,-0.8882574,-0.299213,-0.2124112,-122.3694748,68.1354462,25.7623436,31.366227781550293,0.9486121388268862,14.669085325226238,0.9610661506416714,-112.6745226,136.9305268,198.7098654
3737.082,13.0442778,36.396897,4.767086000000001,0.8978157999999998,-0.0395806,0.265834,-9.357917,-68.1098418,-173.026834,-17.2159856,-8.901762399999999,-0.0158482,-0.8904917999999998,-0.297741,-0.2081062,-122.3644028,68.2273744,26.1432296,38.95654506605505,0.9371806390349726,19.381222489071845,0.9617346512560936,-113.0064858,136.3372162,199.1700636
3757.066,13.893909000000004,43.9843758,7.716385000000001,0.8837448,-0.036843,0.2650334,-9.0943172,-67.2706558,-173.0084472,-21.930236,-11.1328942,-0.4508124,-0.8904624,-0.2964856,-0.205346,-122.34244239999998,68.3361574,26.6432052,46.767602240056426,0.9233661144376047,24.598370192028646,0.9607257551128312,-113.2481252,135.60681319999998,199.6516524
3777.05,11.9152868,52.520807000000005,11.0858502,0.8673198,-0.0370756,0.2701046,-8.9653012,-66.2550454,-172.88627019999998,-26.354356199999994,-13.596700399999998,-0.9577034,-0.889953,-0.2916722,-0.2033618,-122.2890382,68.46412660000001,27.2721976,54.9845914972035,0.9091615535913076,29.67051648162212,0.9583553809318752,-113.323737,134.719172,200.1584678
3797.035,9.8937432,61.6778704,13.7661658,0.8476672000000001,-0.0431556,0.2800398,-8.937199,-65.05061880000001,-172.69834899999998,-30.0118712,-16.254161599999996,-1.348502,-0.8949640000000001,-0.2877146,-0.2013536,-122.1807268,68.6157044,28.0385758,63.96524972529875,0.8937697563417774,34.15740973622426,0.9613966530949232,-113.2435278,133.6663232,200.7369248
3817.019,9.435410200000002,71.1032084,15.8925884,0.8263925999999999,-0.0512392,0.2995632,-8.9460562,-63.649167,-172.4797302,-32.9001772,-18.7948154,-1.538699,-0.896537,-0.287494,-0.2037128,-122.0123338,68.78849640000001,28.9314618,73.46609814375546,0.8805045688385948,37.92142323705794,0.9632913875296716,-113.0662776,132.43766340000002,201.411192
3837.004,9.6942806,80.7107014,17.9817838,0.8060507999999998,-0.053694,0.3188128,-8.9624226,-62.0497462,-172.2448456,-34.9570638,-19.8373764,-1.1147714,-0.8931646000000001,-0.2877815999999999,-0.2090808,-121.8523882,68.97449019999999,29.8598158,83.2558763419222,0.8684713807952913,40.208960782726095,0.9613927568482924,-112.8899656,131.0242364,202.1046614
3856.988,9.4103082,90.2666172,20.5824348,0.7785977999999999,-0.0522508,0.3371124,-8.9997868,-60.2520564,-171.9862396,-35.9684708,-19.9651532,-0.3329862,-0.8867064000000001,-0.2851878,-0.2098361999999999,-121.7253572,69.17209299999999,30.774276800000003,93.06047874069084,0.8500526163122138,41.13938640523596,0.9547835104882364,-112.7255704,129.42414939999998,202.7605164
3876.973,6.617149400000001,99.5519488,21.7283504,0.7580136000000001,-0.0535332,0.3516892,-9.0561244,-58.2615312,-171.7637816,-35.1788864,-20.6650788,1.243218,-0.8910242,-0.2860044,-0.208247,-121.5826554,69.4021254,31.687167800000005,102.11022665318556,0.8373384708012884,40.818440944625,0.9586915326704414,-112.526531,127.6636566,203.4509494
3896.957,0.8630026000000008,108.7751054,24.0433532,0.7257846000000001,-0.0626772,0.379247,-9.2335616,-56.07434859999999,-171.5301666,-34.1663208,-22.0707348,4.1926846,-0.9015856,-0.2918758,-0.2044646,-121.41356799999998,69.6942672,32.603904,111.40399975480533,0.8212916680485686,40.890505203231726,0.9694605971395434,-112.1800064,125.7686158,204.1340706
3916.941,-2.2833108,118.4235398,25.4150366,0.699475,-0.077791,0.3943979999999999,-9.4589802,-53.695289,-171.3171204,-32.2513466,-21.8270728,7.2096654,-0.9036038,-0.2910932,-0.2017806,-121.2842452,70.03321820000001,33.4354534,121.14153859164462,0.8067629749251015,39.60492065021452,0.9705413381185986,-111.825265,123.7285072,204.7525738
3936.926,-4.9639758,127.8981674,26.583941000000003,0.6630824000000001,-0.0853008,0.4135052,-9.7092016,-51.1239504,-171.1389068,-29.7456662,-23.642882,8.912291,-0.9086858,-0.2857554,-0.1866017999999999,-121.0284788,70.4235762,34.3439704,130.7260042956752,0.7860922630947592,39.02844421465487,0.970662795987381,-111.3192772,121.5475266,205.4828772
3956.91,-8.6581504,137.1150772,26.4392698,0.6304528,-0.1014482,0.434267,-9.9787208,-48.3694146,-171.0329314,-26.5222626,-26.3505788,9.7824456,-0.9283214,-0.2924344,-0.1776804,-120.55615819999998,70.8536498,35.4094002,139.90905242859796,0.7722372029370769,38.64556453767143,0.9893779988181868,-110.5774374,119.2230644,206.4423316
3976.895,-10.9659278,145.92338880000003,27.243638800000003,0.5847474,-0.1042246,0.4826511999999999,-10.253238,-45.4289338,-170.9756102,-25.1879654,-28.8069356,8.8500428,-0.933791,-0.3006602,-0.1588962,-119.8358914,71.2853942,36.7023546,148.84926209577142,0.765339447508986,39.27590097268268,0.9937857867364978,-109.5826534,116.714328,207.6779648
3996.879,-11.5607768,153.80278040000002,28.5673148,0.5433745999999999,-0.1145534,0.51679,-10.5107228,-42.318943,-170.951422,-22.3832374,-30.5968392,5.2462866,-0.9339054,-0.2928244,-0.1436382,-118.803349,71.6668242,38.2612656,156.85993208551488,0.7585844326617307,38.27139151670285,0.9892205810049446,-108.2926262,113.9857672,209.2126876
4016.863,-14.0355324,160.69724760000005,30.803421,0.4906241999999999,-0.1120486,0.5518346,-10.804438,-39.0507422,-170.9346618,-19.5934312,-32.0436456,0.6407936000000003,-0.9394028,-0.2908088,-0.1241552,-117.4475094,71.9745848,40.0977188,164.22378725772464,0.7468523415942137,37.5647226259603,0.9911921571987544,-106.6430714,111.025327,211.0323806
4036.848,-17.498173,166.82997159999996,33.2512956,0.4389153999999999,-0.1099614,0.5977354,-11.158026799999998,-35.633658000000004,-170.9180724,-17.5662704,-29.0137056,-1.7429429999999997,-0.9455867999999998,-0.2994337999999999,-0.1109632,-116.0990368,72.20128460000001,41.8803276,171.00898848152192,0.7496838308649054,33.961843570551885,0.998052017016608,-104.94101,107.8349426,212.7984
4056.832,-20.560839800000004,171.987665,35.736742400000004,0.381375,-0.1117756,0.6619211999999999,-11.5697652,-32.0934736,-170.899231,-15.1783748,-24.935123999999995,-4.520771,-0.9535838,-0.2825366,-0.0870914,-114.8136868,72.34593020000001,43.5433838,176.86045290792808,0.7720624005802899,29.539479360663957,0.9983656173546644,-103.2439216,104.4394038,214.4426148
4076.817,-24.5100826,175.8239228,38.9437614,0.3199568,-0.1189434,0.7151377999999999,-12.077832,-28.468726600000004,-170.8541048,-13.4821682,-20.3278598,-5.7966484,-0.9642764,-0.2658208,-0.0802991999999999,-113.71300019999998,72.42891360000002,44.976867600000006,181.74546082315044,0.7924278889959893,25.071734604824808,1.003462821847546,-101.6351682,100.8976402,215.8309724
4096.801,-24.565866400000004,178.6343536,40.503749,0.2530736,-0.1177834,0.7523434,-12.5717204,-24.7879238,-170.82788699999998,-12.1271686,-10.979071,-4.9875534,-0.970448,-0.2564735999999999,-0.0711372,-113.139015,72.4470762,45.82863999999999,184.80873291359228,0.8024585770344037,17.10216089252228,1.0062845171345924,-100.5672946,97.235,216.656527
4116.785,-26.653523,180.1186888,43.5159584,0.1833469999999999,-0.113265,0.7921814,-13.109988,-21.069912,-170.78202819999998,-11.0046128,-3.948100599999999,-2.8347857999999992,-0.9703972,-0.2429978,-0.0659338,-113.0040022,72.4535856,46.1960832,187.20788172193312,0.8209728699171247,12.030170894776424,1.0025297614311108,-99.8940142,93.5234976,216.9781114
4136.77,-30.6448484,180.5153532,45.4364624,0.1105036,-0.1389436,0.8516456,-13.7344672,-17.345371800000002,-170.7346772,-9.5475462,-0.0046783999999984,-1.3508133999999994,-0.9819368,-0.2153672,-0.0622746,-113.1207748,72.4719404,46.2700846,188.65145530794703,0.8699520662618602,9.642632273927102,1.00720456503892,-99.3863076,89.81731219999999,217.0047618
4156.754,-32.085296,179.7231718,47.133259,0.0382444,-0.1601356,0.8852704000000001,-14.3899756,-13.631536399999998,-170.69057,-11.9463198,4.403574000000002,2.7864660000000008,-0.9749548,-0.2046743999999999,-0.0681958,-113.6649856,72.5331358,45.947603,188.5508652995817,0.9004497352072909,13.033434447853878,0.998538501609247,-99.27501,86.16467220000001,216.638173
4176.739,-30.8944102,178.05013100000002,47.182279400000006,-0.0230866,-0.1912046,0.9031068,-15.0161292,-9.9456704,-170.67920220000002,-12.8469328,7.974587200000002,6.8547786,-0.9714918,-0.1901968,-0.0718822,-114.5602982,72.644679,45.2773088,186.7685230977177,0.9234143611439884,16.601979190239266,0.9925412791790176,-99.544169,82.59034940000001,215.956511
4196.723,-33.2271076,176.0483518,47.3473604,-0.0848132,-0.2226735999999999,0.9281872,-15.688790999999998,-6.293903600000001,-170.6953248,-14.1682636,7.703008600000001,12.8035742,-0.9810698,-0.1926984,-0.0821736,-115.6481598,72.8623914,44.4341882,185.30740780607243,0.9582840337160168,20.591443543998185,1.0031864863381883,-99.9593688,79.156295,215.129513
4216.707,-35.0708142,173.6808226,44.3493584,-0.1343021999999999,-0.2585998,0.9611318,-16.3917574,-2.6915264000000003,-170.80086980000002,-15.0661048,7.012123800000002,17.850406600000003,-0.9995016,-0.206011,-0.0913768,-116.8808686,73.1647856,43.4591936,182.65228095524907,1.0043332487058867,24.38840728330641,1.0245944076081033,-100.4891112,75.856312,214.2600634
4236.692,-34.6299954,170.99168079999998,42.4394356,-0.1772742,-0.2896432,0.970841,-17.095163,0.8610492000000001,-170.9723512,-15.5333154,4.659582800000001,22.7752988,-0.999803,-0.2235685999999999,-0.095553,-118.1486954,73.56017899999999,42.4573632,179.5508206003516,1.0285191162894738,27.95907428036941,1.028940879508614,-101.0535324,72.69912980000001,213.4297144
4256.676,-34.9538854,168.6706298,41.036898,-0.218551,-0.326032,0.971639,-17.822009599999998,4.3692838,-171.2021302,-14.1500522,0.7504662000000015,24.891173200000004,-1.0152276,-0.2374094,-0.0937568,-119.2344086,74.0172546,41.6166276,177.07507577055384,1.0479235425096625,28.64188681027257,1.0468240733553846,-101.412399,69.6479708,212.8187578
4276.66,-35.9993656,166.5883758,40.1766228,-0.2637181999999999,-0.3491686,0.9649646,-18.591215,7.838255800000001,-171.4833558,-15.474255,-3.9496273999999993,26.4921412,-1.0351009999999998,-0.2637682,-0.0897131999999999,-120.101207,74.5325958,41.0294022,175.10511784324856,1.0595388994701234,30.93356865550099,1.0719403909669976,-101.509992,66.69434,212.512758
4296.645,-38.38679499999999,163.9746948,39.52240379999999,-0.3072214,-0.368955,0.9702108,-19.430324,11.2573422,-171.8115722,-16.322114399999997,-9.9738062,23.736262000000004,-1.027787,-0.2690536,-0.0845942,-120.5131638,75.0502608,40.9316826,172.9834297476363,1.0825071718374897,30.484395390666517,1.0657824054259857,-101.0828398,63.79291860000001,212.7432548
4316.629,-39.172316,161.6195678,40.511033,-0.3599522,-0.4046454,0.965145,-20.3187102,14.6293108,-172.1630402,-17.3459698,-15.567112599999996,19.774239,-1.0270834,-0.265253,-0.081421,-120.4276306,75.5512846,41.3702812,171.16220035799302,1.1067106022131532,30.56531025579017,1.0639026477105693,-100.10892040000002,60.9219738,213.5333214
4336.614,-38.8600738,159.3914214,41.3569162,-0.4139825999999999,-0.4189572,0.9429936,-21.2313704,17.9548192,-172.5432952,-18.8173754,-20.3460202,13.970747800000002,-1.0262378,-0.2554926,-0.0780952,-119.8060334,75.9975432,42.3929596,169.192568008254,1.1118199756145597,31.036042740893013,1.0604429975565115,-98.574663,58.042724,214.9362548
4376.583,-39.624469,155.91558220000002,41.2527582,-0.4797532,-0.419454,0.9260344,-22.409539,21.832013,-173.0826234,-20.406601,-27.795192,9.776548800000002,-1.0182479999999998,-0.2513744,-0.0790952,-118.1858902,76.5192168,44.5448586,166.07696220549252,1.1241194336055222,35.84107935217418,1.05179566891217,-95.7763512,54.6872038,217.627482
4396.567,-39.0979456,152.23203420000002,40.794758,-0.5518972,-0.4326201999999999,0.9095508,-23.6317044,25.6247996,-173.6874298,-19.6641716,-32.1543092,5.741734800000001,-0.9970014,-0.2418346,-0.0850832,-115.9873978,76.9887466,47.2757974,162.38058340543398,1.148491799969212,38.12540836970776,1.0294342700150214,-92.3556934,51.363947,220.9632272
4416.551,-36.202255,148.478421,39.9023942,-0.62053,-0.4407225999999999,0.8827449999999999,-24.8580434,29.3286192,-174.366861,-18.6982224,-35.4531698,3.1231862000000006,-0.9964966,-0.2295186,-0.090118,-113.3210542,77.4185578,50.466559800000006,157.9514033892401,1.1655610777971954,40.20329665372436,1.0265502985638455,-88.4630108,48.0899386,224.83342080000003
4436.536,-32.6436024,143.9379822,38.9968294,-0.682403,-0.4311094,0.8453218,-26.0703714,32.9311528,-175.11221619999998,-17.477297600000004,-37.2366472,2.9578616000000006,-0.9815278,-0.2219668,-0.0879136,-110.3532976,77.831827,53.939438800000005,152.6581154105785,1.1688019997983403,41.24042642045531,1.0101459714021732,-84.28292619999999,44.900674200000005,229.05165500000004
4456.52,-29.6115978,138.6732086,37.622477,-0.7381186000000001,-0.4216588,0.8075582000000001,-27.2856682,36.41434360000001,-175.92719119999998,-14.951947999999998,-38.0717516,3.510570400000001,-0.9849856,-0.2260133999999999,-0.0831314,-107.144896,78.22442040000001,57.6036256,146.70567911060434,1.1725039265054256,41.05293075311631,1.0139968041630505,-79.85922780000001,41.8100768,233.5308168
4476.505,-25.2589424,134.1775284,36.146164,-0.7790982,-0.422219,0.7780104,-28.2770184,39.162169600000006,-176.7016234,-10.393062,-35.3543962,4.793423200000001,-0.9815876,-0.2048073999999999,-0.0732658,-104.2289018,78.5053316,60.8014458,141.23798522569706,1.179221383673312,37.16081234818093,1.00539950518098,-75.9518834,39.343162,237.5030692
4496.489,-21.1967248,129.3972154,34.3801446,-0.8087298,-0.4082078,0.7429486000000001,-29.2571602,41.7942734,-177.5397368,-7.0011858,-33.9297518,6.048569400000001,-0.9916076,-0.184227,-0.0540528,-101.2515016,78.78205439999999,63.988984,135.5541767642659,1.17160151913133,35.16859183422534,1.0100232299777072,-71.99434140000001,36.987781,241.52872080000003
4516.473,-17.65857,124.7117356,31.7932566,-0.8308188,-0.4009968,0.6982494,-30.263815,44.3037666,-106.4789306,-6.738457800000001,-32.8694268,7.332716200000002,-0.994496,-0.1835134,-0.0339748,-98.2260422,79.0449694,67.21560980000001,129.9063249270129,1.1569833778598722,34.34493788832179,1.011856585208892,-67.9622272,34.7412028,173.6945404
4536.458,-14.3857944,120.854918,28.6091414,-0.8488479999999999,-0.3976966,0.662435,-31.327191200000005,46.6945794,-35.5480132,-5.5691364,-33.7470032,6.5336354,-1.0076664000000002,-0.1800244,-0.0143667999999999,-94.9202882,79.25724199999999,70.6993394,125.02537845154076,1.1478351980927228,34.821888184915366,1.0237220146243609,-63.593097,32.5626626,106.2473526
4556.442,-11.4692608,118.0265214,25.3188346,-0.8669513999999999,-0.394962,0.6285074,-32.479241,48.9817354,35.2365296,-3.7411964,-35.7817178,7.949028200000001,-1.0125052,-0.1773626,0.0068064,-91.2204714,79.453969,74.5431672,121.25529713206444,1.1413243462139586,36.84446944314174,1.0279448423854076,-58.741230400000006,30.472233600000003,39.3066376
4576.427,-9.8433876,115.7423646,22.2724318,-0.8808818,-0.3894186,0.5882772000000001,-33.7667764,51.1750412,105.842572,-2.5049078,-38.5889688,8.4435372,-1.0141542,-0.1855336,0.0238276,-87.0434984,79.6000124,78.84312600000001,118.27615339082016,1.128569738933771,39.58126320093458,1.0312609818219438,-53.27672200000001,28.4249712,-26.999446
4596.411,-9.9365708,114.0631226,19.1636452,-0.900947,-0.389561,0.555171,-35.2543054,53.278624,176.2318298,-1.6630904000000002,-40.6925804,7.8202256,-1.013841,-0.1893608,0.0348172,-82.5605362,79.67052020000001,83.434279,116.08779726516276,1.1276870615427843,41.470566643390974,1.0319609116984425,-47.3062308,26.3918962,-92.7975508
4616.396,-10.229964,112.2788742,16.7928734,-0.9193856,-0.3833826,0.5158054,-36.9498444,55.297564,174.4054108,0.936981,-43.0200974,5.997485,-1.0116266,-0.1941154,0.042214,-77.8291474,79.63352979999999,88.2230408,113.98771140824412,1.1217429786449655,43.44624886023041,1.0309467436006188,-40.87930300000001,24.3359658,-86.18237
4636.395,-12.8636112,109.6217696,14.7616664,-0.9454214,-0.3738258,0.4767686,-38.89448159999999,57.2199852,172.3737122,3.2791544000000004,-43.4911842,5.873643400000001,-1.0006416,-0.1899498,0.0466302,-73.115741,79.5274522,92.9463348,111.35668663463878,1.122887193920013,44.00835879111754,1.019577811509568,-34.22125940000001,22.307467,-79.4273774
4656.364,-15.9040416,105.95202179999998,12.9343026,-0.9666966,-0.3730976,0.4433423999999999,-41.09320520000001,59.02117080000001,170.1270418,5.0176258,-43.0741554,5.131538600000001,-0.992911,-0.1797884,0.0417146,-68.5722358,79.3466644,97.463504,107.91693864482336,1.1270566175729948,43.667975914798994,1.0099189227600005,-27.4790306,20.3254936,-72.6635378
4676.349,-19.3080036,101.0385788,11.6277336,-0.98612,-0.3630441999999999,0.4002392,-43.524580400000005,60.6909502,167.7176698,4.1535382,-41.4255996,2.945866600000001,-0.9929336,-0.1861518,0.0405346,-64.49605940000001,79.0749176,101.5259522,103.52196673949928,1.12446661256361,41.737397041782266,1.0110453404518316,-20.971479,18.3839674,-66.1917176
4696.333,-23.3067078,95.2339782,10.771455,-0.9962694,-0.3616729999999999,0.3577472,-46.1757432,62.21419619999999,165.1787598,5.1021158,-39.784755,1.790443800000001,-0.9885456,-0.189349,0.0337128,-60.8426194,78.75231000000001,105.14353780000002,98.63436254718576,1.1186344958981016,40.15051687148738,1.0070809301958803,-14.6668762,16.538113799999998,-60.035222
4716.318,-27.796561,89.2270768,10.3418056,-1.0009766,-0.3606684,0.3292854,-49.021351,63.588717,162.5656556,7.1725786,-37.0291066,2.0619118000000007,-0.98131,-0.183194,0.0386494,-57.6061982,78.426657,108.2990432,94.02698006831876,1.113761519877249,37.77369586945816,0.9990110779447644,-8.584847200000002,14.83794,-54.2666124
4736.324,-31.2908828,83.2209214,10.2886186,-0.9950666,-0.360077,0.2913292,-52.02332859999999,64.8232156,159.8966248,7.7692036,-33.3481558,1.5480044000000008,-0.9780202,-0.1892852,0.0425034,-54.8729256,78.10129079999999,110.9335464,89.50249593036263,1.097581745081978,34.27617740445609,0.9970751915270184,-2.849597,13.2780752,-48.96307840000001
4756.286,-35.0491318,76.8956176,10.3471482,-0.9919308,-0.3528884,0.257782,-55.1356774,65.9215272,157.229135,8.423857199999999,-27.8218808,-1.2337735999999992,-0.966749,-0.1854882,0.0388658,-52.8228798,77.7752838,112.8597336,85.13777729006063,1.0839319602111566,29.095371086677304,0.9851497610769036,2.312797599999999,11.853756599999995,-44.3694014
4776.271,-38.4675734,70.394689,10.3280166,-0.9867228,-0.3545218,0.2358324,-58.3068558,66.8812592,154.5992064,11.454614799999998,-21.5467894,-0.9598407999999994,-0.955123,-0.1742282,0.0299816,-51.260806200000005,77.5278014,114.2288818,80.88160711546837,1.074674142056484,24.42117171688689,0.9713466462302736,7.046049599999998,10.646542199999995,-40.3703246
4796.255,-40.5729538,63.3543838,10.2754212,-0.9815814,-0.3460577999999999,0.2117052,-61.4404876,67.71113580000001,152.08170760000002,13.6532034,-14.8136674,-0.6110037999999992,-0.9485516,-0.1667474,0.0363553999999999,-50.1489784,77.3657196,115.0938966,75.93106615590251,1.06210975773403,20.15509936872574,0.963782417549978,11.291509199999998,9.654583799999996,-36.98781100000001
4816.24,-42.7025628,55.691941,9.7018286,-0.9798038,-0.3462516,0.190275,-64.4749832,68.405156,149.7292172,14.5765204,-7.298852800000001,-0.1786815999999992,-0.948674,-0.1568023999999999,0.0384972,-49.52723,77.307492,115.4394044,70.84650055026854,1.0564611836797413,16.302764375462914,0.9623156370596916,14.9477532,8.902336,-34.28981280000001
4836.224,-43.3684968,47.8301116,8.885299999999999,-0.9784674,-0.3526624,0.1804632,-67.31848219999999,68.96537020000001,147.6038572,15.4297436,-0.7014969999999998,0.5312900000000008,-0.9498568,-0.143519,0.0443772,-49.27717200000001,77.3483154,115.386583,65.17280603480309,1.0556212331090922,15.45481655235189,0.9616626122227484,18.041310200000005,8.382945200000004,-32.217274200000006
4856.209,-42.914431,40.0952084,7.8046588,-0.9740488,-0.3558084,0.1705496,-69.9078904,69.40437019999999,145.7461608,14.1590462,4.8094042,2.549951800000001,-0.9562708,-0.144675,0.0620362,-49.3070572,77.488095,115.07374280000002,59.246829650856505,1.0509318952016633,15.169417003795346,0.9691404380522362,20.600833200000004,8.083724800000004,-30.672418000000004
4876.193,-41.7322518,32.808923,6.545134,-0.969634,-0.3606146,0.1642549999999999,-72.2038728,69.7349884,144.17919,12.017271,9.0289592,2.7618704000000007,-0.9657176,-0.1472032,0.0831182,-49.6237038,77.6758362,114.5100052,53.4868679938963,1.04747920681709,15.282828096563208,0.9804019074906168,22.580169,7.940847800000003,-29.6691848
4896.177,-39.2040092,25.8561782,5.207296,-0.9698362,-0.3749582,0.1799026,-74.1524034,69.9704362,142.9289246,10.6761006,12.3085516,2.7024478000000007,-0.9731856,-0.149411,0.0942099999999999,-50.1931816,77.8976044,113.714888,47.25052613564696,1.0552444513307997,16.516137279125157,0.9890851242781686,23.9592218,7.927168200000002,-29.214036600000004
4916.162,-30.946724600000003,18.9157934,4.282915,-0.9686886,-0.3916588,0.2075708,-75.6244844,70.1394548,142.0120728,9.303405199999998,14.3294316,2.3657676000000007,-0.9785186,-0.15306,0.1112633999999999,-50.944033000000005,78.1285202,112.7617036,36.5219162191273,1.065288625866267,17.247690124526105,0.9966471583893268,24.6804514,7.989065400000001,-29.250369200000005
4936.146,-18.2294436,12.1764318,3.3302730000000005,-0.968654,-0.3926121999999999,0.2249724,-76.5025896,70.2500628,141.4554688,8.162346799999998,15.1648954,2.0345622000000008,-0.9862026,-0.1517476,0.1299992,-51.7747306,78.3553238,111.7488084,22.173606463544925,1.069133991633696,17.341781947714605,1.0062418667264643,24.727859,8.105260999999999,-29.706660400000004
4956.131,-4.240379999999999,5.9301378,2.1433674,-0.973357,-0.3950859999999999,0.2337628,-76.771155,70.301587,141.2473084,7.560954399999998,15.162066,1.919723400000001,-0.9944248,-0.1461049999999999,0.1426654,-52.6102706,78.57460180000001,110.7420762,7.598774946185181,1.0761792803751795,17.05114702182064,1.0151752411466703,24.1608844,8.273014799999999,-30.505232200000005
4976.115,10.2105806,0.0112608000000001,0.8206304,-0.9790196,-0.3986868,0.2378694,-76.4487902,70.2959764,141.35943619999998,5.853132999999999,15.869673999999998,1.699793600000001,-0.999362,-0.1451092,0.1384906,-53.59024420000001,78.7953796,109.6240358,10.243510982476524,1.0835185245923395,16.99985344244373,1.0192942329165804,22.858546,8.499403199999998,-31.735400400000003
4996.099,24.0918778,-6.1685724,-0.5520635999999999,-0.9808732,-0.3941906,0.220392,-75.5499804,70.2313294,141.78552560000003,3.4048332,16.6471864,1.335036200000001,-0.996652,-0.1485146,0.119048,-54.8018676,79.01577139999999,108.3229402,24.875181116981228,1.0798477194820577,17.044178648778523,1.0146645858711931,20.7481128,8.784441999999999,-33.46258540000001
5016.093,32.9561532,-12.983088,-2.5248976,-0.9876366,-0.3836422,0.2024156,-74.1296328,70.0805038,142.5580262,-0.9393420000000006,20.240265,1.1924872000000009,-0.9867748,-0.1486834,0.0774724,-56.5560662,79.2674118,106.5623414,35.51117733401837,1.0786934070456535,20.297111035449177,1.0009161963483058,17.573566600000003,9.186907999999995,-35.99568480000001
5036.068,37.9507398,-21.3619652,-4.9186012,-0.9932086,-0.381003,0.1876744,-72.25334640000001,69.8233642,143.71244500000003,-2.5140400000000005,24.476830199999995,2.1990060000000007,-0.9747354,-0.1482372,0.0191486,-58.8459824,79.57333220000001,104.2940964,43.826759477948585,1.080207521515343,24.70366857673709,0.9861288132688142,13.407364,9.749968,-39.41834860000001
5056.053,40.215674,-31.6237336,-7.2417536,-0.996503,-0.3832784,0.1914988,-69.93125160000001,69.43665920000001,145.2821562,-1.222739000000001,28.4112174,2.932562200000001,-0.9702746,-0.1465158,-0.0160309999999999,-61.6590462,79.9223466,101.47370759999998,51.67014570601826,1.0847084176482635,28.588324292778207,0.9814054575025554,8.2722054,10.485687399999998,-43.80844860000001
5076.037,41.183622,-42.6820928,-9.614555,-0.9959092,-0.3820574,0.2121768,-67.1873626,68.8982788,147.27419100000003,-0.2028164000000004,30.5032138,3.323724800000001,-0.9728544,-0.1461889999999999,-0.0180984,-64.77347119999999,80.2750384,98.328717,60.08570075046742,1.0875761977892124,30.68443144604042,0.9839433212349784,2.4138914000000016,11.3767596,-48.945474
5096.022,41.6544404,-52.8388252,-11.981649,-0.9934432,-0.3886855999999999,0.2429758,-64.132701,68.1955094,149.5936186,0.6376065999999996,31.8559734,3.793900400000001,-0.9828562,-0.1411472,-0.0010227999999999,-68.06018759999999,80.6192934,94.9917388,68.34174248812,1.0940946607397553,32.08743155322644,0.9929400223911412,-3.9274866000000017,12.423784,-54.601879800000006
5116.006,42.0288948,-61.02275160000001,-13.9121312,-0.988305,-0.3900827999999999,0.269807,-60.921689400000005,67.3416688,152.1025328,4.903698199999999,28.986864399999995,3.462336200000001,-1.005279,-0.1414437999999999,0.0351624,-71.035611,80.90242020000001,91.8826888,75.39065993523856,1.096224056080617,29.6018975023984,1.015789648880712,-10.113921600000005,13.5607514,-60.219844
5135.99,40.6871642,-67.1010086,-15.625461,-0.9852448,-0.3969744,0.310816,-57.719753,66.3449708,154.6285034,5.230842999999999,26.1368714,1.6978684000000008,-1.0227858,-0.1461076,0.0776126,-73.825177,81.1021576,88.953865,80.01340960887467,1.1067531685242198,26.70918422892218,1.0360800833613972,-16.105424000000003,14.757186800000005,-65.6746384
5155.975,40.4615736,-71.434079,-17.1024014,-0.9823214,-0.4042846,0.3389674,-54.6335424,65.2238488,157.063083,1.4823619999999995,23.1414318,-0.1000369999999991,-1.0279942,-0.1522872,0.0794626,-76.48229979999999,81.22077019999999,86.23403319999998,83.85975622676933,1.1150337523850478,23.18907652871205,1.0422465021846992,-21.8487574,15.996921400000002,-70.82904979999999
5175.959,40.4687164,-75.70821839999999,-18.341700600000003,-0.9850834,-0.4098496,0.3583737999999999,-51.695915,63.9840508,159.3711336,0.1433049999999994,20.4076672,-1.921399199999999,-1.0225244,-0.1507375999999999,0.057557,-78.9890304,81.27327720000001,83.6939164,87.783081065008,1.1255211149072948,20.49841925014564,1.0351766906659556,-27.2931154,17.289226400000004,-75.6772172
5195.944,39.9241928,-80.8693452,-19.6446566,-0.9893788,-0.4079796,0.3838158,-48.8999006,62.6152474,161.5743958,-0.4827650000000005,18.1756542,-3.657823399999999,-1.016405,-0.1461904,0.0368558,-81.3378402,81.2685914,81.32616279999999,92.30224643387754,1.136939898251108,18.546351114674557,1.027525720880407,-32.4379396,18.653344,-80.248233
5215.928,39.5551224,-87.2837328,-21.121428,-0.9945032,-0.4091175999999999,0.4112266,-46.22547060000001,61.0976502,163.683658,-4.2469524000000005,17.794954999999995,-5.1150068,-1.0049114,-0.1465242,0.0109301999999999,-83.7911116,81.21868300000001,78.92916579999999,98.1283467726832,1.15131279068182,18.99632392606361,1.0155962447289966,-37.56564100000001,20.1210328,-84.7544922
5235.912,40.2394998,-94.6435502,-22.6061208,-0.9977766,-0.4117212,0.4361464,-43.6454612,59.4186234,165.72375499999998,-6.442144600000001,17.553174799999997,-6.216466599999999,-0.998866,-0.147011,-0.0116893999999999,-86.2927962,81.1301256,76.52738819999999,105.29793747380958,1.1641718826144014,19.70430484933634,1.009694093351724,-42.647335000000005,21.7115022,-89.19636679999999
5255.897,41.26534360000001,-102.1774354,-24.141218,-0.9983944,-0.4110158,0.4698068,-41.1538542,57.5737108,167.6831178,-6.7552444000000005,17.583024199999993,-7.2016076,-0.9995774,-0.1480652,-0.0138088,-88.7465498,81.005739,74.1784746,112.8089326865154,1.1774734795855233,20.16579328828634,1.010578529852698,-47.5926956,23.4320282,-93.5046432
5275.881,43.3385262,-109.4504334,-25.7902624,-0.9941854,-0.4078839999999999,0.506775,-38.7493704,55.5632974,169.53092959999998,-7.614738200000001,18.4716248,-7.680973799999999,-0.9981664,-0.1574892,-0.0191642,-91.253279,80.8516388,71.7915788,120.51042635098749,1.1881055793380315,21.405198413534983,1.010695936851059,-52.5039086,25.2883414,-97.73935079999998
5295.866,46.1478332,-116.2774324,-27.245509200000004,-0.988313,-0.4104092,0.542061,-36.4373328,53.395813,171.238672,-7.4052092,19.3741952,-8.2321412,-0.9944232,-0.1682572,-0.0278607999999999,-93.7821502,80.66453399999999,69.3763566,128.0327363066137,1.1995951088324095,22.31512293670382,1.0089421243196857,-57.3448174,27.268721000000006,-101.8623154
5315.851,49.50317220000001,-122.9198594,-27.3443752,-0.9812526,-0.409388,0.5740976,-34.1897326,51.090467800000006,172.830478,-5.6574642000000015,20.5007718,-8.893360399999999,-0.994834,-0.1721172,-0.0311375999999999,-96.2760222,80.44408419999999,66.958625,135.30547198046722,1.20832249580835,23.05168984639185,1.0100933462931037,-62.0862896,29.3536164,-105.871853
5335.835,52.556957800000006,-129.66201940000002,-27.1499974,-0.9644382,-0.3997034,0.6172547999999999,-32.0002112,48.6443558,174.316806,-4.7887316,21.9808668,-9.8677556,-0.9912506,-0.1814438,-0.0378271999999999,-98.7745894,80.177945,64.51564640000001,142.51875471985073,1.2128096873433358,24.565485059275996,1.008429720713665,-66.7743782,31.533589200000005,-109.8011596
5355.819,54.9747336,-136.9026368,-26.666639,-0.9516094,-0.382673,0.66266,-29.865684800000004,46.0545242,175.71533200000002,-3.545558000000001,24.2836198,-10.953781799999998,-0.9852244,-0.1881144,-0.0493771999999999,-101.3498458,79.860675,61.966806,149.91885449382278,1.2211131604799614,26.874718749120465,1.0042371501406229,-71.484161,33.8061508,-113.748526
5375.803,56.4906508,-144.54370440000002,-25.9881676,-0.9337452,-0.3706468,0.7052294,-27.8002472,43.3150086,177.033661,-3.558693400000001,26.991590999999996,-12.4701534,-0.9840412,-0.1828226,-0.0538378,-104.0008482,79.4862976,59.3374184,157.3513932721532,1.2274394712154404,29.94520010362288,1.0023271397488147,-76.20060099999999,36.171289,-117.6962426
5395.788,57.7283676,-152.389792,-25.2602902,-0.9106948,-0.3543416,0.7503534000000001,-25.8019612,40.4223238,106.2771332,-5.987726800000001,30.6245576,-13.6962032,-0.9810564,-0.1904144,-0.066526,-106.8361006,79.042633,56.5656838,164.90389744500345,1.2320524392773062,34.0778870020259,1.0015762638882373,-81.03413939999999,38.6203092,-49.71144940000001
5415.772,59.016034000000005,-160.04502259999998,-25.7120332,-0.8735172,-0.3379595999999999,0.793372,-23.8910252,37.3648852,35.4133514,-4.074088800000001,33.8033364,-13.0470588,-0.9725526,-0.2019578,-0.085111,-109.7524474,78.5587248,53.6678674,172.5062612759362,1.2274722482858829,36.4621652490977,0.9969400157825946,-85.86142219999999,41.1938396,18.254515999999995
5435.757,58.7839326,-167.0761262,-25.9881894,-0.8328744,-0.3206128,0.8312379999999999,-22.0952546,34.157194200000006,-35.558792,2.4481323999999995,37.0417778,-11.8047716,-0.9756656,-0.2023898,-0.0942715999999999,-112.64035800000002,78.0497862,50.6604248,179.01220256231122,1.219601962257851,38.95432308949379,1.000885672159393,-90.5451034,43.89259199999999,86.2192168
5455.741,57.3537338,-173.2881256,-25.6884366,-0.7746106,-0.3138026,0.8537558000000001,-20.4348828,30.8178292,-106.630426,7.673728999999999,39.8252938,-9.997762599999998,-0.9764304,-0.2013666,-0.0978547999999999,-115.4802398,77.52720179999999,47.5889572,184.33155191044983,1.1947353763209492,41.7719451310053,1.0017686337287466,-95.045357,46.7093726,154.21938319999998
5475.725,53.89944379999999,-178.09254760000002,-24.5767354,-0.7055482,-0.296833,0.8850494,-18.9300614,27.3746772,-177.781183,14.887108,41.820063,-7.789573999999999,-0.980809,-0.2160979999999999,-0.105138,-118.1661362,76.995105,44.520848,187.6862314490044,1.170136971833896,45.06907051436838,1.0098210926342348,-99.2360748,49.6204278,222.302031
5495.71,49.0917046,-181.816568,-23.0629536,-0.6332202,-0.2911716,0.9058626,-17.603018400000003,23.8537932,-176.9990968,23.708881400000003,43.439833,-5.657439999999999,-0.9850848,-0.2163194,-0.0966782,-120.6068344,76.4647202,41.5151702,189.73444518217573,1.1429504680489702,49.811010586623865,1.0131795597832791,-103.003816,52.610927,218.514267
5515.695,43.5826394,-184.742975,-21.285731,-0.559581,-0.2755406,0.9227292,-16.450353800000002,20.273727,-176.2676942,27.462889,45.0594338,-5.424781,-0.9982866,-0.2141124,-0.093449,-122.8560974,75.9040086,38.62135919999999,191.00391517747852,1.1137695876356115,53.04706490938838,1.025257514566131,-106.4057436,55.6302816,214.8890534
5535.679,39.8560654,-186.8651674,-19.578897,-0.4856894,-0.274839,0.927472,-15.436549,16.6518602,-175.58140880000002,25.883459,45.148475,-5.5517092,-1.0032934,-0.2182062,-0.0916572,-124.9184554,75.321364,35.9449662,192.06881564776648,1.08242088855369,52.33698233249287,1.030831040720951,-109.4819064,58.66950380000001,211.526375
5555.663,38.08359,-188.5112306,-17.5973544,-0.4129882,-0.2516357999999999,0.9469132,-14.5021726,12.9962494,-174.9241884,24.276762,43.7385568,-6.2149952,-1.0090588,-0.2264152,-0.0959826,-126.7138442,74.7256822,33.5708764,193.12304567682668,1.0632612273167492,50.40881559298426,1.0385933584186064,-112.2116716,61.729432800000005,208.4950648
5575.648,36.6614532,-190.2655366,-15.395228800000002,-0.344747,-0.2356484,0.9449154,-13.6429348,9.3098244,-174.285257,20.376237,42.359231,-7.195453599999999,-1.0250784000000002,-0.2170334,-0.0984612,-128.31870560000002,74.125441,31.4698056,194.37605212120675,1.0330758808474427,47.552813141824565,1.0524180874384288,-114.67577079999998,64.8156166,205.7550626
5595.632,35.7587062,-191.8562744,-12.8819464,-0.2684246,-0.206201,0.9446406,-12.837823,5.592278599999999,-173.65063479999998,14.633076399999998,37.4115266,-7.069429999999999,-1.0410476000000002,-0.2071316,-0.1030072,-129.6669706,73.5861282,29.751254,195.5849166955328,1.0034522816031262,40.78879856033571,1.0664399131859987,-116.82914759999998,67.9938496,203.4018888
5615.617,33.502308400000004,-193.0950988,-10.3026296,-0.1953584,-0.1812246,0.9470196,-12.1123448,1.8505936,-173.0156342,8.518002599999999,31.0738294,-5.150010199999999,-1.043464,-0.1966012,-0.0981816,-130.7956052,73.15849139999999,28.385175,196.2505185353284,0.9837953968584524,32.62915639323234,1.06635302677678,-118.68326040000002,71.3078978,201.4008092
5635.601,29.60982300000001,-194.4372344,-7.9420648,-0.1303039999999999,-0.1489568,0.9452116,-11.4954986,-1.9176942,-172.37500619999997,1.7769467999999988,24.1762776,-3.784521199999999,-1.0513708000000002,-0.1830494,-0.1026243999999999,-131.730908,72.84405799999999,27.3612908,196.8391631065812,0.9657081492132082,24.535128677786496,1.0721097935418558,-120.2354094,74.76175220000002,199.736297
5655.585,25.2786078,-195.6586518,-6.690904000000001,-0.0677516,-0.140406,0.9191176,-11.0070324,-5.708869,-171.7416748,-5.797961200000001,17.4965204,-2.556177599999999,-1.053278,-0.1660902,-0.1126166,-132.5398558,72.6392988,26.6298344,197.39828832296664,0.9322452932401,18.608563192978213,1.0722233901643816,-121.5328234,78.3481678,198.3715092
5675.57,23.3524478,-196.3384766,-6.6516544,0.0011924,-0.125185,0.895831,-10.5906396,-9.5236708,-171.1338562,-11.310537000000002,10.3369768,-2.996688,-1.0395238,-0.1650254,-0.1181262,-133.08021219999998,72.5214094,26.295612800000004,197.8342202909232,0.9045362826353402,15.612862503764363,1.059149145558849,-122.4895726,82.0450802,197.429469
5695.554,20.7248828,-195.897043,-7.125541200000001,0.0688194,-0.117481,0.8566406000000001,-10.2635242,-13.3437978,-170.556662,-14.872042400000002,5.502168199999997,-4.029483399999999,-1.0318657999999998,-0.1701082,-0.125041,-133.4141906,72.4491942,26.252834,197.11911515784175,0.8673932284412418,16.36118078010767,1.0532421756642103,-123.1506664,85.792992,196.809496
5715.539,21.0191468,-194.4928744,-9.7993066,0.1398094,-0.1301844,0.8219404000000001,-9.9538078,-17.160829200000002,-170.0516602,-14.995369200000004,0.6998165999999969,-6.839543399999999,-1.0219242000000002,-0.1824196,-0.1396917999999999,-133.40957640000002,72.3898636,26.568591400000003,195.87064388114652,0.8438487231037801,16.49636913500749,1.0474348571615515,-123.4557686,89.5506928,196.6202516
5735.523,18.419862,-191.655881,-10.9173014,0.2061148,-0.1288144,0.763946,-9.7268684,-20.9410148,-169.58551340000002,-13.391993200000002,-1.090795200000003,-10.2512304,-1.0045082,-0.2027537999999999,-0.1479994,-133.1341736,72.2918076,27.133869600000004,192.8482706892744,0.8016794567296832,16.9003858166337,1.0353983048479651,-123.4073052,93.2328224,196.719383
5755.507,15.7390784,-187.7025728,-12.0208766,0.2778524,-0.11708,0.7315696,-9.5655696,-24.665430800000003,-169.16230480000002,-9.769181,-2.213645200000003,-15.927971,-0.9879864,-0.2276212,-0.1607428,-132.49921880000002,72.10765239999999,28.000528000000003,188.74447249880745,0.7912671876363383,18.815881128958196,1.0265314340176046,-122.9336492,96.7730832,197.1628328
5775.492,10.1155836,-182.7245362,-12.7052016,0.322291,-0.1420164,0.7001884,-9.5465328,-28.2995838,-168.759485,-6.163615000000002,-0.753909600000003,-19.5086328,-0.9768558,-0.250988,-0.16923,-131.7247284,71.83584920000001,28.9377786,183.4448236085454,0.7837754410827887,20.473037959189963,1.022683246678873,-122.1781956,100.135433,197.6972636
5795.476,7.6077518,-177.7049224,-12.9308308,0.368279,-0.133807,0.6706454,-9.6079812,-31.840828,-168.36052560000002,-0.7668642000000012,1.4946823999999972,-23.771416,-0.9536898,-0.2655548,-0.1929714,-130.82295219999995,71.45190140000001,29.89867880000001,178.33710695707344,0.7767232374734001,23.83070235690017,1.0086037614668308,-121.21497100000002,103.2927294,198.2592044
5815.461,1.839499,-172.2387084,-11.032034200000002,0.4065786,-0.1256068,0.6341466,-9.8343638,-35.2657714,-167.9117004,4.445955799999998,6.203762199999997,-26.5897608,-0.9350906,-0.2716838,-0.2121684,-129.973532,70.9520128,30.6980688,172.60145482139254,0.7636917810712383,27.66348799068764,0.996605211379792,-120.1391682,106.2177842,198.6097692
5835.445,-1.6574979999999997,-166.5388122,-10.1131462,0.451407,-0.1262946,0.6161802,-10.1727448,-38.575074,-167.42560120000002,11.226213599999998,8.843370399999998,-27.9174688,-0.9239538,-0.265894,-0.2346208,-129.1305006,70.3930452,31.3535048,166.85382523235555,0.7742071069876586,31.36268700260541,0.9896651775035232,-118.9577558,108.9681192,198.779106
5855.429,-5.564483,-160.2460388,-10.4505052,0.4913816000000001,-0.14204,0.5845687999999999,-10.6246916,-41.7624162,-166.9224304,17.7055346,11.360232599999996,-26.3387322,-0.917574,-0.2652294,-0.2417646,-128.3816344,69.82545780000001,31.776060399999995,160.68282260740762,0.7767573111030239,33.70859911211406,0.9852607786335148,-117.7569428,111.587874,198.6984908
5875.414,-8.549070799999999,-153.5391968,-11.133154,0.5411402,-0.1287708,0.5519497999999999,-11.1510924,-44.8232864,-166.4182618,24.84752,13.490530599999996,-24.3944802,-0.9082078,-0.2594341999999999,-0.2559599999999999,-127.7066024,69.26213379999999,31.9727984,154.17950150237309,0.7836218582382193,37.3427948906898,0.9786025923276926,-116.55551,114.0854202,198.3910602
5895.398,-13.5128532,-146.1910828,-12.667397400000002,0.5824226,-0.1367956,0.521625,-11.7795354,-47.7488158,-165.9318178,31.434444199999994,15.569000399999998,-21.096579400000003,-0.9046508,-0.2677116,-0.2558258,-127.1118256,68.72635199999999,31.943234,147.35973957879654,0.7937391018433703,40.93389448853625,0.977501616704975,-115.33229020000002,116.47516779999998,197.8750518
5915.383,-16.2656344,-138.4831772,-15.290543200000002,0.6256952000000001,-0.135778,0.4842018,-12.4377864,-50.5425644,-165.49787,38.3757218,17.396768399999996,-17.837414000000003,-0.8967896,-0.274054,-0.254136,-126.5579346,68.2228744,31.7194498,140.2710302991752,0.8027337863266253,45.75496598885884,0.9715566314323422,-114.1201482,118.7654388,197.2173198
5935.367,-19.5902728,-130.92055820000002,-18.0472556,0.6631564000000001,-0.1402013999999999,0.4524251999999999,-13.138361,-53.2028504,-165.1167328,43.23235859999999,18.1133104,-13.843122800000003,-0.8899710000000001,-0.2838594,-0.2490952,-126.04931179999998,67.7765168,31.3402966,133.60267505731215,0.8149364423180253,48.87495158689798,0.966784856352436,-112.9109508,120.9793672,196.4570294
5955.352,-22.9613852,-123.169542,-19.684417000000003,0.6966939999999999,-0.145059,0.4206426,-13.8887718,-55.7205514,-164.7699738,46.7271004,17.680154799999997,-9.6712908,-0.8816036,-0.2937352,-0.2494004,-125.5761,67.40099660000001,30.8469864,126.82837836786544,0.8266588413921185,50.887558904724514,0.9621360791344228,-111.6873282,123.121548,195.6169602
5975.336,-24.2873308,-115.716646,-21.7319168,0.7284862000000001,-0.1338077999999999,0.3921538,-14.6187568,-58.108594,-164.4873932,50.6254982,17.678581999999995,-5.3678914,-0.8758812,-0.3022251999999999,-0.2489008,-125.1408614,67.09605739999999,30.2265168,120.21852106343712,0.8380819015977616,53.891442619502406,0.9594058350193208,-110.5221046,125.20465140000002,194.71391
5995.32,-27.052622,-108.5205294,-22.840041600000003,0.7590416,-0.143086,0.3628818,-15.401414,-60.36285740000001,-164.2206482,52.3212004,15.814710799999997,-1.914817,-0.8721251999999999,-0.3020678,-0.2457148,-124.6936858,66.8734392,29.581629600000003,114.1499766036808,0.85340550425797,54.6925919401164,0.9551037028568782,-109.29227179999998,127.2362966,193.8022778
6015.305,-28.607523800000003,-101.53902,-23.3650672,0.7857364,-0.1404528,0.3399686,-16.198475,-62.4832004,-163.9766144,50.7330512,9.770171799999996,0.5218262,-0.8785546,-0.3056808,-0.2450472,-124.110376,66.7627444,29.119297400000004,108.04855096570468,0.8675755461622694,51.66789180570795,0.9619496176503424,-107.911901,129.2459448,193.0959118
6035.289,-29.4260646,-94.2230272,-23.9929878,0.8191407999999999,-0.1416458,0.310428,-16.9821686,-64.4634692,-163.77015079999998,48.3997634,4.661789599999997,2.0523498,-0.8814996,-0.3124139999999999,-0.2408206,-123.4105988,66.7350084,28.833767,101.5851150324016,0.8873673005392299,48.667047569707854,0.9657321645158764,-106.4284302,131.1984776,192.6039178
6055.274,-28.0648026,-86.846457,-24.7815628,0.8423118,-0.1389448,0.2798801999999999,-17.686336,-66.30917919999999,-163.62463079999998,46.9197478,0.5789955999999972,4.0155436,-0.8826,-0.3178958,-0.235845,-122.624193,66.78428360000001,28.6743096,94.5730727704253,0.8984028896983358,47.0948251926252,0.9672969366655928,-104.937857,133.09346279999997,192.2989404
6075.258,-27.8924142,-78.6888314,-24.9941972,0.8696052,-0.1448344,0.2474697999999999,-18.315796,-68.00229820000001,-163.55732719999995,42.4943808,-6.870606800000003,5.4849606,-0.8833232000000001,-0.3204426,-0.2284297999999999,-121.6617814,66.9391968,28.802394000000003,87.1471677719619,0.915659057292855,43.394267249939446,0.9670178432071664,-103.3459854,134.94149499999995,192.3597212
6095.242,-25.3905136,-69.64348,-25.8524226,0.8931321999999999,-0.1322962,0.2219234,-18.7356352,-69.5337648,-163.65900259999998,37.6793354,-13.2015248,6.632439000000001,-0.8897722,-0.3275568,-0.2231384,-120.5592148,67.1771836,29.187118400000003,78.50630701842479,0.929751260649234,40.47223517819876,0.9740527555905992,-101.8235796,136.7109484,192.846121
6115.227,-25.1964482,-59.85844199999999,-25.6329362,0.9104536,-0.1327752,0.190347,-19.0266052,-70.88452000000001,-163.894104,33.0092186,-16.284251200000003,7.8051682,-0.8902428,-0.3325758,-0.2130464,-119.4308074,67.4616364,29.699629,69.82078128176393,0.9395674493600764,37.62586876548605,0.9739238544416292,-100.4042022,138.34615639999998,193.593733
6135.211,-22.4198846,-49.3408318,-25.2270578,0.9185512,-0.1265716,0.16952,-19.0977742,-72.0408294,-164.3019684,28.000585599999997,-19.174572800000004,8.7011032,-0.8879166,-0.3406036,-0.2066548,-118.2791778,67.7801668,30.3442124,59.779372307157495,0.9425994416230044,35.034357891967666,0.9731972601952597,-99.1814036,139.8209962,194.6461808
6155.196,-19.940714000000003,-38.4865414,-23.8351186,0.928984,-0.119286,0.1479578,-18.9717034,-72.9880216,-164.86270439999998,22.1190874,-20.9662792,8.0311608,-0.8889153999999999,-0.3405376,-0.195984,-117.128343,68.0994858,31.1134778,49.466744611302005,0.9482256760037876,31.51727200594379,0.9718776536308054,-98.1566396,141.0875074,195.9761822
6175.18,-15.1180878,-27.4271076,-21.834110000000003,0.9331244,-0.1147586,0.136119,-18.6189852,-73.7155118,-165.55742800000002,16.668217399999996,-21.203088800000003,6.791709800000001,-0.8900578000000001,-0.3410638,-0.1859038,-116.021179,68.392978,31.9511914,38.17762655695855,0.9499574013135116,27.812367176523544,0.971126987507669,-97.4021938,142.1084898,197.5086194
6195.165,-10.1599382,-16.7046046,-19.098334800000003,0.9298874,-0.1126609999999999,0.131705,-18.079407,-74.21637860000001,-166.34076840000003,11.551113999999997,-20.4677508,5.2478744,-0.8835642,-0.3356354,-0.1777956,-114.9968382,68.64700020000001,32.808846800000005,27.331566936475696,0.9459013080785756,24.08105569052304,0.9617422173504498,-96.9174312,142.86337880000002,199.14961520000003
6215.149,-4.5179568,-6.654651599999999,-16.4201336,0.9255432,-0.1010049999999999,0.1431336,-17.335800799999998,-74.4977752,-167.214798,6.953642799999997,-18.9273842,3.6617434,-0.8818109999999999,-0.3301726,-0.1728198,-114.0908964,68.85608060000001,33.637875599999994,18.2843405406347,0.9419763545547204,20.494081720629616,0.9573250591015572,-96.7550956,143.3538558,200.8526736
6235.134,0.3442256,2.5533504,-13.698066400000002,0.9191342,-0.0945564,0.1537208,-16.456664999999997,-74.5758636,-168.1263,2.997686599999997,-15.7786742,2.1000452,-0.8757985999999999,-0.3205918,-0.1696842,-113.3761412,69.00957779999999,34.3471854,13.938260746150666,0.9366849388899344,16.19761940235689,0.9479425181512008,-96.9194762,143.58544139999998,202.4734854
6255.118,6.2487286,10.83744,-10.767230400000004,0.9124226,-0.0799595999999999,0.171078,-15.460026199999998,-74.4661896,-169.0342224,-0.8426540000000028,-12.249733400000004,1.1548942,-0.8700116,-0.3159536,-0.1693814,-112.8876312,69.115013,34.8969252,16.505452594725845,0.9317597440901384,12.332875364163272,0.9409765778984512,-97.427605,143.5812026,203.9311476
6275.103,12.3205696,18.287543,-7.638479200000002,0.908965,-0.0656176,0.1839918,-14.40659,-74.1881836,-169.87316900000002,-4.4914346000000025,-8.616823600000002,0.9857308,-0.8627832,-0.31422,-0.1709812,-112.6461792,69.1852966,35.2607704,23.33617425230892,0.929718249321804,9.76700050832715,0.9340040842285864,-98.2395892,143.3734802,205.1339394
6295.087,18.394568600000003,25.396734,-4.227064800000003,0.9091234,-0.049498,0.1894984,-13.3478048,-73.7544326,-170.58998119999998,-8.449130600000002,-5.723299800000002,1.411826,-0.8610215999999999,-0.3133594,-0.1724832,-112.6344544,69.239363,35.463678,31.642097412628345,0.9299812105812246,10.302292033854044,0.9323640724079624,-99.2866496,142.9937956,206.0536592
6315.072,22.7445944,32.7989706,-0.4772132000000016,0.9085568,-0.039234,0.1884431999999999,-12.3684642,-73.1633132,-171.1334596,-12.929551600000002,-4.154602800000002,1.9537872,-0.8659296,-0.3132028,-0.169776,-112.793915,69.292569,35.578434800000004,39.91637232112194,0.9287225663288688,13.720470597822594,0.9363514063961242,-100.4254508,142.4558822,206.7118944
6335.056,25.7166938,40.6978282,3.4187793999999982,0.9051632000000002,-0.0290786,0.1887226,-11.5050054,-72.4061004,-171.4938662,-17.5765602,-3.6262894000000014,2.5736298,-0.8767994,-0.3142564,-0.1615276,-113.0689164,69.35650480000001,35.6667946,48.26333611330176,0.9250849708880586,18.130334073707093,0.9453176388617108,-101.563911,141.7626052,207.1606608
6355.041,25.5748804,49.3845092,7.535799399999999,0.8970248,-0.024527,0.1832984,-10.8314876,-71.47166440000001,-171.658945,-21.7809516,-3.999669800000002,3.0886188,-0.8821032000000001,-0.3130718,-0.1558254,-113.4094406,69.43552399999999,35.773418400000004,56.12212156535272,0.915889386873,22.35948964538968,0.9488949165690792,-102.577953,140.9071884,207.4323634
6375.025,22.7594096,58.7458686,11.498362599999998,0.881283,-0.024732,0.1891073999999999,-10.3772618,-70.3416916,-171.6530368,-25.580916,-4.845419200000002,3.3344206,-0.8902808,-0.310349,-0.1526024,-113.783432,69.5291122,35.9245192,64.041237850233,0.901683429285334,26.24842302616462,0.9550936588290178,-103.4061702,139.8708038,207.577556
6395.009,17.986636800000003,68.8782256,14.770976,0.861118,-0.033578,0.1982934,-10.1308646,-69.0028138,-171.5297884,-28.679729200000004,-5.740128800000003,3.3913834,-0.8972941999999999,-0.303676,-0.1519554,-114.1773224,69.6355164,36.1203986,72.7042694562856,0.8842917869637601,29.444480416399237,0.95939899828945,-104.0464578,138.63833019999998,207.650187
6414.994,14.560414400000004,79.646862,17.5887502,0.836964,-0.041236,0.2132679999999999,-10.0121708,-67.4421982,-171.343503,-31.1843386,-7.596895400000003,3.4690014,-0.9047512,-0.2947347999999999,-0.150743,-114.5325454,69.7646286,36.4108542,82.8552498490275,0.864692075143516,32.28327375516915,0.9634141312444404,-104.5203746,137.2068268,207.7543572
6434.978,12.390509000000002,91.1885588,19.9443884,0.8137824,-0.0524084,0.2276144,-9.9642828,-65.6483818,-171.1290742,-33.253530600000005,-10.559527400000002,4.3159396,-0.9016996,-0.2834184,-0.1599238,-114.8203674,69.9361848,36.8194252,94.16292581451678,0.8466385002040009,35.155771231866545,0.9586259854109735,-104.8560846,135.58456660000002,207.9484994
6454.963,11.457994800000002,103.1401014,21.26772,0.7876382,-0.0595226,0.2558014,-9.901793,-63.6095054,-170.9508332,-35.604719,-13.5364036,6.1029204,-0.9107604,-0.2795202,-0.1608898,-115.04702,70.16750800000001,37.3430146,105.93149708956967,0.8302717809560675,38.57688264880653,0.966178853091,-105.145227,133.7770134,208.2938478
6474.947,8.072304200000001,114.4326186,22.3929756,0.760527,-0.0555502,0.2853422,-9.8558838,-61.340673,-170.8240418,-36.6342826,-17.1676362,8.067027,-0.9090678,-0.2826658,-0.158505,-115.142212,70.46165479999999,38.0264994,116.88212716652876,0.814191202083319,41.253791570362864,0.9651052038568024,-105.2863282,131.8023278,208.8505412
6494.932,3.1766372000000014,124.7791778,24.0734626,0.7305526,-0.0625068,0.3174198,-9.889905199999998,-58.8563986,-170.714853,-36.039019,-20.534775600000003,9.850953,-0.904514,-0.2948254,-0.1576746,-115.0731948,70.806514,38.869214,127.11988765688096,0.7989803069194134,42.632489657923166,0.9643281973303072,-105.1832896,129.6629126,209.584067
6514.916,-1.7079661999999984,134.72079760000003,25.9639854,0.6983575999999999,-0.0679408,0.3350703999999999,-10.006832800000002,-56.170877,-170.61929320000002,-34.9758828,-23.6593276,12.1245438,-0.9032394,-0.3095792,-0.1590624,-114.84435720000002,71.2065826,39.8558336,137.21056443427355,0.7775547972577623,43.93268398904824,0.9679780689038155,-104.8375244,127.3774596,210.4751268
6534.9,-7.058208399999998,144.0166534,28.0229856,0.6624209999999999,-0.0764472,0.3691765999999999,-10.220301,-53.2876252,-170.53438420000003,-31.391795800000004,-27.4866008,12.4216338,-0.9138358,-0.3164118,-0.1464122,-114.2820052,71.6377334,41.1132836,146.88738027581323,0.7621923101267815,43.53452714052101,0.9780842646979452,-104.06170419999998,124.9253586,211.6476678
6554.885,-16.365723600000003,151.987912,30.5111218,0.624537,-0.076593,0.4230556,-10.610289599999998,-50.221381400000006,-170.4544006,-26.854320200000007,-32.1444442,10.812789,-0.9235718,-0.3230412,-0.1296744,-113.25087879999998,72.0663788,42.7627266,155.88165657499852,0.7582143448322248,43.2589437260038,0.9869933822817862,-102.6405892,122.2877602,213.2171272
6574.869,-22.6074828,159.4282256,32.4067024,0.5825699999999999,-0.1011595999999999,0.4661946,-11.1235886,-46.9871994,-170.3852996,-23.213752000000003,-33.620007400000006,7.4045834,-0.9374338,-0.3199956,-0.1160215999999999,-111.9216368,72.4360686,44.644741800000006,164.2517937709021,0.752966449877629,41.52121186599826,0.997316562114738,-100.7980482,119.423268,215.0300414
6594.853,-25.1358924,166.4001708,34.6126816,0.5306284,-0.1047041999999999,0.4975636,-11.6584676,-43.59441840000001,-170.3470092,-19.824971400000003,-32.78777000000001,2.4464648,-0.9511928,-0.2980958,-0.086497,-110.3999542,72.7133362,46.65275799999999,171.8105574653564,0.7349142837291707,38.393391913210245,1.000555135791367,-98.7414866,116.3077546,216.9997672
6614.838,-29.03012,172.6158112,37.628482,0.4810345999999999,-0.1157134,0.5447094,-12.2564074,-40.04840780000001,-170.31964720000002,-16.610990800000003,-30.491325400000004,-2.2082194000000004,-0.9586644,-0.288626,-0.0631742,-108.7917388,72.88348540000001,48.6803748,179.0387354766358,0.7358615411781485,34.79255916032775,1.003161691477999,-96.5353314,112.9318932,219.000022
6634.822,-35.1989856,177.8024414,40.044387,0.4214944,-0.1205012,0.6157199999999999,-12.9539766,-36.3802422,-170.3209748,-14.867798400000003,-23.843830800000003,-4.832834200000001,-0.9659761999999998,-0.2777348,-0.0413165999999999,-107.4472778,72.958374,50.3917884,185.6238930883501,0.7558367461514423,28.512032247575075,1.0059590943637022,-94.4933012,109.3386162,220.7127632
6654.807,-34.3552902,182.3274078,42.372644,0.3668946,-0.1542942,0.6564136,-13.6303672,-32.6149362,-170.3402284,-12.864871800000005,-15.237606,-5.0898292000000005,-0.9720318,-0.255307,-0.0293638,-106.5698836,72.9797454,51.571582,190.31292798794425,0.7676569298376457,20.58144611845445,1.005430115528016,-92.9395164,105.5946816,221.9118104
6674.791,-34.690333599999995,185.8641022,45.9403206,0.2973774,-0.1591148,0.6950992,-14.3191068,-28.7710526,-170.349399,-9.630601400000002,-7.905433000000002,-5.2352744,-0.9887543999999998,-0.2488242,-0.012421,-106.0790268,72.954042,52.278701,194.57491305078904,0.7726019256062205,13.514897420493666,1.0196582894607389,-91.75992,101.7250946,222.6281
6694.776,-36.1206006,188.7353882,47.5460068,0.2453071999999999,-0.1799636,0.7407381999999999,-15.027375799999998,-24.8653302,-170.3882082,-6.768540200000002,-2.1193898000000018,-2.0001946,-0.992878,-0.2392142,-0.0116084,-105.9637786,72.9593886,52.53367920000001,197.95546799554452,0.8007843658788799,7.369242023521094,1.021354449403438,-90.9364028,97.8247188,222.9218874
6714.76,-37.672579,190.3538696,47.4905236,0.1710409999999999,-0.2015796,0.8105043999999999,-15.744184999999998,-20.934527800000005,-170.48975839999997,-4.275137800000002,2.8752969999999984,2.165697,-0.9966972,-0.2244404,-0.0068918,-106.1878128,73.0251128,52.3815194,199.77279272215023,0.8525296131141251,5.588772632967533,1.021678177581982,-90.4436278,93.9596406,222.8712778
6734.745,-32.5595614,190.2643646,47.197878200000005,0.0974804,-0.2220102,0.8575475999999999,-16.350483,-17.011176000000003,-170.6414246,-2.9789528000000027,6.312167199999999,5.7627468,-0.9851412,-0.228427,-0.0055578,-106.6642196,73.1355314,51.9378686,198.71661526350567,0.8911671243677921,9.051346044997612,1.0112927209306315,-90.3137366,90.1467074,222.5792932
