Timestamp (ms),Wrist Gyroscope X (deg/s),Wrist Gyroscope Y (deg/s),Wrist Gyroscope Z (deg/s),Wrist Accelerometer X (g),Wrist Accelerometer Y (g),Wrist Accelerometer Z (g),Wrist Roll (deg),Wrist Pitch (deg),Wrist Yaw (deg),Arm Gyroscope X (deg/s),Arm Gyroscope Y (deg/s),Arm Gyroscope Z (deg/s),Arm Accelerometer X (g),Arm Accelerometer Y (g),Arm Accelerometer Z (g),Arm Roll (deg),Arm Pitch (deg),Arm Yaw (deg),Wrist Gyroscope Magnitude (deg/s),Wrist Accelerometer Magnitude (g),Arm Gyroscope Magnitude (deg/s),Arm Accelerometer Magnitude (g),Difference Roll (deg),Difference Pitch (deg),Difference Yaw (deg)
0.0,2.20284,-0.676267,-0.634651,-0.970904,-0.139417,0.128093,-46.958977,78.466843,-179.622314,2.551049,-0.508697,-0.650978,-0.968624,-0.06617,0.195507,-23.446823,77.563881,95.008232,2.390109414376254,0.9891913332384186,2.6814913750922265,0.9903705919124416,23.512154,-0.9029620000000024,274.630546
19.984,2.339091,-0.580742,-0.7721965,-0.973398,-0.1438905,0.1308205,-46.9526255,78.4571115,-179.6458205,2.095247,0.3837035,-0.616614,-0.9651765,-0.066605,0.2002115,-23.4507915,77.5729525,94.9861565,2.5307894838285643,0.9926339434124244,2.217543954900838,0.9879709241215048,23.501834,-0.8841589999999968,274.631977
39.969,2.216472,-0.3971616666666666,-0.834944,-0.970558,-0.1447226666666666,0.134198,-46.95508833333333,78.448194,-179.67867033333334,1.299195,0.8157043333333333,-0.7777033333333333,-0.9663983333333332,-0.0723886666666666,0.2047423333333333,-23.497511666666668,77.580526,94.934026,2.4015863506002537,0.9904224274596728,1.719913858924788,0.99049749156169,23.457576666666665,-0.8676679999999948,274.61269633333336
59.953,1.848318,-0.0797614999999999,-0.804161,-0.97106775,-0.1454052499999999,0.13830675,-46.9731475,78.4426785,-179.72065750000002,0.67815625,1.04983325,-0.82340625,-0.96859025,-0.07821175,0.2072715,-23.5637365,77.5877135,94.870264,2.017254629422684,0.991586616949416,1.496677521966134,0.993602347493893,23.409411,-0.8549649999999964,274.59092150000004
79.937,1.4903544,0.2656716,-0.7063468,-0.9717478,-0.1457532,0.1400366,-47.0072114,78.4421632,-179.7717042,0.3837502,1.0209564,-0.8447758000000001,-0.97027,-0.0810974,0.2064039999999999,-23.6302972,77.5930484,94.807904,1.6705278921694662,0.9925462364316536,1.379587742395039,0.9952905467263116,23.3769142,-0.8491147999999953,274.5796082
99.921,1.0890308,0.7792899999999999,-0.6003232000000001,-0.972918,-0.1458628,0.1428334,-47.0665986,78.44189,-107.86830460000002,-0.0101417999999999,1.135351,-0.8648844,-0.9712644,-0.086,0.2051606,-23.7341992,77.6027744,94.701448,1.4675383919703362,0.9941060161287628,1.4272875585079554,0.9964142745363096,23.3323994,-0.8391155999999966,202.56975260000004
119.905,0.5738932,1.2133740000000002,-0.4327074000000001,-0.9718456,-0.143256,0.1418588,-47.1524902,78.4513154,-35.98099679999999,-0.0645107999999999,0.940947,-0.8401558,-0.9721862,-0.087279,0.2008578,-23.8369808,77.6110782,94.5975784,1.4102714500751268,0.9925371886800012,1.2630932936245365,0.9965477846708004,23.3155094,-0.8402371999999986,130.5785752
139.889,0.1138874,1.4069172,-0.3103216,-0.9729422,-0.1425012,0.1390424,-47.2569138,78.46657719999999,35.8996368,0.3130061999999999,0.8969518000000001,-0.6532106,-0.9715722,-0.0855498,0.1942588,-23.917250000000003,77.6237018,94.5091232,1.4452286472946627,0.993104176579698,1.1529004730305388,0.9944887075629968,23.3396638,-0.8428754000000026,58.6094864
159.873,-0.0453794,1.3349024,-0.1938888,-0.9729884,-0.143025,0.1359664,-47.3582062,78.483368,107.7900696,0.7788082,0.9405131999999998,-0.4606112,-0.9697828,-0.083428,0.188744,-23.9741474,77.6416232,94.4350784,1.349672765612302,0.9927987908375594,1.3050938546046869,0.991495440179046,23.3840588,-0.8417448000000036,-13.3549912
179.857,0.0648502,1.1250774,-0.180485,-0.9734052,-0.1430426,0.1358704,-47.4408546,78.49739380000001,179.7021942,1.059712,1.0978928,-0.2842545999999999,-0.9698632,-0.0833708,0.1879586,-24.0170002,77.6640902,94.3697022,1.141306067475241,0.9931966745805988,1.552146513978948,0.9914200685485643,23.4238544,-0.8333036000000049,-85.332492
199.841,0.2023801999999999,0.9031268,-0.1975424,-0.9738846,-0.144728,0.1378966,-47.5043876,78.506572,179.6360474,0.954822,1.1296328,-0.1565172,-0.972604,-0.0819382,0.1918744,-24.044492400000003,77.6866122,94.3218156,0.9463713658115614,0.9941895595874662,1.4873644302643787,0.9947302120729018,23.4598952,-0.8199598000000037,-85.3142318
219.826,0.3976849999999999,0.7849746,-0.1985932,-0.9766528,-0.1484664,0.1411292,-47.5555894,78.511554,179.5787628,0.4260732,0.9759132,-0.0984286,-0.9760064,-0.0849102,0.1959436,-24.0746746,77.7041934,94.282077,0.9020963035931364,0.9979030086984604,1.069407843149862,0.999095655723695,23.4809148,-0.8073606000000041,-85.29668579999999
239.81,0.7699507999999999,0.7756649999999999,-0.1193206,-0.9787562,-0.1503632,0.141989,-47.5948938,78.5166336,179.525711,-0.1921962,0.5098138000000001,-0.1169754,-0.9788712,-0.0890896,0.1972058,-24.1100522,77.71164719999999,94.250023,1.0994170419954383,1.0003667662780886,0.5572546403306482,1.0025048182284413,23.4848416,-0.8049864000000013,-85.27568799999999
259.794,1.1462656,0.8119799999999999,-0.1235246,-0.9811802,-0.150971,0.1407456,-47.6330148,78.5225814,179.46473379999998,-0.3834746000000001,0.0548048,-0.1627314,-0.9806632,-0.0917564,0.1956674,-24.144027800000003,77.7107194,94.223633,1.410139948001091,1.0026545524917343,0.4201640673524571,1.0041938459271498,23.488987,-0.8118619999999993,-85.2411008
279.778,1.4192164,0.6727418000000001,-0.1477858,-0.982296,-0.1510545999999999,0.1376678,-47.663539400000005,78.527484,179.4007842,-0.1600058,-0.2514922,-0.1524104,-0.9810156,-0.0914518,0.1935438,-24.1625602,77.705481,94.208481,1.5775288783974255,1.0033321219586264,0.3347821869852696,1.0040987210852526,23.5009792,-0.8220030000000008,-85.1923032
299.762,1.707345,0.4146739999999999,-0.2324589999999999,-0.9828004,-0.151568,0.1350602,-47.681457,78.52844379999999,179.3388212,0.2424849999999999,-0.2772529999999999,-0.2325859999999999,-0.9795436,-0.0921944,0.190796,-24.183334,77.7001876,94.1829804,1.7722919234657706,1.0035490732835142,0.4356196146065968,1.0022018685416227,23.498123,-0.8282561999999984,-85.1558408
319.746,2.2196352,0.0994902,-0.312475,-0.9814094,-0.1489838,0.1349657999999999,-47.6667864,78.524896,179.2991026,0.7929957999999999,-0.1722892,-0.2057179999999999,-0.9787814,-0.0915786,0.1901759999999999,-24.1937414,77.69745780000001,94.1567902,2.2437288932935013,1.001786579187623,0.8371653377787925,1.001282467608377,23.473045000000003,-0.8274381999999975,-85.1423124
339.73,2.2361228,-0.0910052,-0.4439282,-0.9800692,-0.147103,0.1361399999999999,-47.6407624,78.51705919999999,179.27103259999998,1.3220942,-0.0169514,-0.1606458,-0.977409,-0.0892844,0.1928262,-24.1870686,77.69698020000001,94.1368744,2.2815782629272485,1.000354451680823,1.331926235454967,1.000240971351804,23.453693800000003,-0.8200789999999956,-85.13415819999999
359.714,2.178451,-0.2328808,-0.4552944,-0.9775996,-0.1462598,0.1384386,-47.6001886,78.5064072,179.26059859999998,1.4682394,0.0968498,-0.1673559999999999,-0.9764506,-0.0872984,0.1962048,-24.1738114,77.6971282,94.1202956,2.237671829621359,0.9981273230335695,1.4809168951053262,0.9997865314285646,23.4263772,-0.8092789999999951,-85.14030299999999
379.699,1.9410258,-0.2244832,-0.391555,-0.9753386,-0.1439534,0.140366,-47.5526344,78.49690100000001,179.2656462,1.2701308,0.0822284,-0.1211709999999999,-0.975026,-0.0865846,0.1979962,-24.1565298,77.69645080000001,94.1117094,1.992809369049855,0.9958466648925024,1.278544551478829,0.998686682021744,23.3961046,-0.8004501999999946,-85.1539368
399.683,1.610875,-0.1081524,-0.2380528,-0.9730314,-0.1430724,0.1406006,-47.508236,78.4913162,179.2779692,0.9368518,0.0671388,0.096893,-0.972855,-0.0854066,0.1988609999999999,-24.1235718,77.6968582,94.1258192,1.6319572123185706,0.9934930023649284,0.9442389353747704,0.9966377655244456,23.3846642,-0.7944579999999946,-85.15214999999999
419.667,1.2653950000000005,0.1178323999999999,-0.0574477999999999,-0.972091,-0.1444369999999999,0.1384618,-47.4826546,78.4916504,179.2817382,0.7373676,0.0617274,0.1931341999999999,-0.971413,-0.0863414,0.1982288,-24.0897152,77.697879,94.1450972,1.272167139270466,0.992468956345356,0.7647366008307436,0.9951847622790456,23.3929394,-0.7937713999999942,-85.136641
439.651,1.5237424000000002,0.3078508,0.1766558,-0.9717546,-0.1446571999999999,0.1373382,-47.453177,78.4983048,179.2873748,0.8780471999999999,0.106818,0.3245974,-0.970545,-0.0886578,0.1972884,-24.0508146,77.7006272,94.1669966,1.564535166844146,0.9920153674778632,0.9421997891310524,0.9943543208034044,23.4023624,-0.7976775999999972,-85.12037819999999
459.635,1.8122936,0.5101068,0.362035,-0.9726164,-0.1427718,0.1370986,-47.4174058,78.5113448,179.297705,1.1290132,0.1861802,0.6134299999999999,-0.9702668,-0.08852,0.1970531999999999,-23.9860814,77.70726020000001,94.2102142,1.9172079650450544,0.9925535121826732,1.2983182343117114,0.994023851430377,23.4313244,-0.8040845999999988,-85.0874908
479.619,1.879975,0.7603968,0.5866968,-0.9759846,-0.1445672,0.1392912,-47.3826968,78.52975760000001,179.3116394,1.3067948,2.522155,1.1374842,-0.9647494,-0.0910692,0.19222,-23.9737442,77.76217199999999,94.1971756,2.1110950782012354,0.9964174090964288,3.059877252208278,0.98791878835712,23.4089526,-0.7675855999999982,-85.1144638
499.603,2.0619164000000003,0.8739132,0.7487926,-0.981477,-0.1461908,0.1434978,-47.336529,78.5503142,179.3393372,1.997394,9.961492000000002,2.157803,-0.9576294,-0.0988058,0.1814372,-24.1892224,77.96369940000001,93.9402208,2.3613373074463464,1.0026267850693396,10.38638625529154,0.9796612227713416,23.1473066,-0.586614800000001,-85.3991164
519.588,3.0661136,0.2116702,0.76171,-0.9868068,-0.1515844,0.1520505999999999,-47.2152232,78.55707400000001,179.4193634,3.7530406,20.0592988,4.220692,-0.9540052,-0.0977362,0.1662496,-24.6461518,78.37150879999999,93.4043932,3.1663952699833606,1.009893497260954,20.83926637508609,0.9733022222915344,22.5690714,-0.1855652000000021,-86.0149702
539.571,6.190768199999999,-1.6928448,0.3979638,-0.995096,-0.1609017999999999,0.1667192,-46.9119312,78.5240172,107.6172912,7.383307,29.9464386,7.447421399999999,-0.944975,-0.0752522,0.1472806,-25.1553592,78.9972442,92.7429368,6.430373986723378,1.021714603060894,31.729583870403925,0.9593394703472802,21.756572,0.4732269999999971,-14.874354399999993
559.556,12.3294678,-5.5947656,0.0548046,-1.005913,-0.1677374,0.1985777999999999,-46.2125354,78.4200194,36.0894348,11.7760346,41.3618764,11.2171542,-0.9357428,-0.0606414,0.1174436,-25.799201600000004,79.875528,91.8601654,13.53957834994729,1.0389561788548158,44.44439625617443,0.9450317276826,20.4133338,1.4555085999999988,55.770730600000014
579.54,22.7120254,-12.1509782,-0.2382389999999999,-1.0090869999999998,-0.148283,0.2359566,-44.8993486,78.2112196,-35.0250458,15.6949022,49.1720636,15.7672968,-0.933253,-0.0454798,0.0953936,-26.3097592,80.9430694,91.0373016,25.75925322691326,1.0468619482728176,53.97063499838871,0.9392175004427888,18.5895894,2.7318497999999978,126.06234740000002
599.542,31.4612636,-20.8340404,-1.3313272,-1.0080593999999998,-0.1331572,0.2726502,-42.9865616,77.8487166,-105.704178,18.8016752,49.625863800000005,20.4018644,-0.9442622,-0.0023488,0.096957,-26.0837986,82.0598892,90.8966186,37.75765854513462,1.0527358288764754,56.85477481459612,0.9492298346866684,16.902763,4.2111726,196.6007966
619.508,36.830379400000005,-30.2123214,-3.606918,-1.0159163999999998,-0.1596808,0.2979454,-40.702665,77.29637579999999,-176.1067202,16.2563038,45.7028996,23.6275386,-0.9558346,0.024658,0.0985347999999999,-25.0322474,83.129251,91.6410812,47.77312077500869,1.0706799480044258,53.95630663212656,0.9612163681150044,15.6704176,5.832875200000001,267.7478014
639.492,39.9704706,-40.3558272,-6.3955032,-1.0294868,-0.1799426,0.3135698,-38.1860268,76.5374282,-174.31727,9.572184,41.4967834,23.4370038,-0.9785942,-0.0212708,0.074498,-23.8138938,84.114276,92.693193,57.15884682324281,1.091122555051008,48.60969950737801,0.9816562571543463,14.372133000000002,7.576847800000005,267.010463
659.476,37.0819188,-50.9121812,-9.938411,-1.0354914000000002,-0.1976146,0.3015004,-35.7260602,75.55918279999999,-172.51804819999998,5.830453,35.4337558,22.8237534,-0.9931664,-0.047652,0.0490367999999999,-22.12638,84.978633,94.2957366,63.764338855165335,1.0964471992792355,42.54960577424019,0.9955173624539152,13.5996802,9.419450200000004,266.8137848
679.461,27.1515206,-61.8317728,-14.4711984,-1.054184,-0.248581,0.2884594,-33.609464,74.332483,-170.863904,3.7781054,31.6718914,20.4645836,-1.0070368000000005,-0.046467,0.0235277999999999,-20.3414682,85.7691878,96.0455612,69.06365745900811,1.12085023302195,37.89699153215585,1.0083827924037976,13.2679958,11.436704800000006,266.9094652
699.445,18.6339968,-72.727324,-19.5531968,-1.0764394000000002,-0.3038608,0.2935736,-31.8875392,72.8497788,-169.42506120000002,1.7000654000000004,30.7693088,16.590385,-1.0144158,-0.073978,-0.0138162,-19.342184600000003,86.5375166,97.0705658,77.58103504106474,1.15639034338149,34.9983065424923,1.0172035426383848,12.5453546,13.687737800000004,266.495627
719.429,12.244432,-83.8611748,-24.923528,-1.0829208,-0.307554,0.3291427999999999,-30.448922200000005,71.1121292,-168.14396979999998,4.29331,31.1307296,12.4077612,-1.0224222,-0.0995216,-0.0397036,-19.899155200000003,87.3251692,96.5277878,88.33914761760815,1.1728776171367925,33.78620094329402,1.028021439354433,10.549767,16.213040000000007,264.6717576
739.413,5.42337,-94.7652176,-30.541460600000004,-1.0792814,-0.3217966,0.3867622,-29.3084818,69.115773,-167.0260194,10.3717608,31.112812400000003,9.2049078,-1.0231126,-0.0811322,-0.0317544,-23.4817426,88.1729262,92.9150926,99.71278867083,1.1907923376921603,34.06333578991511,1.026815547250313,5.8267392,19.0571532,259.94111200000003
759.397,2.0841382,-104.8388322,-37.082493,-1.067721,-0.3429381999999999,0.442869,-28.4453726,66.866677,-166.1219148,14.0941838,30.528266799999997,4.925858199999999,-1.0302368000000002,-0.0667981999999999,-0.009346,-32.4361928,88.8846556,83.9172014,111.22335930995568,1.2057228927167472,33.983601483754946,1.0324423525376516,-3.9908202000000017,22.0179786,250.0391162
779.381,1.5294967999999998,-112.9598786,-44.2461504,-1.0600674,-0.3467384,0.504815,-27.824541,64.4009056,-165.4528076,17.322498,28.667888600000005,0.6896893999999995,-1.0343506000000002,-0.0642157999999999,0.0039016,-47.375916,89.43221880000002,68.79308900000001,121.3259879786988,1.224258385636921,33.50212598045812,1.036349388561869,-19.551375,25.0313132,234.2458966
799.365,2.510396,-120.6012254,-50.7337298,-1.0499044,-0.3456546,0.5625956000000001,-27.3621596,61.7402862,-164.9823332,20.326542,25.955107200000004,-3.2562788000000005,-1.0262306,-0.0638912,0.0180754,-65.6535066,89.8054046,50.1416436,130.86202273951687,1.2402782594159587,33.12762066711984,1.0283764144995549,-38.291347,28.0651184,215.12397680000004
819.35,5.1119018,-128.4368074,-55.9804834,-1.0414868,-0.339894,0.6050136,-26.960049200000004,58.9024552,-164.6237548,18.770453,25.1410294,-8.3278058,-1.0230818,-0.0399876,0.026516,-85.4329748,89.7424896,29.903683800000003,140.1997131124569,1.2515047510877455,32.46157135074313,1.024206266286728,-58.4729256,30.8400344,194.5274386
839.334,8.936755999999999,-135.9320742,-60.26834960000001,-1.0307932000000002,-0.3342364,0.6388686,-26.5606602,55.90716239999999,-164.35486139999998,10.160404000000002,25.654802,-12.6361806,-1.0288596,-0.0142729999999999,0.0279725999999999,-103.669454,89.31381080000001,11.2677,148.96196953459517,1.2579354833683485,30.349229566139503,1.0293387495824298,-77.1087938,33.4066484,175.62256140000002
859.318,13.984656,-143.18309960000002,-63.6955696,-1.0156284,-0.3189006,0.6939798,-26.0900394,52.76091,-164.1205108,0.1526135999999994,27.6824036,-16.4824284,-1.0289718,-0.0098312,0.0283891999999999,-117.6801116,88.707663,-3.025617,157.3343452688265,1.270750409157896,32.21815025642106,1.0294102993293393,-91.59007219999998,35.946753,161.0948938
879.302,19.9844616,-150.8485048,-65.91164239999999,-0.9850616,-0.3160802,0.7509669999999999,-25.5052402,49.4623848,-163.8975036,-8.8324142,30.783059,-18.92264,-1.030366,-0.0208042,0.0311976,-126.6686158,87.930957,-12.0642012,165.82820842577712,1.2783600759236813,37.19777636589912,1.0310481069956918,-101.1633756,38.4685722,151.8333024
899.286,25.3776542,-158.77291580000002,-67.654692,-0.9430956,-0.3084872,0.7966222000000001,-24.819158800000004,46.0128472,-163.6811616,-15.772466000000003,35.1855956,-20.631064400000003,-1.0290268,-0.0280659999999999,0.025833,-132.72653359999998,86.97038420000001,-17.9365688,174.44202897794884,1.2724781305924435,43.73142622559711,1.0297335574619484,-107.9073748,40.957537,145.74459280000002
919.27,29.738844,-166.4506624,-69.0579024,-0.894903,-0.311038,0.8360492,-24.068161,42.4180428,-163.4887818,-18.076432800000003,39.3844002,-20.5793986,-1.0247968,-0.059302,0.0148894,-136.90208439999998,86.0596252,-21.8182758,182.6450539701063,1.2635562043983797,47.97290952844489,1.0266191614842382,-112.8339234,43.6415824,141.67050600000002
939.254,32.84199,-174.03959059999997,-70.2829558,-0.836608,-0.3019972,0.8777084,-23.274262600000004,38.6791578,-163.31884459999998,-11.6758292,43.3173416,-20.0719836,-1.0102084000000002,-0.08147,0.0079782,-140.1005586,85.1114776,-24.8272288,190.54676402227471,1.249594850302449,49.14877003992401,1.013519621914544,-116.826296,46.4323198,138.4916158
959.238,34.1898446,-181.7386506,-70.6046996,-0.781439,-0.301217,0.9220252,-22.4641762,34.8008966,-163.1570252,-6.804373,44.7769928,-17.9175446,-1.0279442,-0.0866531999999999,0.0136753999999999,-142.85675659999998,84.179271,-27.4818694,197.94672566447585,1.245595865939286,48.70643674738864,1.0316807025184878,-120.3925804,49.378374400000006,135.67515580000003
979.223,34.217527000000004,-189.3124574,-70.66461480000001,-0.7164094000000001,-0.2901048,0.9510212,-21.660514,30.7894258,-163.00154120000002,-4.5216178,42.666384,-16.482298,-1.037338,-0.078161,0.0133742,-144.9752044,83.3100206,-29.536242,204.9476359113589,1.22549767288267,45.96228343463297,1.04036442528118,-123.3146904,52.520594800000005,133.46529920000003
999.207,31.692163200000003,-195.4814698,-70.8362014,-0.6514086,-0.2839656,0.9711884,-20.9233036,26.671432,-162.8675354,-5.7487616,36.823787200000005,-15.8373274,-1.0647718000000002,-0.0825798,0.019999,-146.2996734,82.55086840000001,-30.762735799999994,210.3215768109518,1.203402066822174,40.49519110782551,1.0681565285314134,-125.3763698,55.87943640000001,132.10479960000004
1019.191,27.8405434,-200.7593292,-71.0266342,-0.5761108,-0.2738629999999999,0.9928292,-20.2758502,22.4581978,-162.7565978,-7.284244599999999,25.6041582,-14.9652386,-1.080426,-0.0827288,0.0276453999999999,-146.62010500000002,82.0009234,-30.942553999999998,214.76542292329523,1.1800908511713324,30.538361168834623,1.0839412640759647,-126.3442548,59.5427256,131.8140438
1039.175,23.2535788,-205.3385254,-70.7925338,-0.5037388,-0.2719742,0.9955284,-19.7354068,18.1696048,-162.66109,-13.0071496,10.7583978,-14.4368352,-1.10153,-0.0893626,0.037217,-145.846463,81.706508,-29.8987864,218.44043074091937,1.1483899770102663,22.21151220722677,1.105775348010508,-126.1110562,63.5369032,132.76230360000002
1059.159,17.2929118,-208.7875152,-70.51998139999999,-0.4302684,-0.2696048,0.9778734,-19.3312324,13.8270308,-162.5805388,-18.1550902,-7.204536999999999,-16.5426426,-1.1001498,-0.1041852,0.036069,-143.3770448,81.663971,-27.0338874,221.05279703855624,1.1018412002866658,25.5963215666986,1.1056604863610169,-124.0458124,67.8369402,135.54665140000003
1079.143,10.4836616,-210.7632628,-70.1937622,-0.3549818,-0.2677486,0.9540458,-19.0795452,9.451376,-162.512686,-22.905742,-25.6668936,-20.1297528,-1.1029664,-0.1301846,0.0300802,-138.8094728,81.8058686,-21.949428,222.3920510234917,1.0525705580296458,39.85811575367547,1.1110300302143774,-119.7299276,72.3544926,140.56325800000002
1099.128,3.1574424000000016,-211.1528838,-69.2906906,-0.2762812,-0.259319,0.9212222,-18.9820632,5.073699400000001,-162.4419248,-25.9133524,-42.9610414,-23.941196,-1.0950838,-0.1361636,0.0317812,-131.99180619999998,82.0470184,-14.5289716,222.2537054435551,0.9961064134957068,55.59077060708473,1.1039742296180832,-113.009743,76.97331899999999,147.9129532
1119.111,-3.867094199999999,-210.267453,-67.87927239999999,-0.2095938,-0.2648486,0.8934758,-19.0388072,0.7135122,-162.3545408,-31.572683800000004,-56.29393159999999,-28.3002712,-1.081201,-0.1497252,0.0287781999999999,-123.3116366,82.2295456,-5.112242999999999,220.9863159342956,0.9551823632720824,70.47514772821557,1.0918980825659874,-104.2728294,81.5160334,157.24229780000002
1139.095,-9.328826199999998,-208.25065000000004,-66.1542152,-0.143704,-0.2588905999999999,0.858778,-19.2205296,-3.6121996,-162.23992600000005,-35.179094000000006,-65.6131256,-32.63083,-1.0667776,-0.1650374,0.01688,-113.4119326,82.23720399999999,5.6091044000000005,218.7046876782028,0.908391344998597,81.28605029247707,1.079600261976867,-94.191403,85.8494036,167.8490304
1159.08,-13.808746199999998,-204.7689332,-63.7547676,-0.0775554,-0.2519139999999999,0.8201092000000001,-19.5105026,-7.866203799999999,-162.0847166,-36.7270194,-70.0126756,-36.0178394,-1.0444754,-0.170361,-0.0029686,-103.2741426,81.97887119999999,16.6029074,214.90851045785064,0.8614259128850258,86.87884353352663,1.0582818831068217,-83.76364,89.845075,178.687624
1179.064,-17.246491,-199.9831392,-60.267305,-0.0110336,-0.2525354,0.788857,-19.8945122,-11.9995452,-161.86909780000002,-36.7251414,-70.3705506,-37.9440772,-1.0303608,-0.1818486,0.0013447999999999,-93.8526094,81.4387818,26.874715400000003,209.5777790417264,0.8283666066610363,87.98013069526957,1.046285859593658,-73.95809720000001,93.438327,188.7438132
1199.048,-18.4340628,-194.9438234,-56.21419,0.0496271999999999,-0.2507928,0.768023,-20.3333578,-16.0038904,-161.57824999999997,-37.8071596,-68.5420358,-39.50120080000001,-1.015426,-0.1900908,-0.0030807999999999,-85.90432440000001,80.6464692,35.684973400000004,203.72271378145547,0.8094561236044113,87.6797402668956,1.0330701646303022,-65.57096659999999,96.6503596,197.2632234
1219.032,-18.7398348,-189.3145784,-51.7322794,0.1099326,-0.2436698,0.7447320000000001,-20.8221652,-19.863772,-161.2011566,-36.2377604,-65.833198,-41.2579254,-1.0112378,-0.1866822,0.0082198,-79.5867034,79.6665482,42.8230178,197.1482176815725,0.7912559003247939,85.7286512551491,1.028357767052751,-58.7645382,99.5303202,204.0241744
1239.016,-18.6955226,-183.5424928,-47.274357,0.158889,-0.243357,0.7323848,-21.3685,-23.5804266,-160.7309052,-37.1019984,-61.284826,-42.372081,-0.9944742,-0.1830318,0.0211288,-74.9032974,78.58514720000001,48.3338088,190.45270819363165,0.7879440583195231,83.23329520927571,1.0113980425462172,-53.5347974,102.1655738,209.064714
1259.0,-18.5299818,-177.67292179999998,-43.20842760000001,0.1997249999999999,-0.2362502,0.7058044000000001,-21.9763606,-27.154131600000007,-160.17016919999998,-35.9598,-56.1041528,-44.22649320000001,-0.9755866,-0.1767378,0.0284262,-71.6056366,77.4404358,52.4256568,183.78790923812613,0.7706257740851912,79.97978418460126,0.99187373838349,-49.629276,104.5945674,212.595826
1278.984,-18.8063068,-171.461371,-39.8812228,0.2408836,-0.2262068,0.6750605999999999,-22.6501684,-30.5854142,-159.5347902,-35.0610768,-50.45478899999999,-43.80357600000001,-0.9575666,-0.16292,0.0346268,-69.3609512,76.31213679999999,55.4380012,177.0400826159958,0.7515991210662502,75.4567300497298,0.9719443065905576,-46.7107828,106.897551,214.9727914
1298.969,-19.8134394,-165.283597,-37.327682800000005,0.2817287999999999,-0.226705,0.6500906,-23.411467,-33.8780156,-158.8305544,-33.3349224,-45.6077514,-41.9591806,-0.9401692,-0.1676196,0.0436938,-67.83243259999999,75.232843,57.6942566,170.60069085831188,0.7438978841096403,70.36943140172187,0.955993516239122,-44.4209656,109.1108586,216.524811
1318.953,-19.741192,-159.3419434,-35.381003,0.3205056,-0.2300854,0.6139542,-24.245558600000003,-37.030509,-158.0569978,-30.803447400000003,-39.4689338,-39.2469224,-0.9308238,-0.1648846,0.041414,-66.88917560000002,74.24625699999999,59.3063758,164.41224091093605,0.7297964720537912,63.61580011997784,0.9462214314628474,-42.643617,111.276766,217.3633736
1338.937,-17.883491399999997,-153.50011,-34.1873094,0.3732035999999999,-0.2300733999999999,0.5797652,-25.1081528,-40.045453,-157.2276124,-27.6611252,-34.420263,-36.1968038,-0.9262146,-0.1530872,0.0527484,-66.25087140000001,73.35841819999999,60.54272519999999,158.274682620681,0.7268716417439601,57.09729378573855,0.9402614369203708,-41.1427186,113.4038712,217.7703376
1358.921,-14.755599199999995,-147.5748568,-33.1101708,0.4296763999999999,-0.230148,0.5575014,-25.9736026,-42.9343086,-156.3454072,-27.4413626,-28.7572474,-30.466312800000004,-0.92758,-0.1674868,0.0717412,-65.86437240000001,72.614801,61.515708800000006,151.96167108089037,0.740538804940646,50.081971556608366,0.9453059210391525,-39.8907698,115.5491096,217.86111600000004
1378.905,-11.350562399999998,-141.638666,-32.6652802,0.4856429999999999,-0.2347792,0.5251924000000001,-26.8397312,-45.72175059999999,-155.4178498,-27.861046800000004,-23.1813574,-24.8853112,-0.9253278,-0.176134,0.083297,-65.7090196,72.0132248,62.25865,145.79906551003805,0.752859517585718,43.9646673275162,0.9456178475567388,-38.8692884,117.73497539999998,217.6764998
1398.89,-6.310465999999999,-135.6085344,-32.2061546,0.5366334,-0.2398467999999999,0.4850194,-27.677525000000003,-48.4059928,-154.4421388,-28.4343162,-15.204151199999998,-19.284460000000003,-0.9213978,-0.1865386,0.0896714,-65.8986574,71.5738388,62.6539198,139.52323454311198,0.7620667371314405,37.5708257690145,0.9443577262418938,-38.2211324,119.97983159999998,217.0960586
1418.874,-1.2211997999999986,-129.95488600000002,-32.1191506,0.5928894,-0.238598,0.443595,-28.4797268,-51.00166,-153.424878,-28.804751400000004,-9.2798774,-14.226003000000002,-0.913669,-0.2013748,0.0942836,-66.30427259999999,71.26987460000001,62.8312002,133.87084656298398,0.7779610338965314,33.43963201249144,0.940336242450008,-37.8245458,122.2715346,216.2560782
1438.858,4.499648200000001,-124.4872804,-31.3814882,0.6471972000000001,-0.241092,0.4011441999999999,-29.259394800000003,-53.503221800000006,-152.338089,-27.7378878,-4.9094492,-8.350815400000002,-0.915516,-0.2286614,0.0941441999999999,-66.79805919999998,71.10264600000001,62.895445200000005,128.460607257473,0.7986903263126955,29.380762905303303,0.9483241600315792,-37.5386644,124.6058678,215.23353420000004
1458.842,10.252743600000002,-119.5285142,-30.8033742,0.7004296,-0.2483282,0.3747332,-30.01655,-55.9117294,-151.180484,-25.989473200000003,-0.0433838000000001,-2.220660200000003,-0.9244346,-0.2426216,0.0966437999999999,-67.3776306,71.081679,62.832927000000005,123.85892103636364,0.8322820980014168,26.084208462046245,0.9606167781910536,-37.3610806,126.9934084,214.013411
1478.826,17.2353656,-114.5229432,-30.262653,0.7426444,-0.2590093999999999,0.336688,-30.7117354,-58.2204214,-149.96437980000002,-24.229011000000003,4.0780518,2.0125985999999974,-0.9285724,-0.2527884,0.0976638,-68.05295100000001,71.1715136,62.6327578,119.7012552697527,0.8555497551187307,24.652099984510983,0.9673091000537316,-37.3412156,129.391935,212.5971376
1498.81,24.6635376,-109.4669678,-29.5917992,0.7876086,-0.2507245999999999,0.3059634,-31.3240114,-60.438169,-148.699362,-21.542787800000003,5.003176,5.770983199999998,-0.9387746,-0.259287,0.0932168,-68.6538008,71.33852099999999,62.4557054,116.0473252865656,0.8813646997575294,22.856677872724354,0.9783746060565964,-37.3297894,131.77668999999997,211.1550674
1518.794,29.8633872,-104.1763536,-28.8894878,0.8258974,-0.2421777999999999,0.2982122,-31.873528,-62.5486182,-147.4086302,-18.918490400000003,5.986305799999999,9.749470999999996,-0.9470468,-0.2704542,0.08875,-69.1869962,71.58344439999999,62.296472400000006,112.15675213644388,0.9108716256248408,22.108761180261705,0.988898214270751,-37.3134682,134.13206259999998,209.7051026
1538.778,31.2657008,-97.717032,-28.5820906,0.8494488,-0.2454673999999999,0.2651868,-32.424498799999995,-64.5394636,-146.1107908,-15.9291062,7.3506448,12.360811199999995,-0.9441712,-0.2731666,0.0765602,-69.7049542,71.88472139999999,62.0924654,106.50398251929714,0.9231151321359866,21.460616413064443,0.9858705343446672,-37.28045540000001,136.424185,208.2032562
1558.762,32.2355062,-91.0671068,-28.140369,0.8692872000000001,-0.2431462,0.2316294,-32.9857304,-66.4101476,-144.8052122,-12.0885714,6.0618784,11.794762799999996,-0.9323862,-0.2756484,0.0602422,-70.1201414,72.1624374,61.9186768,100.61921371362928,0.9318972527068852,17.944256956963926,0.9741433103162184,-37.134411,138.572585,206.723889
1578.747,29.9333932,-84.6712372,-26.9148124,0.8844906,-0.2354874,0.2205203999999999,-33.6410748,-68.1548674,-143.46725139999998,-5.230728600000001,4.2632388,12.234481,-0.9221166,-0.283622,0.0402816,-70.3313338,72.430838,61.8192046,93.75304562504442,0.9414919988312592,13.97205253683382,0.9655894936141964,-36.690259,140.5857054,205.286456
1598.731,25.3585886,-77.47432180000001,-25.7589184,0.8944203999999999,-0.2341506,0.1997345999999999,-34.394199,-69.75721259999999,-142.138214,3.6678936,3.2280458000000003,13.144303599999995,-0.9101854,-0.2718455999999999,0.0266212,-70.3010512,72.71377120000001,61.7878326,85.49181499589224,0.9458901975671804,14.023068147762508,0.9502874201534816,-35.9068522,142.47098380000003,203.9260466
1618.715,21.5189772,-68.35583879999999,-24.8826352,0.9051942,-0.2302286,0.1575563999999999,-35.1416638,-71.2020308,-140.9103088,12.8889772,1.2780662,15.378810999999995,-0.907405,-0.2551084,0.029141,-69.8925796,73.02946779999999,61.9574652,75.85995394331572,0.9472094631878212,20.10639237276104,0.9430341073665152,-34.7509158,144.2314986,202.867774
1638.699,17.8112478,-58.3187362,-24.3641218,0.9148102,-0.2144695999999999,0.1298177999999999,-35.72843,-72.47057179999999,-139.93349,21.5402622,-0.0838046,18.224236599999998,-0.9049872,-0.2503086,0.033103,-69.13550719999999,73.3859422,62.309699,65.66525695711113,0.948539705307606,28.215469489422095,0.9395488470573524,-33.4070772,145.856514,202.243189
1658.683,10.707553,-46.2655986,-23.743908,0.9237072,-0.2005932,0.0946184,-36.084861,-73.52649840000001,-139.3469574,29.8073128,-0.1840958,21.5455062,-0.9257148,-0.2506542,0.0474119999999999,-68.0841552,73.79973,62.79442280000001,53.09360104736346,0.949960664889152,36.779323335739335,0.960220452115388,-31.9992942,147.3262284,202.1413802
1678.668,3.7247526,-32.198221000000004,-23.0977808,0.9343266,-0.1892145999999999,0.0527276,-36.06270919999999,-74.3397354,-139.2981904,32.7948736,0.6210062000000001,22.7922406,-0.9381656,-0.251088,0.0541665999999999,-66.9640426,74.2387024,63.2878128,39.80083787285008,0.9547505224520592,39.94215335593092,0.9726941437692116,-30.9013334,148.57843780000002,202.5860032
1698.652,-2.8548442,-16.5702758,-21.6432072,0.9354338,-0.1846848,0.0253252,-35.5811472,-74.8720962,-139.8592104,32.5013246,0.54798,22.9905338,-0.9536682,-0.2596408,0.0516288,-65.8253578,74.67289579999999,63.807035,27.40716317674033,0.9538271516834274,39.81458309770313,0.9897282019349152,-30.2442106,149.54499199999998,203.6662454
1718.636,-9.6233798,0.2896491999999995,-18.4904194,0.9313056,-0.1737744,-0.0025483999999999,-34.6747056,-75.07835539999999,-140.9959566,30.265093399999994,2.5297080000000003,22.5793728,-0.9431592,-0.2676206,0.03149,-64.8924194,75.10804,64.16246880000001,20.846796996709237,0.9473827932938615,37.84446296510716,0.9808984056409716,-30.21771380000001,150.18639539999998,205.1584254
1738.62,-18.095806,18.8122054,-13.495195,0.930854,-0.1672524,-0.0156602,-33.4892196,-74.91223600000001,-142.5955354,28.8301558,4.5553638,20.9973352,-0.9409774,-0.2618235999999999,0.0167472,-64.1784354,75.53254100000001,64.32267320000001,29.38498859774239,0.9458899388860208,35.955768776425614,0.976867715474086,-30.6892158,150.444777,206.9182086
1758.604,-24.0423004,38.2582286,-7.6757854,0.9179032,-0.1627146,-0.0190098,-32.09099260000001,-74.3457474,-144.541034,25.5660644,5.9090744,19.335784999999994,-0.9306246,-0.2495498,0.0027066,-63.68536220000001,75.941852,64.32330019999999,45.8327606155308,0.9324074742940665,32.59468347347321,0.9635063956657268,-31.594369600000004,150.2875994,208.86433420000003
1778.588,-29.7443056,57.334639,-0.6874280000000003,0.9032686,-0.143662,-0.000961,-30.6673414,-73.3681656,-146.63747560000002,23.156844,6.4020834,16.823064,-0.930412,-0.2466035999999999,-0.0058353999999999,-63.3816428,76.3102236,64.179419,64.59455938499539,0.9146222485326716,29.32987518297661,0.9625559085944668,-32.7143014,149.6783892,210.8168946
1798.572,-37.628325800000006,75.370786,7.7140726,0.8871184,-0.1308372,0.0192789999999999,-29.4660178,-71.9844636,-148.676709,20.9652294,6.893680999999999,11.483238799999995,-0.9309092,-0.2432707999999999,-0.0074047999999999,-63.3507018,76.58550740000001,63.79898999999999,84.59404944112093,0.8969220191094652,24.878272746760587,0.9621992786529826,-33.884684,148.569971,212.475699
1818.557,-43.8783674,92.2361372,17.189067599999998,0.8637342,-0.134428,0.052866,-28.594284800000004,-70.20635080000001,-150.515323,17.5096306,5.1579582,2.541505199999997,-0.9592524,-0.2428244,0.0118872,-63.5375586,76.6811678,63.261319,103.57741151536842,0.8757296782624419,18.42962140747961,0.9895808009783538,-34.9432738,146.88751860000002,213.776642
1838.541,-48.966897,108.2813598,26.680837,0.8442822,-0.1198584,0.087269,-28.065434600000003,-68.049,-152.1170106,5.841420599999999,1.020909,-6.691470600000002,-0.9797502,-0.2443875999999999,0.0341998,-63.92926179999999,76.5698504,62.7484764,121.79686754989322,0.8572014626961388,8.940929962987617,1.010349137552876,-35.8638272,144.6188504,214.865487
1858.525,-57.3652634,122.9389312,36.8277372,0.8204324,-0.1103427999999999,0.123846,-27.983276,-65.538437,-153.4422974,-6.541803999999999,-1.5030046,-13.801941600000005,-0.9525974,-0.2333241999999999,0.0545804,-64.56475900000001,76.3054674,62.2347436,140.57395376392446,0.8370320711881952,15.34756704927031,0.9822733880425348,-36.581483000000006,141.8439044,215.677041
1878.509,-63.1128992,135.3959884,47.6846104,0.781053,-0.1287801999999999,0.1784009999999999,-28.2937992,-62.71262979999999,-154.48735059999998,-14.707244400000002,-2.5023664000000005,-18.056527600000003,-0.9288,-0.2309264,0.0592844,-65.4026886,75.9523286,61.678553,156.80922737276043,0.8114524296112743,23.42227709704465,0.9589114048233656,-37.1088894,138.66495840000002,216.1659036
1898.493,-63.246821,145.7760864,58.4973572,0.7383098,-0.1552819999999999,0.2162869999999999,-28.8493686,-59.6049454,-155.28672799999998,-21.40324,-1.915752,-18.8439924,-0.9139612,-0.2315812,0.0713058,-66.3801864,75.5848664,61.1135634,169.33035325094758,0.7848528057343236,28.58084739461659,0.9455365907316964,-37.5308178,135.1898118,216.4002914
1918.477,-62.871333400000005,154.46546619999998,67.8093194,0.7013556000000001,-0.162821,0.2430682,-29.5497574,-56.25690159999999,-155.9325806,-24.130949800000003,1.0997097999999998,-12.837598000000003,-0.8905750000000001,-0.2146848,0.089196,-67.3648376,75.35292960000001,60.5940208,180.02913266848927,0.7599292766722442,27.355365512161235,0.9204180139436864,-37.8150802,131.6098312,216.5266014
1938.461,-60.9737136,161.5482176,75.5193536,0.6524844,-0.1806856,0.3072384,-30.3068204,-52.719017,-156.4859986,-16.544966600000002,9.878103200000002,-2.253641800000004,-0.8867106,-0.185944,0.0964736,-68.48353560000001,75.391806,59.7789756,188.4643019992741,0.7434908289449709,19.400818126761383,0.91111910021979,-38.1767152,128.110823,216.2649742
1958.446,-52.490413,166.482846,81.9059952,0.598824,-0.2256484,0.3671404,-30.9908932,-49.0271248,-156.9528962,-7.805415400000001,17.9622914,9.293915999999996,-0.9177554,-0.1770071999999999,0.1008012,-69.7043472,75.7084472,58.6798048,192.8221292250262,0.7377665326583471,21.67822171028166,0.9400890409968836,-38.713454,124.735572,215.63270100000005
1978.43,-40.5466598,169.7939392,86.0637328,0.5434585999999999,-0.2567104,0.4093525999999999,-31.4875516,-45.2198762,-157.3803498,-0.8070316000000016,24.8290322,20.688107799999997,-0.944613,-0.1688264,0.1205938,-71.00945279999999,76.2811722,57.35043399999999,194.63036637035864,0.7271980682791174,32.32846956378319,0.9671292249251908,-39.5219012,121.5010484,214.7307838
1998.414,-30.230694,172.46325679999998,87.8327896,0.4984296,-0.273207,0.459192,-31.7771638,-41.340281,-157.82632439999998,5.579766199999999,32.6094028,32.742957399999995,-0.966203,-0.168459,0.1329632,-72.60321960000002,77.1185226,55.5985108,195.8878983875784,0.7307061132008956,46.54683878758604,0.989750415228122,-40.826055800000006,118.4588036,213.4248352
2018.41,-20.9073616,174.67950439999998,89.3098342,0.4449523999999999,-0.2964232,0.5419944,-31.9001918,-37.4041206,-158.267749,12.678821199999998,39.6177594,41.11603459999999,-0.9886882,-0.1760568,0.1180448,-74.736345,78.1387086,53.159711400000006,197.2974746704434,0.761319434531498,58.48801302939136,1.0111552444864835,-42.8361532,115.5428292,211.42746040000003
2038.382,-11.6616368,175.6666198,91.2011184,0.3898073999999999,-0.3380812,0.5773992,-31.9064646,-33.4222302,-158.65120240000002,18.6829974,42.0507834,45.5364966,-1.0061048,-0.1921288,0.1102614,-77.3292588,79.2231964,50.1419762,198.2735460978688,0.7743633146326342,64.73712458090748,1.0302028541517636,-45.4227942,112.6454266,208.7931786
2058.366,-5.1361208,175.8855314,92.7828064,0.335643,-0.3531064,0.6301128,-31.8289366,-29.4164124,-158.9858276,21.6543982,44.8799856,46.58318319999999,-1.0114508,-0.2027754,0.0892058,-80.84817960000001,80.2910996,46.1373376,198.92397808256413,0.7964813204927031,68.21377445872008,1.0354266069690503,-49.019243,109.707512,205.1231652
2078.351,-3.3944076,175.85860259999998,94.8269272,0.2869114,-0.3804008,0.6634114,-31.7628328,-25.3973506,-159.2620666,23.0563654,46.224259800000006,46.6601112,-1.010622,-0.2066996,0.0860222,-85.2776932,81.3077362,41.191612000000006,199.824713770779,0.8167849201231374,69.6092246524308,1.0351238430337697,-53.5148604,106.7050868,200.4536786
2098.335,0.3792760000000001,174.77930880000002,97.74301,0.216523,-0.4042268,0.717405,-31.667359,-21.3708042,-159.4578216,24.400462,45.9749382,46.5528862,-1.0102146,-0.205917,0.0792392,-90.8103226,82.2509796,35.11446719999999,200.2539553635584,0.8514408079204566,69.83014178603258,1.0340281426338451,-59.14296360000001,103.6217838,194.5722888
2118.319,5.282271799999999,173.15494959999998,100.15418259999998,0.1504513999999999,-0.4279638,0.7385932000000001,-31.514352,-17.346443999999998,-159.57552479999998,25.522615,45.4628128,46.04169399999999,-1.0092564,-0.1972902,0.0540596,-97.7749634,83.0767654,27.5781824,200.1034713807378,0.8667805679401449,69.5565152269412,1.029778784161511,-66.26061139999999,100.4232094,187.1537072
2138.303,7.707642199999999,171.525192,101.1324602,0.084295,-0.4289846,0.7767528,-31.3358472,-13.3360894,-159.64176619999998,29.9680022,44.6298644,42.4600136,-1.0066316,-0.1626022,0.0294059999999999,-105.8859696,83.7197678,18.7999966,199.2688479040933,0.8913351481737944,68.50371309012218,1.0201036057182622,-74.55012239999999,97.0558572,178.44176280000002
2158.287,7.147295799999999,169.8494994,101.4329728,0.0225506,-0.4393614,0.7991262,-31.1817158,-9.3472512,-159.6711638,33.1554534,39.5673698,37.8841426,-1.0211054000000002,-0.1234106,0.0418308,-113.9309648,84.19751579999999,10.0249056,197.96106752270467,0.9122223703115157,64.0317819804092,1.0293863365763898,-82.749249,93.544767,169.6960694
2178.271,11.2075398,168.07495720000003,101.398807,-0.0499673999999999,-0.4600156,0.8217202,-30.9538064,-5.3946312,-159.66911299999998,31.1069818,33.253544600000005,33.5548144,-1.026181,-0.1085986,0.0284476,-121.623053,84.546054,1.6468444000000002,196.6126095833471,0.943045693693662,56.562957088435255,1.0323034275970997,-90.6692466,89.9406852,161.3159574
2198.256,15.3235412,166.4766264,100.718355,-0.1063304,-0.4665306,0.8371516,-30.6372674,-1.4665132,-159.64355460000002,30.9329332,24.9547452,29.5498488,-1.0388778000000003,-0.1152902,-0.0041272,-128.5532318,84.81128700000001,-5.9611172,195.17547255313437,0.9642508781863152,49.52554117276707,1.045263577921244,-97.9159644,86.2778002,153.68243740000003
2218.24,15.2753388,164.76365040000002,100.1305726,-0.1694012,-0.4732116,0.8494550000000001,-30.3122064,2.4384568,-159.588504,33.3438376,15.276923200000002,22.636104799999995,-1.0453056,-0.0957812,0.0008885999999999,-133.5145888,85.01037140000001,-11.6348368,193.40767316162012,0.9870155935754004,43.09975787484722,1.04968501240837,-103.2023824,82.57191459999999,147.95366719999998
2238.224,14.5948,162.45209640000002,100.2107864,-0.2273556,-0.4685944,0.8591894,-29.9919282,6.301587,-159.4851594,26.4842944,2.9648011999999992,18.617838599999995,-1.0534124,-0.1037714,0.0246161999999999,-136.07867119999997,85.2797424,-14.753163999999998,191.43117176338168,1.0047276773509726,32.50894969323129,1.058797499635393,-106.086743,78.97815539999999,144.73199540000002
2258.208,18.2345256,160.40124799999998,100.9741638,-0.307224,-0.4952406,0.8632456,-29.590104,10.1263024,-159.3229586,19.6162756,-4.7993002,17.498419199999994,-1.0242426,-0.1141038,0.0010797999999999,-137.48151539999998,85.6213608,-16.560324400000002,190.4122896215572,1.041557873564268,26.721269156307,1.030579325814971,-107.8914114,75.49505839999999,142.7626342
2278.192,20.3143912,157.993756,100.8264724,-0.3684744,-0.460661,0.8653914,-29.125259,13.9133434,-159.1065858,19.938068,-9.8655196,14.864775199999997,-1.0266418,-0.1104454,-0.013762,-137.638861,85.99450540000001,-17.116506400000002,188.52235666212675,1.0473224028780823,26.75474863079717,1.032657234774637,-108.513602,72.08116199999999,141.9900794
2298.176,16.2010664,157.04790640000002,99.8026916,-0.4342634,-0.4460604,0.8471102,-28.728564,17.6730214,-158.8670594,18.1964416,-12.26869,10.193600199999995,-1.0241458,-0.058935,0.0100851999999999,-136.5417908,86.3511994,-16.3715316,186.78087886002967,1.0512612767394032,24.19794880265165,1.0258896944319502,-107.8132268,68.67817799999999,142.49552780000002
2318.16,13.707269399999998,156.3595276,97.9095016,-0.5035936,-0.4343306,0.8433686,-28.3661482,21.3889118,-158.6241364,8.693357,-14.9516326,9.265255199999997,-1.0216866,-0.0430976,0.0251996,-134.7265442,86.7478302,-14.7073,184.99313935727383,1.0740205675513297,19.620670917579723,1.0229056318084675,-106.360396,65.35891840000001,143.91683640000002
2338.144,14.235694,155.21486520000002,95.5829606,-0.5753678000000001,-0.4497896,0.8349698,-27.987584400000003,25.0652466,-158.3853332,1.0916740000000005,-13.220490600000002,8.940342999999995,-0.989331,-0.0431936,0.0132811999999999,-133.066336,87.1077362,-13.042644999999998,182.8398526573924,1.1092940802406908,15.9969639864761,0.990362511868962,-105.0787516,62.0424896,145.3426882
2358.129,14.334204999999995,153.8751038,91.6568406,-0.612107,-0.4148471999999999,0.8059082,-27.6118086,28.6868794,-158.17847880000002,-1.6301139999999996,-13.4899978,8.612865599999996,-1.0095845999999995,-0.0552526,0.0252901999999999,-130.7268158,87.4703034,-10.6311702,179.67747057218,1.0937372653540154,16.08784529204157,1.0114116415090144,-103.1150072,58.783424,147.5473086
2378.113,11.7940798,155.2113526,87.1952226,-0.6605402,-0.4153983999999999,0.7832548,-27.3231998,32.2931294,-158.05244739999998,-3.2368374,-15.674804599999998,8.296583799999997,-1.0137594,-0.0203193999999999,0.0455532,-126.5746812,87.8855346,-6.337989400000001,178.4171268082575,1.105602671967484,18.02803146082905,1.0149857600651155,-99.2514814,55.5924052,151.71445799999998
2398.097,11.514128,155.5962038,83.273433,-0.6997456,-0.3798228,0.7756812,-27.0518116,35.8632192,-157.9787292,-5.1266272,-18.1384298,10.651756599999995,-0.9993785999999998,-0.0224738,0.049824,-119.947339,88.48062580000001,0.5397381999999993,176.8536638698136,1.1115712249571057,21.65051640776615,1.0008721640651217,-92.8955274,52.6174066,158.51846740000002
2418.081,9.829824399999998,155.0629884,80.01062019999999,-0.7457234,-0.361438,0.7489609999999999,-26.8353688,39.3968086,-157.9459288,-5.992370199999999,-18.6141654,11.412318199999996,-0.9767864,-0.0437296,0.0414692,-110.01535359999998,88.9856094,10.808880599999998,174.7651428748365,1.1169974917933163,22.641480977410826,0.9786437777300584,-83.1799848,49.5888008,168.7548094
2438.065,7.973315399999997,153.982715,77.1200744,-0.8027308,-0.340422,0.7086539999999999,-26.6745936,42.8845932,-157.9565704,-4.027274799999999,-18.9734554,11.721934999999997,-0.9762723999999998,-0.0460712,0.025922,-97.1246462,89.4190826,24.0369316,172.39998884193886,1.1235899461407794,22.663069348054535,0.97770256446181,-70.4500526,46.5344894,181.993502
2458.049,5.131501599999998,152.493271,75.0888794,-0.8628654000000001,-0.3048634,0.6750588,-26.568772000000003,46.3314202,-157.97412119999998,-1.1495251999999998,-17.0520344,11.964627999999994,-0.962803,-0.0228754,0.012669,-81.7637848,89.7646926,39.7269092,170.0554904097424,1.1371819443845212,20.862540797865496,0.9631580370298324,-55.19501280000001,43.4332724,197.7010304
2478.033,1.131830199999999,148.420572,74.1540054,-0.9188956,-0.256517,0.6546955999999999,-26.4898478,49.6961388,-157.9425812,0.2512060000000005,-13.579282,14.044164599999991,-0.9538704,-0.0227708,-0.0125401999999999,-62.4489688,90.0,59.26999980000001,165.91794281894903,1.1570637076875758,19.537107344790144,0.9542245573997976,-35.959121,40.3038612,217.21258100000009
2498.017,-2.894811600000001,142.61545719999998,72.9009476,-0.986939,-0.2426574,0.6168396,-26.4481524,52.9487214,-157.8542938,2.2746048000000005,-7.7502886,14.725593399999998,-0.9535864,-0.0007916,-0.0467631999999999,-36.4960994,90.0,85.0160356,160.19393474018443,1.1888743817678635,16.79535356464985,0.9547326567001676,-10.047947000000002,37.0512786,242.8703294
2518.002,-4.444593000000002,135.1519912,71.36072700000001,-1.0438490000000002,-0.2180144,0.5734505999999999,-26.3619288,56.0568636,-157.687378,4.7839144000000005,-2.2726722,16.744024199999995,-0.9610192,0.0309778,-0.077483,-6.070649200000003,90.0,42.85932100000001,152.89921023415738,1.2107834670364146,17.56169759235609,0.9646352378751668,20.2912796,33.9431364,200.546699
2537.986,-7.272004200000002,125.8757476,69.56570140000001,-1.0801802000000005,-0.1886825999999999,0.5567204,-26.203427999999995,58.97220259999999,-157.38668520000002,6.239291800000001,3.8117304,20.552219599999997,-0.9695666,0.0570196,-0.103714,25.9419256,89.9348664,2.264453200000008,144.00337735698315,1.2297674543550747,21.81402716818825,0.976763646137447,52.1453536,30.9626638,159.6511384
2557.97,-10.7290308,113.7929656,67.77299500000001,-1.1181312,-0.1965312,0.5576966,-25.938131,61.63318879999999,-156.89153140000002,5.9113426,10.518689599999998,23.414154799999995,-0.9725228,0.0597428,-0.1377354,57.87348380000001,89.627675,-38.4127472,132.8801338546141,1.2648586445284864,26.34026285430891,0.984043108346804,83.8116148,27.9944862,118.4787842
2577.954,-11.937234,99.8432876,65.1209754,-1.140304,-0.2252692,0.5437856,-25.5074764,64.0003046,-156.18384099999997,8.014715599999999,19.054528,26.159307199999997,-0.9923612,0.0350312,-0.1586325999999999,85.6985772,89.1175706,-83.16488639999999,119.79950363584348,1.283254535800283,33.34096664219019,1.0055706032008096,111.2060536,25.117266,73.0189546
2597.938,-13.760538000000002,85.7361824,62.516023800000006,-1.1501724000000002,-0.2851072,0.5445253999999999,-24.8697116,66.0778458,-155.2232544,12.7944258,24.648949,27.546579599999998,-1.0256124,-0.0037389999999999,-0.1547753999999999,105.3376848,88.4374054,-135.85748900000002,106.99672242801498,1.3041052781346911,39.11626344649297,1.0372319892868325,130.2073964,22.3595596,19.365765400000026
2617.922,-13.8689266,71.17442779999999,58.0352132,-1.1408306,-0.3314096,0.5980274,-24.0266462,67.8377564,-154.0508362,20.1122224,28.1945222,27.911956999999997,-1.0569444,-0.0120337999999999,-0.123824,117.0254366,87.6172378,-124.38832399999998,92.87751218062988,1.330023891521983,44.48044419206269,1.0642408843912172,141.0520828,19.7794814,29.66251220000002
2637.907,-11.1071032,55.78735879999999,50.3669516,-1.1151022,-0.3881565999999999,0.6655922000000001,-23.0656382,69.24930119999999,-152.81566780000003,25.9632656,27.5119436,26.440309799999994,-1.0799568000000002,0.0206276,-0.0637478,123.7144396,86.7537032,-118.0796632,75.97648950071417,1.3554082186814569,46.15287838895534,1.0820332572304976,146.78007780000002,17.504402,34.736004600000015
2657.891,-4.699859400000001,39.2489834,39.880952,-1.0854906,-0.4340279999999999,0.708704,-22.0462874,70.27556919999999,-151.66109920000002,25.499782000000003,23.1452088,23.488139,-1.0937478,0.0417708,-0.0171845999999999,127.1136002,86.0758512,-115.10489520000002,56.15213004632636,1.3670886975936711,41.68491629026551,1.094680026407096,149.1598876,15.800282000000005,36.55620400000002
2677.875,2.449568399999998,21.9724494,27.611371400000003,-1.0551476,-0.4361598,0.7230532000000001,-21.0704054,70.8928086,-150.6973206,20.4598246,15.4966988,19.0719212,-1.0676584,0.0650904,-0.0116205999999999,128.2190416,85.57832160000001,-114.36484699999998,35.37197688242173,1.3514354438714562,31.97640183978954,1.0697038177023956,149.289447,14.685513000000004,36.332473600000014
2697.859,11.637117199999995,2.5520080000000007,12.5058272,-1.056943,-0.4253229999999999,0.7392512,-20.262341600000003,71.033394,-150.08891920000002,17.3117284,8.031662,15.336482799999994,-1.0369104,0.0974694,-0.0305873999999999,127.8388444,85.228195,-115.07061159999998,17.272259710728633,1.3581312514920787,24.482876451763307,1.0419304442251796,148.101186,14.194801000000004,35.018307600000014
2717.843,20.0001464,-18.8868248,-2.8404614,-1.0593976,-0.3959399999999999,0.7287627999999999,-19.6623116,70.6612642,-149.8605958,14.530160999999998,2.3415222,11.174042999999996,-1.0230172000000002,0.1118377999999999,-0.0541937999999999,127.008992,85.0092238,-116.1835388,27.65476863060362,1.3454318924232471,18.478840382038666,1.0305381375587803,146.67130360000002,14.3479596,33.67705700000001
2737.827,26.842132400000004,-40.5557372,-16.227173399999998,-1.084549,-0.3643307999999999,0.6978344,-19.2204484,69.78890240000001,-149.9346344,13.2848858,-0.8019986000000001,7.056037799999996,-1.0154484,0.0888072,-0.0911821999999999,126.2325514,84.8933074,-117.2246504,51.26976738944951,1.3401329467828929,15.063832908940288,1.0233945306826884,145.4529998,15.104405000000003,32.70998400000001
2757.811,30.8495138,-61.8432056,-27.093748,-1.0990384,-0.3202047999999999,0.6894738,-18.8842024,68.442119,-150.2028352,16.5271138,-2.4435146,4.806937599999996,-1.0049048,0.0807444,-0.1153426,125.6533462,84.8291916,-118.1362898,74.23170320872185,1.3363347782288837,17.384559334330486,1.0147202720795323,144.5375486,16.387072600000003,32.06654540000002
2777.795,33.4828446,-82.8093856,-36.5334568,-1.1204002000000002,-0.3101798,0.718375,-18.6114092,66.62552339999999,-150.6052216,20.4803086,-2.3583718,2.900468799999996,-1.0187618,0.089867,-0.0897438,125.3381988,84.7963226,-118.8628188,96.50486356508,1.3665909253002817,20.818685769232477,1.026647764555439,143.949608,18.1707992,31.74240280000002
2797.779,35.299672,-102.6699952,-43.6733266,-1.1010788000000002,-0.2798682,0.7545942,-18.314293,64.385286,-151.03744820000003,18.942820399999995,-1.9220186,-0.7741134000000042,-1.0304188,0.0948566,-0.0442348,125.3742218,84.8284592,-119.2074386,117.02373355001912,1.3638596481509089,19.055808871875826,1.0357207130728052,143.68851479999998,20.4431732,31.830009600000015
2817.764,34.99545740000001,-120.338083,-49.2707314,-1.0804034,-0.2761387999999999,0.7919596,-17.9968964,61.766204,-151.4577668,14.317529399999998,-2.06394,-4.5211730000000045,-1.0355396,0.0825044,-0.0104665999999999,125.6681748,84.940973,-119.2034606,134.66083777936723,1.3677441835479176,15.155609579934202,1.038873807978178,143.6650712,23.174769,32.254306200000016
2837.748,34.3941382,-136.148842,-53.5040848,-1.0497084,-0.2755218,0.8282744000000001,-17.648094199999996,58.80434340000001,-151.8386536,7.649095599999998,-3.2778018,-8.305512600000004,-1.0425096,0.0753023999999999,0.0202902,125.9900408,85.14416359999998,-119.042192,150.27358720263268,1.3652246954260532,11.757303589122015,1.0454225986432282,143.63813499999998,26.3398202,32.79646160000001
2857.732,34.0377478,-149.9338288,-57.29271,-1.0297674,-0.2786098,0.8675027999999999,-17.2834468,55.54753040000001,-152.2109802,-0.9728234000000014,-5.109669200000001,-12.803189600000003,-1.0616298,0.0754426,0.05273,126.2508654,85.45561219999999,-118.7762022,164.076737879165,1.3749928824421749,13.819434454222954,1.0656124394181967,143.5343122,29.9080818,33.43477800000001
2877.716,32.3190668,-162.796872,-60.684854,-1.0064324,-0.277045,0.9147494,-16.9224906,52.032174,-152.5638978,-10.7481096,-7.6976032,-17.427993000000004,-1.0685278,0.0682786,0.0615658,126.455588,85.8830186,-118.38231179999998,176.72010388410416,1.3879576984170374,21.87486902832361,1.0724756287769153,143.37807859999998,33.8508446,34.18158600000002
2897.7,28.150120800000003,-174.3747132,-63.8072592,-0.9857462,-0.2753008,0.9579466,-16.6183898,48.2792252,-152.90469679999998,-19.180788600000003,-10.2981234,-20.64930260000001,-1.0849976,0.0499612,0.0607256,126.6609118,86.4081132,-117.8374754,187.80398353403697,1.4018372907533314,30.005794352855997,1.0878435144847625,143.2793016,38.128888,35.06722140000001
2917.684,24.3755626,-185.2797852,-65.8234656,-0.9701044,-0.2796982,1.0020852,-16.3506078,44.3186464,-153.21277179999998,-26.828581000000003,-13.406977,-25.315247600000003,-1.1098826,0.0381978,0.0629346,127.36690079999998,87.0835968,-116.6860548,198.12999641502807,1.4225007479933498,39.24769485971623,1.1123215459500728,143.7175086,42.7649504,36.52671700000001
2937.669,21.723233,-196.40397360000003,-66.91655800000001,-0.9428704,-0.257214,1.033376,-16.077716600000002,40.164959800000005,-153.4639682,-35.388586600000004,-16.7295746,-30.137189800000005,-1.100005,0.0291192,0.0552806,129.3675264,87.9249908,-114.2323942,208.62465202465685,1.4223324472035923,49.40122404236447,1.101778050502913,145.445243,47.760031000000005,39.23157400000002
2957.653,17.5100622,-207.95353720000003,-67.6523498,-0.9133314,-0.2331394,1.0576112,-15.8428706,35.8032498,-153.6614138,-40.526043,-19.1234148,-32.662637600000004,-1.0794516,0.0125422,0.0482729999999999,75.81254899999999,88.66270139999999,-94.5610034,219.38121238087192,1.4167108654992946,55.45189852331156,1.0806032324828572,91.6554196,52.8594516,59.10041040000001
2977.637,14.342914599999997,-219.3994052,-67.3350098,-0.8658066,-0.2270501999999999,1.0709566,-15.622058600000004,31.2417574,-153.78883679999998,-43.32881540000001,-20.394230200000003,-34.168744600000004,-1.0684032,-0.0114091999999999,0.0607348,37.588646,89.275798,-59.5023646,229.94743257123525,1.3957510168390208,58.828683284244086,1.0701889008702716,53.21070460000001,58.0340406,94.28647220000002
2997.621,13.4124328,-230.7090884,-66.4592042,-0.8012268,-0.2088827999999999,1.0692452,-15.375242600000002,26.469845000000003,-153.8425476,-45.3204726,-21.2330964,-35.49152360000001,-1.0445988,-0.0079575999999999,0.0724996,-0.2385238000000043,89.5517058,-24.14551259999999,240.4649717669308,1.3523615296573324,61.35501500992728,1.047141904595246,15.1367188,63.0818608,129.697035
3017.605,11.2849642,-241.4673892,-66.0901644,-0.7216914,-0.1910909999999999,1.0561776,-15.1436396,21.4910004,-153.84449460000002,-48.1791984,-21.7268942,-34.536267800000005,-1.016014,-0.0122466,0.0916166,-38.47941420000001,89.38737640000001,10.844917800000006,250.6027938680624,1.2933929680714675,63.135147767292615,1.020209796464982,-23.3357746,67.89637599999999,164.68941239999998
3037.59,7.7922362,-251.0745668,-66.1085404,-0.6398174000000001,-0.1903476,1.0518424,-14.977213,16.3189478,-153.8150634,-49.32165740000001,-23.558739600000003,-34.00347280000001,-1.0256588,-0.0350302,0.1195584,-77.22666160000001,88.7347458,45.4851888,259.7489098198926,1.2457812603367735,64.37294666771069,1.0331976093371682,-62.24944860000001,72.415798,199.3002522
3057.574,5.644527399999999,-258.9341952,-65.83302,-0.5386964000000001,-0.192123,1.028647,-14.8517398,10.9902022,-153.7530976,-49.185148600000005,-30.9441248,-35.331525400000004,-1.0634092,-0.0602838,0.1496684,-59.11024400000001,87.78806,64.30273380000001,267.231668512101,1.1769535713489123,68.00760538008159,1.0755807236770467,-44.2585042,76.7978578,218.0558314
3077.558,2.3319273999999988,-264.40017099999994,-65.5933632,-0.4382455999999999,-0.1879248,0.9941334,-14.799297,5.5455072,-153.6683046,-50.8291428,-45.0993078,-39.2232124,-1.091926,-0.0564907999999999,0.1787752,-55.032300600000006,86.4244598,69.1150744,272.4249944592368,1.10257705099007,78.46024288005644,1.10790530827128,-40.2330036,80.8789526,222.783379
3097.542,-0.3122098000000014,-267.850824,-64.6391472,-0.3309468,-0.1902856,0.9564834,-14.8078744,0.0390444000000002,-153.54941119999998,-58.33489920000001,-62.5025568,-44.820545200000005,-1.1113506,-0.0805604,0.20419,-51.02094360000001,84.7700212,74.1649836,275.5401617608248,1.0298518769576332,96.53191877942048,1.132821120154687,-36.2130692,84.73097680000001,227.7143948
3117.526,-2.342385000000001,-269.074762,-63.11143720000001,-0.2253622,-0.193716,0.9035028,-14.8701806,-5.483118999999999,-153.39026199999998,-66.0386438,-77.761371,-50.17905340000001,-1.103916,-0.1146036,0.2153658,-47.2327318,82.8632478,79.20639680000002,276.3869892348307,0.9511210855893588,113.69199925616124,1.1305516122665964,-32.3625512,88.3463668,232.59665880000003
3137.51,-4.219415800000002,-268.26417860000004,-61.2035394,-0.1237522,-0.1989482,0.8436764,-14.992185,-10.9794742,-153.18649620000002,-70.4271204,-90.3930894,-56.6672646,-1.0936898,-0.1428338,0.2181442,-44.309723000000005,80.70558639999999,83.50699340000001,275.1896550103462,0.8756054255228436,127.8361012248062,1.124342370027973,-29.317538000000003,91.6850606,236.6934896
3157.494,-6.199666800000001,-265.2938416,-59.22915300000001,-0.0303308,-0.2076652,0.7823589999999999,-15.1838566,-16.407642,-152.939264,-75.3728616,-97.2453218,-63.7550522,-1.0607284,-0.174518,0.2205963999999999,-42.81214920000001,78.3514254,86.5042682,271.8958455446025,0.810018763733705,138.57282402687417,1.0973896493878188,-27.6282926,94.7590674,239.4435322
3177.478,-6.580851800000002,-261.2987366,-57.0456546,0.053138,-0.2087048,0.7325148,-15.423519199999998,-21.7419628,-152.639569,-75.1075112,-97.3056534,-69.6073616,-1.0280872,-0.2178982,0.2159474,-42.693831,75.9215274,88.13093440000002,267.53419233419913,0.7635176964590147,141.26115251962307,1.072882191078704,-27.2703118,97.6634902,240.7705034
3197.462,-7.449646800000002,-255.4104432,-54.9741626,0.1234852,-0.1976384,0.650069,-15.7232122,-26.9401784,-152.2929382,-67.198088,-94.850885,-73.18081520000001,-0.9945582000000002,-0.2418073999999999,0.2028266,-43.17179260000001,73.5002688,89.0121584,261.3659317635648,0.690578914052985,137.35976532258462,1.043434454841108,-27.448580400000004,100.4404472,241.3050966
3217.447,-8.8669878,-247.8044068,-53.0819964,0.1962352,-0.1892668,0.5951878,-16.102552199999998,-31.9698048,-151.8995392,-54.825641000000005,-93.7049866,-75.5154466,-0.9785732,-0.2471153999999999,0.2037642,-43.7115342,71.08866739999999,89.59136520000001,253.58104393655856,0.6546592186551107,132.24620259184954,1.0296559512172208,-27.608982,103.0584722,241.4909044
3237.431,-9.8065588,-238.5741912,-50.971457,0.2517002,-0.1779432,0.5415972,-16.5639498,-36.8031334,-151.4504088,-45.7874264,-91.0993882,-76.7579788,-0.9563274,-0.253036,0.2042824,-44.24810720000001,68.7189178,89.994365,244.1554888404823,0.6231727691051014,127.62199754043566,1.010109208074315,-27.684157400000004,105.5220512,241.44477380000004
3257.415,-11.8345454,-228.2965392,-48.7954354,0.2998325999999999,-0.1642884,0.5024390000000001,-17.134982,-41.4167922,-150.93961180000002,-35.0253128,-85.8499588,-76.1120148,-0.9317498,-0.2503916,0.1957384,-44.7030716,66.4532272,90.2591232,233.75277707740156,0.6077295575486847,119.95843763410292,0.984462881161682,-27.5680896,107.8700194,241.19873500000003
3277.399,-13.682897400000002,-216.4638764,-46.0230492,0.3366784,-0.1572014,0.446016,-17.8396284,-45.7825546,-150.3386812,-27.838237400000004,-78.25799500000001,-74.1483642,-0.9086224,-0.2407672,0.1814932,-45.143493600000006,64.32913119999999,90.3817122,221.724947908527,0.5805126160941897,111.34298880708488,0.957341784329839,-27.3038652,110.1116858,240.7203934
3297.383,-14.60788,-204.3232972,-43.1517494,0.3713316,-0.1502266,0.4184482,-18.6681552,-49.9028434,-149.6372102,-23.5811926,-67.7258836,-70.96709200000001,-0.8825103999999999,-0.2347421999999999,0.1737588,-45.6653634,62.3916166,90.316371,209.34056800595133,0.5792703035624733,100.89200216456956,0.9295808878986486,-26.9972082,112.29446,239.9535812
3317.367,-14.460988200000005,-192.298706,-39.625431,0.3939374,-0.1370186,0.3809122,-19.6314978,-53.7678054,-148.7960266,-19.209607000000005,-55.154672000000005,-67.22624040000001,-0.8448948,-0.2323826,0.1591214,-46.319033000000005,60.6759986,90.0055952,196.87073751812565,0.5648494277004802,89.05287329918461,0.8906000874622458,-26.6875352,114.443804,238.8016218
3337.352,-15.1292794,-180.314975,-36.0918686,0.4233965999999999,-0.1280646,0.330846,-20.7978112,-57.37595980000001,-147.7672638,-11.335675400000005,-41.4844276,-59.15039200000001,-0.8095594,-0.2314954,0.1433867999999999,-46.92618800000001,59.2550522,89.56519300000001,184.51289462650996,0.5523805738625499,73.13155368120844,0.8541289813393291,-26.1283768,116.631012,237.3324568
3357.336,-15.191705000000002,-168.54356079999997,-32.17861739999999,0.4562937999999999,-0.1180632,0.2942528,-22.196969000000003,-60.72555179999999,-146.50711059999998,-4.004902200000004,-27.760864400000003,-48.39967360000001,-0.775921,-0.2382644,0.133501,-47.43126,58.167948,89.0665938,172.25905841413942,0.5556326677045906,55.9395498592301,0.8225848524920453,-25.234291,118.8934998,235.5737044
3377.32,-17.545845000000003,-157.12127059999997,-28.3516998,0.5023063999999999,-0.1097718,0.2620818,-23.9487222,-63.8219088,-144.9438872,5.274849399999997,-12.5740608,-35.43940880000001,-0.7546782000000001,-0.2496426,0.1357915999999999,-47.79655160000001,57.473876,88.50893540000001,160.619952786918,0.577103489373821,37.97213106066468,0.8064117880590289,-23.8478294,121.2957848,233.45282260000005
3397.304,-20.254383,-145.55070619999998,-24.3317988,0.5471558,-0.1128282,0.2349562,-26.1365148,-66.6556192,-143.0034026,14.572074599999995,3.5638108,-22.509376600000007,-0.7590016,-0.2496262,0.1548788,-48.0615166,57.1868072,87.8469634,148.95396785206188,0.6060644257068055,27.05028910172292,0.8138698367788549,-21.9250018,123.8424264,230.850366
3417.288,-21.897061,-133.669798,-21.2533764,0.599982,-0.1056276,0.1939468,-28.743604000000005,-69.24066020000001,-140.68502800000002,18.6098398,20.4561048,-7.691018000000005,-0.77298,-0.2474342,0.1684744,-48.32926880000001,57.3445724,87.0865904,137.10872396094496,0.6393363367086217,28.704182950339675,0.8289182029518957,-19.5856648,126.5852326,227.7716184
3437.274,-22.9881594,-121.79711419999998,-19.087836000000003,0.6596592,-0.1002599999999999,0.1632488,-31.7590554,-71.57360080000001,-137.9907288,21.8764434,36.3889182,4.882866399999994,-0.7848444000000001,-0.2429362,0.1838758,-48.6574342,57.9068054,86.1809858,125.40868384290836,0.6869152046985711,42.73844320842704,0.8419079755575666,-16.8983788,129.4804062,224.1717146
3457.256,-24.035605600000004,-109.5108242,-17.7524318,0.716708,-0.1051348,0.1159238,-35.2070152,-73.6569336,-134.9022614,23.052073799999995,50.0343704,14.192928399999994,-0.811331,-0.2301899999999999,0.2076584,-49.12238020000001,58.8019402,85.09353920000001,113.5142272507535,0.7335952636443887,56.88827246781685,0.8685432854795206,-13.915365,132.4588738,219.9958006
3477.24,-21.356165,-97.2208402,-17.735195,0.7789762,-0.0996646,0.0760616,-38.9013786,-75.500685,-131.53300940000003,20.794638799999998,59.551710400000005,22.157758799999996,-0.8391757999999999,-0.2300358,0.2235776,-49.7510386,59.94925020000001,83.8795286,101.10645228861108,0.7890008362822944,66.85648427360589,0.8983982612455568,-10.84966,135.44993519999997,215.412538
3497.225,-18.9170034,-84.91606800000001,-18.804223200000003,0.8403644,-0.0993144,0.0407898,-42.7141936,-77.1200104,-128.0190872,21.1734944,64.2949476,29.610963199999997,-0.8431746,-0.2362739999999999,0.222261,-50.39580480000001,61.278071,82.65151640000002,89.00668757105646,0.8471950676312747,73.88481774779802,0.9034205893614335,-7.681611200000001,138.3980814,210.6706036
3517.209,-17.3666966,-73.0892554,-19.550759,0.8900932000000001,-0.1169811999999999,0.0098395999999999,-46.6018836,-78.51678480000001,-124.4201644,25.3579762,65.0705374,32.91405459999999,-0.8564788,-0.256468,0.2181944,-50.9861932,62.6682648,81.40633680000002,77.6265005214003,0.8978013831398569,77.20451272235547,0.9202937390120612,-4.384309600000002,141.1850496,205.8265012
3537.193,-13.7990254,-62.15838779999999,-19.8332042,0.9352348,-0.1239294,-0.0211098,-50.4883934,-79.71600360000001,-120.7689864,27.294064,63.308593,34.4728308,-0.8881604,-0.2787012,0.2248847999999999,-51.5379136,64.050364,80.17742600000001,66.68908654887942,0.9436462530903408,77.07995809963296,0.95764107487129,-1.0495202000000006,143.76636760000002,200.9464124
3557.177,-10.1855568,-51.696409800000005,-19.9935726,0.9843004,-0.1203318,-0.0438312,-54.1876114,-80.73959980000001,-117.2480346,28.4692774,59.132583,34.893629399999995,-0.913085,-0.2922481999999999,0.2233794,-52.0172272,65.368557,79.01909020000001,56.35607597098146,0.9925966923301932,74.32851068489522,0.9843940186595,2.1703841999999995,146.10815680000002,196.26712480000003
3577.161,-8.300255400000001,-41.5002988,-19.6716424,1.0209948,-0.1241604,-0.0611952,-57.5681816,-81.6000536,-114.0212982,30.5716238,52.56877,34.463672599999995,-0.9329628,-0.2982344,0.2235069999999999,-52.311484400000005,66.58486640000001,78.0285446,46.670574829414605,1.0303354012447792,69.89881608555052,1.0046485567481795,5.256697199999998,148.18492,192.0498428
3597.146,-6.478206800000001,-32.5480558,-18.518866000000003,1.0452774000000002,-0.1347904,-0.0822424,-60.6216332,-82.31239339999999,-111.0952286,29.420603,44.9809306,32.07663659999999,-0.9560198,-0.3229588,0.2278322,-52.48344800000001,67.65047139999999,77.2056656,38.0038353015776,1.0571362765701875,62.59206510488438,1.034496861206606,8.138185199999999,149.96286479999998,188.3008942
3617.13,-3.7889414000000015,-24.8281312,-17.253822,1.0638960000000002,-0.133547,-0.0943618,-63.2358086,-82.904538,-108.5619798,26.422644,36.8730444,28.531259199999997,-0.9816156,-0.3382097999999999,0.235874,-52.55101400000001,68.5466416,76.56588740000001,30.47107726065377,1.0763891718724414,53.58927384106535,1.0647025870426914,10.6847946,151.4511796,185.12786720000005
3637.114,-3.304929600000001,-17.4857608,-15.8680598,1.0730942,-0.13512,-0.102105,-65.2802712,-83.385196,-106.5941148,20.873161,28.184567,24.71897179999999,-0.997477,-0.342746,0.234158,-52.53199000000001,69.26954199999999,76.1428192,23.84260288291001,1.0863765495898003,42.90788079081283,1.0804004604816675,12.748281199999996,152.65473799999998,182.736934
3657.098,-3.048546400000001,-10.8248604,-14.2744636,1.0727552,-0.1337934,-0.104136,-66.63847580000001,-83.7682892,-105.3110596,15.275123799999998,20.1962314,21.02114939999999,-1.0031054,-0.343908,0.2324934,-52.43149940000001,69.8309526,75.92948900000002,18.172274180744857,1.0860703013647874,32.910574166440675,1.0856087403004455,14.2069764,153.59924180000002,181.2405486
3677.082,-3.1009658000000018,-4.120703799999999,-12.554602,1.0665544,-0.129805,-0.1111877999999999,-67.1408142,-84.060991,-104.8872834,9.798331999999998,13.733158999999995,15.921978799999996,-0.9882822,-0.3392908,0.2244508,-52.343338,70.22916719999999,75.82135300000002,13.572553926159516,1.0801621883093298,23.19733551529473,1.0687366913426897,14.7974762,154.2901582,180.7086364
3697.066,-2.854203200000001,3.1816498,-10.7928566,1.057283,-0.1184376,-0.1148493999999999,-66.4988784,-84.2587554,-105.60365459999998,5.460646199999998,9.1163676,11.103177999999996,-0.9743234,-0.3275074,0.2120596,-52.3111632,70.49696980000002,75.74677720000001,11.608407511148712,1.0700771896751748,15.369039554883972,1.0495410705610717,14.187715200000005,154.7557252,181.3504318
3717.051,-4.4628656000000015,11.317524,-8.5491864,1.0448998,-0.1062306,-0.1095317999999999,-64.6312346,-84.34023140000001,-107.5772446,3.534834999999997,6.180049,7.958069599999993,-0.9514288,-0.3100324,0.1917134,-52.30847920000001,70.68550739999999,75.68314200000002,14.869166316784016,1.0559818879259435,10.677964968947505,1.01886744881695,12.322755400000002,155.0257388,183.2603866
3737.035,-5.996821800000001,20.144327800000003,-5.7198882,1.030655,-0.0976366,-0.1008077999999999,-61.588951,-84.275293,-110.7545426,4.919140999999998,4.4077020000000005,5.621196199999995,-0.932041,-0.292763,0.1782912,-52.281345400000006,70.8210404,75.6160186,21.78239966659568,1.0401657787225072,8.67315581651681,0.9930751994926872,9.307605600000002,155.0963334,186.3705612
3757.019,-6.071523800000001,29.3374626,-2.5758252,1.0117478,-0.091751,-0.0916999999999999,-57.5564482,-84.0384766,-114.92185519999998,6.313638599999997,2.3713716,3.8505495999999937,-0.9148658,-0.27863,0.1685592,-52.1948892,70.9081558,75.58181760000001,30.069668912731984,1.020029777411346,7.766090899465225,0.9710954190059184,5.3615590000000015,154.9466324,190.5036728
3777.003,-6.291947600000002,38.626546,1.0174902000000003,0.9911638,-0.0841677999999999,-0.0792088,-52.9153998,-83.6025482,-119.70144639999998,6.929899999999996,0.2832345999999999,2.8517115999999945,-0.9146178,-0.2681779999999999,0.1637412,-52.032428800000005,70.95910799999999,75.614392,39.1488690360061,0.9978797176938312,7.499066268423799,0.9670865216402718,0.8829710000000006,154.56165620000002,195.3158384
3796.987,-7.257669000000002,48.2239536,4.718205,0.9706156,-0.0795326,-0.0620569999999999,-48.1113578,-82.946138,-124.6654296,6.0683849999999975,-1.8907114,2.335741599999994,-0.9150634,-0.2550222,0.1593664,-51.80055400000001,70.98201739999999,75.73780200000002,48.99474378492594,0.9758438136685196,6.771689222659695,0.9632107754595356,-3.689196200000001,153.92815539999998,200.40323160000003
3816.972,-7.3895832000000015,57.77548360000001,8.442068,0.9506008,-0.0746838,-0.0396836,-43.4833976,-82.054985,-129.46036080000002,2.848572599999997,-3.9943032,1.8577597999999944,-0.9180636,-0.2447465999999999,0.161257,-51.54298480000001,70.97556440000001,75.955142,58.85474455980771,0.954355457391029,5.245959910778675,0.9637144244564984,-8.0595872,153.0305494,205.4155028
3836.956,-7.013501400000001,67.952732,11.630542600000002,0.9308328,-0.0760732,-0.0289991999999999,-39.207736,-80.9176726,-133.90354,-2.387523200000003,-5.399041599999999,1.5022253999999944,-0.908101,-0.2385782,0.1601538,-51.33653720000001,70.947383,76.22891360000001,69.29669912284452,0.9343863156717996,6.091518561202449,0.9524789884142746,-12.128801200000002,151.8650556,210.1324536
3856.94,-8.332374600000001,78.7501572,14.7079428,0.9084816,-0.0778634,-0.0159875999999999,-35.437665,-79.52212659999999,-137.87782900000002,-6.689927000000003,-5.796668,0.9965499999999944,-0.9034324,-0.2366844,0.1589848,-51.21808540000001,70.906871,76.50084660000002,80.54402092587327,0.9119523726335054,8.907838967451816,0.9473572574294028,-15.7804204,150.42899759999997,214.3786756
3876.924,-11.8177578,90.1221344,17.824608599999998,0.8796820000000001,-0.0815976,0.0023732,-32.2629618,-77.85583779999999,-141.33796700000002,-12.113548000000003,-5.377096,0.1505271999999942,-0.8956576,-0.2454404,0.154569,-51.275305200000005,70.85485220000001,76.70375340000001,92.62491662600468,0.8834614997429148,13.25420178582852,0.941453717476818,-19.0123434,148.71069,218.04172040000003
3896.908,-16.108041200000002,100.8589264,22.1196488,0.8447414,-0.100684,0.0361402,-29.7859198,-75.9231978,-144.1956452,-17.004785200000004,-2.8607060000000004,-1.020335600000006,-0.879237,-0.260651,0.1352892,-51.590213000000006,70.8117844,76.7381194,104.50488452171436,0.8514877654940205,17.273894848967984,0.9269842574750878,-21.8042932,146.73498219999996,220.93376460000005
3916.892,-18.218499200000004,111.0668992,27.8040138,0.8063842000000001,-0.129897,0.0619707999999999,-27.9701832,-73.7294416,-146.43953240000002,-20.517599800000006,3.6562948,-1.3609266000000058,-0.8586838,-0.2698147999999999,0.1098668,-52.293550200000006,70.8401382,76.4367232,115.9346065434905,0.8191270284096845,20.8852223935503,0.9067571937534986,-24.323367,144.5695798,222.8762556
3936.877,-20.1860818,120.5572358,34.3134476,0.783153,-0.1290566,0.0907496,-26.7436754,-71.2928862,-148.134613,-21.8601696,12.3841508,-0.7317288000000058,-0.8627582,-0.25998,0.1057416,-53.41321100000001,70.985228,75.7231704,126.96037841929676,0.7988865484614946,25.13502800902864,0.9072610418384556,-26.6695356,142.27811419999998,223.8577834
3956.861,-24.612751600000003,130.5903382,40.555154400000006,0.7612922,-0.1375476,0.1361238,-26.0245722,-68.61596660000001,-149.4146118,-22.7943508,20.7569078,0.866070599999994,-0.8637298,-0.249029,0.0955052,-54.91996760000001,71.2557098,74.6215576,138.9400752875912,0.7855029248659994,30.841234218094225,0.903972263665252,-28.8953954,139.8716764,224.0361694
3976.845,-26.8291004,139.8923036,46.9167786,0.7414118000000001,-0.1603956,0.1810633999999999,-25.7100672,-65.7141134,-150.340329,-21.3363934,28.815151200000003,1.0030607999999943,-0.8733986,-0.2415626,0.0849704,-56.81560280000001,71.6154816,73.08069,149.96946805596554,0.7798731694949891,35.8686597598366,0.9101634870048788,-31.1055356,137.32959499999998,223.42101900000003
3996.829,-27.0233386,149.4985688,52.1818544,0.7233642,-0.1649681999999999,0.2202414,-25.580503200000003,-62.59345679999999,-151.094101,-20.4649332,35.558666,2.6852375999999945,-0.908598,-0.228376,0.1067528,-59.00781400000001,72.06438440000001,71.20965120000001,160.63321210435086,0.7739357512913071,41.11499385319755,0.9429220982073968,-33.4273108,134.6578412,222.3037522
4016.813,-28.5593456,160.16740420000002,55.361078,0.712921,-0.1605422,0.2714934,-25.5037136,-59.253961,-151.8444062,-20.6330758,38.8852404,6.666532799999994,-0.950819,-0.1992188,0.126405,-61.3263946,72.6072266,69.21077580000001,171.85482986110256,0.7795760491866076,44.52222363615517,0.9796545947727904,-35.822681,131.8611876,221.055182
4036.797,-30.249754000000003,170.8946808,56.6836312,0.6820716,-0.159773,0.340589,-25.432768600000003,-55.7060606,-152.6523346,-18.450170000000004,41.0124688,11.720481399999992,-0.9610924,-0.2005923999999999,0.1335038,-63.70462960000001,73.22809600000001,67.10840920000001,182.57347449400208,0.7789415549170297,46.473659790763406,0.990837613784398,-38.271861,128.9341566,219.7607438
4056.79,-30.910869400000003,179.2964172,58.076145200000006,0.6398386,-0.1646278,0.3934993999999999,-25.388203800000003,-51.983221400000005,-153.473297,-13.685440600000003,42.537037000000005,15.270927599999991,-0.9802584,-0.2174582,0.13048,-66.1548554,73.889888,64.8389442,190.98566885793235,0.7689847361184486,47.221732612431104,1.0125312982410963,-40.7666516,125.8731094,218.3122412
4076.766,-31.680879800000003,185.209384,60.1044686,0.5799103999999999,-0.1745416,0.4689059999999999,-25.3969982,-48.12472,-154.27349239999998,-9.339965600000005,45.1356096,21.858495999999995,-0.9891442,-0.2373508,0.1210128,-68.72256480000001,74.64928440000001,62.3672662,197.2783343711364,0.7659201518400726,51.01227360895426,1.024395308666591,-43.3255666,122.7740044,216.64075860000003
4096.75,-31.65681720000001,189.0080992,63.9705238,0.5242774,-0.1914414,0.5186558,-25.4856,-44.1481308,-154.99188840000002,-0.7959294000000028,49.1884568,27.86735699999999,-0.979777,-0.2379551999999999,0.0942044,-71.56165480000001,75.507695,59.4520294,202.03574820728545,0.7619189200028832,56.5396088785614,1.0126500461242274,-46.0760548,119.6558258,214.4439178
4116.734,-31.439678200000003,190.843054,68.4341324,0.453213,-0.1930216,0.5767764,-25.677472,-40.0978862,-155.5943176,10.350784599999995,52.5513954,33.94753959999999,-0.969308,-0.2228624,0.0856788,-74.6738892,76.4644486,56.03845600000001,205.16518979277944,0.7585053572866312,63.4131165076777,0.9982817763373224,-48.9964172,116.5623348,211.6327736
4136.718,-31.379224000000004,191.4370878,73.9352868,0.3722383999999999,-0.2330858,0.623858,-25.9964718,-35.990908000000005,-156.0536316,14.731191799999996,53.7200486,39.9468662,-0.9748126,-0.2000135999999999,0.0742536,-78.20530240000001,77.5057282,52.12007140000001,207.6035667284773,0.7629477182351356,68.54636206711083,0.997887089011918,-52.2088306,113.49663619999998,208.173703
4156.702,-27.9087264,191.1203368,78.6651918,0.2985775999999999,-0.2635068,0.6676202,-26.3562286,-31.8524946,-156.3935028,14.555330999999995,56.5891038,47.14816239999999,-0.9720016,-0.1613572,0.0712422,-82.5974626,78.6514864,47.342962000000014,208.5523736348888,0.7773680906211934,75.08084673938825,0.9878758562973587,-56.241234,110.503981,203.7364648
4176.686,-22.917363,190.720645,82.1666154,0.2431238,-0.2787094,0.7085348,-26.6809504,-27.6947314,-156.6624754,16.472344799999995,59.39349059999999,53.42330159999999,-0.9848732,-0.1300656,0.0580368,-88.26687620000001,79.84271559999999,41.24680800000001,208.92803220817763,0.799255700377445,81.56576501637765,0.995118360063686,-61.5859258,107.537447,197.9092834
4196.671,-17.7597104,190.7082702,84.0749986,0.1808156,-0.299227,0.7717015999999999,-26.928668400000003,-23.5295248,-156.90718660000002,18.114211399999995,58.9554702,58.17773199999999,-1.0129032,-0.1004906,0.0498048,-95.2311462,81.0058138,33.82352860000001,209.17374841446545,0.8472038940980618,84.78514387444773,1.0190936028459996,-68.30247779999999,104.5353386,190.7307152
4216.655,-12.6802368,190.1222106,85.3626328,0.1265299999999999,-0.3301632,0.7993116,-27.0967482,-19.3591928,-157.1309232,15.244390999999997,58.6431922,58.69128499999999,-1.0287122,-0.1174552,0.0303026,-103.8319458,81.9873826,24.81703280000001,208.7918160447925,0.8740232339181837,84.35687513960107,1.0358391583651585,-76.7351976,101.3465754,181.94795600000003
4236.639,-9.5472112,188.349881,86.0924408,0.0823874,-0.3502138,0.8186018,-27.2246546,-15.209998800000005,-157.3291838,15.958912599999996,59.3312354,56.68081359999999,-1.0311138,-0.133993,-0.0020205999999999,-114.0277024,82.68536680000001,14.19120700000001,207.31313339321528,0.8941735269803284,83.59184778327726,1.0397854949093106,-86.8030478,97.8953656,171.52039080000003
4256.623,-5.8644714,186.5470732,87.9170242,0.0198029999999999,-0.3891596,0.8546574,-27.3033504,-11.0765754,-157.4806488,20.859588599999995,56.80964719999999,53.4778008,-1.0452962,-0.1371732,-0.0261879999999999,-124.9202804,83.08664999999999,2.765082800000009,206.3094900591608,0.9392958130727084,80.76096600434022,1.054583540492018,-97.61693,94.1632254,160.24573160000003
4276.607,-0.6375774000000003,184.7761626,90.4293608,-0.0332086,-0.395441,0.8592534000000001,-27.2954922,-6.951661400000001,-157.5704164,21.2139166,53.442256,49.0484032,-1.0635882,-0.1463055999999999,-0.0431403999999999,-135.5865372,83.1798736,-8.442812599999991,205.7185117212819,0.9464633120235144,75.57678770860178,1.0744702331301506,-108.29104499999998,90.131535,149.12760380000003
4296.591,-0.8639428000000002,183.1523162,92.5835082,-0.082876,-0.4009896,0.8461650000000001,-27.2999898,-2.8251488,-157.6049318,20.4770334,48.2920866,41.442207,-1.0722002,-0.14687,-0.0506531999999999,-144.9058822,83.03584900000001,-18.27904999999999,205.22481165104264,0.9400299452193852,66.84976474212503,1.0833973474447314,-117.6058924,85.86099779999999,139.32588180000002
4316.576,-4.4531220000000005,183.0038482,94.8435196,-0.1434842,-0.4107404,0.8206520000000002,-27.381455800000005,1.3146842000000003,-157.6000826,19.8876894,38.2285448,33.875885,-1.1075362,-0.1232762,-0.0501345999999999,-152.2173218,82.82211300000002,-26.07688319999999,206.16869782212603,0.928851493483108,54.81347837648787,1.1155029959233818,-124.835866,81.5074288,131.5231994
4336.56,-6.4365168000000015,183.8629546,98.320224,-0.2176864,-0.4208731999999999,0.8590669999999999,-27.494755399999995,5.5125092,-157.547342,17.986387999999998,25.961343,27.42298139999999,-1.1076491999999998,-0.1086978,-0.0373459999999999,-157.4337036,82.6495774,-31.72037659999999,208.59981128986797,0.9810798793738458,41.82728048194071,1.1135962848813206,-129.9389482,77.13706820000002,125.8269654
4356.544,-6.7706582000000015,184.361441,102.61221460000002,-0.27789,-0.396348,0.8301248000000001,-27.601248,9.761355,-157.4292694,16.120914199999994,13.8925966,22.215232999999994,-1.0964338,-0.1279248,-0.0370687999999999,-160.9782562,82.5831956,-35.637417199999994,211.1024616748326,0.9609483715471088,30.763691133841235,1.1044935165816594,-133.3770082,72.8218406,121.79185220000002
4376.528,-13.0668864,186.0921264,105.830127,-0.3755328,-0.4033532,0.807301,-27.8181632,14.068779,-157.279016,17.966725199999996,1.4567234000000002,16.753077399999995,-1.0589284,-0.083951,-0.0306445999999999,-163.05722340000003,82.6917694,-38.10809559999999,214.4785276178019,0.97747306480899,24.608755755763298,1.0626929087166808,-135.23906019999998,68.6229904,119.17092040000004
4396.512,-16.312713600000002,186.9803282,109.1988052,-0.4738656,-0.383508,0.796015,-28.0767592,18.4110708,-157.089743,15.062812999999997,-7.8384478,15.349731599999997,-1.0468644,-0.0764262,-0.0213833999999999,-164.58393240000004,82.96507419999999,-39.96138319999999,217.14540477726644,1.002629978183557,22.889819998818957,1.049868223078192,-136.5071732,64.5540034,117.12835980000004
4416.496,-17.8396176,186.8947876,112.4535232,-0.5628672,-0.38148,0.8183360000000001,-28.337087,22.7933332,-156.8537628,10.535761999999997,-12.3093038,12.350370799999997,-0.9951362,-0.04994,-0.0214445999999999,-165.6125212,83.30215460000001,-41.21925219999999,218.84631243924647,1.0639644186399468,20.37284712206006,0.996619250777146,-137.2754342,60.5088214,115.63451060000004
4436.48,-18.5288022,185.7961152,114.3156052,-0.6541653999999999,-0.3577492,0.7765204,-28.592666399999995,27.1598788,-156.5887666,5.947569999999996,-15.044852400000002,11.405957599999994,-0.9862496,-0.0168042,-0.0348271999999999,-166.734213,83.6878602,-42.47649479999999,218.93279911109863,1.0765225461057282,19.7943689319888,0.9870073902953512,-138.1415466,56.5279814,114.1122718
4456.465,-23.0909812,183.853476,114.2141054,-0.7407693999999999,-0.3490056,0.7702912,-28.9153806,31.492712,-156.3167238,-3.653593200000004,-15.310764,8.899731399999995,-0.9645562,0.0131775999999999,-0.0429229999999999,-167.78486,84.0646012,-43.46740519999999,217.6698323663241,1.1242298455410085,18.082407376423312,0.965600691812718,-138.8694794,52.5718892,112.84931860000002
4476.449,-23.8887458,180.2992036,113.513402,-0.8100365999999999,-0.3322166,0.7560206,-29.2342682,35.7578254,-156.0357882,-12.413609000000005,-13.545627200000002,7.9899333999999955,-0.9636322,0.0104973999999999,-0.0579653999999999,-169.0321562,84.38650520000002,-44.47966019999999,214.3916216373785,1.156760264825638,20.03548702634145,0.9654310953562456,-139.797888,48.6286798,111.55612800000002
4496.433,-24.6402168,175.9609468,111.71282979999998,-0.8896604,-0.3430894,0.7326408000000001,-29.5493748,39.9447136,-155.7527316,-14.735722400000006,-12.363763,7.781967399999994,-0.9514676,0.018243,-0.0864142,-170.524893,84.6620452,-45.69159479999999,209.87889704452704,1.2024843057375676,20.75001606709483,0.9555578553182428,-140.97551819999998,44.71733160000001,110.0611368
4516.417,-25.048722,169.4845612,109.3546632,-0.9724496,-0.3351886,0.712132,-29.8360344,43.9965836,-155.443329,-13.9959072,-9.2662698,10.815441199999997,-0.9528602,0.0074793999999999,-0.1166195999999999,-172.85548380000003,84.86481319999999,-47.76243139999999,203.2508236701029,1.251056196792982,19.96804804451505,0.9599992881625278,-143.0194494,40.8682296,107.6808976
4536.401,-25.6971774,161.0434632,106.656125,-1.031761,-0.3372734,0.6910626000000001,-30.0722798,47.8817086,-155.07597959999998,-11.973512200000004,-4.9945652,12.353223999999994,-0.9593008,0.0094403999999999,-0.1292854,-103.7105132,84.9607436,-50.40093459999999,194.8611581762575,1.2867989837528315,17.914039721257065,0.9680195559419034,-73.6382334,37.079035000000005,104.67504500000004
4556.386,-24.4920388,151.8531678,102.5572738,-1.0927796,-0.3316199999999999,0.6576868000000001,-30.234895,51.57619999999999,-154.665747,-8.255973400000006,-0.5922988000000007,16.333882599999992,-0.972348,0.043009,-0.1607658,-35.482290600000006,84.9419538,-54.03572319999999,184.8708710012581,1.3178357278016104,18.31140724905029,0.9864867204552932,-5.247395599999999,33.36575380000001,100.6300238
4576.37,-22.311554800000003,141.2677948,97.0021636,-1.1301764,-0.3251592,0.630523,-30.3105092,55.0375442,-154.2205902,-5.937644400000004,3.92321,20.714943799999997,-0.9749638,0.0661392,-0.1792532,32.02405699999999,84.7991744,-58.44159479999998,172.81150155105266,1.3343861712377716,21.90333523375172,0.9935091921050956,62.3345662,29.761630200000003,95.7789954
4596.354,-20.6303708,128.879515,90.8201858,-1.1586393999999998,-0.3307428,0.6235196000000001,-30.2897262,58.2027252,-153.7221312,-5.993751600000004,11.4855242,24.708057999999998,-0.9710038,0.0571319999999999,-0.2196267999999999,99.1703522,84.4721648,-63.2052782,159.0089548884818,1.3566918406802482,27.89857441739008,0.9971701842296932,129.4600784,26.269439600000005,90.516853
4616.338,-18.042794200000003,113.9672744,84.7322434,-1.1802984,-0.3450322,0.591719,-30.0898254,61.0300826,-153.0891936,-2.2039462000000043,18.258046,26.932839399999995,-0.9736226,0.0143329999999999,-0.264175,166.7078796,83.9860136,-67.6486894,143.15598181111852,1.3646548673713803,32.61274997200945,1.0089275656580905,196.797705,22.955931,85.4405042
4636.322,-16.774831999999996,97.5662222,78.0601836,-1.1904856,-0.3667558,0.5609762,-29.69222180000001,63.49076,-152.2790222,5.323537399999995,25.329954,26.826761799999996,-0.9830472,-0.0066548,-0.2970604,163.3115722,83.33313739999998,-71.1681376,126.07122973412176,1.3661844961817713,37.2776309435733,1.0269717450052072,193.00379400000003,19.8423774,81.1108846
4656.306,-15.647099,80.2027556,70.693029,-1.175865,-0.4180334,0.5932546,-29.0715878,65.562336,-151.2755738,13.915510999999997,31.624506,25.668446399999997,-1.0031398,-0.0173932,-0.2728955999999999,161.0555846,82.5546234,-73.71069659999999,108.0500720135992,1.3817964546783723,43.04207205426836,1.0397422710699225,190.1271724,16.9922874,77.56487720000001
4676.291,-12.870541400000002,61.4117454,62.134742800000005,-1.143527,-0.481302,0.6481376000000001,-28.228045400000003,67.212548,-150.1107514,18.359895599999994,34.5451992,23.945974799999995,-1.0352962,-0.007833,-0.2256109999999999,159.6975586,81.73653859999999,-75.43931439999999,88.30503706938629,1.3997813984571876,45.86792194260401,1.0596225275750035,187.925604,14.5239906,74.67143700000001
4696.275,-7.773898799999999,42.4576798,50.36386,-1.1032366,-0.5193779999999999,0.6688252,-27.256717400000003,68.41967919999999,-148.93111879999998,15.949762199999997,31.3666948,19.071769,-1.0542462,0.0256852,-0.1767601999999999,159.0067626,81.0156844,-76.44895939999999,66.3295294017044,1.3907593791230026,40.02495258838237,1.0692702876342912,186.26348,12.596005199999995,72.48215940000001
4716.259,-0.7608997999999992,24.249269,34.582392,-1.0661398,-0.5422076,0.6938962,-26.3373266,69.1623626,-147.9748078,10.586615199999995,24.414001,14.748167999999996,-1.0588872,0.0643784,-0.1408508,158.5598876,80.45508720000001,-77.10882419999999,42.243909051858175,1.3827997291785386,30.42414050679321,1.0701521520657893,184.8972142,11.2927246,70.86598360000002
4736.243,8.863389600000001,6.249774,16.3611466,-1.0450186,-0.5358706000000001,0.7195516,-25.5772286,69.423703,-147.3975098,5.203797199999995,14.896424800000002,11.368889799999994,-1.0583968,0.0750112,-0.1376578,158.0048798,80.0990294,-77.773384,19.629224852733124,1.3773074019088405,19.44825525350094,1.0699439874481844,183.5821084,10.675326399999998,69.6241258
4756.227,17.307378,-12.0019976,-1.8164702000000008,-1.0435498,-0.5052437999999999,0.7055176000000001,-25.0594684,69.1942536,-147.23754879999998,2.351474799999996,4.384443,6.371533599999994,-1.061497,0.0697257999999999,-0.1593176,157.5642,79.9699736,-78.26850119999999,21.13984019837373,1.357211319739207,8.08388610577938,1.0756484862000224,182.6236684,10.775719999999998,68.9690476
4776.211,23.3087398,-29.556406600000003,-18.1744232,-1.0622324,-0.4586916,0.674573,-24.790951,68.50552379999999,-147.461325,2.6778339999999963,-5.0835392,0.2441371999999944,-1.052065,0.0522088,-0.1940967999999999,157.45407419999998,80.0559844,-78.4386658,41.79938014876927,1.339322361438545,5.750892861279582,1.071092942182274,182.2450252,11.550460599999996,69.02265919999999
4796.195,28.070598600000004,-46.5740436,-31.443333000000003,-1.072743,-0.4150968,0.6755014,-24.6678332,67.3957078,-147.9295624,8.037360799999997,-11.5406104,-3.5403986000000054,-1.042468,0.0478666,-0.1994494,157.6000856,80.2874558,-78.4596436,62.81546969629306,1.3339359200580814,14.502388743956864,1.0624550840294005,182.2679188,12.891747999999998,69.4699188
4816.18,31.097895,-63.0790956,-41.292446600000005,-1.0728757999999998,-0.3732086,0.682405,-24.5701938,65.8990906,-148.4857452,11.275372199999996,-15.8711702,-7.099488400000006,-1.042751,0.0552446,-0.1800332,157.9775302,80.6324388,-78.311557,81.55438382673745,1.3251504538597116,20.72271211274324,1.0596195387649283,182.547724,14.733348199999996,70.1741882
4836.164,32.235181,-78.7316766,-48.4776128,-1.0695718,-0.3517588,0.6877614000000001,-24.4316478,64.045304,-149.0234588,9.878629399999996,-18.5263158,-11.457394600000004,-1.0378542,0.0548848,-0.1600137999999999,158.71855799999997,81.0648026,-77.76707919999998,97.91763241182086,1.3193687248311745,23.918268895636725,1.0515503306637872,183.1502058,17.0194986,71.25637960000002
4856.148,32.556,-93.5551484,-54.0637632,-1.0622668,-0.3396519999999999,0.7118990000000001,-24.221088,61.8627706,-149.50769340000002,6.085216599999996,-19.8235778,-15.401253800000005,-1.0286982000000002,0.0459654,-0.1461796,159.900638,81.550818,-76.70077519999998,112.85100539867466,1.3230927487093411,25.83026744874282,1.0400486912335212,184.121726,19.6880474,72.80691820000001
4876.132,32.876338,-108.3351046,-58.8333486,-1.0611324,-0.337147,0.7336044,-23.9244122,59.3655112,-149.9094756,2.477726799999996,-20.0942756,-17.79517020000001,-1.015622,0.040884,-0.1391009999999999,161.441443,82.0527742,-75.1999908,127.58805350216886,1.3333587235392133,26.95528008445028,1.0259184356180562,185.3658552,22.687263,74.70948480000001
4896.116,31.918619,-123.037018,-63.46855000000001,-1.0533502,-0.3231682,0.7560232,-23.5708444,56.5573974,-150.2410156,-0.9037190000000044,-18.9904402,-19.600106000000004,-1.0127146,0.0308008,-0.1352252,163.4165894,82.536905,-73.1935074,142.07449762818794,1.3362467617433242,27.306000846553367,1.0221670142637358,186.9874338,25.9795076,77.04750820000001
4916.1,30.020518400000004,-137.2804064,-67.93932179999999,-1.0487480000000002,-0.3352922,0.7851433999999999,-23.2063916,53.4551376,-150.5238678,-3.313352000000004,-18.1288392,-21.978326000000003,-1.0146954,0.0204922,-0.1304184,166.0267914,83.006157,-70.49874879999999,156.08617156237082,1.352310387983617,28.682397493543608,1.0232475966747052,189.233183,29.55101940000001,80.025119
4936.084,28.340827,-150.9240342,-72.07068480000001,-1.0277016,-0.3349608,0.8221632,-22.828476,50.0857986,-150.7661712,-4.124902600000004,-18.0870202,-22.406581600000003,-1.0168146,0.0109582,-0.1118834,169.03969719999998,83.4693804,-67.38282999999998,169.63328146854806,1.3580580413271888,29.08968924158788,1.0230102189694683,191.8681732,33.3835818,83.3833412
4956.069,26.720514200000004,-163.64274600000002,-76.133574,-1.0035416,-0.3362752,0.8496866000000001,-22.453103200000005,46.471598,-150.9847504,-4.993829800000005,-18.1110996,-22.70863360000001,-1.0173182,0.009443,-0.0886821999999999,100.5272186,83.9207582,-63.77189399999999,182.4534332029584,1.357256081690246,29.47256868295564,1.0212198700069834,122.9803218,37.4491602,87.2128564
4976.053,24.9297114,-175.3168822,-80.0312486,-0.9653392,-0.333934,0.881873,-22.0930544,42.630162600000006,-151.1933534,-6.430400000000003,-17.353747399999996,-23.418036800000003,-1.0240628,0.002433,-0.0679033999999999,32.62456059999998,84.33997360000001,-59.51766499999999,194.32575857896703,1.349478297543773,29.848065943192385,1.0263144788827645,54.717615,41.709811,91.6756884
4996.038,23.6598182,-185.9862212,-83.27595219999999,-0.9274676000000002,-0.3408164,0.9046704,-21.7447034,38.5879652,-151.3969818,-9.384818600000004,-16.9704634,-26.19127240000001,-1.0243998,-0.0179726,-0.0534137999999999,-34.12627560000001,84.70969720000001,-54.04283199999999,205.14761926069008,1.339694181593277,32.58917301952671,1.0259488284613616,-12.3815722,46.121732,97.35414980000002
5016.021,22.0705092,-195.7418242,-85.7313538,-0.8722895999999999,-0.3296112,0.9172315999999998,-21.404741,34.3685728,-151.5846466,-11.829701000000004,-15.7610128,-29.26774540000001,-1.0213048,-0.0375586,-0.0425297999999999,-99.6387696,84.97739279999999,-47.26898339999999,214.82977945776452,1.307993309414142,35.283881178668345,1.022879722560302,-78.23402860000002,50.60882,104.31566320000002
5036.005,19.0224962,-203.89317,-87.5913254,-0.8089584000000001,-0.3272558,0.9298086,-21.1120756,29.9944178,-151.7647126,-13.711347600000003,-14.0887856,-34.144510800000006,-1.029332,-0.0582422,-0.0291721999999999,-163.761136,85.101874,-39.0538212,222.72521280640095,1.2751682572108514,39.39977855854155,1.0313910690604609,-142.6490604,55.1074562,112.7108914
5055.989,15.605856,-210.9100768,-88.6591782,-0.7374932,-0.3331152,0.946679,-20.8681274,25.485181,-151.92605600000002,-16.349848800000004,-12.0448694,-38.39426620000001,-1.0303116,-0.0728858,-0.0174331999999999,-155.0592928,85.05165120000001,-29.953058199999997,229.3186715389176,1.245416832051936,43.434043234338446,1.0330335180421009,-134.1911654,59.566470200000005,121.9729978
5075.974,12.7334584,-216.6309296,-88.8628326,-0.657134,-0.3272966,0.949291,-20.6627106,20.8584086,-152.0621978,-21.557248200000004,-13.147343,-44.859761000000006,-1.0609768,-0.0923512,0.0094436,-145.39332140000002,84.82768100000001,-19.77522879999999,234.49457059787187,1.2000423163407865,51.47781789172084,1.0650303732103794,-124.7306108,63.9692724,132.28696900000003
5095.958,9.1008744,-220.7483886,-88.66072679999999,-0.5712916,-0.3202448,0.952409,-20.5143358,16.142362,-152.1756286,-27.538193400000004,-19.9242328,-49.51079860000001,-1.0889678,-0.0927056,0.0429226,-135.07128300000002,84.46886900000001,-8.814480799999991,238.06175976213697,1.1558606003487617,60.05536051356417,1.0937493073364482,-114.5569472,68.32650699999999,143.36114780000003
5115.942,6.1297044,-222.8791412,-88.8348556,-0.4848078,-0.301379,0.9521648,-20.4152334,11.3678182,-152.28529360000002,-31.171665800000007,-30.709468800000003,-51.622676,-1.0971376000000002,-0.102221,0.0648782,-124.2383134,83.99864199999999,2.7346640000000084,240.00899238893896,1.1101737300715055,67.67307367133579,1.103797638614071,-103.82308,72.63082379999999,155.01995760000003
5135.942,2.8539036,-224.1002046,-89.2031112,-0.4002659999999999,-0.2859446,0.9288142,-20.3737008,6.555854600000001,-152.39822080000002,-32.55321120000001,-44.3073604,-52.43323200000001,-1.1001084,-0.1097516,0.08152,-113.0215836,83.4035018,14.699669200000008,241.21824457382888,1.0510342540311426,75.97432173447237,1.1085708889616035,-92.6478828,76.8476472,167.09789
5155.91,-0.9341762000000002,-224.296866,-90.0931426,-0.2998206,-0.2675256,0.912769,-20.3958306,1.7282898000000002,-152.52656540000004,-34.46066160000001,-59.4274778,-53.30210040000001,-1.1018562,-0.1267402,0.0945884,-101.5544784,82.6474562,26.959534800000007,241.716220237986,0.9973011512079588,86.94984889366334,1.1131473977820907,-81.15864780000001,80.9191664,179.4861002
5175.894,-4.7922986000000005,-223.581534,-91.1955886,-0.2052852,-0.2660568,0.8982547999999999,-20.4843086,-3.0937652,-152.6758086,-34.573379200000005,-73.3363744,-52.63415680000001,-1.0823930000000002,-0.1515662,0.1037016,-90.5914658,81.692601,38.72178020000001,241.5125335293495,0.9590567865816496,96.66383409264787,1.0978619864418295,-70.1071572,84.7863662,191.3975888
5195.879,-7.1203326,-222.3699374,-91.7871186,-0.1123004,-0.2619302,0.8680458,-20.6092124,-7.8931098,-152.8365326,-32.116831000000005,-80.81184520000001,-51.8229774,-1.0536466,-0.1873544,0.1060462,-81.0259828,80.5065398,49.03595200000001,240.67397727320875,0.9136313919791942,101.23075691069506,1.07541555941197,-60.4167704,88.3996496,201.8724846
5215.863,-9.3358728,-220.6727664,-91.6397324,-0.0283618,-0.2662328,0.8268312,-20.7684302,-12.6600076,-152.99599,-28.289584200000007,-85.0145828,-52.049559,-1.043734,-0.2217627999999999,0.1076908,-73.1757248,79.0881116,57.55931940000001,239.12647052534848,0.8690996080936408,103.61918960772384,1.0724535936927433,-52.4072946,91.7481192,210.55530940000003
5235.847,-9.6952094,-217.8027956,-90.4096208,0.0568016,-0.2622626,0.7863102,-20.9229842,-17.3516828,-153.14362799999998,-25.29542260000001,-87.4740296,-54.69720160000001,-1.0256116,-0.232545,0.117204,-67.1149146,77.4441222,64.23418360000001,236.02108886640835,0.8308380249756026,106.22310540482852,1.05815552197943,-46.1919304,94.795805,217.37781160000003
5255.831,-9.3296518,-213.2781648,-88.30533460000001,0.1214536,-0.2571214,0.7437824,-21.062787,-21.9390438,-153.2753846,-22.43123720000001,-86.009662,-56.058923400000005,-1.0126108,-0.2426724,0.1279542,-62.676303,75.68556219999999,69.22762920000001,231.0247824411553,0.7962880445169825,105.08770266993174,1.049115247861759,-41.613516,97.624606,222.5030138
5275.815,-7.8204728,-207.8515716,-85.4051516,0.1622622,-0.2554178,0.7001877999999999,-21.1713758,-26.4047084,-153.3836916,-17.133382200000007,-82.30198680000001,-57.4561006,-0.992407,-0.2385502,0.1212608,-59.53469540000001,73.88831180000001,72.81280080000002,224.8498955552892,0.7627779685953966,101.8252096142992,1.0278531184880844,-38.3633196,100.2930202,226.19649240000004
5295.799,-4.877703199999999,-201.1781524,-82.0816346,0.2094986,-0.2283069999999999,0.6302753999999999,-21.2127912,-30.7199668,-153.4795686,-12.392624600000005,-80.45303820000001,-58.89887420000001,-0.9735756,-0.2275554,0.1221792,-57.17204120000001,72.06506959999999,75.52142360000002,217.33346665940067,0.7023253017627372,100.47559844118676,1.007253029728459,-35.959250000000004,102.7850364,229.0009922
5315.783,-3.7113488,-193.0007658,-78.34660799999999,0.2597859999999999,-0.2070056,0.598929,-21.2256682,-34.8543056,-153.5675508,-11.264284600000003,-76.00223559999999,-57.73313780000001,-0.9543554,-0.2238626,0.1232904,-55.472306,70.2994432,77.54153000000001,208.3296923014273,0.6848766540541151,96.10587455500053,0.987982396563866,-34.2466378,105.1537488,231.10908080000004
5335.768,-1.9213116,-184.2564116,-74.89913179999999,0.2834839999999999,-0.2052449999999999,0.5718502000000001,-21.2026214,-38.81334940000001,-153.6556826,-8.359851400000005,-69.4389146,-54.059337000000006,-0.9296778,-0.2177839999999999,0.1219054,-54.2493058,68.6558502,79.02044380000001,198.9070049001962,0.6704486106488998,88.39718260858626,0.9625962855829022,-33.046684400000004,107.4691996,232.6761264
5355.752,0.7739064000000004,-176.5034942,-71.2675324,0.3160116,-0.1760648,0.5265536,-21.1194336,-42.607237000000005,-153.7420474,-3.845574200000006,-63.22995999999999,-49.578663000000006,-0.8991094000000001,-0.2128,0.1132778,-53.26128780000001,67.14313200000001,80.16848,190.3500553462237,0.6388433601490744,80.44165654309262,0.9308670222653715,-32.1418542,109.750369,233.9105274
5375.736,0.6687032000000006,-168.2555816,-67.3223892,0.367319,-0.149981,0.4910432,-21.040014,-46.2139866,-153.8212618,-1.4436272000000057,-57.378573800000005,-44.3547396,-0.8758448,-0.2176015999999999,0.1147902,-52.4227508,65.776297,81.113939,181.2255279785942,0.6313010156717951,72.53776751319575,0.9097424690678346,-31.3827368,111.9902836,234.9352008
5395.72,0.0625606000000005,-160.24581600000002,-63.6868272,0.4014062,-0.1541767999999999,0.4864598,-20.9867566,-49.6398626,-153.8873628,1.2585523999999944,-49.1595772,-38.017050000000005,-0.8637842000000001,-0.2186636,0.1075506,-51.7381606,64.59601980000001,81.84058840000002,172.43763341607652,0.6492615498184996,62.15741367953469,0.8974987719740681,-30.751404,114.2358824,235.7279512
5415.705,2.685732200000001,-152.739798,-59.940468800000005,0.4394296000000001,-0.1449242,0.4488654,-20.8861962,-52.89434719999999,-153.9432678,5.138052999999994,-40.7291458,-32.06129060000001,-0.8502750000000001,-0.2086546,0.11549,-51.1370428,63.60738839999999,82.39207760000002,164.10215979838503,0.6446561443273151,52.08828333863687,0.8830867781968883,-30.2508466,116.5017356,236.3353454
5435.689,3.5292676000000007,-145.3677948,-56.186034600000006,0.4932702,-0.124917,0.423421,-20.7674046,-55.9811592,-153.9941862,4.509896199999995,-30.821121800000004,-24.671286,-0.8448316,-0.2152137999999999,0.1231736,-50.71236160000001,62.853956800000006,82.76597600000001,155.8881713885942,0.6619706113854602,39.73604240030713,0.8804709806722536,-29.944957,118.835116,236.7601622
5455.673,3.715619600000001,-136.7801544,-51.710421800000006,0.5370904,-0.1273282,0.388136,-20.6784848,-58.879284,-154.00735760000003,3.8389805999999935,-20.880799,-16.827568000000007,-0.8425498000000001,-0.2286232,0.1293114,-50.43243,62.3512094,82.9966354,146.27571291719502,0.6747800551167765,27.09082102336881,0.882541880721952,-29.7539452,121.2304934,237.003993
5475.657,4.9483452,-128.2049318,-47.9465508,0.5854701999999999,-0.1057896,0.3393754,-20.5605038,-61.6075388,-154.0227994,4.132256199999994,-10.63086,-7.837482000000006,-0.8297204,-0.2379901999999999,0.1425012,-50.2451986,62.12041939999999,83.1193572,136.96664700458282,0.6849397467524861,13.838961295645078,0.8748610572391711,-29.6846948,123.72795820000002,237.1421566
5495.641,3.5940760000000003,-119.0321854,-44.1102654,0.6412926,-0.0954083999999999,0.2996874,-20.4812768,-64.1565522,-154.0268674,5.915924599999995,-0.0551597999999998,2.292670999999994,-0.8259210000000001,-0.2453226,0.1621558,-50.09094760000001,62.1938806,83.16591180000002,126.99328351157862,0.7142629063055704,6.344883512773273,0.8767115716045958,-29.609670800000004,126.3504328,237.1927792
5515.625,1.9850830000000008,-110.5403504,-40.8932396,0.686597,-0.0935503999999999,0.2706508,-20.444828800000003,-66.5347832,-154.023062,7.742876399999995,9.7509826,11.612117599999994,-0.8231681999999999,-0.2442949999999999,0.172737,-49.95804820000001,62.5441514,83.147374,117.87860987496704,0.7439213488600794,17.02571795159926,0.8758561546768052,-29.513219400000004,129.0789346,237.170436
5535.61,2.4732364000000007,-102.06633159999998,-38.237619,0.7311346000000001,-0.087122,0.2361904,-20.371967,-68.74958179999999,-154.04935,11.518286199999997,17.678645,20.23147579999999,-0.8289496,-0.2514356,0.1841022,-49.7610764,63.1344636,83.1150374,109.02187143578394,0.7732618904700529,29.2321401725416,0.885590718296189,-29.3891094,131.88404540000002,237.16438740000004
5555.594,3.164410400000001,-93.9494172,-36.8522042,0.7812734000000001,-0.0791306,0.2014298,-20.187087,-70.8169386,-154.1796172,16.050550799999993,23.943417200000003,27.330558799999995,-0.8337787999999999,-0.2519059999999999,0.1969648,-49.475367000000006,63.91821219999999,83.08095840000001,100.96826947015472,0.810693370968309,39.72237219146024,0.8929943183494954,-29.288280000000004,134.7351508,237.2605756
5575.578,4.270919400000001,-85.9848358,-35.367759,0.8211646,-0.0852488,0.1751274,-19.8848764,-72.72675000000001,-154.41163939999998,21.604792399999997,29.110948,33.214149199999994,-0.847813,-0.251739,0.1968914,-49.0765176,64.85387879999999,83.04984880000002,93.07261206582922,0.8439480223481538,49.16700169001219,0.9060494635967508,-29.191641200000003,137.58062879999997,237.4614882
5595.562,7.555368200000001,-78.503804,-34.3319812,0.8559709999999999,-0.0801296,0.155708,-19.3455296,-74.4888106,-154.8202148,27.143694399999998,33.600283000000005,38.15814059999999,-0.8564196000000001,-0.2590348,0.184456,-48.58632820000001,65.917337,83.0028716,86.01520658712121,0.8737002271380956,57.635083563833305,0.9135521741045776,-29.240798600000005,140.4061476,237.8230864
5615.546,9.214288200000002,-71.365586,-32.4432052,0.8887775999999998,-0.076846,0.139703,-18.6493576,-76.1022856,-155.3557432,34.1353448,38.2432458,41.5936768,-0.8706659999999999,-0.2664962,0.174632,-48.022739400000006,67.08751219999999,82.88935380000001,78.93358940150486,0.902966144540735,66.01364679880186,0.9271331315374508,-29.373381800000004,143.1897978,238.24509700000004
5635.53,8.133373800000001,-64.84073860000001,-29.8718474,0.9128266,-0.0867182,0.1226188,-17.9381408,-77.5712996,-155.9294674,42.44866639999999,43.4592218,42.95167539999999,-0.879378,-0.2696002,0.1619446,-47.45053320000001,68.3426574,82.6118912,71.85262986594815,0.925098815258262,74.40053533589021,0.9339250442049404,-29.5123924,145.913957,238.5413586
5655.515,6.5878202,-59.2400122,-26.7525294,0.9370656,-0.0820241999999999,0.105026,-17.242948000000002,-78.912805,-156.515823,50.84522399999999,48.3434494,42.10549759999999,-0.9086616,-0.2729302,0.1615088,-46.93563520000001,69.6452376,82.098166,65.33357674076586,0.946493723574013,81.82419465930685,0.9624146143238058,-29.6926872,148.5580426,238.61398900000003
5675.499,4.934251600000001,-53.2208442,-23.724428,0.9665962,-0.0803738,0.0774014,-16.5311552,-80.115428,-157.14924580000002,56.02805479999999,52.8643318,41.0898558,-0.934255,-0.2695774,0.1653252,-46.54516960000001,70.9880828,81.3456132,58.47780416653793,0.973015487185502,87.30496406847143,0.9863248964569432,-30.0140144,151.1035108,238.494859
5695.483,1.4821062000000007,-46.682433,-20.847341,0.9941174,-0.0748566,0.0410274,-15.79713,-81.178166,-157.8711728,59.0707184,55.0229324,38.8739394,-0.9593182,-0.2547662,0.1753772,-46.266011600000006,72.32264239999999,80.4121156,51.147412606678834,0.9977756075877382,89.59941978976171,1.0079456273993752,-30.4688816,153.5008084,238.28328840000003
5715.467,-2.608100199999999,-38.9361338,-18.8749568,1.025527,-0.0609782,0.0059627999999999,-14.9084054,-82.0915632,-158.8278806,57.96331779999999,54.4239608,36.24319379999999,-0.989143,-0.2366001999999999,0.1847406,-46.091146,73.6069624,79.39339460000001,43.34845667548741,1.027355597438433,87.38010538084794,1.0336888402113085,-31.1827406,155.69852559999998,238.22127520000004
5735.451,-5.745527999999998,-30.072243800000003,-17.5756038,1.051876,-0.0495556,-0.0267746,-13.6975794,-82.8250594,-160.167285,51.7980376,49.695925,32.6336288,-1.0106984,-0.2272323999999999,0.1922822,-45.9952788,74.766313,78.4228852,35.30230570515185,1.0533830054033149,78.85223769477204,1.053621499310431,-32.2976994,157.5913724,238.5901702
5755.435,-7.609163999999998,-20.279644,-16.5358674,1.0681298,-0.040487,-0.0526696,-12.0812886,-83.34267120000001,-161.9470306,43.250151,41.4785378,28.8547944,-1.0223878,-0.223714,0.1910834,-45.8716956,75.74985799999999,77.66121820000001,27.250655922674863,1.0701936990943273,66.51047901958835,1.0638785800740609,-33.790407,159.0925292,239.6082488
5775.419,-11.1579436,-9.7600178,-15.433298400000002,1.0770432,-0.0273012,-0.0625172,-10.194145,-83.638272,-164.0663818,35.144283599999994,32.226208,24.704283799999995,-1.020139,-0.2166844,0.1762436,-45.6725142,76.54359880000001,77.1480896,21.39963439735689,1.079201468903522,53.70242815634536,1.0576849791243703,-35.4783692,160.18187079999998,241.21447140000004
5795.404,-14.303435,1.0699712,-13.122164799999998,1.0697451999999998,-0.0261744,-0.0601804,-8.3879966,-83.70812980000001,-166.1655182,27.468617799999997,23.7996806,20.2462456,-1.0129587999999998,-0.2151404,0.1574958,-45.4452514,77.1553344,76.82493280000001,19.44027520912225,1.0717563028424697,41.60360827380255,1.0474616218397883,-37.0572548,160.8634642,242.99045100000004
5815.388,-15.6733448,12.1264558,-9.787487,1.0530858,-0.0293046,-0.062421,-6.908187199999999,-83.5425094,-167.963495,20.561608199999995,16.316718200000004,15.508227199999991,-1.0000942,-0.2150313999999999,0.1413412,-45.225187600000005,77.59360960000001,76.6380996,22.10202636104232,1.0553411026695587,30.488032659969026,1.032668507642719,-38.3170004,161.13611899999998,244.60159460000008
5835.372,-16.7468394,23.231985,-5.686791400000001,1.0355792,-0.0228308,-0.0513888,-5.937416,-83.146585,-169.2716828,14.680129399999991,11.1176428,12.041008999999994,-0.991286,-0.2033087999999999,0.1236466,-45.02506480000001,77.91558380000001,76.5518004,29.197968308715097,1.0371047843235126,22.002138040818146,1.0194463613378586,-39.0876488,161.0621688,245.8234832
5855.356,-18.108900400000003,34.4498222,-1.0510498,1.0134892,-0.0228018,-0.0305197999999999,-5.6081576,-82.5285246,-169.963742,9.326858799999997,8.5838004,9.649973799999994,-0.9748892,-0.18251,0.1082484,-44.912947800000005,78.17653800000001,76.4844252,38.933625941990215,1.014204978686222,15.930910793889463,0.9977156751696348,-39.3047902,160.7050626,246.44816720000003
5875.341,-17.8595702,45.258762,3.533689,0.9880624,-0.0224532,-0.0099346,-5.8309546,-81.69409160000001,-170.09671939999998,4.311095799999994,6.4826324,7.228390399999993,-0.9699402,-0.161888,0.1081176,-44.88154840000001,78.3784988,76.4349028,48.78326294386317,0.988367415873854,10.62354449348801,0.98928314023327,-39.0505938,160.0725904,246.5316222
5895.325,-16.2028998,55.8812172,7.295541,0.9704062,-0.0171082,0.0050167999999999,-6.3266092,-80.64083839999999,-169.9213776,-2.2983794000000057,3.2900096,4.5920931999999945,-0.9751094,-0.1466296,0.1172278,-44.895945000000005,78.4988128,76.47082820000001,58.63846277116323,0.9705699623354928,6.098690924446224,0.9930160817717708,-38.569335800000005,159.1396512,246.3922058
5915.309,-15.2934668,66.33853239999999,9.9978078,0.9544742,-0.0080712,0.0275058,-6.884012,-79.3727492,-169.66410820000002,-10.786387800000004,-0.5550354000000002,1.7247051999999945,-0.9751046,-0.1336888,0.1255366,-44.97113260000001,78.524687,76.6154784,68.80877246800942,0.9549045563660904,10.93749670144632,0.992200138140567,-38.0871206,157.8974362,246.2795866
5935.293,-15.428188600000002,76.43226179999999,12.2036486,0.9417562,-0.0040998,0.0536504,-7.4378338,-77.89750339999999,-169.4118958,-18.43931300000001,-4.606855400000001,-0.6384144000000058,-0.9694356,-0.1237706,0.1272582,-45.060511000000005,78.4623198,76.9002608,78.92305548122924,0.9432920618867944,19.016807133023296,0.9855552716306478,-37.6226772,156.3598232,246.3121566
5955.277,-15.563237,86.6630768,14.401570799999998,0.9239288,-0.0130596,0.0769881999999999,-7.976746199999999,-76.2137694,-169.1770022,-25.170930800000004,-9.1390826,-2.8976788000000058,-0.9700552,-0.123461,0.1287718,-45.1287918,78.30404960000001,77.34325720000001,89.21943996612106,0.9272228230370736,26.93501680964727,0.9863224047152532,-37.1520456,154.51781899999995,246.5202594
5975.261,-15.244075600000002,96.4175706,17.0157412,0.9034164,-0.0200854,0.1087653999999999,-8.505661,-74.32601159999999,-168.94396999999998,-31.824026600000007,-12.6251058,-5.111657200000005,-0.9676914,-0.1334156,0.1227866,-45.278060800000006,78.06489859999999,77.8404876,99.08715966203631,0.9101618138107532,34.616340142034275,0.9845318263504133,-36.7723998,152.39091019999998,246.7844576
5995.246,-16.4544334,105.82469179999998,20.1837712,0.8864364,-0.0192996,0.146727,-9.0507148,-72.23769519999999,-168.714319,-36.827405000000006,-13.008141599999998,-6.291685600000006,-0.9592556,-0.138462,0.1109306,-45.610765,77.80776060000001,78.25442340000001,108.98164245841576,0.898705056363944,39.56077368567156,0.9755247970152886,-36.5600502,150.04545579999998,246.9687424
6015.23,-18.378776400000003,115.353601,24.1412762,0.8619628,-0.0342198,0.1832619999999999,-9.6892844,-69.9428786,-168.4245394,-38.058827400000006,-10.4325784,-5.971188600000007,-0.9487942,-0.138425,0.102515,-46.1283462,77.59591979999999,78.50511920000001,119.27713067555358,0.881893317777088,39.91200481599375,0.964303499839983,-36.439061800000005,147.5387984,246.9296586
6035.214,-18.8542436,124.6731262,28.5332498,0.8273249999999999,-0.047263,0.228089,-10.3834356,-67.4373604,-168.0821444,-37.4461622,-5.987580400000001,-5.281642400000005,-0.9424386,-0.1432986,0.0989806,-46.89770800000001,77.45573579999999,78.48694900000001,129.27883524521124,0.8594911510393808,38.28788227359475,0.958395619099065,-36.5142724,144.8930962,246.5690934
6055.198,-20.308278,133.160556,32.844678200000004,0.7927054,-0.0487736,0.271995,-11.106214,-64.7387016,-167.7323792,-33.9905688,0.0039469999999994,-6.3134236000000055,-0.9315916,-0.156532,0.0911358,-48.0815704,77.376854,77.97585720000001,138.64679122004944,0.8394891275478915,34.5719264791446,0.9490368329291544,-36.9753564,142.11555560000002,245.70823640000003
6075.182,-24.6241714,140.7927582,37.12346720000001,0.7511208,-0.0552756,0.318881,-11.9079902,-61.8584556,-167.38131700000002,-27.3179116,8.1725956,-10.291454600000003,-0.9241816,-0.1948044,0.0848286,-49.8629188,77.3334962,76.715022,147.6722803902267,0.8178770936448826,30.31457818955123,0.9482912397654424,-37.9549286,139.19195180000003,244.09633900000003
6095.166,-31.8743918,147.04812020000003,40.992639800000006,0.6993994,-0.0696946,0.3727471999999999,-12.8287348,-58.8168358,-167.049301,-16.552481200000006,15.407224,-21.556183800000007,-0.9578486,-0.2121418,0.0752196,-52.42927380000001,77.1765168,74.425134,155.94718023980462,0.7955861569291913,31.24157878984211,0.9839390591156344,-39.600539000000005,135.9933526,241.474435
6115.151,-36.5392174,151.9659822,46.5564368,0.6542148000000001,-0.1013084,0.4407094,-13.8528288,-55.632129,-166.69159840000003,-6.519990600000004,21.524875,-22.678016800000005,-0.937645,-0.1616934,0.0582854,-55.276443400000005,77.0483964,71.6397414,163.08364713154896,0.7952893635010845,31.939363913058692,0.9532681099678726,-41.42361459999999,132.68052540000002,238.3313398
6135.135,-36.6620232,156.44471140000002,51.4808936,0.6194042,-0.1039429999999999,0.4538154,-14.8722756,-52.3356492,-166.331433,1.7924953999999955,26.7432548,-14.881369600000005,-0.9352452,-0.1768726,0.0667374,-58.037696,77.0906632,68.77183000000001,168.72858108809294,0.7748639412850491,30.65729730795832,0.9541600396749804,-43.1654204,129.4263124,235.10326300000003
6155.119,-38.787894,160.65740680000002,56.177420000000005,0.5858521999999999,-0.1095964,0.482636,-15.9162426,-48.9305048,-165.9796844,10.007062199999996,32.859522,-6.1041014000000064,-0.9402258,-0.1742155999999999,0.0655864,-60.762938600000005,77.3302094,65.77383740000002,174.56003436787103,0.7669235161564678,34.887670226666536,0.958476502650931,-44.846696,126.2607142,231.7535218
6175.103,-38.5035328,164.83374039999998,61.925589,0.5493932,-0.1304133999999999,0.5207886,-16.951753399999998,-45.4031978,-165.6129396,16.354627399999995,37.969032000000006,8.236417199999995,-0.964011,-0.1407518,0.0743448,-63.2754494,77.8415512,62.8696276,180.2427878871501,0.7681544825071062,42.15400095723193,0.9770646992964592,-46.323696,123.244749,228.4825672
6195.087,-32.237537,168.79950879999998,68.219368,0.5077301999999999,-0.1543419999999999,0.570581,-17.8749428,-41.7671932,-165.20930800000002,17.749756599999994,42.5787618,31.2915526,-0.9560448,-0.1248194,0.091308,-65.4041054,78.7727004,60.342545600000015,184.89568716783813,0.7792137617605581,55.74195977806081,0.9684723501925082,-47.5291626,120.5398936,225.5518536
6215.072,-24.0270406,172.35853579999997,72.553766,0.4639032,-0.1612072,0.5849882,-18.5962186,-38.0378002,-164.8253206,19.763360599999995,45.0719474,43.28483659999999,-0.9884966,-0.1683768,0.107384,-67.64333180000001,79.928627,57.67699540000001,188.54392725276696,0.7638096192385377,65.54119272734283,1.0084679461667585,-49.0471132,117.9664272,222.502316
6235.056,-20.2114756,175.8900848,76.5988694,0.4229246,-0.1616888,0.6141128,-19.2142538,-34.2125472,-164.44925240000003,22.5503234,47.212664,44.78520819999999,-1.0031384,-0.1450778,0.1039294,-70.56730200000001,81.11562500000001,54.272370400000014,192.90726391258275,0.7629829725848671,68.87138448542201,1.0188893648437791,-51.3530482,115.3281722,218.72162280000003
6255.04,-18.6034446,179.52700799999997,80.81349019999999,0.3680988,-0.18182,0.6595972,-19.7836228,-30.273762400000003,-164.0685334,18.639253199999995,48.2141618,45.935987,-1.0267872,-0.1415368,0.1195156,-74.51373760000001,82.28736119999999,49.9262178,197.754532061146,0.7769322397798151,69.153033625391,1.0433640776265205,-54.7301148,112.5611236,213.9947512
6275.024,-13.4365296,182.3105712,84.7769072,0.3019608,-0.2125476,0.7045342,-20.2332858,-26.257619600000005,-163.677896,14.497344399999994,47.6854006,44.9900062,-1.025017,-0.134029,0.1135618,-79.89925240000001,83.37509779999999,44.22551240000001,201.5063490150108,0.7954402843532883,67.14291535903642,1.0399614923396154,-59.6659666,109.6327174,207.90340840000005
6295.008,-9.1489628,185.0087768,87.210234,0.2506288,-0.212261,0.7109681999999999,-20.5629866,-22.1693472,-163.30115659999998,14.148553999999995,47.028821,40.68043399999999,-1.0130356,-0.1075543999999999,0.1018386,-87.13762220000001,84.2886432,36.67302240000001,204.7378224160909,0.7831636539840698,63.77138304419399,1.0238067084546183,-66.5746356,106.4579904,199.974179
6314.993,-10.6515772,188.2621858,88.83060900000001,0.1867782,-0.2155592,0.7364016,-20.8838602,-18.0022242,-162.9531768,11.363767599999996,46.83700259999999,33.146741199999994,-1.0256286,-0.1070936,0.0937702,-96.0007158,84.92696859999998,27.53741920000001,208.439400772388,0.7897082886626174,58.49398668922296,1.0354592771842646,-75.11685560000001,102.9291928,190.490596
6334.977,-10.9774774,189.8878694,91.619693,0.1030526,-0.2536994,0.8029776,-21.1897192,-13.7786688,-162.5949706,7.310626199999996,47.7827782,28.8531284,-1.031484,-0.139507,0.0827872,-106.6837662,85.30334639999998,16.64348780000001,211.1209987205281,0.8483844942176159,56.29513448259457,1.0441624230879218,-85.494047,99.0820152,179.2384584
6354.961,-5.93705,190.2006684,94.5765596,0.0212218,-0.2732668,0.8239430000000001,-21.3785114,-9.535694199999998,-162.20570360000002,13.743719799999996,45.880722000000006,25.011564,-1.0369684,-0.1389554,0.048007,-117.6242584,85.4438706,5.351961800000009,212.50004340771704,0.8683358659104667,54.032479296329655,1.0473379291502432,-96.245747,94.9795648,167.55766540000002
6374.945,-4.6903254,191.1294128,95.87623,-0.0482111999999999,-0.2634134,0.8206846000000001,-21.5109582,-5.2672726,-161.8155792,22.256629399999994,41.6629238,17.991130399999996,-1.0587794,-0.0876528,0.0409882,-127.313446,85.3594376,-4.859707799999992,213.8801137755532,0.8632694549108988,50.54540082819954,1.063191828294142,-105.8024878,90.6267102,156.9558714
6394.929,-4.4652024,192.3334442,97.1777146,-0.144748,-0.2917606,0.8710994,-21.6155682,-0.970428,-161.4204712,20.266956399999994,35.4340934,14.409428399999992,-1.0572212,-0.0756206,0.0402908,-135.3576446,85.1568192,-13.381857799999992,215.53561191874192,0.9299948364892784,43.289214864838456,1.060687743607156,-113.7420764,86.12724720000001,148.0386134
6414.914,-0.5651546,190.9527586,98.4588242,-0.2545762,-0.3058266,0.8983829999999999,-21.6171918,3.3031488,-160.9950134,16.555117599999996,28.4581034,13.430234199999996,-1.0267468000000002,-0.0804592,0.0239078,-141.6252654,84.9525086,-20.040154599999997,214.84276920464015,0.9825634664300316,35.55709153659465,1.0301719551005648,-120.0080736,81.6493598,140.9548588
6434.898,0.9908906,189.2085844,97.769136,-0.3369352,-0.2895448,0.8761846,-21.5579988,7.5389904,-160.5652192,16.816903199999995,18.5834998,9.545928199999995,-1.0302558,-0.0448747999999999,-0.0014775999999999,-145.33612060000002,84.7913712,-24.12580959999999,212.97810739374032,0.9823751694150458,26.81938558681621,1.031233700191397,-123.77812179999998,77.2523808,136.4394096
6454.882,-2.7972452,188.6311858,95.5224792,-0.4239406,-0.2841886,0.8784850000000001,-21.550924,11.747332,-160.1668764,10.783427199999997,9.9864134,6.112862599999994,-1.024595,0.0163554,-0.0060577999999999,-147.3790618,84.7140976,-26.405969399999996,211.4570709849578,1.0159845903965867,15.917846711784795,1.0247434362195251,-125.8281378,72.9667656,133.760907
6474.866,-8.2818432,186.827246,92.7133454,-0.5369864,-0.3160733999999999,0.9357344,-21.637452,15.90162,-159.8072908,-1.831714200000004,3.595756,7.445342399999994,-0.984377,0.011946,-0.0315309999999999,-149.2108854,84.7549072,-28.21744099999999,208.73134213623408,1.1242133495542026,8.46863398519828,0.9849543080803292,-127.5734334,68.85328720000001,131.5898498
6494.85,-7.959925799999999,181.7087676,88.61640480000001,-0.6045415999999999,-0.3083639999999999,0.9189578,-21.7008448,19.9399192,-159.4842896,-6.006226200000004,-0.4539456,10.577934999999991,-0.965157,-0.0095945999999999,-0.0473055999999999,-151.313513,84.8814956,-30.218219199999982,202.32227717463488,1.142384497797217,12.172654954345443,0.9663632395686004,-129.61266819999997,64.9415764,129.2660704
6514.834,-9.2552952,177.94826039999998,83.2105318,-0.6357088000000001,-0.2910192,0.8727342,-21.7976206,23.870885,-159.2375824,-6.830204400000004,-3.0707886,12.253189799999992,-0.9996744,0.0080588,-0.0464335999999999,-153.705435,85.0667724,-32.493511799999986,196.6602056112628,1.118249899179839,14.360435057702578,1.0007846568976564,-131.90781439999998,61.1958874,126.7440706
