Timestamp (ms),Wrist Gyroscope X (deg/s),Wrist Gyroscope Y (deg/s),Wrist Gyroscope Z (deg/s),Wrist Accelerometer X (g),Wrist Accelerometer Y (g),Wrist Accelerometer Z (g),Wrist Roll (deg),Wrist Pitch (deg),Wrist Yaw (deg),Arm Gyroscope X (deg/s),Arm Gyroscope Y (deg/s),Arm Gyroscope Z (deg/s),Arm Accelerometer X (g),Arm Accelerometer Y (g),Arm Accelerometer Z (g),Arm Roll (deg),Arm Pitch (deg),Arm Yaw (deg),Wrist Gyroscope Magnitude (deg/s),Wrist Accelerometer Magnitude (g),Arm Gyroscope Magnitude (deg/s),Arm Accelerometer Magnitude (g),Difference Roll (deg),Difference Pitch (deg),Difference Yaw (deg)
0.0,0.479044,0.83362,-0.216606,-0.949836,-0.234368,0.184425,-51.080677,72.690697,139.760086,-0.518872,-0.575644,0.010566,-0.993156,-0.046888,-0.109508,-158.505981,83.267334,-175.608643,0.9855575161156248,0.9955548035869246,0.7750521321020929,1.0002746257623454,-107.42530399999998,10.576637000000003,-315.36872900000003
19.985,-0.0313769999999999,0.9804845,-0.1376945,-0.9511365,-0.2346255,0.1875595,-51.114687,72.69599550000001,139.73210899999998,-0.4283035,-0.250374,-0.0432925,-0.9888955,-0.0490069999999999,-0.1156349999999999,-158.4974515,83.2621955,-175.596779,0.9906029205486424,0.9974408919443548,0.4980012736374276,0.9968387277760882,-107.3827645,10.566200000000002,-315.328888
39.971,0.1161126666666666,0.918796,-0.1284563333333333,-0.9525753333333332,-0.2357246666666666,0.1855966666666666,-51.143039666666674,72.70039133333334,139.70382166666664,-0.0291293333333333,-0.198832,0.0008366666666666,-0.9885753333333334,-0.047516,-0.115858,-158.49439466666666,83.26019266666667,-175.59773266666664,0.9349701976800592,0.9987051651153108,0.2009561700858064,0.9964748045460612,-107.351355,10.559801333333334,-315.30155433333334
59.957,0.064139,0.780847,-0.1662607499999999,-0.95179375,-0.2340269999999999,0.18526175,-51.16510475,72.70301825,139.68635925,0.2424057499999999,-0.09063025,-0.0684792499999999,-0.98900375,-0.0459202499999999,-0.11574575,-158.48555725,83.25705525000001,-175.59610375,0.8009235205190083,0.997497817181133,0.2677009479413315,0.9968120010900688,-107.3204525,10.554037,-315.282463
79.942,-0.0602158,0.703812,-0.227709,-0.9514248,-0.2342692,0.1855162,-51.1891058,72.7037292,139.6708616,0.4311712,-0.039382,-0.145028,-0.9904264,-0.045148,-0.1146182,-158.465112,83.2540756,-175.5846376,0.7421783226385961,0.9972499529135712,0.4566099718769181,0.9980581784105572,-107.27600619999998,10.5503464,-315.25549920000003
99.927,-0.057313,0.6656929999999999,-0.2715728,-0.9525032,-0.2337208,0.1865344,-51.2368642,72.70706320000001,139.63496379999998,0.6729934,0.1711304,-0.2083232,-0.9913294,-0.0446104,-0.1136236,-158.43199439999998,83.2475418,-175.5648286,0.7212376417782421,0.998340042643908,0.7249857142771573,0.9988164944420372,-107.1951302,10.5404786,-315.19979240000004
119.913,0.2580696,0.5875084,-0.3174926,-0.9530034,-0.2320352,0.1863752,-51.2740696,72.7095336,139.6061888,0.709706,0.1866214,-0.1675036,-0.9941368,-0.044937,-0.1113658,-158.4003996,83.24243779999999,-175.54735739999998,0.7159382582104968,0.9983944759590972,0.7527068548823771,1.0013638961400997,-107.12632999999998,10.5329042,-315.1535462
139.898,0.3036808,0.6044054,-0.3314864,-0.9530414,-0.2307351999999999,0.1871216,-51.308765,72.71227400000001,139.58174739999998,0.7390475999999999,0.1424778,-0.0931983999999999,-0.9959174,-0.0444988,-0.1103097999999999,-158.3772826,83.2395616,-175.5389986,0.7532669840254251,0.9982690698501884,0.7584043910218083,1.0029954450545826,-107.0685176,10.5272876,-315.120746
159.884,0.4408534,0.7374616,-0.2736768,-0.9545334,-0.2313612,0.1872036,-51.3453488,72.7175064,139.55259099999998,0.6831892,0.0138599999999999,-0.0124249999999999,-0.9970104,-0.0447946,-0.109301,-158.3570312,83.2402924,-175.53242519999998,0.901720756456432,0.9998535914992556,0.6834427285600748,1.003983566846749,-107.0116824,10.522786,-315.08501620000004
179.869,0.8434804,0.8242406000000001,-0.1781888,-0.955494,-0.2300996,0.1875558,-51.3720472,72.7258226,139.524988,0.6686908,-0.0548622,0.1606717999999999,-0.9960262,-0.044591,-0.1104372,-158.36257940000002,83.2429994,-175.5514834,1.1927208392234792,1.0005457451160342,0.6899077288367772,1.0031215895948409,-106.9905322,10.517176799999998,-315.07647140000006
199.855,0.9199476,0.838273,-0.1196608,-0.9548014,-0.2307292,0.18699,-51.396940400000005,72.7349306,139.496393,0.8172546,-0.098404,0.3058889999999999,-0.9934112,-0.0448468,-0.1137236,-158.3893586,83.2455598,-175.5948518,1.250329523098371,0.9999234657085512,0.8781551735075983,1.000904643286582,-106.9924182,10.5106292,-315.0912448
219.84,0.8944431999999999,0.7209246,-0.0888862,-0.9537968,-0.232444,0.185587,-51.4191794,72.7425386,139.467734,1.1767742,0.1081138,0.3104832,-0.9902458,-0.0444202,-0.115377,-158.4265808,83.2432144,-175.6559266,1.15224202035069,0.9991001368207492,1.2218371123101148,0.9979337406434756,-107.0074014,10.500675799999996,-315.12366060000005
239.825,0.9484144,0.4514996000000001,-0.0749441999999999,-0.9526388,-0.2328802,0.1858452,-51.426261800000006,72.74645699999999,139.45009180000002,1.2179156,0.6617204,0.2352226,-0.9888012,-0.044917,-0.115909,-158.4829742,83.229367,-175.7372194,1.053070935901832,0.9981444330258622,1.40588831990677,0.9965842896069754,-107.0567124,10.48291,-315.1873112
259.811,1.038987,0.0983874,-0.0898322,-0.9521012,-0.232687,0.1866882,-51.412940000000006,72.7453934,139.45050980000002,1.2837932,1.1726852,0.2266946,-0.9901542,-0.0441164,-0.113816,-158.5664612,83.20734999999999,-175.8471802,1.0474941006061085,0.9977436639887424,1.7534839606721355,0.9976500781248904,-107.1535212,10.4619566,-315.29769
279.797,0.7347284000000001,-0.1372304,-0.0825934,-0.9520002,-0.2318143999999999,0.187917,-51.39089260000001,72.7414626,139.465323,1.0354588,1.5827858,0.1541058,-0.991157,-0.0430218,-0.1131621999999999,-158.6705016,83.1779034,-175.9728484,0.7519838257398095,0.9976748446946028,1.897665516568376,0.9985232883779326,-107.279609,10.4364408,-315.4381714
299.783,0.5143134,-0.3207419999999999,-0.0487915999999999,-0.9524972,-0.2313944,0.1868828,-51.36399,72.7364378,139.48969440000002,0.9939556,1.7232654,0.1585939999999999,-0.9928616,-0.0436284,-0.1116466,-158.777487,83.14694019999999,-176.10075379999998,0.6080907203815233,0.9978574373601872,1.99568119459109,1.000071276126197,-107.413497,10.4105024,-315.5904482
319.768,0.5298904,-0.4486312,-0.0349408,-0.9524412,-0.2310321999999999,0.186878,-51.32968519999999,72.7302274,139.5222932,1.0131902,1.607314,0.3498523999999999,-0.9936566,-0.041755,-0.1110056,-158.91159960000002,83.12063559999999,-176.2562714,0.6951795804899911,0.9977191507524952,1.9319444551430045,1.0007093294158498,-107.5819144,10.3904082,-315.7785646
339.753,0.584722,-0.4758816,-0.0519174,-0.9525751999999998,-0.2293752,0.1883292,-51.2898124,72.7236936,139.5600982,1.118043,1.3755313999999998,0.5182376,-0.9940658,-0.0401286,-0.1107176,-159.05967400000003,83.10067719999999,-176.4278656,0.7556841475942976,0.9977376316460754,1.84680182810412,1.0010172357244205,-107.76986159999998,10.3769836,-315.98796380000005
359.738,0.5008076,-0.4167538,-0.0469415999999999,-0.952338,-0.2303466,0.1877812,-51.2567864,72.71779,139.59103380000002,1.0240076,1.2757968000000002,0.6066811999999999,-0.992216,-0.039477,-0.1135064,-159.2221464,83.0818906,-176.6119782,0.6532193321104023,0.9976316962932762,1.7447954373454329,0.999467221586561,-107.96536,10.3641006,-316.20301200000006
379.728,0.8437258,-0.4491042,-0.0537727999999999,-0.9522832,-0.2320614,0.1850528,-51.2220498,72.71161479999999,139.6151244,1.0961508,1.23493,0.7096663999999999,-0.9925704,-0.0420302,-0.113277,-159.38226920000002,83.0643676,-176.7953736,0.9573188194447656,0.997466954420065,1.7972826935486803,0.9998971024046424,-108.1602194,10.3527528,-316.410498
399.709,1.0025346,-0.4820232,-0.0047858,-0.9522412,-0.2318191999999999,0.1865091999999999,-51.178453000000005,72.7054458,139.6454618,1.0058216,1.5235806,0.8127169999999999,-0.9916236,-0.0439882,-0.1144238,-159.56658620000002,83.04115300000001,-177.00148620000002,1.112405004221502,0.9976417824804252,1.998370300472843,0.9991722233041908,-108.3881332,10.335707199999998,-316.64694799999995
419.695,1.0746796,-0.490813,0.0932238,-0.9528832,-0.2334839999999999,0.1865079999999999,-51.13151619999999,72.7001526,139.6815062,0.9402282,2.1011904,0.7665982,-0.9921474,-0.0440024,-0.1162342,-159.7763946,83.00581059999999,-177.2320282,1.185126288845033,0.9986422808805162,2.4262528650927213,0.9999015270426184,-108.6448784,10.305658,-316.9135344
439.68,1.2568714,-0.5631664000000001,0.2285128,-0.9533604,-0.2351494,0.1843924,-51.0775788,72.6961838,139.72506399999995,0.795498,2.5362092,0.6754282,-0.9911276,-0.0439738,-0.1187864,-159.99875179999998,82.9603532,-177.4723328,1.3961017906982145,0.9990955158473488,2.742512976728438,0.9991885824973984,-108.921173,10.264169399999997,-317.19739680000004
459.666,1.915989,-0.8152571999999999,0.2776284,-0.9532496,-0.2335126,0.1868504,-50.99105,72.6896546,139.788388,0.725738,2.9655054,0.6462220000000001,-0.990039,-0.0438,-0.1195562,-160.23796699999997,82.9064028,-177.7282868,2.1006512511027147,0.9990625637261564,3.120660313997209,0.9981930406887436,-109.246917,10.216748199999998,-317.51667480000003
479.651,2.5857396,-1.1694238,0.2784424,-0.9533036,-0.23361,0.1906824,-50.869149,72.6773622,139.87451779999998,1.0156326,3.3309466,0.919349,-0.9865302,-0.0371526,-0.125047,-160.56115119999998,82.8457184,-178.074231,2.851513891450007,0.9998605720512834,3.601654816058213,0.9951175324592568,-109.6920022,10.1683562,-317.9487488
499.637,3.2285074,-1.7735188000000002,0.2649202,-0.9532226,-0.2283634,0.1900755999999999,-50.7012062,72.65969700000001,139.994635,0.7664326000000001,3.4872504,0.863812,-0.986079,-0.0335511999999999,-0.1263706,-160.8989382,82.7820328,-178.429709,3.693076180933212,0.998454756774527,3.6734868250732737,0.9947095082519316,-110.197732,10.122335800000002,-318.424344
519.622,3.0592886,-2.3806436,0.0054936,-0.952188,-0.2265416,0.1908822,-50.516031600000005,72.63074959999999,140.1350952,0.0615435999999999,3.5849784,0.8857108,-0.9871772,-0.035431,-0.1246554,-161.239496,82.7177278,-178.774051,3.876434040191047,0.9972056448653908,3.6932832770319903,0.9956471004879188,-110.72346439999998,10.086978200000004,-318.9091462
539.608,3.0838848,-2.8300828,-0.1359699999999999,-0.9520498,-0.231289,0.197432,-50.3126846,72.5898546,140.29261179999995,-0.0759496,3.9575874,1.0828584,-0.986472,-0.0418715999999999,-0.1257134,-161.593976,82.64611060000001,-179.13024,4.187863650529573,0.9994362500054916,4.103760310353113,0.995331149221263,-111.2812914,10.056256000000005,-319.4228518
559.593,4.0226158,-3.3660476000000004,-0.0592817999999999,-0.9526572,-0.2331728,0.1994778,-50.0637756,72.54210359999999,140.48252580000002,0.3003492,4.5558252,1.358405,-0.9843638,-0.0448839999999999,-0.1325375999999999,-161.993094,82.560698,-107.5392762,5.245496034855679,1.000857975970877,4.763508899846905,0.994259965813871,-111.9293184,10.018594400000003,-248.02180200000004
579.578,4.5044658,-4.0924798,-0.0016879999999999,-0.9517768,-0.228805,0.1964676,-49.770674,72.48879079999999,140.713501,0.655574,5.1658976,1.2789984,-0.9870906,-0.047892,-0.1298956,-162.37084059999998,82.46455560000001,-35.934402600000006,6.085935088885002,0.998413903595598,5.362099606531412,0.9967519065302658,-112.6001666,9.975764800000004,-176.6479036
599.564,3.729521,-4.6420708,-0.0813197999999999,-0.9505192,-0.2315554,0.2045519999999999,-49.4664688,72.4230254,140.9750428,1.121595,5.898724199999999,1.1216804,-0.987299,-0.0438362,-0.1279796,-162.75195319999995,82.35584879999999,35.657772800000004,5.95522972785481,0.9994729478789308,6.10828040052475,0.9965238109787442,-113.2854844,9.9328234,-105.31727
619.549,3.0615334,-5.2442616,0.170263,-0.9526406,-0.2324408,0.2136608,-49.1301574,72.35026839999999,141.2847778,1.0216532,6.903586200000001,0.2497549999999999,-0.9897868,-0.0374436,-0.1274211999999999,-163.071274,82.22509620000001,107.314618,6.074887322224102,1.0035954243267753,6.983241027053677,0.99865714579361,-113.94111660000002,9.874827799999997,-33.9701598
639.535,2.66002,-6.1183756,0.2691748,-0.954456,-0.2296436,0.2187592,-48.7524222,72.267462,141.647235,-0.4686039999999998,7.1224886,-0.4738781999999999,-0.9892348,-0.0355654,-0.1347526,-163.336786,82.08330699999999,179.05599080000002,6.677026393240512,1.0057723532398373,7.153600080685333,0.9990038290291784,-114.5843638,9.815845,37.4087558
659.521,2.1991802,-7.2551064,-0.015694,-0.9554136,-0.229784,0.2240584,-48.3433288,72.16369619999999,142.0521148,-0.6107054,7.1221616,-0.0986827999999999,-0.9887868,-0.0390012,-0.136441,-163.6266816,81.9432176,178.77510999999998,7.581108674133949,1.0078779689682278,7.14897791555685,0.9989177022841672,-115.28335280000002,9.779521399999998,36.7229952
679.506,2.4726318,-8.590545,-0.4293742,-0.9561536,-0.2325839999999999,0.236096,-47.881543,72.030658,142.505716,0.1695046000000001,7.494586000000001,0.3730834,-0.9891504,-0.0395122,-0.1437734,-163.96449280000002,81.7954042,178.429892,8.94962198190638,1.0119616322099174,7.505780595259412,1.000325206278718,-116.0829498,9.764746199999996,35.924176
699.501,2.7229214,-10.4591946,-0.8218553999999999,-0.961573,-0.231663,0.2491869999999999,-47.3424926,71.86322340000001,143.0328462,1.0903128000000002,8.1228222,0.6528674000000001,-0.992835,-0.0378142,-0.1538424,-164.341742,81.6330966,178.0263306,10.83902665970318,1.0199924219654772,8.221633556455762,1.0053948154751944,-116.9992494,9.769873199999996,34.9934844
719.477,2.066779,-12.7042422,-1.3071332,-0.966063,-0.2266974,0.2499322,-46.7467956,71.6606234,143.6308442,0.6871890000000003,7.4454446,0.952509,-0.9969052000000002,-0.034786,-0.155952,-164.7443236,81.4868304,177.60561520000002,12.937462754096885,1.023296406586381,7.537515997228209,1.0096291744432904,-117.99752800000002,9.826207,33.974771
739.462,-0.2572088,-15.0282668,-1.9534282,-0.9659054,-0.2265708,0.258434,-46.132177,71.4138826,144.29436040000002,-0.2038537999999995,6.4343,1.527309,-1.0023978,-0.0359578,-0.1527348,-165.18701460000003,81.36692380000001,177.162152,15.156874384626104,1.0252295847846955,6.616225936533263,1.014604470696202,-119.0548376,9.953041199999998,32.8677916
759.448,-2.3611794,-17.2672888,-2.1559982,-0.9667896,-0.2300226,0.2779049999999999,-45.4775702,71.1252656,145.0396912,-1.7238566,4.8644562,1.1249102,-1.0035552,-0.0374083999999999,-0.1531413999999999,-165.5395872,81.2759508,176.84030760000002,17.560830245178984,1.0319029587145876,5.282048717793698,1.0158615635171753,-120.062017,10.150685199999998,31.800616400000003
779.433,-4.3181924,-19.8985382,-2.091927,-0.9661996,-0.22948,0.2928461999999999,-44.76305979999999,70.7949188,145.8849578,-4.003517,3.5129862000000003,0.8703394,-0.9970902,-0.0436884,-0.1534772,-165.8265898,81.208719,176.6302094,20.468873116847597,1.0353558008214374,5.396916812576585,1.0097785866963311,-121.06353,10.4138002,30.7452516
799.419,-4.60299,-22.9720302,-2.1185886,-0.9622074,-0.230091,0.300659,-43.9638586,70.4156722,146.8220336,-5.752930999999999,2.103342,1.2937788,-0.9940534,-0.0460729999999999,-0.1514513999999999,-166.136804,81.1717958,176.4316956,23.524245069839367,1.0340119840585795,6.260521243718803,1.006579559668544,-122.1729454,10.7561236,29.609662
819.404,-4.482626399999999,-26.3535442,-2.310909,-0.9604688,-0.2317292,0.321978,-43.0653052,69.97476479999999,147.8578246,-5.1146194000000005,1.4114652,2.3546482,-0.9871378,-0.0367036,-0.1546335999999999,-166.574707,81.15239419999999,176.09189759999998,26.83176348564536,1.0391672485168495,5.80481987346986,0.9998498590742312,-123.5094018,11.177629399999995,28.234072999999995
839.39,-3.594547,-30.2381496,-2.4784742,-0.9635392,-0.2319308,0.3358266,-42.0540616,69.46864760000001,148.99168079999998,-5.482139800000001,1.4281776,2.3952766,-0.9857964,-0.027949,-0.1549392,-167.050592,81.1337494,175.7217286,30.551747801513,1.0464125339429189,6.150682729127992,0.9982894593005576,-124.9965304,11.665101799999997,26.730047799999998
859.375,-3.8985718,-34.628283999999994,-2.9274493999999995,-0.9649412,-0.2331724,0.3455154,-40.9707892,68.88550560000002,150.2034514,-7.904636400000001,1.7242482,2.1054574,-0.9903088,-0.0286918,-0.155139,-167.5407654,81.10848539999999,175.3858826,34.96979946831224,1.051124055103088,8.359979625251665,1.002797510998945,-126.5699762,12.222979799999996,25.18243119999999
879.361,-3.621843,-39.0514598,-3.3636834,-0.9650752,-0.2409461999999999,0.3605362,-39.8244742,68.2187012,151.47220760000002,-9.5467984,1.2472882,1.9765054,-0.9945896,-0.0265175999999999,-0.1529554,-168.0353364,81.09392840000001,175.0788392,39.36303628079394,1.058022478239437,9.828716149138248,1.0066315164582718,-128.2108622,12.875227199999998,23.606631599999996
899.346,-4.0352362,-43.2910232,-3.6819788,-0.9629732,-0.2438592,0.3773726,-38.6434822,67.4713212,152.7860808,-10.5306634,0.8802434,1.7268996,-0.993294,-0.0262345999999999,-0.1527412,-168.50289619999998,81.08513020000001,174.8189454,43.63430747446759,1.0626357666546145,10.707561922110154,1.0053114437081676,-129.859414,13.613809,22.032864599999996
919.332,-2.9282715999999995,-47.656253,-3.8574208,-0.9604272,-0.2489237999999999,0.390434,-37.4108918,66.64287420000001,154.1348694,-11.6042292,1.1699472,1.1277182,-0.9896328,-0.0415691999999999,-0.1583044,-168.8677338,81.0625426,174.6833588,47.90170059394185,1.0662186328620786,11.71745109294388,1.0030759494095352,-131.456842,14.4196684,20.5484894
939.317,-1.2692343999999998,-52.1993416,-4.025619799999999,-0.957346,-0.2495846,0.4024872,-36.1237208,65.7310838,155.51128240000003,-10.0002586,2.0594032,1.080224,-0.9858656,-0.0373926,-0.1601716,-169.2253052,81.02125240000001,174.5229432,52.36972249506184,1.0680822919780104,10.267092942854866,0.9994919355576012,-133.10158439999998,15.2901686,19.0116608
959.303,-0.3520383999999999,-56.50899819999999,-4.334741200000001,-0.9500734,-0.2493366,0.4073908,-34.827289,64.739232,156.8843292,-7.9999258,2.9356806,1.3985892000000002,-0.9823746,-0.0262392,-0.1585636,-169.63339839999998,80.96585239999999,174.27167980000002,56.67610422279971,1.063379268846144,8.63557092154761,0.9954349630120292,-134.8061094,16.2266204,17.3873506
979.288,-0.3675173999999999,-60.544798400000005,-4.8350852,-0.9460982,-0.2518054,0.4221093999999999,-33.5621656,63.6652582,158.2296386,-7.4102564,4.0924842,1.1158588,-0.9805462,-0.0257136,-0.1639538,-170.0193266,80.8837952,174.0308564,60.73866751277316,1.0661538862100348,8.538469868924293,0.9944912709993186,-136.457161,17.218537,15.8012178
999.274,1.7649386,-64.6036012,-5.2062572000000005,-0.946203,-0.2609568,0.4392674,-32.297043,62.508077400000005,159.534555,-7.2584108,5.5651216,0.5959302,-0.9806426,-0.0368722,-0.1669114,-170.325308,80.76867360000001,173.8667572,64.83706818096391,1.075339210378753,9.165709932548337,0.9954289947141184,-138.028265,18.2605962,14.332202200000006
1019.259,4.1535526,-68.7468446,-5.5850454,-0.9429372,-0.262606,0.4603684,-31.0262414,61.2650774,160.79810179999998,-5.426901000000001,7.443585999999999,0.8618438000000002,-0.9823148,-0.0368904,-0.1729632,-170.65543499999998,80.6149734,173.6409028,69.09828777746651,1.0816799610320975,9.25208094099892,0.9981079783597764,-139.6291936,19.349896,12.842801000000009
1039.245,5.7074016,-72.698114,-6.114616400000001,-0.9383442,-0.2628044,0.4818838,-29.780148399999995,59.938025,162.00736379999998,-3.7376654,8.740333,1.0501612000000002,-0.9849648,-0.033686,-0.1746904,-170.993759,80.4369352,173.3725494,73.177720283566,1.0870915265217735,9.563806885295811,1.0009031619928073,-141.21361059999998,20.4989102,11.365185600000013
1059.23,8.816821000000001,-76.65177,-6.717040800000001,-0.937399,-0.2683106,0.506827,-28.535016,58.525435,163.17622079999998,-2.6014900000000005,10.5877818,0.9209178,-0.9839454,-0.0303769999999999,-0.1846476,-171.32679739999998,80.2178998,173.0866362,77.44900782958943,1.0988999368470087,10.94152472276456,1.0015817732446612,-142.7917814,21.6924648,9.91041540000001
1079.215,12.3928164,-80.85523520000001,-7.372057,-0.933976,-0.2693408,0.5249469999999999,-27.2845838,57.025778200000005,164.3032686,-1.885946200000001,12.9577756,0.8181046000000001,-0.9809422,-0.0274519999999999,-0.190306,-171.6712524,79.9502576,172.77463360000002,82.13098186423122,1.104728467963798,13.119833714868149,0.9996087162889488,-144.38666859999998,22.924479400000003,8.47136500000001
1099.201,13.8491302,-85.1012756,-8.3199126,-0.9222004,-0.2700902,0.5470166,-26.0813916,55.4323066,165.3780032,-1.726383000000001,15.5422992,0.6485422,-0.979662,-0.0283753999999999,-0.1966216,-172.022528,79.629878,172.4521574,86.62128180600507,1.105725759206034,15.651328048130306,0.9996013461154002,-145.94113639999998,24.1975714,7.074154200000004
1119.186,15.003291999999998,-89.1046004,-9.249627,-0.9060362,-0.2796966,0.5697483999999999,-24.941969,53.74727479999999,166.391086,-2.397364800000001,17.3900638,-0.243945,-0.984687,-0.0331404,-0.1939058,-172.2859984,79.2751036,172.231729,90.83107498494154,1.1062300949913448,17.55622926813655,1.0041445281207282,-147.3440294,25.5278288,5.840643
1139.172,16.8488412,-92.774649,-9.8394958,-0.885679,-0.2837168,0.5969914000000001,-23.8397168,51.97881700000001,167.35299700000002,-2.8913822000000007,18.9250168,-1.3474486,-0.9906618,-0.0419496,-0.1966016,-172.4285858,78.88871759999999,172.1432952,94.80419096460996,1.105134039525161,19.19197669955862,1.0108524917325772,-148.588869,26.909900600000004,4.790298199999995
1159.158,17.733083799999996,-95.8660812,-10.433276,-0.863724,-0.2851854,0.6233584000000001,-22.7923744,50.1396622,168.2464966,-2.4639038000000006,20.4703166,-2.39786,-0.9898516,-0.045339,-0.199396,-172.4608154,78.4708114,172.158133,98.049074619779,1.1026901447821689,20.757032933911574,1.010752481945783,-149.668441,28.3311492,3.9116363999999977
1179.143,17.8272272,-98.599176,-11.0179594,-0.8406542,-0.283367,0.6503648,-21.8128808,48.2375268,169.0723784,-1.789893200000001,21.7308872,-3.3697866000000003,-0.992855,-0.0457918,-0.1989411999999999,-172.4007598,78.0301788,172.2533356,100.80180041477158,1.0999866879856683,22.06333242953271,1.0136249508717117,-150.58787900000002,29.792652000000004,3.1809572000000004
1199.128,18.5853512,-100.8454834,-11.493298800000002,-0.8175716,-0.2833438,0.6752274,-20.8869068,46.284063,169.8312864,-2.4736942000000006,22.7909422,-4.5417794,-0.9922478,-0.0463046,-0.2023988,-172.2718934,77.5678482,172.433078,103.18586491721187,1.0975605094188474,23.37036519776957,1.0137381746917888,-151.3849866,31.2837852,2.601791600000001
1219.114,19.7528808,-103.045993,-11.7564268,-0.796092,-0.2767072,0.7015396,-19.9944774,44.2831794,170.53496679999998,-3.5673576,23.806415,-5.607681400000001,-0.9874156,-0.0443524,-0.2103577999999999,-172.10604859999998,77.0823912,172.673889,105.57872202465238,1.0965797542194549,24.71674586353164,1.0105479239155162,-152.1115712,32.7992118,2.138922200000002
1239.099,20.4620414,-105.3470534,-11.9949252,-0.77518,-0.2713998,0.7199286,-19.1432234,42.23634560000001,171.185617,-4.4208026,24.0987642,-6.069531800000001,-0.9855504,-0.0425958,-0.2177028,-171.9412474,76.5907698,172.931961,107.9841424880124,1.0921808792219354,25.241496545699896,1.0102071580847365,-152.798024,34.3544242,1.7463439999999992
1259.085,19.8101248,-107.7061386,-12.2966106,-0.7465328,-0.2615006,0.7461170000000001,-18.3486788,40.13846960000001,171.7922486,-5.277162800000001,21.2151306,-6.907656399999999,-0.9941482,-0.0368526,-0.2179532,-171.7191038,76.16003559999999,173.2681852,110.20099803977284,1.0873749872813887,22.926969501729207,1.0184264112248071,-153.370425,36.02156599999999,1.4759366
1279.07,19.0499582,-109.8065308,-12.5027444,-0.7174734,-0.2551972,0.7752474,-17.610317000000002,37.994474,172.3579072,-6.725123400000001,15.90212,-8.0165014,-0.9968856,-0.0381296,-0.2229941999999999,-171.391336,75.83240040000001,173.7439086,112.14585918028727,1.0866932510152807,19.035992223570315,1.022233426922227,-153.781019,37.8379264,1.3860013999999978
1299.056,18.3477506,-112.0606338,-12.7619224,-0.6910605999999999,-0.2441961999999999,0.7942032,-16.9218626,35.8068414,172.8868836,-6.775521,8.421212,-9.201195,-1.00668,-0.0322357999999999,-0.218241,-170.9117796,75.6550628,174.3789246,114.2676343637214,1.080719787853003,14.194593541148334,1.0305692132421964,-153.989917,39.84822139999999,1.4920410000000004
1319.041,16.698917,-113.7956192,-13.1582976,-0.6571336000000001,-0.236807,0.8118658,-16.3056434,33.5821302,173.37437140000003,-7.666638599999999,-1.2604674000000002,-10.193395,-1.0120874,-0.0333295999999999,-0.220013,-170.2545684,75.66475519999999,175.2160738,115.76457823451206,1.0709940245900536,12.8168415421077,1.0362613027822278,-153.948925,42.08262499999999,1.8417023999999969
1339.037,14.0184086,-114.9157104,-13.596069600000002,-0.6233746,-0.2326601999999999,0.8423639999999999,-15.779741,31.328256400000004,173.8209472,-9.6464884,-10.657458,-12.2079954,-1.0076448,-0.034594,-0.2158768,-169.33825380000002,75.8503966,176.3609316,116.563241997558,1.0734541299399802,18.859249750706407,1.0310904812776034,-153.5585128,44.5221402,2.539984399999997
1359.012,13.1832062,-116.560774,-13.687679800000002,-0.6029144000000001,-0.2287242,0.859947,-15.298438,29.0479554,174.2418944,-11.3155316,-17.706704,-13.1528332,-0.9953184,-0.0451798,-0.220622,-168.2281282,76.15932000000001,105.7380252,118.0998032999976,1.0748624917644116,24.790434508520352,1.0204773385972865,-152.9296902,47.1113646,-68.50386920000001
1378.998,11.4638708,-118.6965726,-14.0280144,-0.5777172,-0.2236276,0.8704015999999999,-14.8777378,26.7309368,174.63762820000002,-12.1409302,-22.761349,-14.024386000000002,-0.9994386,-0.043791,-0.2159254,-166.931131,76.55699919999999,35.3231448,120.0711533579684,1.0683470465818492,29.36263947771162,1.0234348759037482,-152.05339320000002,49.8260624,-139.31448340000003
1398.983,9.1995324,-120.2522748,-14.319076999999998,-0.5398584000000001,-0.2245006,0.8873434,-14.527956,24.3812194,175.00943920000003,-13.645819999999995,-26.353648799999995,-14.0856434,-0.9979014,-0.0464331999999999,-0.2138627999999999,-165.5096466,77.0124206,-34.9353728,121.45071822383473,1.0626504227517537,32.850092215062425,1.0216166323078535,-150.9816906,52.6312012,-209.944812
1418.969,7.3004534,-121.5309964,-14.592146,-0.5022354000000001,-0.2276794,0.9071996,-14.2399924,22.0040348,175.36050740000002,-15.754075599999998,-27.4058786,-13.9695084,-0.9917682,-0.0586611999999999,-0.2041762,-163.9899292,77.4771256,-105.0539856,122.62141097992512,1.061644677110793,34.560385483760506,1.0142648665723957,-149.7499368,55.4730908,-280.41449300000005
1438.954,7.3996082,-123.451399,-14.462238199999998,-0.463728,-0.2270261999999999,0.9096772000000002,-13.968673999999998,19.593322,175.7044284,-15.1671806,-27.547886,-13.2885312,-0.9923314,-0.0728256,-0.2042388,-162.37071840000002,77.9301194,-175.087195,124.51569559828287,1.0459909950235138,34.13963168921694,1.0157453730471826,-148.4020444,58.3367974,-350.79162340000005
1458.94,4.4542394000000005,-124.687834,-14.5903114,-0.4099664,-0.2226411999999999,0.917379,-13.7729734,17.152035599999998,176.03624299999998,-14.9634818,-25.482187,-14.291916,-1.0038022000000002,-0.0775448,-0.1916817999999999,-160.5966156,78.3276994,-172.9696504,125.61756797117606,1.029186952262513,32.82539420681732,1.0248775366760263,-146.8236422,61.17566380000001,-349.0058934
1478.925,1.736873,-125.05648019999998,-14.4797172,-0.3566466,-0.2303836,0.9303112,-13.651320000000002,14.697545599999998,176.3595064,-16.5836598,-21.851565,-15.4038006,-1.0042246,-0.0825122,-0.1755454,-158.75799560000002,78.63860179999999,-170.75655220000002,125.90394027997334,1.0226203250894048,31.460860417921207,1.0227861447317128,-145.1066756,63.941056200000006,-347.1160586
1498.911,0.8144145999999998,-125.3638854,-14.102876599999998,-0.3154352,-0.2371769999999999,0.9316938,-13.5658214,12.2404208,176.6831972,-19.1811542,-19.0617254,-16.5173494,-1.0009612,-0.086351,-0.1681878,-156.87149060000002,78.8740876,-168.44380180000002,126.15727550212812,1.0118328081686618,31.68736156373489,1.0186593911486213,-143.3056692,66.6336668,-345.126999
1518.896,0.6480147999999997,-126.0389938,-13.8394208,-0.2748986,-0.2288364,0.937967,-13.491984400000002,9.77341,177.0096254,-19.2588108,-15.8072272,-18.679061,-1.005151,-0.0852376,-0.1680748,-154.8689636,79.01471860000001,-166.0118406,126.7981760490936,1.003851299414371,31.13964587185181,1.0226647151680752,-141.3769792,69.2413086,-343.02146600000003
1538.881,-1.2094560000000003,-125.9937896,-14.0782304,-0.231739,-0.229818,0.9373344,-13.4721054,7.306233399999999,177.32628799999998,-20.1116484,-11.8384234,-21.7646838,-1.0044776,-0.0814786,-0.159894,-152.7547668,79.042418,-163.4487118,126.78365183563882,0.9925296240759568,31.911253984713177,1.020382331479588,-139.2826614,71.7361846,-340.7749998
1558.867,-1.4644236000000004,-125.9005858,-14.4297376,-0.192726,-0.2378482,0.944218,-13.474722,4.8408456,177.6333802,-21.1089128,-9.3350206,-23.0499644,-1.0042504,-0.0936224,-0.1576192,-150.6510558,78.993602,-160.876431,126.7332607032118,0.992604004043526,32.61946762351733,1.0208466250571435,-137.1763338,74.1527564,-338.5098112
1578.853,1.1476653999999995,-126.1370178,-14.5138394,-0.1545102,-0.2339898,0.944272,-13.4364002,2.373532,177.9385438,-18.8677248,-7.192082600000001,-25.0189708,-1.0035268,-0.1023234,-0.1643474,-148.4910736,78.8648774,-158.2915068,126.97446959714723,0.9850249937905536,32.15067637150128,1.022030422439841,-135.0546734,76.4913454,-336.2300506
1598.838,2.4133612,-126.65676720000002,-14.5636922,-0.1097497999999999,-0.2276062,0.946486,-13.3832636,-0.1057486,178.2432008,-15.740749400000002,-4.371339799999999,-25.7645008,-1.0039054,-0.1205895999999999,-0.1659248,-146.37957139999995,78.658545,-155.8194336,127.51416439099228,0.9796353143259384,30.507200867891257,1.024645764658382,-132.99630779999998,78.7642936,-334.06263440000004
1618.823,2.8246606,-126.64288940000002,-14.2923218,-0.0607748,-0.2292094,0.9312852,-13.3396816,-2.5873660000000003,178.550702,-12.6049586,-1.363241,-25.5879174,-0.999857,-0.1253146,-0.1633072,-144.46349479999998,78.3907824,-153.60885320000003,127.47811814394102,0.9610008580133734,28.55669666122148,1.0208266312131555,-131.1238132,80.9781484,-332.1595552
1638.809,3.6023982,-126.6885788,-13.9096936,-0.0098626,-0.2286128,0.9254896,-13.2958192,-5.0749528,178.86509700000002,-10.4663182,1.180708,-24.7080078,-0.9920762,-0.1375788,-0.1581464,-142.78984359999998,78.0781908,-151.6881868,127.5007954767383,0.9533583182155384,26.859328686506217,1.0139789922127775,-129.4940244,83.15314359999999,-330.55328380000003
1658.808,5.3048156,-126.83418279999998,-13.0407694,0.0400178,-0.2201918,0.916845,-13.2298838,-7.567136,179.1957276,-8.0704384,3.6208856,-23.170367,-0.9961065999999998,-0.1427252,-0.1549887999999999,-141.39650260000002,77.7394182,-150.10119939999998,127.61313671263548,0.9437640632748632,24.801384949457372,1.018145554134594,-128.16661879999998,85.30655420000001,-329.296927
1678.78,5.2207572,-126.0981338,-12.4905232,0.0917944,-0.2188056,0.9023458,-13.1821324,-10.0490384,107.53370379999998,-6.8139552,5.3601952,-21.6507438,-0.979245,-0.1478256,-0.1594496,-140.2808928,77.3820908,-148.8215638,126.8227456862285,0.9330219961181836,23.322015031788062,1.0030938904113214,-127.0987604,87.4311292,-256.35526760000005
1698.765,5.611819,-124.6186874,-12.003003799999998,0.140606,-0.2135636,0.880308,-13.1417286,-12.5077242,35.8753572,-4.914747799999999,8.3222508,-20.4657012,-0.9741684,-0.1506323999999999,-0.1628823999999999,-139.44543760000002,76.9903382,-147.8659394,125.32111498869811,0.9166905875730152,22.63315112668554,0.9991120396222236,-126.303709,89.4980624,-183.7412966
1718.751,4.69607,-123.092047,-11.652038200000002,0.182448,-0.2085277999999999,0.8696802,-13.1330822,-14.93785,-35.7813078,-3.6281758,10.1950694,-18.5306764,-0.9711196,-0.1639006,-0.1662946,-138.84693299999998,76.5904312,-147.1794038,123.7314636715713,0.9127512072568734,21.45900900666289,0.9987945625471136,-125.7138508,91.5282812,-111.398096
1738.736,2.9030224,-121.3561522,-10.8228136,0.2193988,-0.2016665999999999,0.8488384,-13.1777692,-17.332873,-107.4246122,-3.4416884000000003,11.8796314,-18.1422662,-0.9627826,-0.1695158,-0.179342,-138.424048,76.1633178,-146.6747772,121.872377961804,0.8996287458232757,21.957064560505877,0.9939061798159824,-125.24627879999998,93.4961908,-39.250165
1758.722,1.8469318,-118.9305694,-9.835259,0.2575338,-0.2101528,0.8288076,-13.272167199999998,-19.6771442,-179.0482206,-2.8420198,13.7874564,-16.321853400000002,-0.962351,-0.181321,-0.192274,-138.216971,75.726271,-146.4043426,119.35084337565088,0.8929781046072967,21.55397710253457,0.9979809834450756,-124.9448038,95.4034152,32.643878
1778.707,1.3205445999999998,-116.15216819999998,-8.2310324,0.2888094,-0.2018799999999999,0.8136388,-13.3981596,-21.9589522,-178.6432982,-0.4387837999999998,17.0200672,-14.3150556,-0.9608932,-0.1842172,-0.1981638,-138.25954,75.267691,-146.4405638,116.4509334869048,0.8866648187414453,22.24401122879481,0.9982587891987328,-124.8613804,97.2266432,32.2027344
1798.693,-1.6815884000000003,-112.85846999999998,-6.8852584,0.3179326,-0.1945154,0.8030544000000001,-13.6026892,-24.1678076,-178.21551499999998,2.268879,19.2472358,-11.4127292,-0.9460116,-0.1736316,-0.2162513999999999,-138.5480532,74.8121444,-146.785156,113.0808063887178,0.8853325636952931,22.491204628698195,0.985824805863131,-124.945364,98.979952,31.430358999999992
1818.678,-4.5516706000000005,-108.9112882,-5.9723468,0.3505388,-0.198299,0.7723205999999999,-13.8898718,-26.2996502,-177.76968979999998,4.8370172,22.2683628,-9.06027,-0.9404874,-0.1687392,-0.2248793999999999,-139.0450686,74.34195539999999,-147.39945340000003,109.16984624397816,0.8710218440950834,24.522748819380336,0.9816110287276524,-125.1551968,100.6416056,30.3702364
1838.664,-5.6487648,-104.14202559999998,-5.4904118,0.3862382,-0.2022415999999999,0.7564966,-14.217325,-28.339397,-177.3177336,8.3619156,25.93796,-2.5974492,-0.9544394,-0.1767388,-0.2324848,-139.938431,73.8976012,-148.5012022,104.43952633735157,0.8731372845786394,27.37601402340567,0.9981184067678744,-125.721106,102.2369982,28.8165314
1858.649,-6.963051200000001,-99.0353498,-5.026009,0.4175254,-0.1948802,0.7357408,-14.581929399999998,-30.2799156,-176.8639922,12.8539058,30.6094852,-2.5702932,-0.9220208,-0.1656622,-0.2416646,-140.91326299999997,73.3765212,-149.7818358,99.40696835982004,0.8681130552997346,33.29819643251356,0.9674544428729654,-126.3313336,103.6564368,27.08215640000001
1878.635,-10.5659692,-93.828845,-5.0536392,0.451262,-0.195704,0.7077314,-15.0305018,-32.1251576,-176.41615280000002,15.3470122,34.6655372,-0.0309352,-0.9335416,-0.1741513999999999,-0.249878,-142.0488678,72.8179808,-151.2865264,94.55702580101148,0.8618707459973102,37.91083235459401,0.9819713050474134,-127.018366,104.9431384,25.129626400000014
1898.62,-13.2601324,-88.2792968,-4.8459798,0.4859102,-0.2068817999999999,0.6787944,-15.553162600000002,-33.8689058,-175.965808,17.90566,39.3877574,1.6182298,-0.9342112,-0.1845298,-0.2531336,-143.2834014,72.19545740000001,-152.95600879999998,89.40105634157814,0.8600410682674636,43.2969601787754,0.9853316359188108,-127.7302388,106.0643632,23.00979920000001
1918.606,-13.3807546,-82.41289359999999,-4.2871826,0.5147698,-0.2112828,0.6543720000000001,-16.09456,-35.50122459999999,-175.5099854,19.3829706,43.2958098,2.7532489999999994,-0.9219718,-0.1841761999999999,-0.2674094,-144.5911314,71.510257,-154.73910819999998,83.60209064273502,0.8589709441837251,47.51638744237867,0.9774766799520284,-128.4965714,107.01148159999998,20.7708772
1938.591,-13.4561682,-76.6150192,-3.8557986,0.5398548,-0.2142696,0.6479796,-16.6434788,-37.0158228,-175.0580842,21.3796646,48.912250400000005,-0.0558216000000002,-0.9008866,-0.173715,-0.2798824,-145.8044096,70.6894088,-156.47142019999998,77.88322548846332,0.8701909150200087,53.3807213669113,0.9592224586165192,-129.16093080000002,107.70523159999998,18.586664000000003
1958.576,-15.366765,-70.6774986,-3.7363432,0.5598134,-0.2168008,0.6307156,-17.231514999999998,-38.4145204,-174.61934820000002,21.5250954,52.7461096,1.8574076,-0.911709,-0.1811096,-0.2945894,-147.0955078,69.8165556,-158.29823600000003,72.42517887742089,0.87074439290963,56.99940151358478,0.9750881511358446,-129.8639928,108.231076,16.321112199999998
1978.568,-15.091153,-64.5314904,-3.6567456,0.5831527999999999,-0.2323466,0.6113544,-17.819173,-39.693995,-174.193628,21.4350788,55.6868574,2.9959146,-0.898663,-0.1771037999999999,-0.3066704,-148.39644479999998,68.894789,-160.1438506,66.37339783752087,0.8762455894774934,59.74499304996726,0.965923225613506,-130.5772718,108.588784,14.0497774
1998.548,-12.8982744,-58.1795846,-3.7605984,0.610284,-0.2335054,0.5926268,-18.346268,-40.8537346,-173.800699,20.1566138,55.2675436,3.988353599999999,-0.8897603999999999,-0.1744296,-0.3182778,-149.6315552,67.97853519999998,-161.9028044,59.7107330975959,0.882143897878005,58.96352618270794,0.9609370493102865,-131.2852872,108.8322698,11.8978946
2018.533,-13.2395044,-51.6647074,-4.3549486,0.6358018,-0.2359702,0.5946058,-18.8478756,-41.8906586,-173.4607942,18.9839108,53.9542648,3.1748275999999995,-0.8968166,-0.1772626,-0.3276316,-150.7141968,67.0716032,-163.4822172,53.51160663626048,0.9019323264884788,57.28464968611223,0.971104787709792,-131.86632120000002,108.9622618,9.978577
2038.519,-13.3770212,-45.5329598,-4.904285799999999,0.6546533999999999,-0.2415165999999999,0.5798728,-19.325935,-42.816761,-173.1691316,16.4863146,49.8339264,4.1795638,-0.9006862,-0.1893742,-0.3371273999999999,-151.68738100000002,66.23798819999999,-164.8993894,47.71003189625581,0.9072782408869728,52.656315320093,0.9801801376924754,-132.361446,109.0547492,8.269742200000001
2058.504,-10.7237556,-39.528753,-5.416504600000001,0.6795062000000001,-0.2552428,0.5645167999999999,-19.7284584,-43.6378356,-172.9234254,14.479325,44.8340828,5.7452724,-0.8975038,-0.1871638,-0.343005,-152.57315060000002,65.5038528,-166.186511,41.31415943699402,0.9195416142146696,47.46318560656335,0.9788747565801664,-132.8446922,109.1416884,6.736914400000001
2078.489,-7.743960800000001,-33.5114716,-6.1416176,0.7014896,-0.2496881999999999,0.5595079999999999,-20.023699200000003,-44.3557532,-172.7459718,12.67647,38.3358388,6.1958404,-0.8859788,-0.1808154,-0.355813,-153.3260894,64.8809448,-167.2937346,34.938619383343884,0.9313866319587156,40.84994328542889,0.9717281172712868,-133.3023902,109.236698,5.452237199999996
2098.475,-7.9803798,-27.5943318,-7.641253600000001,0.7155526,-0.2491785999999999,0.5625584,-20.2610352,-44.9746986,-172.6588958,10.8684416,32.2749638,6.774759,-0.8915132,-0.1815658,-0.3656598,-153.9770356,64.3678704,-168.2545288,29.724104121407127,0.9437041122487916,34.72309995682993,0.9805452640444092,-133.7160004,109.342569,4.404366999999996
2118.461,-6.2640852,-22.0285446,-9.1762112,0.7229788,-0.2579787999999999,0.5567993999999999,-20.4057366,-45.497702,-172.6588194,8.6177924,25.9132958,8.4069216,-0.8824194000000001,-0.1921758,-0.3730576,-154.57786579999998,63.97697519999999,-169.1160676,24.67181372688384,0.9483021556124608,28.573441792271748,0.9771220540545384,-134.1721292,109.4746772,3.5427517999999965
2138.446,-1.4868136,-16.6054128,-9.99557,0.7312806000000001,-0.265903,0.5431381999999999,-20.4117204,-45.9274894,-172.72581459999998,7.093565,18.3923204,9.3344028,-0.876828,-0.2030138,-0.3807776,-155.0794924,63.7243354,-169.8385194,19.438666841232934,0.9489335201396356,21.811171214268366,0.9772581671371184,-134.667772,109.6518248,2.8872951999999943
2158.432,0.7069407999999997,-11.1308062,-9.9881288,0.7437652,-0.250298,0.5368928000000001,-20.32409,-46.254773,-172.8546232,6.107072,10.1932154,8.2433138,-0.8732136,-0.210848,-0.3846754,-155.398221,63.6066124,-170.3388338,14.971884613569946,0.9508362846604456,14.462025826600213,0.9772072624034884,-135.074131,109.8613854,2.5157893999999943
2178.417,-1.8295022000000003,-5.082230999999998,-9.429781600000002,0.7504004,-0.248341,0.5270578,-20.2552346,-46.4634958,-173.0281614,4.9977052,2.5758408000000004,6.863549399999999,-0.8813068000000002,-0.2201899999999999,-0.390397,-155.5438142,63.6127174,-170.6240174,10.867241198246424,0.9500336505313904,8.872447433447665,0.9887341045171044,-135.2885796,110.0762132,2.4041439999999965
2198.402,-1.7439432000000004,1.4576639999999994,-7.9134902,0.7446876,-0.2543828,0.5198526,-20.1744126,-46.53727740000001,-173.2207396,4.1194432,-3.3237572,3.3338626000000007,-0.8758853999999999,-0.2235944,-0.3927014,-155.4729432,63.6924056,-170.648999,8.233434846236307,0.9431420657866768,6.255542665369396,0.9855881894617446,-135.2985306,110.229683,2.5717405999999983
2218.388,-0.7188154000000003,8.4523416,-5.753309799999999,0.7372076,-0.2496032,0.5120612,-20.0649856,-46.465745600000005,-173.4245574,3.6409258,-9.0788614,0.3761283999999998,-0.8730076,-0.2181991999999999,-0.3913664,-155.2101106,63.8514816,-170.4478728,10.24984623090238,0.9316563076013814,9.78894976873424,0.9812852896010212,-135.145125,110.3172272,2.9766845999999987
2238.373,-2.9772126000000005,16.446891599999997,-3.969953399999999,0.7315145999999999,-0.2372852,0.5066968,-19.9719634,-46.232885800000005,-173.66373579999998,3.2773236,-14.7181986,-1.90703,-0.8695603999999999,-0.2025579999999999,-0.386192,-154.7861298,64.095816,-170.05556940000002,17.17918997409135,0.9209557661920792,15.19878230086407,0.97278429956294,-134.8141664,110.3287018,3.608166399999999
2258.359,-7.3773224,25.233144,-2.8707814,0.7169078,-0.2317853999999999,0.5061218000000001,-19.9261436,-45.8318268,-173.9590514,2.3107245999999995,-19.5021418,-3.7342878,-0.8665759999999999,-0.1933407999999999,-0.3862088,-154.233255,64.407881,-169.4962004,26.445752546767576,0.9076566210793816,19.99044492595353,0.9682416361209012,-134.3071114,110.2397078,4.462851000000001
2278.345,-8.350207000000001,34.1176178,-2.0500602,0.6945650000000001,-0.2370949999999999,0.514753,-19.8622784,-45.254727200000005,-174.312509,0.8407180000000001,-23.2717802,-5.7585588,-0.8607606000000001,-0.1963642,-0.382179,-153.5488648,64.763626,-168.7601714,35.1843793197116,0.896440309925318,23.988404696554827,0.96204391666649,-133.68658639999998,110.0183532,5.552337600000004
2298.341,-7.848731199999999,42.4044154,-0.7380082,0.6758012,-0.2318616,0.521811,-19.7584328,-44.5086876,-174.7091734,-1.1810383999999998,-27.034259,-7.2030056,-0.85635,-0.1995468,-0.3741802,-152.75466620000003,65.1674178,-167.8608946,43.130982865787765,0.884733735762913,28.00230885221765,0.955596708848602,-132.9962334,109.6761054,6.848278800000003
2318.315,-10.6111198,50.6122124,1.2164728,0.663645,-0.2142332,0.5304254,-19.6837628,-43.596752200000005,-175.1366362,-3.119183,-30.6851436,-7.317372999999999,-0.8591293999999999,-0.203695,-0.3669638,-151.89087520000004,65.6284072,-166.845526,51.72689545590191,0.8761687365869659,31.699389394138787,0.9561680864156678,-132.2071124,109.2251594,8.291110200000002
2338.301,-15.5067946,58.9990166,3.5852310000000003,0.6466358000000001,-0.2168787999999999,0.5426406,-19.7042504,-42.5097344,-175.5748474,-5.6157494,-33.168256,-6.6608696,-0.8708996000000001,-0.2073874,-0.365539,-151.01838080000002,66.1316788,-165.7685392,61.10808882510585,0.8715693274200511,34.29339632106071,0.9670027960041896,-131.3141304,108.6414132,9.806308200000007
2358.286,-16.1705464,67.1619346,6.7465594,0.6219074,-0.2297018,0.5586162,-19.7571296,-41.2392258,-175.998056,-8.5079704,-33.1542774,-5.3360484,-0.873454,-0.2071104,-0.358556,-150.2268404,66.64195420000001,-164.7191344,69.40985588392299,0.8669393231365388,34.6419555275185,0.9666328222443928,-130.4697108,107.88118,11.2789216
2378.272,-15.4976192,74.7921264,10.322731999999998,0.6006568000000001,-0.2217597999999999,0.5706924,-19.8116648,-39.8007584,-176.4010896,-10.8661758,-33.7421504,-2.6087916,-0.8765867999999999,-0.2033037999999999,-0.3427514,-149.54531880000002,67.18921519999999,-163.7413512,77.0752694983651,0.8577038041771997,35.54451130266045,0.962920233057048,-129.73365400000003,106.9899736,12.659738399999998
2398.257,-18.8871318,82.6304016,13.4612674,0.5808792,-0.2184682,0.5805216,-19.94545,-38.1958534,-176.7946046,-11.3719504,-34.57465520000001,1.0154138,-0.8954525999999999,-0.2000245999999999,-0.3315108,-148.96599740000002,67.78814259999999,-162.8670318,85.82373061235543,0.8497966388909997,36.41097503891071,0.9755739900020703,-129.0205474,105.983996,13.927572800000002
2418.243,-21.080458,90.4587082,16.2779328,0.5486194000000001,-0.240782,0.5959437999999999,-20.1460086,-36.41597900000001,-177.17894900000002,-12.789917,-34.812738,3.7132944,-0.904333,-0.1947007999999999,-0.3134588,-148.4764192,68.42113359999999,-162.0636322,94.29811607314237,0.8450492472860975,37.2732780853067,0.9767205310154384,-128.3304106,104.8371126,15.1153168
2438.228,-19.0323062,97.2658996,19.3451658,0.510965,-0.245253,0.6153544,-20.319564,-34.4780934,-177.5519806,-15.537487199999998,-32.7515946,5.9328658,-0.897324,-0.1894168,-0.2988944,-148.158664,69.040535,-161.3892212,100.9807870048423,0.8365974556699058,36.73253808183859,0.9645760454467032,-127.8391,103.51862839999998,16.16275939999999
2458.214,-18.7753748,103.3338364,21.9948032,0.4764168000000001,-0.246331,0.6262692,-20.4992656,-32.4052742,-177.9178864,-16.041021800000003,-32.1148358,7.664646999999999,-0.903036,-0.1858759999999999,-0.2883492,-147.92182,69.6673706,-160.793161,107.30409037790297,0.8245392893924947,36.70727274646873,0.9660068145787792,-127.4225544,102.0726448,17.1247254
2478.199,-20.7315402,109.5553758,24.3426612,0.441613,-0.2608325999999999,0.6472528000000001,-20.7329372,-30.1933268,-178.2822326,-16.4614954,-29.6210198,8.2101644,-0.9365388,-0.1864388,-0.2798396,-147.76362,70.260643,-160.2747376,114.1259930079096,0.8258279930467362,34.868215386957225,0.9950751488098976,-127.03068279999998,100.4539698,18.007495
2498.185,-20.0637488,115.7562792,27.5239804,0.3983508,-0.2743982,0.678151,-20.9733338,-27.829896,-178.6315338,-20.321114,-26.7196502,6.5468542,-0.9345352,-0.1777506,-0.2654406,-147.6653656,70.78970480000001,-159.74053659999998,120.66333199111251,0.8329865009859884,34.20158886553977,0.987628486814632,-126.6920318,98.6196008,18.8909972
2518.17,-17.864851800000004,120.6694184,30.9858524,0.3455952,-0.2772334,0.6977498,-21.1903682,-25.3365752,-178.95434260000002,-21.9395954,-23.3004932,6.674749800000001,-0.9247916,-0.1797165999999999,-0.2664886,-147.6900482,71.25393360000001,-159.3043488,125.8585893603802,0.8265283925786457,32.69267677281179,0.9790575742396768,-126.49967999999998,96.5905088,19.649993800000004
2538.156,-19.2540678,125.3470308,33.606412,0.3039814,-0.2763342,0.6961223999999999,-21.4502452,-22.7361032,-179.2663206,-16.894135400000003,-22.0048698,9.1929594,-0.9383996,-0.1746276,-0.2637438,-147.7871644,71.7241378,-159.0506012,131.19446705077502,0.8083017242449504,29.22561561983825,0.990277435873584,-126.33691919999998,94.460241,20.215719400000005
2558.141,-23.2601466,130.86691760000002,35.9232154,0.2684597999999999,-0.2877554,0.7390714,-21.7964562,-20.0127036,-107.5859892,-13.7236128,-18.1977354,10.26491,-0.9735264,-0.1697331999999999,-0.2406057999999999,-147.98956619999998,72.1534546,-158.9757842,137.68682561034473,0.837317364410389,24.99726983654089,1.017081197187737,-126.19311,92.1661582,-51.38979500000001
2578.127,-23.2869944,135.984128,39.3120582,0.210181,-0.305998,0.7583038,-22.1634282,-17.1651558,-35.8931426,-14.9784556,-16.0014556,12.392911000000002,-0.9481098,-0.1508719999999999,-0.2313368,-148.4313844,72.56858220000001,-159.1237944,143.4552372554805,0.8442958497229748,25.179057896074344,0.9875177306126104,-126.2679562,89.73373799999999,-123.2306518
2598.112,-17.2982902,138.46572880000002,41.740248,0.1448884,-0.3228776,0.7630336,-22.4304314,-14.2610494,35.815896599999995,-12.172652,-12.3195736,15.5613784,-0.9388812,-0.1454983999999999,-0.229922,-149.11946440000003,72.9499344,-159.588806,145.651080322324,0.8411081189509944,23.28308072628937,0.9775130782756822,-126.689033,87.21098380000001,-195.4047026
2618.098,-16.112875000000003,140.7352784,43.5172736,0.1009898,-0.3159499999999999,0.7793490000000001,-22.6844472,-11.3093588,107.5310484,-5.988844200000001,-9.7446826,18.6368822,-0.9640592,-0.1390689999999999,-0.226472,-149.9650638,73.32119900000001,-160.3472228,148.18838155762546,0.8469995312897405,21.866834978187704,1.0000199471258762,-127.2806166,84.63055779999999,-267.87827120000003
2638.083,-18.2722702,144.07115779999998,44.5828804,0.0551542,-0.3309363999999999,0.8345743999999999,-22.988601,-8.2840774,179.22829860000002,-4.4095666,-6.2511954,18.9711172,-1.0008398,-0.1247049999999999,-0.2223078,-150.965848,73.63741300000001,-161.298175,151.9144745995424,0.8994861398364957,20.455439602828207,1.03278865225654,-127.977247,81.9214904,-340.52647360000003
2658.069,-12.4312256,146.35018,46.0671378,-0.0153825999999999,-0.3627648,0.8403756,-23.2013088,-5.2045108,178.9242002,-7.1280828,0.3178691999999998,19.876432,-0.9688094,-0.1020787999999999,-0.2247583999999999,-152.3442538,73.83679179999999,-162.581723,153.93210107393026,0.9154594876766312,21.11831324425766,0.9997640088082588,-129.142945,79.0413026,-341.50592320000004
2678.054,-2.0841568,145.4491026,46.504048,-0.084286,-0.3697925999999999,0.8530128000000001,-23.219962,-2.1448668,178.6303312,-5.5961466,4.7107012,19.0352944,-0.964536,-0.1104212,-0.2195138,-153.7630342,73.9413588,-163.9413574,152.71676933820535,0.93353175295466,20.39240043396177,0.9953435814309952,-130.5430722,76.0862256,-342.5716886
2698.04,-3.0111652,145.5967162,46.4752264,-0.1232853999999999,-0.345776,0.8554674,-23.2709924,0.9171802,178.3344878,0.2355493999999996,5.5721598,19.2182098,-0.9872712,-0.1358229999999999,-0.2302635999999999,-155.0705292,74.0180724,-165.3100342,152.86404924970518,0.930905368172254,20.01109782779027,1.0228262976495082,-131.7995368,73.1008922,-343.644522
2718.025,-8.9811592,146.9053466,45.673741,-0.1657388,-0.3573114,0.8940075999999999,-23.4524556,3.9958856,178.0079436,2.7120596,8.7382322,16.2957434,-1.0106936000000002,-0.1301013999999999,-0.2330353999999999,-156.2553436,74.0097808,-166.6020904,154.10364271222454,0.9769290533366074,18.6885853454378,1.0453389043827273,-132.802888,70.01389520000001,-344.610034
2738.012,-5.271647400000001,146.051297,47.1609022,-0.23624,-0.3840978,0.9020688,-23.5825146,7.0737166,177.705539,2.124756,15.9190664,15.0206746,-0.9643382,-0.1090551999999999,-0.2403861999999999,-157.59678960000002,73.8436934,-168.04276420000002,153.56732177781217,1.0084981792240777,21.989814199902423,0.999813345468403,-134.014275,66.76997680000001,-345.7483032
2757.996,0.909273799999999,143.0336364,47.3879576,-0.3089066,-0.3795364,0.8810432,-23.599028,10.0922756,177.4264862,3.8618338,15.0521916,12.9832618,-0.9649614,-0.1108639999999999,-0.2358978,-158.69751580000002,73.67148440000001,-169.2715576,150.68200438721993,1.0078235394724415,20.24962516268566,0.9995444472512464,-135.0984878,63.5792088,-346.69804379999994
2777.982,-2.571466800000001,142.1052184,46.4006782,-0.3391092,-0.3540109999999999,0.845947,-23.7009696,13.0917042,177.1322082,7.5647532,12.9545742,11.3158698,-1.005481,-0.1066081999999999,-0.2497352,-159.5669036,73.5234726,-170.336032,149.51096439871947,0.9777244828961992,18.790832685401888,1.0415013297097993,-135.86593399999998,60.43176840000001,-347.4682402
2797.967,-9.3090824,142.6615356,45.3791106,-0.3669489999999999,-0.35049,0.9029614,-23.9596346,16.092523399999997,176.8010436,4.985013,16.8343906,9.9048756,-1.0223744,-0.0811007999999999,-0.2360822,-160.5016814,73.3042404,-171.4135862,149.99412133056111,1.0357770506199488,20.15821475565266,1.0524075060036582,-136.5420468,57.211717,-348.2146298
2817.953,-1.9646642000000007,142.34686879999998,45.3625426,-0.4316009999999999,-0.3953832,0.8715771999999999,-24.1084356,19.0800066,176.4512878,-1.2755564000000004,28.588096200000003,13.481551200000002,-0.9452891999999998,-0.0687844,-0.2431452,-161.9718536,72.8606522,-172.922418,149.41302230301076,1.0498829047103682,31.63318686487748,0.9784797154785784,-137.863418,53.78064559999999,-349.37370580000004
2837.938,6.663209599999999,139.7909088,43.5988052,-0.4965718,-0.3741676,0.8364404000000001,-24.1039904,21.9937388,176.0816496,0.6797815999999998,26.9832734,16.315937400000003,-0.9594338,-0.0893857999999999,-0.2391688,-163.398825,72.4538346,-174.437451,146.58360194841373,1.0422175819842805,31.53995814270471,0.9928266478683578,-139.2948346,50.4600958,-350.5191006
2857.924,2.048132,139.1696594,41.4428168,-0.5194278,-0.3446012,0.8096764000000001,-24.2257984,24.883007600000003,175.66566759999998,6.0459918,24.4795152,17.2182098,-1.011718,-0.0898422,-0.2719522,-164.6904358,72.0862304,-175.92517979999997,145.22360691884705,1.0218273333451402,30.53305471107525,1.0514765482452186,-140.4646374,47.2032228,-351.59084740000003
2877.909,-4.481162800000001,139.8719422,39.4982252,-0.5519557999999999,-0.3523662,0.8700858,-24.5273034,27.7593122,175.18135379999998,4.5450244,26.5537012,17.3233564,-0.996152,-0.0653089999999999,-0.2731112,-166.0643036,71.679016,-105.4657256,145.4109721746958,1.0889749507760589,32.02897081045374,1.0349752654776054,-141.5370002,43.9197038,-280.6470794
2897.895,2.8240708,138.1445252,38.9915396,-0.6333802000000001,-0.3919028,0.8248926000000001,-24.7195226,30.5984446,174.6736268,-1.2443364000000003,28.192509,19.2060984,-0.9104102,-0.0490103999999999,-0.3095096,-167.653711,71.2290664,-35.1117766,143.56958375294963,1.111398256222602,34.13561413746542,0.962831731957542,-142.93418839999998,40.6306218,-209.7854034
2917.88,6.8472834,132.4333848,37.2644964,-0.7030445999999999,-0.3542774,0.7939022,-24.850379,33.3179468,174.164676,-0.9924974000000002,16.6531436,17.5012556,-0.9527336,-0.0633143999999999,-0.3318952,-168.8876098,70.9892928,35.6062012,137.74661299462284,1.1180630075737057,24.178630863383457,1.0108731125118324,-144.0372308,37.671346,-138.5584748
2937.865,-0.6310140000000001,128.6914474,34.7800618,-0.7295684,-0.349441,0.7702370000000001,-25.1718842,35.9553418,173.6132204,-2.9796784,6.748691400000001,12.104226399999998,-1.0138804,-0.0577159999999999,-0.3419988,-169.7393492,70.921936,106.7697754,133.30993778179845,1.1169799008614971,14.175176038494811,1.071563241886171,-144.567465,34.9665942,-66.843445
2957.851,-3.322094,125.7157394,32.712174,-0.7567372,-0.3747518,0.7835966000000001,-25.6125972,38.5131906,172.998398,-11.325976,-2.6652392,9.793482399999998,-1.0044768000000002,-0.0392101999999999,-0.3105738,-170.5267668,71.0269196,178.1766112,129.94448725990583,1.1520042243840256,15.208337511539597,1.052125071827832,-144.91416959999998,32.513729,5.178213199999999
2977.837,3.960416,122.4844466,31.9170046,-0.7925242,-0.3835166,0.748563,-25.9537272,40.99546600000001,172.3518434,-18.7583634,-11.0404208,10.4867068,-0.9568114,-0.0551575999999999,-0.3231317999999999,-171.40016780000002,71.28077859999999,177.6469696,126.6365655584426,1.1556496679488122,24.16067276374353,1.011407225690503,-145.44644060000002,30.285312600000005,5.295126199999993
2997.822,7.7222466,118.2595778,29.153169400000003,-0.8112411999999999,-0.3599569999999999,0.7173252,-26.28101,43.3769968,171.64527900000002,-15.9561194,-21.8728958,10.145475200000002,-0.9791578,-0.0796679999999999,-0.321313,-172.11579899999998,71.7448914,177.2263916,122.0445333476701,1.1411558916210702,28.91283424395694,1.0336048720346862,-145.834789,28.367894600000007,5.581112599999995
3017.807,6.2388874,115.594464,27.3610136,-0.8154540000000001,-0.3548909999999999,0.6784274,-26.6947372,45.6963342,170.8827852,-12.4513582,-30.4626016,7.5913418,-0.9946176,-0.0670863999999999,-0.3101756,-172.56621719999998,72.3706956,177.0137818,118.95221262614898,1.1185600498264543,33.77328659739021,1.0440180353471296,-145.87148,26.6743614,6.130996599999992
3037.793,6.1049302,112.9264832,25.7080374,-0.8335533999999999,-0.3551012,0.6663096,-27.175916,47.944629,170.05786460000002,-12.3162706,-36.3731844,7.314078400000001,-0.9875356,-0.0464599999999999,-0.2853298,-172.97737139999998,73.1133042,176.840622,115.97656645903324,1.1246673356798265,39.09213229960952,1.028979196891463,-145.80145539999998,25.168675200000006,6.782757399999992
3057.779,8.665054,110.1140396,24.2474352,-0.8591414,-0.3405151999999999,0.6575246,-27.6711122,50.118895,169.1711396,-10.6357638,-40.1474924,6.344483200000001,-0.966975,-0.0474553999999999,-0.2810608,-173.2591584,73.92810060000001,176.7659822,113.08458335083294,1.1342015456832,42.01420098838642,1.0081110250913836,-145.5880462,23.80920560000001,7.594842599999993
3077.764,10.162766,106.5539154,22.1399836,-0.8849170000000001,-0.3215232,0.6179844,-28.2271084,52.2122756,168.1997528,-7.558228200000002,-44.9217944,6.8418082,-0.9811604,-0.0426013999999999,-0.2679602,-173.508307,74.8401778,176.6632844,109.30323679401896,1.1262148923143398,46.06413751591072,1.017984910789035,-145.28119859999998,22.627902200000005,8.463531599999992
3097.749,9.0531522,103.39544680000002,19.328302,-0.901784,-0.3178032,0.5784198,-28.934993400000003,54.2152578,167.10003360000002,-5.346438600000001,-50.504552,5.1964026,-1.0228684,-0.0273423999999999,-0.2384912,-173.55141,75.85690460000001,176.7285584,105.5753817986523,1.117489472710271,51.05190278927477,1.05065951812838,-144.6164166,21.641646800000004,9.62852479999999
3117.735,8.5066068,101.5398774,16.595818,-0.9058342,-0.309533,0.5742860000000001,-29.7994866,56.1466672,165.84913939999998,-6.721630800000002,-55.8012896,4.8579912,-1.0431634,-0.0270839999999999,-0.1999724,-173.514682,76.989923,176.9032746,103.23822081354348,1.1163111957579928,56.41422090336669,1.062502886074819,-143.71519540000003,20.8432558,11.054135199999996
3137.72,10.864664,100.77228399999998,14.898129,-0.9127688,-0.304333,0.5509328,-30.7651844,58.02963999999999,164.44595020000003,-3.6969606000000015,-57.0699884,3.4799016000000003,-0.9924966,-0.0487765999999999,-0.1990748,-173.1633636,78.1339386,177.3338594,102.44534344766576,1.108734597303737,57.29538208965683,1.0134394080132072,-142.39817920000002,20.104298600000003,12.887909199999996
3157.706,14.3225032,99.263756,13.3962302,-0.9375478,-0.2940172,0.5078683999999999,-31.8212464,59.861327200000005,162.88415220000002,3.1808647999999984,-55.4175164,5.9066266,-0.972352,-0.0637037999999999,-0.2099464,-172.88287659999995,79.2434022,177.5508028,101.18244085172552,1.1060616180390854,55.82210371001773,0.9967969085583082,-141.0616302,19.382075,14.666650599999995
3177.691,14.613278200000002,95.75013,11.609116,-0.9650866,-0.2841468,0.4666006,-33.0125132,61.60242000000001,161.1869506,13.645151599999997,-54.040091800000006,5.5456362,-0.992631,-0.0646169999999999,-0.2009351999999999,-172.3921416,80.3263444,177.7709932,97.5520726026308,1.1089849725628207,56.01138959892141,1.0148234395445543,-139.3796284,18.7239244,16.584042599999997
3197.677,12.799465800000002,92.5984804,11.7492668,-0.9808684,-0.2740614,0.4380648,-34.34368,63.274897,159.3990722,19.6614364,-51.173642,3.5571344000000003,-0.9969602,-0.0534721999999999,-0.1918548,-171.5120542,81.3432954,178.264734,94.21438407956684,1.1086537954147633,54.93602572078792,1.0166598156905386,-137.16837420000002,18.0683984,18.8656618
3217.662,11.643695,89.051581,11.967689,-1.0050504,-0.2661354,0.4059719999999999,-35.796219,64.8760086,157.5261566,24.273357,-47.1278038,2.537974,-0.9772102,-0.0366657999999999,-0.1984889999999999,-170.3330778,82.26214759999999,106.9674196,90.60345077232604,1.116139607064152,53.07228149500848,0.9978386838535976,-134.53685879999998,17.386139,-50.55873700000001
3237.648,12.0827606,84.1692032,11.7981586,-1.0260448,-0.253085,0.3691166,-37.319111,66.38288179999999,155.5836334,23.477641,-42.1094994,3.4953098,-0.9819054000000002,-0.0234715999999999,-0.1879633999999999,-169.20163259999998,83.08175659999999,35.6366852,85.84663311621811,1.1194047584442368,48.33866730932347,1.0000096851007396,-131.8825216,16.698874800000002,-119.9469482
3257.633,10.1467882,78.08778380000001,11.8874362,-1.0297748,-0.2286116,0.3393837999999999,-38.9006898,67.778108,153.62065420000002,20.576472599999995,-38.4058198,1.6426231999999998,-0.9822208,-0.0173811999999999,-0.1711066,-167.80224600000005,83.824974,-35.3654176,79.6364893059725,1.1080978143070404,43.60156453782135,0.9971646176181944,-128.90155620000002,16.046866,-188.98607180000005
3277.619,5.512963,72.8836838,11.9416118,-1.0245888,-0.229548,0.308356,-40.6449966,69.06759919999999,151.58807380000002,17.474517199999998,-34.235927200000006,0.7229612,-0.9810802,-0.0111715999999999,-0.156615,-166.3489898,84.48421780000001,-106.24995439999998,74.06096284602066,1.0943298936451658,38.44450722162402,0.99356500627971,-125.7039932,15.416618600000003,-257.8380282
3297.604,4.041260199999999,67.4038628,11.8746544,-1.0246132,-0.230607,0.2909484,-42.4539138,70.24417539999999,149.51950700000003,13.9586426,-29.3119196,0.6137286,-0.9739532,-0.0102003999999999,-0.1538308,-164.9226562,85.03762040000001,-177.09228839999997,68.5610670970396,1.089799417106561,32.47166451948309,0.9860795094610982,-122.4687424,14.793445000000006,-326.6117954
3317.59,4.0523466,61.5291892,11.0514808,-1.0175358,-0.231589,0.2811082,-44.273889,71.29232160000001,147.4382874,10.851125799999998,-23.4437758,1.026736,-0.9717756,-0.0119371999999999,-0.1375208,-163.7201416,85.4790634,-176.09840119999998,62.6450146815267,1.0807563968396765,25.85366012195928,0.9815305822702826,-119.4462526,14.186741800000002,-323.5366886
3337.575,3.4904332000000005,55.2590676,9.7696184,-1.0048251999999998,-0.2346668,0.279653,-46.071971,72.2004364,145.3960724,8.592837,-18.7556064,0.9470846000000002,-0.9699034,-0.0138339999999999,-0.1203018,-162.61531359999998,85.8323502,-175.1584474,56.22448861151741,1.0690874566593136,20.65203593788872,0.9774336335377456,-116.5433426,13.631913799999998,-320.5545198
3357.561,3.3872528,48.6436302,7.459694199999999,-1.0000198,-0.2668406,0.2919274,-47.861695000000005,72.9568864,143.383487,8.317294799999999,-15.1580814,0.4801566,-0.985401,-0.0289163999999999,-0.0959404,-161.2992888,86.1193696,-174.0028688,49.32872670283487,1.075390679274821,17.296686817990796,0.9904826345484912,-113.4375938,13.162483199999995,-317.3863558
3377.546,5.2414938,41.373933,5.3151798,-1.0008782,-0.3002684,0.3172678,-49.5096946,73.5656176,141.4938294,9.083306399999998,-13.3962982,-3.1234672,-1.0065806,-0.0670829999999999,-0.0687506,-158.7067442,86.34669199999999,-171.58495799999997,42.0419638629103,1.0920518028878667,16.484031908761885,1.0111534394866686,-109.1970496,12.781074399999998,-313.0787874
3397.532,8.604844600000002,34.378893,3.0656168,-0.9930298,-0.3249558,0.3335362,-50.9464248,74.03546639999999,139.7645386,14.004473199999998,-14.2378458,-4.971114,-1.02485,-0.0971361999999999,-0.0325982,-154.7131224,86.5687532,-167.8637788,35.571753412785824,1.0967911616858153,20.580415375669457,1.029959031463718,-103.7666976,12.533286799999996,-307.6283174
3417.517,12.1390862,28.4433146,0.9909968,-0.9817914,-0.3227946,0.3305972,-52.1509118,74.3828616,138.21009220000002,21.8565014,-16.396526799999997,-7.1162848,-1.0226566,-0.0973919999999999,-0.0219808,-149.1575468,86.79121860000001,-162.73592839999998,30.941261025743827,1.0850830454628622,28.23462863056695,1.027518797276332,-97.006635,12.408357,-300.9460206
3437.502,12.795238,23.8046526,-1.3261142,-0.9815174,-0.3115536,0.2999819999999999,-53.263131,74.6389834,136.743271,29.1587958,-16.8914592,-7.8374404,-1.0205072000000002,-0.0848355999999999,-0.0366268,-142.871826,86.9945556,-157.0231996,27.05805203178478,1.0725815831440142,34.59743109589084,1.0246821686539882,-89.608695,12.3555722,-293.7664706
3457.488,13.8181882,19.6097242,-2.9589906,-0.990128,-0.2841412,0.2456604,-54.243547,74.8209978,135.3956758,32.93577559999999,-17.2265124,-8.485042400000001,-1.0171666,-0.0618719999999999,-0.0543093999999999,-136.025035,87.16968820000001,-150.8244508,24.17104122088192,1.0589800328852286,38.124978536003226,1.0204927963821793,-81.781488,12.3486904,-286.2201266
3477.474,14.0599926,15.9578376,-4.246930600000001,-0.9929766,-0.2364768,0.1856512,-55.0880264,74.9436936,134.18707279999998,32.714377199999994,-15.694653399999998,-7.4882282,-1.0020884,-0.0213035999999999,-0.0726298,-129.7696166,87.2973158,-145.2143678,21.68807027610444,1.0374922520902217,37.04897005997989,1.0049428305309511,-74.6815902,12.3536222,-279.4014406
3497.459,9.79423,13.0477114,-5.4844116,-0.9965742,-0.1865596,0.1310174,-55.913624600000006,75.02458179999999,133.08950499999997,26.651362,-12.7503456,-6.2163238,-0.9933952,0.0130828,-0.0871156,-124.8987288,87.3769652,-140.8694582,17.2118704581694,1.0223160859345608,30.191208835701325,0.9972934928105366,-68.9851042,12.3523834,-273.9589632
3517.444,2.1810098000000004,10.8977322,-5.9916044,-0.9947826,-0.1707812,0.0894612,-56.8382468,75.088243,132.05082099999998,15.975272399999998,-8.7527194,-5.633190600000001,-0.9879372,0.0176406,-0.0882182,-121.5453642,87.393228,-137.8312318,12.626032398846132,1.013292625968254,19.067046480387734,0.9920249758566766,-64.70711740000002,12.304985,-269.8820528
3537.43,-3.357431,9.2950894,-5.543277600000001,-0.9872106,-0.1646679999999999,0.0685012,-57.7887198,75.14511859999999,131.0998016,7.3932433999999985,-4.05376,-5.9909594,-0.9725116,0.0003046,-0.0903366,-119.7607786,87.332611,-136.1922608,11.331326331211857,1.0031912745722025,10.343336630009288,0.97669831893747,-61.9720588,12.1874924,-267.2920624
3557.415,-10.135345,8.3034734,-5.2439948,-0.970469,-0.1520328,0.0678998,-58.7833412,75.1960738,130.2388336,4.748092199999999,3.5120070000000005,-5.689598,-0.9648898,-0.0110505999999999,-0.1028396,-120.4009046,87.17496179999999,-136.9278534,14.112844158282185,0.9846493970327104,8.200615715259058,0.9704176550499068,-61.61756340000001,11.978888,-267.166687
3577.401,-17.8061042,7.5416984,-5.1133712,-0.964957,-0.1492278,0.0659926,-59.870591000000005,75.23865959999999,129.43575140000002,3.6336573999999984,11.6704738,-5.2059838,-0.954142,0.0016716,-0.1161006,-123.1558348,86.9202468,-139.75931400000002,20.002028061344426,0.9786551851375438,13.285544480484178,0.9611810962201244,-63.2852438,11.6815872,-269.19506540000003
3597.386,-23.087895,5.409724199999999,-4.7579084,-0.9692714,-0.1488844,0.0869692,-60.860112,75.259053,128.83380440000002,1.8103071999999991,18.7201068,-4.9293452,-0.949239,0.0185206,-0.1221624,-127.4491194,86.5760176,-144.095645,24.185816169686756,0.9844883204842808,19.442686410641432,0.9572467517412216,-66.58900739999999,11.3169646,-272.9294494
3617.377,-21.5077652,1.0584548000000005,-4.782105,-0.9789792,-0.1634312,0.1251424,-61.4665658,75.2197358,128.58520819999998,0.6364547999999989,24.243115,-3.5755166000000003,-0.9611684,0.0095732,-0.1122564,-132.735385,86.1744186,-149.40468140000002,22.05839565093072,1.0003852515125562,24.513629241149577,0.9677488510237354,-71.2688192,10.9546828,-277.9898896
3637.357,-13.0889068,-4.7130738,-4.330231,-0.983761,-0.180273,0.171512,-61.4426782,75.1114548,128.8120394,2.4520523999999986,26.8415116,-1.6675344000000003,-0.991315,-0.0142707999999999,-0.073738,-137.9125884,85.7600204,-154.6445374,14.569950115792905,1.01474155615802,27.00481395826425,0.9941561132949088,-76.46991019999999,10.6485656,-283.45657680000005
3657.343,-0.3966391999999999,-9.9804554,-3.3182106,-0.987673,-0.1975432,0.2100358,-60.7469086,74.94928139999999,129.47423120000002,5.614280199999999,26.491387600000003,1.2324099999999998,-1.0115728000000002,-0.0336127999999999,-0.0387656,-142.395764,85.373796,-159.25672,10.525081198371732,1.028900533616773,27.10779580758358,1.0128732012285844,-81.64885539999999,10.4245146,-288.73095120000005
3677.328,13.7556368,-14.2175324,-2.1688604,-0.9893396,-0.2123618,0.2345938,-59.4464652,74.7501024,130.4776492,11.684795,23.364206000000003,6.0322488,-1.0215128,-0.0539077999999999,-0.0268108,-146.4224456,85.06796560000001,-163.53524480000002,19.901249376691208,1.0387129676796376,26.81060577061925,1.023285527338934,-86.9759804,10.3178632,-294.012894
3697.314,25.54369,-17.076631,-1.170297,-0.9883468,-0.2337425999999999,0.2260062,-57.7690786,74.5278888,131.6445346,18.2146796,23.4779122,9.5773852,-1.0022753999999998,-0.0733069999999999,-0.0699945999999999,-150.1908936,84.764273,-167.68865060000002,30.74834987758644,1.040453652289923,31.22039752262524,1.0073872828874304,-92.421815,10.2363842,-299.3331852
3717.299,32.0893034,-20.3026228,-0.3406858,-0.9929624,-0.2421186,0.2130116,-55.837533400000005,74.2765872,132.9590944,25.6318666,26.888218,10.3643872,-0.9769188,-0.0768792,-0.140066,-153.7330354,84.37897319999999,-99.76557,37.97414847064583,1.044016133023949,38.56668736937674,0.9898985996262848,-97.895502,10.102386,-232.7246644
3737.284,29.3059348,-25.7368552,-0.6002210000000001,-1.0040572,-0.2506696,0.2133847999999999,-53.78057160000001,73.9412112,134.4709566,26.2333002,32.6429994,8.680853,-0.9687734,-0.0633855999999999,-0.1822957999999999,-157.07102979999996,83.84576999999999,-31.650711,39.0074838375466,1.0566452489397942,42.768079896335415,0.9878114159760252,-103.29045820000002,9.904558799999998,-166.1216676
3757.27,21.142183600000003,-33.4810272,-1.3789282,-1.0180674,-0.26486,0.2202829999999999,-51.643241,73.4774218,136.24443379999997,19.563769,37.927734,5.509301,-0.9732398,-0.0452065999999999,-0.1898034,-160.0058626,83.1788512,37.0013886,39.62161724013804,1.0747728367574982,43.03029701697071,0.9926049947683924,-108.3626216,9.7014294,-99.2430452
3777.255,12.581598,-42.243159000000006,-2.6917316,-1.0280283999999995,-0.2753894,0.260071,-49.3954476,72.852257,138.3133546,11.653408,42.7882348,2.735361,-0.9927938,-0.0394781999999999,-0.1869628,-162.4412934,82.3911652,106.3100038,44.15910449204472,1.0955905429857995,44.43103819532823,1.0110158980834674,-113.0458458,9.5389082,-32.00335079999998
3797.241,6.098769000000002,-51.0371184,-4.7869838,-1.0303998,-0.2849614,0.3198438,-47.0490442,72.0431138,140.6178192,8.572022800000001,42.2387738,0.5479580000000002,-1.0204232000000002,-0.0530621999999999,-0.148326,-164.09555659999998,81.5941452,176.4626618,51.62264669495784,1.115897308773724,43.1032927394306,1.0325113589898565,-117.0465124,9.5510314,35.84484260000001
3817.227,3.1429432000000017,-59.0194702,-7.0268068,-1.0239382,-0.28225,0.3858914,-44.6737496,71.0660936,143.0136628,7.6516008,40.410452,0.4413124000000001,-1.027774,-0.0549145999999999,-0.1155368,-165.3350768,80.82414859999999,175.04892260000003,59.51934112917952,1.1300560483945916,41.13084465800889,1.0357044754771507,-120.6613272,9.758055000000002,32.03525980000001
3837.212,3.0984818000000014,-65.9344436,-9.0030466,-1.0163668,-0.274192,0.4245972,-42.3331368,69.9284136,145.3752808,8.156234399999999,36.8297146,1.4475582,-1.0165194000000002,-0.0448911999999999,-0.1220158,-166.3914336,80.13142559999999,173.809201,66.6183630119225,1.135105945387513,37.74980081864783,1.0247998662487423,-124.05829680000002,10.203012,28.433920200000006
3857.198,4.980230400000002,-73.18574579999999,-11.1250702,-1.0112872,-0.2749008,0.4619807999999999,-40.0565124,68.618178,147.63320919999998,10.5130694,33.880141200000004,2.9990546,-0.9945732,-0.0389589999999999,-0.1528988,-167.3674498,79.4911484,172.60248719999998,74.19382231759076,1.145294071534957,35.600321970944805,1.0070112694904063,-127.3109374,10.872970400000003,24.969278000000003
3877.183,7.774244000000001,-81.75711040000002,-12.7061248,-1.0069278,-0.2758257999999999,0.4907656,-37.8068892,67.1241754,149.8199738,9.957188,31.739470400000005,2.222606,-0.9824862,-0.0316257999999999,-0.1661374,-168.1102324,78.8857132,171.6429168,83.10300583109195,1.1536179352375897,33.3388594821577,0.9969357853416838,-130.30334320000003,11.761537800000005,21.822943
3897.168,10.678999200000002,-91.2331144,-14.4568798,-1.0040676,-0.283046,0.5199182,-35.5910414,65.4302324,151.9276276,6.319798400000001,31.817199800000004,1.5835988000000003,-0.9783102,-0.0168343999999999,-0.1807071999999999,-168.83273000000003,78.2743318,170.7783324,92.98668485642844,1.1655821370358248,32.477405070127205,0.9950021791831614,-133.2416886,12.8440994,18.850704799999995
3917.154,13.900798600000002,-100.6348736,-16.1645556,-1.0059344,-0.2933434,0.5405925999999999,-33.4172084,63.5266938,153.9536774,1.2406522000000009,31.0958462,0.316307,-0.9894826,-0.0172413999999999,-0.1808704,-169.4539122,77.67881799999999,170.11945799999998,102.86837630657554,1.179065191837025,31.12219334966076,1.0060254386310914,-136.0367038,14.152124199999998,16.165780599999994
3937.139,17.753030000000003,-109.352165,-17.984367600000002,-1.0046366,-0.2969564,0.5714045999999999,-31.337091800000003,61.43320620000001,155.8387298,-2.4195579999999994,31.0128522,-0.4164581999999999,-0.9919848,-0.0220555999999999,-0.1908599999999999,-170.0130858,77.08152480000001,169.59729,112.23414606232836,1.193306757904974,31.10988106577645,1.010419631896768,-138.675994,15.6483186,13.758560199999994
3957.125,20.5222308,-117.0660276,-19.5977122,-0.9996018,-0.3014447999999999,0.5923698,-29.3958458,59.1739326,157.560797,-4.333821799999998,31.6865116,-1.7006785999999998,-0.9870872,-0.0347595999999999,-0.2039415999999999,-170.4252258,76.4622468,169.2623442,120.45616255935794,1.2004060587827436,32.02669724576026,1.0085343555906066,-141.02938,17.288314199999995,11.701547199999991
3977.11,23.0095208,-124.4135726,-21.0585172,-0.9912442,-0.307815,0.6144812,-27.601676200000004,56.7564292,159.10886820000002,-4.449743999999999,33.8928326,-2.8443058,-0.9789632,-0.0499127999999999,-0.222458,-170.7076844,75.7889374,169.0604308,128.26393195752186,1.206193302672536,34.301813345668364,1.005160582355914,-143.1060082,19.0325082,9.951562599999994
3997.096,25.8564968,-131.71048879999998,-21.896171,-0.978726,-0.3052858,0.6440274,-25.906857,54.18927,160.52496620000002,-3.8760955999999984,35.475069,-4.3928646,-0.9791174,-0.0540657999999999,-0.230131,-170.85441899999998,75.0817078,168.9859588,135.9987264321419,1.2107333706098962,35.955554467272975,1.0072508480380644,-144.947562,20.8924378,8.460992599999997
4017.081,27.760198600000003,-138.5275208,-22.5300348,-0.9608986,-0.3052954,0.669719,-24.3235856,51.4845298,161.8045134,-5.653155399999999,36.7593666,-5.7239168000000005,-0.9827536,-0.0402717999999999,-0.2385006,-170.9854616,74.3493378,168.9671234,143.06678550032177,1.2103945388608293,37.62940900868717,1.01208151469561,-146.661876,22.864808,7.162609999999996
4037.067,28.8324974,-144.65569139999997,-23.0508024,-0.9384002,-0.3021742,0.6942906,-22.859298,48.6568374,162.95347900000002,-8.3017644,35.146587999999994,-7.437889199999999,-0.9951914,-0.0347145999999999,-0.2424658,-171.0458102,73.6509766,169.0782958,149.29139778305003,1.205795844972954,36.87172542675929,1.0248905747721364,-148.1865122,24.994139200000003,6.124816799999996
4057.052,29.8021726,-150.0409454,-23.6681874,-0.9067872,-0.2957486,0.728103,-21.4997098,45.717195200000006,163.983017,-11.5350912,29.4317482,-9.4611902,-1.005536,-0.0354663999999999,-0.237839,-170.9787538,73.06976180000001,169.39029839999998,154.79224102973473,1.199943431622841,32.99697336273581,1.0338896956377697,-149.479044,27.3525666,5.407281399999993
4077.038,32.0717134,-154.8655334,-24.0671662,-0.8739234,-0.2949616,0.7675438,-20.2124974,42.6761186,164.8997314,-15.9213878,18.198458,-11.2270898,-1.0141726,-0.0401293999999999,-0.238003,-170.7679474,72.7106752,169.9444518,159.97236237730775,1.1999449735136023,26.65936999317532,1.0424978941677148,-150.55545,30.0345566,5.044720399999994
4097.023,33.6718988,-159.74213259999996,-23.959875,-0.8415609999999999,-0.2827326,0.797447,-18.988862200000003,39.5418122,165.7267182,-19.0232158,2.9979507999999995,-12.1495704,-1.0225202000000002,-0.0436111999999999,-0.2371308,-170.393399,72.65159,170.7348724,165.00127668114885,1.1933500566190791,22.770211006425612,1.0505619983999612,-151.40453680000002,33.1097778,5.0081541999999954
4117.009,31.80892,-164.2378448,-24.147822400000003,-0.8000767999999999,-0.265589,0.8247450000000001,-17.888448,36.3193688,166.467871,-20.377120999999995,-14.710138,-13.5232962,-1.0395325999999998,-0.0468751999999999,-0.2296414,-169.7273832,72.9392288,171.8567626,169.0236503651996,1.179349277289913,28.5393545887187,1.06562680307496,-151.83893519999998,36.61986,5.388891599999994
4136.994,30.7480886,-168.04219059999997,-24.243046,-0.7540858,-0.2644218,0.8466836000000001,-16.8925744,33.0221962,167.12845439999998,-22.6652226,-31.2809662,-15.6374404,-1.0331854,-0.0502287999999999,-0.22465,-168.6900968,73.5361466,173.4098358,172.54375692431844,1.1642325371616449,41.674221098619775,1.0585190719219943,-151.7975224,40.513950400000006,6.281381399999992
4156.98,29.9458016,-171.7445558,-23.8039434,-0.7045931999999999,-0.2496995999999999,0.8767086000000001,-15.968076,29.6545894,167.73628820000002,-25.1948772,-44.1679582,-17.5876248,-1.0355904,-0.0549773999999999,-0.2102599999999999,-167.2524046,74.367424,103.4250428,175.95332108771427,1.152136900303241,53.8044135251524,1.0581489775466024,-151.28432859999998,44.71283460000001,-64.31124539999999
4176.965,25.5890694,-174.7526886,-23.7996324,-0.6480634000000001,-0.2399152,0.8956206,-15.1887202,26.2287658,168.2859618,-28.3416,-52.9747292,-20.5140536,-1.035816,-0.0561895999999999,-0.1995508,-165.3104522,75.3347396,34.0187654,178.21258414618683,1.1312301855745186,63.4853890235935,1.0563581678506586,-150.121732,49.10597380000001,-134.26719640000002
4196.951,24.2923508,-176.8850982,-23.74592,-0.5917662,-0.2450756,0.9077304,-14.493330600000002,22.7534588,168.7799162,-32.33437,-55.41139,-23.7729352,-1.0245314,-0.0560635999999999,-0.1873998,-162.878894,76.30235580000002,-34.8099028,180.11753104365022,1.110956238679976,68.41846295447158,1.0430371047431437,-148.38556340000002,53.54889700000001,-203.589819
4216.936,23.1579004,-178.7098572,-22.8289442,-0.5360982,-0.2293072,0.9105596,-13.8632082,19.2290804,169.24355459999998,-36.0573398,-54.726340400000005,-25.3743768,-1.0077176,-0.0652685999999999,-0.1786312,-160.05082099999998,77.2067122,-103.1659574,181.64432857831653,1.081250136262299,70.27775668743072,1.0255066343564825,-146.1876128,57.9776318,-272.409512
4236.922,17.729582999999998,-180.0487122,-22.4926482,-0.4740483999999999,-0.2213922,0.9266678,-13.378992200000004,15.6736914,169.6747618,-39.2447814,-52.056526,-24.2328964,-1.018186,-0.0818715999999999,-0.1587676,-157.02736220000003,78.03161,-171.2687224,182.31235860819004,1.0641661540005112,69.55047112892619,1.033737316871322,-143.64836999999997,62.35791859999999,-340.9434842
4256.907,14.8249414,-180.7660034,-21.5980602,-0.4105411999999999,-0.2256192,0.9233094,-12.9903742,12.109557,170.09020679999998,-40.1414054,-48.4993756,-23.9088256,-1.0181688,-0.0936801999999999,-0.1597254,-153.7615266,78.7393234,-167.1158476,182.654326740773,1.035349384717275,67.34355056461041,1.0348699863125994,-140.7711524,66.6297664,-337.2060544
4276.893,13.1697982,-181.1468354,-20.5917308,-0.346984,-0.211814,0.9164148,-12.6580986,8.5443856,170.49927359999998,-38.000334200000005,-44.0692196,-25.468096,-1.0221234,-0.1086065999999999,-0.1454407999999999,-150.0569732,79.2903488,-162.5706968,182.78850876738147,1.0025363596952683,63.51964601074167,1.0381159206445876,-137.3988746,70.7459632,-333.0699704
4296.878,7.937629200000001,-180.4997164,-19.8299662,-0.2795481999999999,-0.2030863999999999,0.9041716,-12.4562748,4.984070600000001,170.89964600000002,-33.951773,-39.329583,-27.4861738,-1.0286962000000002,-0.1209991999999999,-0.1398423999999999,-146.0309082,79.66870120000002,-157.78843680000003,181.75912944688707,0.9679450212872424,58.77949250343375,1.0451854261961562,-133.57463339999998,74.6846306,-328.6880828
4316.864,4.6264856000000005,-178.8535066,-19.682466400000003,-0.2149969999999999,-0.2090764,0.902969,-12.3462962,1.4603370000000002,171.2841034,-28.854345,-34.9241842,-30.8028402,-1.0303448,-0.1311138,-0.135162,-141.6808532,79.862262,-152.7847596,179.9927239521375,0.9514671124148012,54.78217622367051,1.0474110948817947,-129.334557,78.401925,-324.068863
4336.849,5.7821782,-176.95364999999998,-18.80128,-0.1589252,-0.2027066,0.8757870000000001,-12.233621,-2.0308068,171.6709198,-21.4740756,-30.8902682,-35.464575,-1.0158508,-0.129087,-0.1421366,-137.0122938,79.8615096,-147.6065674,178.0435788302893,0.9128800875512624,51.70184399296674,1.0338370831466628,-124.7786728,81.8923164,-319.2774872
4356.834,4.7152822,-174.57174679999997,-18.7514262,-0.103301,-0.1934069999999999,0.8628952,-12.162485,-5.479772199999999,172.04403380000002,-16.7588628,-26.7813282,-38.3487036,-1.0135322,-0.1315791999999999,-0.1342024,-132.3599226,79.69830299999998,-142.5389192,175.63924576119936,0.8903176345737739,49.68623642726416,1.0308107927622994,-120.1974376,85.1780752,-314.582953
4376.82,4.6280758,-171.0496764,-18.2763534,-0.0441516,-0.1970814,0.8460830000000001,-12.1201418,-8.8612572,172.4114044,-13.2437466,-20.4632842,-38.6999594,-0.9988314,-0.1302431999999999,-0.1393388,-128.3411666,79.38172899999999,-138.1819856,172.085548422164,0.8698545193867306,45.73652459267789,1.0168789298425058,-116.2210248,88.24298619999999,-310.59339
4396.805,5.826083000000001,-167.2774352,-17.2971416,0.0116078,-0.1835732,0.8302108,-12.0747798,-12.1482232,172.7822754,-10.291532999999998,-18.198543800000003,-36.074605000000005,-0.9860188,-0.1413057999999999,-0.1370385999999999,-124.8292342,79.02568039999998,-134.3961426,168.27024299543734,0.8503433619519353,41.695080930927965,1.0054750026515031,-112.7544544,91.1739036,-307.178418
4416.791,7.714652200000001,-162.8932098,-16.0257498,0.0662857999999999,-0.183279,0.8077916,-12.0188886,-15.333518799999998,173.1626892,-6.764778799999999,-13.127867,-30.772859800000003,-0.9756658,-0.1583429999999999,-0.144594,-122.182025,78.65753620000001,-131.5585174,163.86133868050138,0.8309706782752326,34.13315139938114,0.998951291993078,-110.1631364,93.991055,-304.7212066
4436.776,7.918283200000002,-157.9906982,-14.7364566,0.1187334,-0.1715964,0.7997685999999999,-11.9757826,-18.407639,173.54876099999998,-2.454359399999998,-6.645480999999999,-25.4984512,-0.9661598,-0.154075,-0.1455738,-120.4418654,78.2932754,-129.7295044,158.87392196229868,0.8265426536570754,26.46426479962198,0.9891388153376048,-108.4660828,96.7009144,-303.2782654
4456.762,7.343923399999999,-152.445163,-13.635837,0.167412,-0.1686985999999999,0.777363,-11.9631124,-21.3713948,173.93832700000002,1.9982794000000017,-0.3359905999999998,-21.1299836,-0.9580814,-0.1537046,-0.1529952,-119.4785292,77.9301056,-128.7810242,153.22988280257937,0.8128832813848247,21.226921990246765,0.9823200111522518,-107.5154168,99.3015004,-302.7193512
4476.748,7.6131686,-147.1041414,-12.746588,0.207798,-0.1597324,0.7629178,-11.9587986,-24.2327326,174.32826519999998,5.360392400000001,6.1188802,-16.1770838,-0.9436064,-0.1522773999999999,-0.1520558,-119.2453856,77.5873474,-128.64711,147.85149393497844,0.8066833442997321,18.107251085025364,0.9678338757169848,-107.286587,101.82008,-302.97537520000003
4496.733,7.1786604,-141.64570020000002,-12.3452046,0.246454,-0.1581545999999999,0.7399872,-11.979797,-26.9891538,174.7114316,9.1153448,15.534501,-10.7199302,-0.931497,-0.1513503999999999,-0.1685302,-119.9478576,77.23793040000001,-129.5465332,142.36376514725464,0.7958225353563443,20.960132051939944,0.9586428077762854,-107.9680606,104.2270842,-304.2579648
4516.718,6.2588534000000005,-136.3947892,-12.1626776,0.2888812,-0.1579792,0.7209378,-12.0347252,-29.648000000000003,175.0879606,13.385235400000004,24.2302096,-5.949182400000001,-0.9310428,-0.1535972,-0.1795104,-121.375621,76.8714814,-131.27893679999997,137.07896444457356,0.7925661403409308,28.31360724460617,0.9605502480286182,-109.3408958,106.5194814,-306.3668974
4536.704,7.1977462,-131.0154068,-11.7281506,0.3373714,-0.1648569999999999,0.6950644,-12.0952376,-32.2126078,175.46671740000002,16.0373224,34.319335,-2.699805,-0.9247788,-0.1649689999999999,-0.1846237999999999,-123.4724564,76.4289308,-133.75765080000002,131.73607662984875,0.790007475999006,37.977643576738565,0.9573487073250164,-111.3772188,108.6415386,-309.2243682
4556.691,8.7277096,-125.601419,-10.7265746,0.3840886,-0.167138,0.6724566000000001,-12.1511916,-34.6757192,175.8598328,20.1783216,44.5586704,2.0266936,-0.9178874,-0.1809401999999999,-0.2002107999999999,-126.2043656,75.9115572,-136.98135080000003,126.36039241916296,0.792248094082605,48.95658543400615,0.9567345501712792,-114.05317399999998,110.5872764,-312.8411836
4576.675,9.189546,-120.0904646,-9.6557478,0.4326667999999999,-0.1673728,0.6438754,-12.2235142,-37.0363862,176.26804520000002,27.139801,55.2514308,7.0740158,-0.928061,-0.1916722,-0.217916,-129.41298840000002,75.2953066,-140.8500338,120.82798065476048,0.7935929338944746,61.96233616726728,0.972379984897797,-117.1894742,112.3316928,-317.118079
4596.66,8.2020884,-114.1062498,-8.695806600000001,0.4888847999999999,-0.1704977999999999,0.6223112000000001,-12.339154,-39.2945726,176.6884402,31.8660068,67.17578799999998,8.7983722,-0.9323204,-0.1921701999999999,-0.224635,-132.92289440000002,74.4962754,-145.142728,114.73067397154963,0.8095363346517066,74.8694880186069,0.9780652315920446,-120.58374039999998,113.790848,-321.8311682
4616.646,7.213759400000001,-107.7125928,-8.0368916,0.5378640000000001,-0.1748945999999999,0.5995994,-12.4920966,-41.438492,177.1140382,34.5128168,77.88968799999999,9.6028018,-0.9273294,-0.1922738,-0.2335505999999999,-136.5304322,73.4948228,-149.61196919999998,108.25263321956584,0.8242604224912901,85.73302644032688,0.9754255035783922,-124.03833559999998,114.9333148,-326.7260074
4636.631,8.184728400000001,-101.4616988,-7.5305366,0.5812456,-0.184754,0.5770822000000001,-12.6469926,-43.4675774,177.54632580000003,36.4946732,84.8914084,12.3277764,-0.928467,-0.2069114,-0.2497799999999999,-140.0557954,72.354538,-154.06232319999998,102.06946205328812,0.8396453737097586,93.22224231951722,0.983490389347532,-127.4088028,115.8221154,-331.608649
4656.617,9.6872252,-95.7497482,-7.009827200000001,0.6257134,-0.177531,0.5583356,-12.7779712,-45.3927224,177.97646799999998,36.730158200000005,89.56866,13.0591938,-0.9217252,-0.1993006,-0.2616862,-143.347284,71.0925338,-158.298163,96.49349351025062,0.8571891023151893,97.68414363804692,0.978661198140521,-130.56931279999998,116.4852562,-336.274631
4676.602,8.8319624,-89.82370599999999,-6.744596200000001,0.6704068000000001,-0.1769576,0.5260998,-12.929199,-47.2083694,178.3978638,34.2442774,88.37834480000001,12.8308624,-0.9179012,-0.1924686,-0.2756968,-146.207138,69.79339279999999,-162.0533142,90.50851505416772,0.8703678930452571,95.64535218275677,0.977545651352222,-133.277939,117.0017622,-340.451178
4696.588,9.512061,-83.1967696,-6.9386998,0.7122607999999999,-0.1852884,0.4907696,-13.0461016,-48.89177840000001,178.78461599999997,29.65963740000001,80.57714920000001,13.427441800000002,-0.9109784,-0.1953904,-0.2917892,-148.5884918,68.5843428,-165.22842099999997,84.02575397613356,0.8845914529743998,86.90608297001383,0.976319615144221,-135.5423902,117.4761212,-344.013037
4716.573,11.79546,-76.2751006,-7.2870376,0.7501099999999999,-0.1779984,0.4613394,-13.074818,-50.4412244,179.1164338,26.7150184,70.0373458,13.9754954,-0.9016744,-0.1912463999999999,-0.3024012,-150.48757940000002,67.52708100000001,-167.8470734,77.52499445427607,0.8984333500571535,76.25114088652404,0.9700713349490128,-137.4127614,117.9683054,-346.9635072
4736.558,9.3946544,-68.8567098,-8.2527818,0.7819528,-0.161909,0.4412074,-13.0873038,-51.859126,179.3666566,23.7498192,57.9781144,13.2529134,-0.8953758,-0.1876176,-0.3138316,-151.92912900000002,66.64825880000001,-169.92592159999998,69.98295809134726,0.912320489479218,64.04026370183118,0.9671548274262812,-138.84182520000002,118.5073848,-349.29257820000004
4756.544,4.305924000000001,-59.821105,-9.6919252,0.8101578,-0.1576936,0.4009938,-13.1169506,-53.1034124,179.508371,20.1190966,43.889043400000006,13.2211388,-0.8931134000000001,-0.1882995999999999,-0.3238514,-153.0024262,66.00208119999999,-171.5385864,60.75392167586547,0.9176159109454456,50.05821300981569,0.9684978130598334,-139.8854756,119.1054936,-351.0469574
4776.529,1.0679894000000012,-49.3444148,-11.2929266,0.8328306,-0.1626364,0.3738751999999999,-13.104785,-54.1426176,179.51804199999998,16.912668800000002,29.9266526,12.4550226,-0.8778637999999999,-0.1939757999999999,-0.329654,-153.7424836,65.58551320000001,-172.72569579999998,50.63143356163204,0.9272756181828355,36.56187207660586,0.9575715232044444,-140.6376986,119.7281308,-352.2437378
4796.515,-1.331096799999999,-38.721152800000006,-12.4031146,0.8400690000000001,-0.1504438,0.3680169999999999,-13.0459228,-54.9846724,179.4099122,15.520032600000002,19.0452752,11.1764052,-0.8718492,-0.2003392,-0.336003,-154.2052062,65.34569239999999,-173.5831756,40.68091376349175,0.929400760710061,26.990849422413238,0.9555913554476516,-141.1592834,120.3303648,-352.9930878
4816.5,-6.591724599999999,-27.9972128,-12.7968296,0.8427018000000001,-0.1405962,0.3604764,-13.013577000000002,-55.6300606,179.2050476,11.956790200000004,9.4517552,9.4616054,-0.8678248,-0.201722,-0.3430862,-154.4718626,65.2589294,-174.1487518,31.48100388459944,0.9272846651027074,17.939411500739155,0.954735455196611,-141.4582856,120.88899,-353.3537994
4836.486,-9.058380799999998,-16.7798912,-12.277732,0.8447378000000001,-0.1461252,0.3441102,-12.9630904,-56.0376648,178.9219116,8.204693600000002,2.1434542,8.077945,-0.8667076,-0.195428,-0.347423,-154.625781,65.2909148,-174.5064452,22.679543965112483,0.9237674786264778,11.711728668322351,0.953979511316024,-141.6626906,121.32857959999998,-353.4283568
4856.472,-10.740339799999996,-5.3599654,-11.4039526,0.8456241999999999,-0.1375186,0.3461994,-12.8933334,-56.2164268,178.57584219999998,6.120450200000002,-2.966722,6.162277399999999,-0.8600863999999999,-0.1949358,-0.3522474,-154.6533658,65.393959,-174.6785978,16.557000423135463,0.924037703522946,9.177963435888966,0.9496456246376118,-141.7600324,121.6103858,-353.25444000000005
4876.457,-14.1511694,5.842397,-10.4631462,0.8362282000000001,-0.134602,0.3582438,-12.8516418,-56.1791642,178.1786956,4.827584800000002,-6.520948,4.789479200000001,-0.8656050000000001,-0.1993202,-0.3533342,-154.58107879999997,65.5480286,-174.7132994,18.54364113370618,0.9196379293600716,9.42164788278185,0.9559527263639558,-141.72943700000002,121.72719279999998,-352.891995
4896.443,-17.140537000000002,16.6687496,-9.2106638,0.82786,-0.136655,0.3630415999999999,-12.843696,-55.930739,177.74651780000002,3.700416200000003,-8.949721199999999,2.6923894,-0.8727224,-0.1998574,-0.34828,-154.39718,65.73003539999999,-174.6012816,25.621895900040258,0.9142351841597216,10.05184312910743,0.9606697279484347,-141.55348399999997,121.6607744,-352.34779940000004
4916.428,-18.2696234,27.4135992,-7.4829348,0.8245191999999999,-0.1389004,0.3601328,-12.841378,-55.4593186,177.29227580000003,2.575292800000003,-13.0210468,0.0560155999999999,-0.8698917999999999,-0.1987769999999999,-0.3421594,-154.0448028,65.962024,-174.28040460000005,33.78281920587918,0.9103959940183391,13.273391824283852,0.9556657859547968,-141.2034248,121.4213426,-351.5726804
4936.414,-21.9485236,38.2853264,-5.7561072,0.8196508,-0.1277914,0.3691184,-12.8982454,-54.7726716,176.8175992,1.3879606000000029,-19.1506274,-2.571161,-0.8727454,-0.1987852,-0.3403276,-153.4781402,66.2779084,-173.699527,44.504344460649975,0.9079683194215314,19.372243889872543,0.9576131600400865,-140.57989479999998,121.05058,-350.5171262
4956.399,-25.045855,48.9717864,-3.919190200000001,0.8020208,-0.1373448,0.3885452,-13.0148046,-53.8813934,176.333032,-1.252671199999997,-24.8277558,-4.7678968,-0.8764602,-0.1962333999999999,-0.3310242,-152.7395752,66.6749786,-172.87457899999998,55.14427230195377,0.9017030166095265,25.312437320321276,0.9572183922414154,-139.7247706,120.556372,-349.207611
4976.385,-24.4484982,58.704225,-1.4477946,0.7824530000000001,-0.1341334,0.4011695999999999,-13.138772,-52.7964186,175.8646238,-4.098787199999997,-30.4693872,-5.474197800000001,-0.8702909999999999,-0.1956505999999999,-0.3237316,-151.87947079999998,67.15956099999998,-171.8572816,63.60826366353523,0.8894726045071428,31.227399097714372,0.9489403199358324,-138.74069879999996,119.9559796,-347.7219054
4996.37,-24.7166658,67.74857560000001,1.3525218,0.7658404,-0.1228166,0.415789,-13.283316000000005,-51.524925,175.41445600000003,-6.174985599999997,-36.1015172,-4.511176799999999,-0.8643668,-0.1922847999999999,-0.3181204,-150.943994,67.7445938,-170.71487740000003,72.12913682637054,0.8800431398679953,36.90258402094576,0.940905945432082,-137.66067800000002,119.2695188,-346.1293334
5016.356,-26.8332986,76.713485,4.133978399999999,0.7421892,-0.1229024,0.4326814,-13.494445,-50.0675574,174.988278,-8.357526599999996,-40.146029,-2.3227136,-0.8872436,-0.1810142,-0.308763,-150.01418440000003,68.4219024,-169.53312999999997,81.3761296205076,0.867849642754066,41.07245906694866,0.9567141352105132,-136.5197394,118.4894598,-344.521408
5036.341,-26.0264554,85.4199554,6.623177199999999,0.7113956,-0.1313768,0.4584591999999999,-13.7117694,-48.4365142,174.5800474,-10.906367199999996,-41.5532502,1.6306486,-0.8919506,-0.1775068,-0.2914469999999999,-149.2169768,69.16140279999999,-168.4434786,89.54223381985051,0.8564627261838311,42.99163247123465,0.955000466332661,-135.50520740000002,117.597917,-343.023526
5056.327,-23.113402200000003,93.0038086,9.573394,0.6845929999999999,-0.1279246,0.4799293999999999,-13.8961638,-46.6365478,174.200772,-12.667018399999996,-43.3432802,4.3000004,-0.8982582000000001,-0.1820442,-0.2826925999999999,-148.44971600000002,69.9498306,-167.3551912,96.30985228959516,0.8457922368516513,45.36059189518641,0.9591261599579276,-134.5535522,116.58637840000002,-341.55596320000006
5076.312,-22.5232492,100.5113892,12.7080192,0.6606018,-0.129464,0.4976056,-14.1005294,-44.67585,173.85645140000003,-14.454834799999997,-44.8549088,5.4655816,-0.920831,-0.1756856,-0.2665108,-147.644287,70.77590640000001,-166.19496180000002,103.78501753830729,0.8371182703839404,47.442361606246656,0.9745887169083172,-133.5437576,115.4517564,-340.0514132
5096.297,-22.6998902,108.3713822,15.9364452,0.6303084,-0.142444,0.5144810000000001,-14.346204600000002,-42.5443628,173.55007619999998,-18.0180832,-45.4830466,6.8344814,-0.9317024,-0.1723405999999999,-0.2510704,-146.8675232,71.6241164,-164.9960482,111.86425604563388,0.825996169245088,49.39705442864828,0.9802076261335044,-132.5213186,114.1684792,-338.54612439999994
5116.283,-22.6180058,115.845372,19.1989068,0.5938122,-0.1453386,0.5447742,-14.6139032,-40.2494446,173.2715362,-20.7092204,-44.3414702,7.970434399999999,-0.9268786,-0.1742619999999999,-0.2389764,-146.1521118,72.4572768,-163.81112080000003,119.58395553962204,0.8188499047471642,49.58392495152,0.9729238940117156,-131.53820860000002,112.7067214,-337.082657
5136.269,-23.8979072,122.580925,22.8756598,0.5511988,-0.1555226,0.5796068000000001,-14.9400632,-37.7921936,173.0327056,-22.5351742,-42.3907584,4.849913,-0.9503782,-0.1814778,-0.2349462,-145.2907502,73.2140746,-162.4404604,126.96648752202596,0.8148321537828758,48.25279401298006,0.995666928155455,-130.35068700000002,111.0062682,-335.473166
5156.254,-25.3244034,129.04865260000005,27.278346,0.499264,-0.1764512,0.604724,-15.341308,-35.176741400000004,172.850244,-24.826927199999997,-38.0893438,-0.3690758000000002,-0.9659126,-0.1667645999999999,-0.220886,-144.276233,73.8387312,-160.8664552,134.30930089140193,0.8037976635033471,45.46768789211569,1.0047826668727522,-128.934925,109.0154726,-333.7166992
5176.24,-25.751958,135.38735960000002,31.7774934,0.4454394,-0.1867776,0.636518,-15.780024,-32.397734,172.710971,-28.226149799999995,-32.608911,0.5627782000000001,-0.9519142,-0.1554517999999999,-0.2173174,-143.5506836,74.3775556,-159.5241608,141.43093567915236,0.7990352277954458,43.13204526150314,0.9887025632755484,-127.7706596,106.7752896,-332.2351318
5196.225,-26.2136196,141.0738922,36.195183,0.391343,-0.1844668,0.6619522,-16.2435692,-29.471327,172.6081146,-27.369461599999998,-27.7210792,2.8833134,-0.9657476,-0.1475853999999999,-0.2094806,-143.107376,74.8657668,-158.49385379999998,147.98340510136336,0.7907958390356388,39.06224720173133,0.9991656514188624,-126.8638068,104.3370938,-331.10196840000003
5216.21,-29.4781628,146.24420479999998,39.7365446,0.3338164,-0.1951198,0.7149593999999999,-16.7859378,-26.4144546,172.5245026,-28.0337072,-20.9978116,1.5408778,-0.9904244,-0.1401352,-0.1977052,-142.86404720000002,75.23434599999999,-157.65814519999998,154.38692462898348,0.8128173650392565,35.05953701575306,1.0196399916153935,-126.0781094,101.6488006,-330.18264780000004
5236.196,-29.3002676,151.2135132,43.7652602,0.2715534,-0.2298636,0.7201232,-17.339094199999998,-23.2439636,172.4632966,-30.171730199999995,-14.9173786,3.690534200000001,-0.9740652,-0.1192642,-0.1840651999999999,-143.07008660000002,75.5366012,-157.2426208,160.12317213973714,0.8032160026012679,33.85973316845097,0.9984522828376524,-125.73099240000002,98.7805648,-329.7059174
5256.182,-24.7364924,155.1971192,46.497992,0.2142248,-0.2337768,0.7390064,-17.798285200000002,-19.9805574,172.40126960000003,-28.515500799999995,-10.497101400000002,11.1005566,-0.9527926,-0.1244374,-0.1812286,-143.8764038,75.84915459999999,-157.483844,163.89052176458017,0.8041606284780671,32.350352092465485,0.9778252454255209,-126.0781186,95.829712,-329.8851136
5276.167,-24.3711506,157.8420868,48.6873124,0.1567306,-0.220238,0.7617117999999999,-18.2526814,-16.655797800000002,172.3406708,-22.279428,-7.21238,12.5576316,-0.9832922,-0.1347818,-0.1841238,-144.7970002,76.12149819999999,-157.9733154,166.96865494960966,0.8082537496848375,26.57226841413624,1.009421248992966,-126.5443188,92.777296,-330.3139862
5296.152,-28.8607978,160.64028,50.0991478,0.0935374,-0.250198,0.8300995999999999,-18.8029546,-13.2702298,172.26459960000005,-21.432612,0.8734392,12.4265426,-1.0091096,-0.1158892,-0.188788,-146.1242952,76.2568298,-158.8966308,170.7283509509101,0.8720169896985493,24.789891370642497,1.0331376483474015,-127.32134059999998,89.5270596,-331.1612304
5316.138,-21.6247592,162.9215056,53.4859054,0.019497,-0.3044814,0.8183518,-19.220454,-9.8244552,172.2103332,-20.611338599999996,8.2141646,15.4567542,-0.9854686,-0.1062602,-0.1867118,-147.95999160000002,76.29288160000002,-160.36011639999998,172.83457198687583,0.8733777673596917,27.04091398897161,1.0086133490834035,-128.7395376,86.1173368,-332.5704496
5336.123,-12.3195902,162.9240386,54.6807678,-0.048,-0.2777678,0.8485248000000001,-19.4556996,-6.3710744,172.16148379999998,-13.045702599999997,12.3194262,18.2023988,-0.980838,-0.1141947999999999,-0.188844,-149.9724428,76.2714964,-162.1636106,172.29625945918775,0.894121516871102,25.55945892031235,1.0053584887626106,-130.5167432,82.6425708,-334.3250944
5356.109,-15.784864399999998,163.40175159999998,55.20348799999999,-0.1058138,-0.2665732,0.8655144,-19.7662194,-2.9130932,172.1049866,-5.329757999999996,13.889463799999998,18.0974516,-1.0172599999999998,-0.1123831999999999,-0.2118718,-151.9100222,76.2070922,-164.04859900000002,173.19561038733235,0.9117965824875852,23.427361767907563,1.0451495351754598,-132.1438028,79.1201854,-336.15358560000004
5376.094,-19.804304,164.79721060000003,55.314083,-0.1592006,-0.3030558,0.909347,-20.1604758,0.5760023999999999,172.01919560000002,-4.105490599999997,20.5356618,16.7231314,-1.024663,-0.0729521999999999,-0.1942999999999999,-153.9688388,76.0105696,-166.0837644,174.95707718350826,0.9716478865118784,26.799842955740125,1.0454706007601742,-133.808363,75.43456719999999,-338.10296
5396.08,-11.090178599999998,165.17235720000002,56.410572,-0.2264129999999999,-0.341413,0.8788541999999999,-20.3899438,4.075165,171.930481,-6.948260199999996,26.061382,17.593926,-0.9725366,-0.0722593999999999,-0.1879968,-156.21058979999998,75.6968048,-168.2532804,174.8915443289111,0.9696444647372768,32.20279776122416,0.9931725207828496,-135.820646,71.6216398,-340.1837614
5416.065,-3.657632399999998,163.85238640000003,54.74288320000001,-0.2944444,-0.3158696,0.8839157999999999,-20.477675,7.5353808,171.81133119999998,-3.758104399999996,25.0946068,17.9777554,-0.9661308,-0.0847731999999999,-0.211437,-158.2554994,75.3691682,-170.2904752,172.79399892588077,0.9837572110969046,31.09762576709249,0.9926232029908832,-137.7778244,67.8337874,-342.1018064
5436.051,-6.720386399999998,162.74076839999998,53.4668134,-0.3519808,-0.3077106,0.8814332,-20.6350964,10.965773,171.66798699999998,-2.371671399999996,23.175174,15.2693892,-1.008914,-0.0714146,-0.2411731999999999,-160.0074556,75.0418902,-172.0534788,171.4305148680892,0.997747855414002,27.854402914098348,1.0397942185295128,-139.3723592,64.0761172,-343.7214658
5456.036,-7.844099799999998,162.757782,51.5760298,-0.3980114,-0.339534,0.9093238,-20.8359838,14.387420600000002,171.4747528,-8.878105999999997,32.1689984,14.628653600000002,-1.015189,-0.0408203999999999,-0.2182312,-161.9997956,74.5435014,-173.9324064,170.91434215174093,1.0490787315222818,36.43710650360744,1.039182307119689,-141.16381180000002,60.156080800000005,-345.4071592
5476.022,2.2387808000000016,161.9455476,50.4539252,-0.4672951999999999,-0.3732786,0.8829502,-20.860428,17.777166799999996,171.2519104,-15.817987799999996,35.8394996,16.9173586,-0.9600252,-0.0543275999999999,-0.238517,-164.2263458,73.966321,-175.91494740000002,169.63776435399492,1.0664439848585767,42.67171770177927,0.9907018885849568,-143.36591779999998,56.1891542,-347.1668578
5496.007,8.388812400000003,158.7340486,47.5452972,-0.532635,-0.334451,0.8736697999999998,-20.7836482,21.088740800000004,170.9957794,-11.866549599999995,29.4593436,15.8150518,-0.9778732,-0.0733138,-0.2680228,-166.0118378,73.4753236,-105.5295226,165.91391033986838,1.076501943360085,35.479343119466066,1.0165860169550436,-145.2281896,52.386582800000006,-276.525302
5516.007,1.4309648000000017,156.3204682,44.8630174,-0.5710637999999999,-0.3220734,0.8487212,-20.8745514,24.3408082,170.698407,-9.498749399999998,22.8501082,12.6914018,-1.041653,-0.0613489999999999,-0.2762588,-167.4065674,73.10048220000002,-34.78747559999999,162.6371014521556,1.0724611013866376,27.81052614685222,1.0794089108338136,-146.532016,48.759674,-205.4858826
5535.978,-3.743670999999998,156.1915894,41.961162,-0.603353,-0.3429765999999999,0.8777138000000001,-21.1130052,27.5703134,170.32505500000002,-15.291440999999995,21.579057,10.6975006,-1.017898,-0.0444067999999999,-0.2586186,-168.76237780000002,72.7489364,36.1164764,161.77319551843152,1.1189500906952912,28.529290000852285,1.0511764278921971,-147.64937260000002,45.178623,-134.2085786
5555.964,3.9194656000000014,154.2010742,40.7087236,-0.6693684,-0.3620678,0.8419474000000001,-21.237848,30.747288399999995,169.91554259999998,-19.1894012,13.080744200000002,11.3307434,-0.942477,-0.0588769999999999,-0.2820146,-170.0263212,72.53440400000001,107.1932068,159.53223395967564,1.1349108207617726,25.840370222522715,0.9855260682859486,-148.7884732,41.78711560000001,-62.7223358
5575.949,5.097309200000001,149.42530200000002,38.1368394,-0.7297990000000001,-0.3224614,0.8106774,-21.3738204,33.8317138,169.47195119999998,-13.301112199999997,-0.1437510000000003,9.829764,-0.9915926,-0.0793259999999999,-0.3042323999999999,-170.8655424,72.5641312,178.5870912,154.29945546985255,1.1374470456956316,16.53978568188493,1.040243169581286,-149.491722,38.7324174,9.115139999999997
5595.935,-2.9078061999999987,146.4872008,35.4752294,-0.7564096,-0.3177276,0.7767412,-21.727968,36.8465046,168.9616944,-8.029703199999997,-13.1531754,5.623966,-1.0458028,-0.0521839999999999,-0.2944087999999999,-171.2470182,72.85049140000001,178.353769,150.74961769801908,1.1297934335759612,16.404607589101648,1.0877054784551192,-149.51905019999998,36.0039868,9.392074599999995
5615.92,-6.192975399999999,145.3275452,32.7068666,-0.7827444,-0.3295334,0.8019130000000001,-22.2353322,39.8078134,168.34576120000003,-9.352197199999996,-21.7478588,5.0291234000000005,-0.9859694,-0.0313253999999999,-0.281794,-171.56647619999998,73.30113080000001,178.21566779999998,149.0912051764062,1.168052018112173,24.20175689954869,1.0259263116118622,-149.331144,33.4933174,9.86990659999999
5635.906,0.1098154000000011,142.2523286,31.4135184,-0.8322402,-0.3345492,0.7489916,-22.6902226,42.699914,167.6636384,-7.572493799999997,-28.114487,8.0695956,-0.9276996,-0.0578703999999999,-0.3110308,-171.9834104,73.8746462,177.9380952,145.67960114515552,1.1685612241501255,30.213993691197903,0.9801610528810866,-149.2931878,31.1747322,10.27445679999999
5655.891,-0.8992623999999989,136.6720492,28.499662,-0.8825644,-0.310501,0.7097988,-23.249804,45.472432000000005,166.89840399999997,2.965358200000003,-34.9420824,6.5867346,-0.9595976,-0.0767315999999999,-0.3311962,-172.05426319999998,74.58442099999999,177.8041352,139.61478589141453,1.1743700982355605,35.680912886213186,1.0180403799745668,-148.8044592,29.111989,10.905731199999993
5675.877,-6.289106599999998,130.9891818,26.2466094,-0.912985,-0.3057174,0.6755774,-23.9854324,48.1103012,166.0669312,8.697481600000003,-38.699480400000006,7.4592434,-0.98588,-0.0463425999999999,-0.3123624,-172.1277892,75.3783846,177.5553864,133.74080572306937,1.1761843232582725,40.360082773859205,1.0352184696519473,-148.1423568,27.2680834,11.488455199999994
5695.862,-8.884090999999998,125.339017,24.2969122,-0.943452,-0.3192203999999999,0.663943,-24.8624218,50.6155364,165.15211779999998,9.214061600000004,-40.8872804,8.4634708,-0.9948918,-0.0360575999999999,-0.2687064,-172.2088164,76.2154116,177.2853088,127.9809993627065,1.197006118334054,42.75861278922963,1.0311706811318675,-147.3463946,25.599875200000003,12.133190999999991
5715.848,-6.934569399999998,119.55992299999998,22.6176884,-0.960788,-0.3199334,0.6417166,-25.801725800000003,52.9882528,164.1459716,8.261137400000003,-39.700480000000006,6.7429852,-0.97743,-0.0435803999999999,-0.2608728,-172.1247924,77.0203112,177.20112619999998,121.8779031206594,1.1988624425242125,41.10769213638122,1.0125824776007135,-146.3230666,24.032058400000004,13.055154599999993
5735.833,-6.204268999999999,114.4584366,20.307291,-0.966519,-0.3211894,0.5973852,-26.8661958,55.2339544,163.0037078,10.937760400000004,-41.40110980000001,6.326988399999999,-1.000228,-0.0598067999999999,-0.2442289999999999,-171.963565,77.86218740000001,177.1433228,116.41139433276824,1.180758521126314,43.28645605097741,1.0313489757357786,-145.0973692,22.628233,14.139614999999996
5755.819,-9.105200999999996,109.6859924,18.1908286,-0.955469,-0.3055982,0.5676602,-28.1184266,57.3530906,161.7331878,13.477536600000002,-43.9077318,6.3722732,-1.0309202,-0.0484557999999999,-0.200163,-171.7111846,78.7609698,177.1273652,111.55638869727647,1.152627161083878,46.36958885261448,1.0512895176356891,-143.592758,21.407879200000004,15.3941774
5775.804,-11.792931199999998,106.58844,16.1323158,-0.9479214,-0.3157236,0.5501731999999999,-29.6006342,59.369024,160.284378,16.042629000000005,-45.61003040000001,2.7858678,-1.0137992,-0.0473651999999999,-0.1650012,-170.9871154,79.6916598,177.5404144,108.44547192479943,1.1405818349303831,48.42934934231145,1.0282303613943329,-141.3864812,20.3226358,17.2560364
5795.789,-8.724601799999999,103.7958558,14.525731400000002,-0.9534124,-0.3099114,0.5280511999999999,-31.197536000000003,61.291678000000005,158.657486,19.37621380000001,-43.227645,3.2721824,-0.9765152,-0.0614435999999999,-0.1656494,-170.127304,80.5787752,178.021521,105.1698399282223,1.1330835583244336,47.48446199682803,0.9923693745437532,-138.929768,19.2870972,19.364034999999998
5815.775,-7.660822399999999,100.2742708,12.8075444,-0.9742144,-0.2988228,0.479369,-32.9735492,63.108288,156.83179920000003,25.1649902,-43.348619,4.495860800000001,-1.0017058,-0.0782837999999999,-0.1534358,-168.99165939999995,81.46778279999998,106.6596466,101.37874914336852,1.1261364931162652,50.32486726565937,1.016408091180762,-136.0181102,18.3594948,-50.1721526
5835.76,-11.2501744,95.6690356,11.1348098,-0.990456,-0.2789634,0.4497866,-35.008905600000006,64.800374,154.8096648,32.61667920000001,-44.4540656,2.4339492,-1.0139998,-0.0546521999999999,-0.1299874,-167.17322380000002,82.3628176,35.83672800000001,96.96965909987856,1.1230011807719171,55.18999745527261,1.0237573841119,-132.1643182,17.5624436,-118.9729368
5855.746,-13.705895199999995,91.8412264,10.637150000000002,-1.000679,-0.2768612,0.4214036,-37.2784936,66.39003,152.59310900000003,34.389009800000004,-42.3084296,0.7486632,-0.997584,-0.0327527999999999,-0.1378155999999999,-165.05752560000002,83.1940736,-34.72002260000001,93.46556258864514,1.120531828731072,54.526761382184496,1.0075910492690971,-127.779032,16.8040436,-187.3131316
5875.731,-13.420002399999998,87.0645266,10.0608326,-1.0186776,-0.2648232,0.391935,-39.6896186,67.86580040000001,150.222885,31.48715540000001,-38.4385798,1.9284624,-0.986927,-0.0301043999999999,-0.1454627999999999,-163.06533800000005,83.9411728,-105.343811,88.66537435269382,1.123142210151947,49.72609314487648,0.9980433880409209,-123.3757194,16.0753724,-255.566696
5895.717,-15.1966556,80.68449559999999,9.5952126,-1.0299948,-0.2557497999999999,0.3553148,-42.2279058,69.2062866,147.7603728,25.091301400000003,-33.7605708,-0.5877307999999999,-0.9793204,-0.0275191999999999,-0.1461094,-160.53549500000003,84.57050480000001,-175.3005676,82.6619276117526,1.119171950741315,42.0677426798815,0.9905421288330748,-118.3075892,15.364218200000003,-323.0609404
5915.702,-16.9662504,73.2254668,10.0686298,-1.0305066000000005,-0.2394714,0.3137222,-44.8080662,70.412262,145.2997406,20.5520682,-29.4309226,-1.9458974,-0.9844852,-0.0297101999999999,-0.1269896,-157.5088838,85.09791720000001,-172.6701112,75.83666624241107,1.1034998970703895,35.949314723315226,0.9930861813111892,-112.7008176,14.685655200000005,-317.9698518
5935.688,-20.5276672,66.5202154,10.3176678,-1.024504,-0.2480673999999999,0.2951164,-47.4849202,71.478032,142.8325074,14.624108400000004,-25.3494738,-1.874576,-0.999808,-0.0291743999999999,-0.105351,-154.38197340000002,85.5434554,-169.8218752,70.37597918585224,1.0946412976439908,29.325320179183265,1.0057663822580074,-106.8970532,14.065423400000004,-312.6543826
5955.673,-18.8714556,59.6120368,10.7175664,-1.025397,-0.2735888,0.3099564,-50.097112800000005,72.41986560000001,140.4226106,9.542509600000002,-24.3645034,-3.1230446,-1.0133451999999998,-0.0345341999999999,-0.064009,-150.4639496,85.9635712,-166.081,63.43967999167189,1.105605177717344,26.35226599304684,1.0159518971947834,-100.36683680000002,13.5437056,-306.50361060000006
5975.659,-9.501349199999998,52.58319300000001,10.4205796,-1.0113272,-0.3006845999999999,0.3239122,-52.434114,73.238161,138.1274508,8.459942400000003,-23.509132800000003,-3.732103,-1.00405,-0.0482839999999999,-0.025366,-145.5530884,86.3608232,-161.3256624,54.44131061882627,1.103681587889297,25.262195930321717,1.0055302984554966,-93.1189744,13.122662200000002,-299.4531132
5995.645,3.500170600000002,46.5158202,10.193077,-0.985014,-0.3119962,0.3165837999999999,-54.39520639999999,73.9476138,135.975049,11.1714522,-23.046811400000003,-3.1545414000000003,-0.9987722,-0.0727285999999999,-0.0130374,-139.6032516,86.710965,-155.5880036,47.74800039620258,1.0806569813927451,25.80519310930203,1.0015015379666472,-85.20804519999999,12.763351200000002,-291.5630526
6015.63,13.3329296,41.277494,9.0156566,-0.9745346,-0.3210688,0.2947024,-56.10630200000001,74.5507662,133.8971102,15.847238200000003,-22.199323400000004,-2.436818,-0.9942052,-0.0719079999999999,-0.0292978,-133.2727034,87.008464,-149.5648162,44.304408206946135,1.0675450180186126,27.383991673064227,0.9972327217133824,-77.1664014,12.4576978,-283.4619264
6035.616,22.5167034,35.9141338,6.935448799999999,-0.9807062,-0.3362806,0.2546984,-57.6093262,75.04061440000001,131.8651628,18.624478600000003,-20.843214,-2.9818924000000004,-0.9942692,-0.0737299999999999,-0.0463394,-126.5399702,87.24122320000001,-143.1963042,42.95261794891314,1.0675863279460636,28.11053993179128,0.9980754956219494,-68.930644,12.2006088,-275.061467
6055.601,29.8367072,30.9549372,4.1276894,-0.9834806,-0.3166004,0.1961872,-58.8817414,75.414589,129.9321794,20.510812200000004,-17.274012200000005,-3.3542336,-0.9904276,-0.0766015999999999,-0.064046,-120.4713576,87.3794388,-137.53218979999997,43.19114554370314,1.051646005697906,27.024725671739706,0.995447902243166,-61.5896162,11.9648498,-267.4643692
6075.586,27.064331400000004,27.0858038,1.5929116,-0.9837002,-0.2651306,0.1421193999999999,-60.10257419999999,75.70318920000001,128.11111,20.533572600000007,-13.372765800000002,-4.253434400000001,-0.9970408,-0.0594909999999999,-0.0838182,-115.2891632,87.4313126,-132.75687699999995,38.32305010025344,1.0286681886754154,24.870668930614315,1.0023248109255205,-55.186589000000005,11.728123399999998,-260.867987
6095.572,16.7813742,23.6374346,-0.8925984,-0.9987734,-0.2297674,0.120492,-61.42028439999999,75.9204804,126.3996812,18.031157600000004,-9.262100200000004,-4.3056722,-0.9965062,-0.0215187999999999,-0.0849206,-111.6741852,87.4339158,-129.4999664,29.002406217646584,1.0319203868101063,20.72312615424446,1.0003495257639905,-50.2539008,11.513435399999995,-255.89964760000004
6115.557,10.369397800000002,19.5238892,-2.4228442,-1.0048022,-0.2124634,0.1182412,-62.6531968,76.07097480000002,124.9016908,13.650969000000003,-6.296280000000001,-4.7081558,-0.9927344,-0.0058709999999999,-0.0643016,-109.060141,87.403473,-127.1575028,22.23908348484701,1.0338032399068209,15.753057719517018,0.9948320226786632,-46.406944200000005,11.332498199999998,-252.0591936
6135.543,8.543117400000002,15.247462,-2.794931,-0.9947484,-0.1688016,0.1395124,-63.5589792,76.1808214,123.7665238,11.705541800000002,-2.5892152000000013,-4.085015,-0.9860048,0.0066262,-0.0444828,-107.8294906,87.363498,-126.1599992,17.699762474292918,1.0185686374608636,12.66535004386706,0.9870299345234268,-44.2705114,11.1826766,-249.926523
6155.528,6.084889400000002,11.8053152,-3.0299064,-0.9810022,-0.14909,0.1458461999999999,-64.2453866,76.2565294,122.9025604,10.201784200000002,-0.1910422000000014,-2.3433490000000003,-0.9853074,0.0130544,-0.0363386,-107.7094206,87.34821480000001,-126.2427994,13.622469628314256,1.0029278431468935,10.469201618144124,0.9860636813634704,-43.464034000000005,11.091685399999998,-249.1453598
6175.514,6.833221000000002,8.64757,-2.5149988,-0.975309,-0.150217,0.1462262,-64.6692628,76.3095476,122.2951904,7.959039800000004,3.121531599999998,-1.9538246,-0.9700852,0.021382,-0.043086,-108.98753940000002,87.3176666,-127.6789002,11.304804071886538,0.997584529820125,8.769703794048452,0.9712769371188836,-44.3182766,11.008119,-249.9740906
6195.499,10.327687,5.0971856,-1.8619966,-0.9733304,-0.1448394,0.1368472,-64.7536928,76.346831,121.9690322,5.396586000000004,7.703740599999999,-0.949104,-0.9617654,0.0168682,-0.0582319999999999,-112.07698340000002,87.2551438,-130.8756668,11.6665955252262,0.993517828478362,9.453653161096,0.963674315644243,-47.3232906,10.9083128,-252.84469900000005
6215.485,11.766962200000002,1.354883,-1.765541,-0.9747444000000002,-0.1513018,0.133825,-64.5452264,76.3506,121.920732,4.127378000000003,14.088205399999998,-0.118075,-0.960603,-0.0069215999999999,-0.084743,-117.0595182,87.1248948,-135.9424346,11.975568561976456,0.995453670765044,14.680828391242033,0.9643585475353864,-52.5142918,10.774294800000002,-257.8631666
6235.47,12.1755314,-3.1268002000000004,-1.7752621999999998,-0.982367,-0.1723548,0.1303062,-64.0374184,76.30575280000001,122.1793608,3.3765756000000025,21.7026896,0.6063396000000001,-0.962219,-0.0348493999999999,-0.1123584,-123.6331678,86.882016,-142.5901336,12.695353490228417,1.0058483014503132,21.97215616108241,0.9693834611194478,-59.5957494,10.5762632,-264.7694944
6255.455,12.815781800000002,-8.878032600000001,-1.6985378,-0.9958996,-0.1815412,0.1426632,-63.10276259999999,76.2029436,122.8679,5.065780800000002,32.2750124,1.8586314,-0.9604508,-0.0451273999999999,-0.1369538,-131.631256,86.44320680000001,-150.7036774,15.68275347794203,1.0223140462753313,32.722974669410306,0.9712149941109024,-68.5284934,10.2402632,-273.5715774
6275.441,13.186923800000002,-16.1143856,-2.1040998,-1.0113396,-0.1983263999999999,0.1479588,-61.71267379999999,76.0129838,124.0213836,6.826269400000003,40.9432448,3.900779,-0.975498,-0.0549469999999999,-0.1540423999999999,-140.0062302,85.8245422,-159.236548,20.928344859086536,1.0411690323682126,41.691285965786,0.9891130278237972,-78.29355640000001,9.8115584,-283.2579316
6295.426,12.882005800000002,-24.3861712,-2.8205728,-1.0239056,-0.220849,0.1737189999999999,-59.84205899999999,75.703856,125.6787064,8.624888000000002,47.0024676,5.0271348,-0.9866512,-0.0581653999999999,-0.1575338,-147.7361724,85.064424,-95.1654756,27.72340257160082,1.0617604482525047,48.05093898977381,1.0008399983818792,-87.89411340000001,9.360567999999995,-220.844182
6315.412,10.494750400000004,-33.0397706,-3.5201962,-1.0338238,-0.2335318,0.202101,-57.5619306,75.2678346,127.805722,8.461463400000003,50.641603,6.148202400000001,-0.996534,-0.0489757999999999,-0.148025,-154.4585876,84.21281880000001,-30.08696,34.8447701749548,1.078968750825843,51.71043134639775,1.0086575448419748,-96.896657,8.944984199999999,-157.89268199999998
6335.397,5.770031200000003,-41.6330316,-4.4432324,-1.0350718,-0.238898,0.2462805999999999,-55.0156782,74.6990892,130.3040666,6.637003000000003,52.7536896,5.8022566,-1.003365,-0.0374895999999999,-0.1358584,-159.6963838,83.2686248,36.5110046,42.26517354058754,1.0904586280531694,53.48521063702938,1.013214833183822,-104.6807056,8.5695356,-93.793062
6355.383,0.8734112000000017,-50.1353784,-5.2698558,-1.0371146,-0.250164,0.28554,-52.2982794,73.9791962,133.08132179999998,0.7820802000000027,50.6987504,4.6926366,-1.0026608,-0.0446883999999999,-0.1428546,-163.2331452,82.31807380000001,104.9289704,50.4191471029436,1.104410164761788,50.921466787793854,1.0137717542387736,-110.9348658,8.3388776,-28.152351399999997
6375.368,-2.2237369999999985,-59.19367239999999,-6.083258000000001,-1.0426554,-0.2544228,0.3349585999999999,-49.4324424,73.086638,136.0792848,-0.7166745999999975,48.3663332,4.6219834,-1.0007582,-0.0533483999999999,-0.1558651999999999,-165.72113040000002,81.3879072,174.4263856,59.54697210050443,1.1243035657788156,48.59195962549342,1.0142272857800858,-116.288688,8.301269200000004,38.34710080000001
6395.354,-4.401872999999998,-68.7764162,-7.392596399999999,-1.0474826,-0.2601478,0.3772745999999999,-46.529361,71.9969818,139.16708079999998,0.5040790000000028,46.32655200000001,5.120004,-1.0039674,-0.0535245999999999,-0.1658702,-167.654834,80.4915968,172.454245,69.31249809923925,1.1433428177728495,46.61135008564933,1.0189839774579188,-121.125473,8.494615000000005,33.2871642
6415.339,-3.882479199999999,-79.02014940000001,-8.6416172,-1.0482604,-0.2679742,0.430382,-43.6064202,70.7018568,142.2819826,0.0466062000000029,44.3360696,4.2307522,-1.0126066,-0.0432917999999999,-0.1668694,-169.181131,79.635919,170.90179740000002,79.58602392234512,1.164426341164524,44.53749548292682,1.027176568544649,-125.5747108,8.934062200000003,28.619814800000007
6435.325,-0.7356455999999982,-89.6641954,-9.4244302,-1.0514646,-0.2734614,0.4701057999999999,-40.6471628,69.1891538,145.38869340000002,-2.615549599999997,40.439935000000006,3.6624586,-1.0196196,-0.0259513999999999,-0.1659873999999999,-170.44380180000002,78.8624266,169.669821,90.16112796417784,1.1837898485528418,40.689593823372086,1.0333679987424034,-129.796639,9.6732728,24.2811276
6455.31,3.5427826000000016,-99.8750826,-10.4631158,-1.0434926,-0.2769397999999999,0.5096104,-37.7291574,67.45200179999999,148.38062760000005,-2.5148425999999966,36.1854508,3.845676,-1.0259956,-0.0097157999999999,-0.1505616,-171.5211914,78.1887648,168.6233702,100.48412922024998,1.1938489095639195,36.47602646669414,1.037029490122417,-133.792034,10.736763000000002,20.2427426
6475.296,7.281100200000002,-108.4597826,-11.8567144,-1.0267664,-0.2857809999999999,0.5464952000000001,-34.9856134,65.50896660000001,151.14461980000002,-5.9430783999999965,32.520594,2.4497062,-1.0226704,-0.0125371999999999,-0.1458096,-172.3393126,77.58873439999999,167.908618,109.34861927854811,1.197738295185138,33.149815617099605,1.033088751207833,-137.3536992,12.0797678,16.7639982
6495.281,12.472658400000004,-116.2532854,-13.0441518,-1.014193,-0.293309,0.5794954000000001,-32.419397200000006,63.38019860000001,153.6512452,-8.762552199999996,30.2560702,1.1695998,-1.0147206,-0.0220367999999999,-0.1597842,-172.962088,77.02494659999999,167.4486266,117.64583915310556,1.2043390425254676,31.521105131280105,1.0274602217060471,-140.5426908,13.644748000000002,13.7973814
6515.267,17.2688312,-123.51216,-14.4453594,-1.0056692,-0.296739,0.5986638000000001,-30.040857,61.0709282,155.89505920000002,-8.749356599999997,29.2910362,0.7916482,-1.0008,-0.0227485999999999,-0.1817866,-173.5017274,76.4713882,167.0732208,125.54734010354365,1.2074033789003906,30.58010381696303,1.017430344908938,-143.4608704,15.40046,11.1781616
6535.252,21.325594400000004,-130.24239219999998,-16.285220600000002,-0.9974564,-0.308625,0.6183567999999999,-27.8796284,58.58836219999999,157.8618254,-8.786128599999996,29.9272662,-0.5972983999999999,-0.9853402,-0.0323105999999999,-0.2032916,-173.8872652,75.89318540000001,166.8557342,132.977705321165,1.2134800338827996,31.196058779275997,1.0066115234979975,-146.0076368,17.3048232,8.993908799999996
