Timestamp (ms),Wrist Gyroscope X (deg/s),Wrist Gyroscope Y (deg/s),Wrist Gyroscope Z (deg/s),Wrist Accelerometer X (g),Wrist Accelerometer Y (g),Wrist Accelerometer Z (g),Wrist Roll (deg),Wrist Pitch (deg),Wrist Yaw (deg),Arm Gyroscope X (deg/s),Arm Gyroscope Y (deg/s),Arm Gyroscope Z (deg/s),Arm Accelerometer X (g),Arm Accelerometer Y (g),Arm Accelerometer Z (g),Arm Roll (deg),Arm Pitch (deg),Arm Yaw (deg),Wrist Gyroscope Magnitude (deg/s),Wrist Accelerometer Magnitude (g),Arm Gyroscope Magnitude (deg/s),Arm Accelerometer Magnitude (g),Difference Roll (deg),Difference Pitch (deg),Difference Yaw (deg)
0.0,1.983713,0.290895,0.597777,-0.977396,0.211245,-0.019563,96.377655,77.998215,-66.554825,1.289746,0.063539,0.78888,-0.976022,0.210166,-0.038712,101.097733,77.878387,-30.119944,2.092145910093988,1.000155038886472,1.5132130066309235,0.9991432885147156,4.720078000000001,-0.1198279999999982,36.43488099999999
19.984,1.4996275,0.235856,0.5292870000000001,-0.977016,0.2112115,-0.021428,96.3939095,77.9923785,-66.55281099999999,1.186341,0.27714,0.8078799999999999,-0.976483,0.211349,-0.0410195,101.126179,77.86765249999999,-30.1019535,1.6076863561843304,0.99981484344465,1.4618076625469576,0.9999350221240628,4.732269500000001,-0.1247260000000025,36.4508575
39.969,1.5086586666666666,0.134319,0.5155913333333334,-0.9773326666666668,0.211031,-0.0232383333333333,96.408951,77.98668433333334,-66.55554733333334,1.1521816666666669,0.1342383333333333,0.7563603333333333,-0.9771546666666668,0.211105,-0.0421476666666666,101.13739533333334,77.859329,-30.101691666666667,1.599977183986662,1.0001266141998668,1.3847828266479187,1.0005863228222185,4.728444333333333,-0.1273553333333362,36.45385566666666
59.954,1.60857675,0.03057,0.517688,-0.9777015,0.21156975,-0.02319775,96.417759,77.98069775,-66.56167425,1.238075,0.06134525,0.73216075,-0.977002,0.21176925,-0.0429024999999999,101.14627275,77.851097,-30.1059465,1.690104893456191,1.0005998789837898,1.4396709030758124,1.0006096880181663,4.728513750000001,-0.1296007500000015,36.45572775
79.938,1.4735894,-0.0734654,0.5264574000000001,-0.9784228,0.2120411999999999,-0.022069,96.4132614,77.9746216,-66.576027,1.1687682,0.111828,0.6845274,-0.976927,0.2117601999999999,-0.0437477999999999,101.1621034,77.84341420000001,-30.101520800000003,1.566531288804753,1.0013788927365506,1.359081442837772,1.000571144715797,4.748842000000002,-0.1312073999999995,36.47450619999999
99.923,1.1147786,-0.3854032,0.563053,-0.978958,0.2120628,-0.0230794,96.3933564,77.9622268,-66.6147232,0.966657,0.3799762,0.6483992000000001,-0.976714,0.2130545999999999,-0.0451914,101.2136384,77.8256836,-30.0688348,1.3070178401220085,1.0019291669635133,1.2244301494066865,1.0007021350087748,4.820282000000001,-0.1365431999999998,36.5458884
119.907,1.1649466,-0.8436523999999999,0.6502244,-0.9780604,0.210494,-0.0265658,96.341562,77.9497618,-66.68515160000001,0.8154283999999998,1.087182,0.6296856,-0.9749178,0.2125815999999999,-0.0488136,101.334987,77.80529340000001,-29.9619074,1.578493498001395,1.0008074798950095,1.4977957576044605,0.9990187290338256,4.993425000000002,-0.1444683999999994,36.7232442
139.892,1.4561702,-1.351313,0.770705,-0.977387,0.2115651999999999,-0.0262816,96.247252,77.935417,-66.8025084,0.7773123999999999,1.8224972,0.6985534,-0.9733874,0.2120168,-0.0517279999999999,101.526462,77.78051459999999,-29.7825894,2.1308366132489,1.0003678843898378,2.1008777841305197,0.9975519735557642,5.279210000000004,-0.1549023999999974,37.019919
159.877,1.4102097999999998,-1.7763882,0.8478503999999999,-0.9773448,0.2124672,-0.0265318,96.113814,77.9200178,-66.9647354,0.6710428,2.4352352,0.8254695999999999,-0.97266,0.2128698,-0.0523169999999999,101.7666856,77.75028540000001,-29.5510194,2.4213832860361943,1.0005244152813664,2.657455357908208,0.9970547105555644,5.6528716,-0.1697323999999951,37.413716
179.861,1.3511438,-1.9578644,0.8456845999999999,-0.9767736,0.2113871999999999,-0.0259246,95.9628086,77.9057066,-67.1493774,0.6597028,2.9964774000000003,1.0204176,-0.97391,0.2146926,-0.04906,102.0403306,77.71366280000001,-29.284339,2.524679191450462,0.999721610682674,3.233471303634588,0.9984991157706452,6.077521999999999,-0.1920437999999961,37.8650384
199.846,1.5411556000000002,-1.7729168000000002,0.8272406,-0.9760676,0.2115307999999999,-0.0236922,95.8284686,77.8914336,-67.32416079999999,0.8330791999999999,3.2862802,1.0695014,-0.9771896,0.2132642,-0.0449478,102.32872319999998,77.6767456,-29.00549,2.490526364731352,0.9990067864930848,3.554924999347615,1.001199999038474,6.5002546,-0.2146879999999953,38.3186708
219.831,1.5863584,-1.4467426,0.8594412,-0.9761986,0.2124461999999999,-0.0189639999999999,95.7132616,77.87572159999999,-67.4811982,1.155493,3.020158,1.0475808,-0.9789522,0.2094993999999999,-0.0398176,102.5848602,77.6443206,-28.7656448,2.312625412850676,0.9992280659751306,3.399109287819625,1.0019096015883668,6.871598599999996,-0.2314009999999939,38.7155534
239.815,1.3517702,-1.2676957999999998,0.9515194,-0.976133,0.2096277999999999,-0.0194318,95.6125322,77.8594268,-67.62024240000001,1.5882488,3.4029464000000003,1.1791218,-0.9761986,0.2055908,-0.0422436,102.8850386,77.609053,-28.4897466,2.083200538479683,0.9985775097973518,3.936102980259745,0.9985067878725512,7.272506399999995,-0.2503737999999941,39.1304958
259.8,1.5240984000000002,-1.5639379999999998,1.152592,-0.9749994,0.2078514,-0.0190992,95.4875306,77.8406112,-67.78472439999999,2.2623364,4.4566112,1.422701,-0.9712676,0.201372,-0.0507838,103.3048614,77.5645232,-28.105911400000004,2.469260277733103,0.99709117633392,5.196501468308404,0.9932222447852244,7.817330799999996,-0.2760879999999957,39.678813
279.784,1.2982904,-2.795173,1.4921006,-0.9772972,0.2075257999999999,-0.0122814,95.2270172,77.8178818,-68.07938700000001,3.0379692,6.0093088,1.8199836,-0.9627161999999998,0.2010436,-0.0654482,103.8946074,77.5012298,-27.565020800000003,3.4241662143040776,0.9991634538850188,6.975198163362459,0.9856594126404108,8.667590199999998,-0.3166519999999962,40.5143662
299.769,0.217168,-5.435386599999999,1.7774228,-0.9817114,0.2078354,-0.0060285999999999,94.6896988,77.79346319999999,-68.6328446,3.629724,8.905332,2.4587002,-0.9501798,0.2081948,-0.0837924,104.75540759999998,77.4010772,-26.7593354,5.722745952918354,1.003488500383079,9.92597808882732,0.976323662200625,10.0657088,-0.392385999999999,41.8735092
319.753,-1.5246312,-9.2035954,2.0398414,-0.981733,0.2024024,-0.0099427999999999,93.7917328,77.7694962,-69.52019800000001,3.6822264,13.1732948,2.9258044,-0.9422494,0.2143244,-0.110616,106.0018096,77.25664979999999,-25.5606712,9.549430429092018,1.002429685357831,13.987666658010667,0.9726277703683563,12.2100768,-0.5128463999999979,43.959526800000006
339.738,-3.1018356,-13.498213799999998,2.387298,-0.983222,0.2000542,-0.0109294,92.4864242,77.7397338,-70.7919678,3.0079276,17.5383702,2.8065158,-0.931812,0.2168456,-0.1306994,107.6060378,77.0759858,-23.9813662,14.05426453503497,1.0034274443157312,18.01439948082476,0.9655971990140196,15.1196136,-0.6637480000000011,46.8106016
359.723,-4.064152999999999,-19.127983,2.9308422,-0.9975096,0.2026813999999999,0.0135555999999999,90.6146942,77.6917526,-72.6203218,2.4855034,22.4550974,3.3200998,-0.9259478,0.2244628,-0.1479904,109.5487716,76.835959,-22.042576,19.773388916849807,1.0179827632575515,22.834889732093263,0.9641908708346288,18.9340774,-0.855793600000004,50.5777458
379.708,-3.7001474,-27.7967244,3.5243961999999995,-1.0154924,0.200823,0.0312384,87.9775192,77.6080612,-75.2362396,2.8347144,28.8679512,3.7179454,-0.9141228,0.237504,-0.185821,111.9018112,76.52455760000001,-19.6859124,28.262525483860365,1.0356304984990157,29.244099066521606,0.9625788734108182,23.924292,-1.0835036000000031,55.55032719999999
399.692,-2.5614856,-39.1043134,4.0328812,-1.0191686,0.198939,0.0058977999999999,84.47121419999999,77.4552672,-78.7646836,3.5175572,35.611134,4.218907,-0.899872,0.2450321999999999,-0.2423632,114.6099334,76.13259000000001,-16.9721616,39.39508428392736,1.0384200233969874,36.03228066187147,0.9636131568918516,30.138719200000004,-1.322677200000001,61.792522
419.677,0.4633416,-51.40827459999999,5.5323768,-1.0379654,0.216629,0.0003255999999999,80.1516784,77.16815940000001,-83.1860398,2.0400878,42.722681,3.5355028000000006,-0.8855160000000002,0.249092,-0.2706112,117.6102874,75.6584764,-13.9179612,51.70718108584603,1.060330326480159,42.91723674828423,0.958861737835774,37.458609,-1.509683000000004,69.2680786
439.662,3.8065352,-64.3140312,7.355434,-1.0667411999999998,0.2493598,0.0572905999999999,75.0805968,76.6922866,-88.4405182,-0.2424390000000002,51.0258544,4.2245246,-0.897532,0.2659802,-0.2877851999999999,120.8451676,75.0421478,-10.5642322,64.84509795467787,1.0969955836200251,51.20100782225605,0.9793515605517152,45.76457080000001,-1.650138800000002,77.876286
459.646,6.1762866,-77.0910834,8.704580199999999,-1.0825108,0.2752718,0.1008554,69.5013182,75.9982024,-94.2686782,-4.575529,57.1831442,4.1935968,-0.9233576,0.292548,-0.2866904,124.0638428,74.31976,-7.1233976,77.82641821649848,1.1215061335993843,57.51898556432306,1.010131167341113,54.5625246,-1.6784424000000002,87.1452806
479.631,7.944578,-87.22392099999999,10.3345576,-1.0895556,0.3074042,0.1342918,63.86778399999999,75.058676,-100.1956742,-9.9281266,60.2327002,4.9714718,-0.9596064,0.2972688,-0.257503,127.0146928,73.51602,-3.8360412,88.19258356007063,1.14002764668943,61.24754201620586,1.0370732748380898,63.146908800000006,-1.5426559999999996,96.359633
499.616,9.3261814,-94.2342024,13.015412200000004,-1.1029996,0.3304138,0.2038544,58.5705176,73.8665388,-105.8196366,-12.5586554,61.1426688,6.718953600000001,-0.9945714,0.2704898,-0.2278649999999999,129.6603562,72.6448468,-0.8046442,95.58484982572176,1.169332293759973,62.77969505279072,1.0555848899198017,71.08983860000001,-1.2216920000000016,105.0149924
519.6,9.972655,-100.1254806,16.0364052,-1.1051662,0.3496579999999999,0.2833018,53.7942518,72.4289504,-110.943686,-9.0251998,59.039984,10.7959354,-1.0123994,0.2675538,-0.2233445999999999,131.877852,71.7049252,1.7138190000000002,101.89078469061168,1.1932782393346826,60.69370777363292,1.070710227542429,78.0836002,-0.7240251999999998,112.657505
539.585,10.1745296,-106.82678839999998,19.3988726,-1.0993566,0.3564893999999999,0.3176254,49.6142608,70.7490952,-115.4979508,-5.5267702,55.5109298,15.239168,-0.999469,0.2791426,-0.2271356,133.5668458,70.72148560000001,3.6167302,109.04953017134316,1.1985639411400129,57.82941083424904,1.0622850153716374,83.952585,-0.0276095999999995,119.11468100000002
559.569,9.6588666,-114.0400666,23.4918282,-1.0960644,0.365378,0.3443154,46.0396126,68.8222428,-119.4605012,-3.8398334,53.89952480000001,20.7612618,-0.9759464,0.2764196,-0.2533188,134.8466706,69.66127300000001,5.0593564,116.83448329285044,1.2055751102724872,57.88724458577823,1.0454901172993267,88.807058,0.839030200000002,124.5198576
579.554,8.989967,-121.6782792,28.1399452,-1.0918104,0.3690566,0.3825348,43.0072944,66.650528,-122.896196,-2.7522744,53.3215302,25.6921802,-0.9521636,0.272278,-0.291813,135.83807380000002,68.522888,6.176369599999999,125.21293723730484,1.2143251610515036,59.25241531508804,1.0324270712345545,92.8307794,1.8723600000000016,129.07256560000002
599.539,9.0776522,-130.3872056,33.3840232,-1.0962236,0.3886668,0.449871,40.4456666,64.2166512,-125.8869964,-3.0078462,54.3076446,30.585842000000003,-0.9194406,0.2969068,-0.3148684,136.5576356,67.2819776,7.0168364,134.89892571350956,1.2470573279766253,62.40081034419127,1.0162021325175223,96.111969,3.065326400000005,132.9038328
619.523,8.0622074,-140.0075028,38.891042600000006,-1.098742,0.3974536000000001,0.5177222,38.2551226,61.5213074,-128.50505819999998,-6.4276966,57.7009918,36.9671848,-0.9083328,0.3070586,-0.3363368,137.0267152,65.8993902,7.665480199999999,145.53217246701033,1.277982638023616,68.82799205499656,1.016108213933949,98.7715926,4.378082800000004,136.1705384
639.508,6.3861126,-149.4616334,45.2052372,-1.0952212,0.4026424,0.5730230000000001,36.4140694,58.5708626,-130.7479538,-8.716552799999999,61.67221059999999,42.6097046,-0.9205008,0.291554,-0.358253,137.36066300000002,64.3945944,8.216718,156.27883978019588,1.29999451450235,75.46540120548755,1.0298886686072626,100.9465936,5.823731800000003,138.9646718
659.492,4.610108200000001,-158.09271859999998,52.2832084,-1.08146,0.4082978,0.6245768,34.90528020000001,55.3779144,-132.6246338,-7.295335,65.366258,47.706408,-0.925554,0.284738,-0.3836799999999999,137.64745200000002,62.775395,8.6852322,166.5775934888973,1.3139098158485156,81.25189820519427,1.0416027447928504,102.7421718,7.3974806000000015,141.309866
679.477,1.7225124000000005,-166.83015139999998,58.89487379999999,-1.0595252,0.4203952,0.6883594000000001,33.6400126,51.9481934,-134.203363,-6.1128174,70.2951964,49.878653,-0.9355194,0.2970069999999999,-0.3975412,137.95974139999998,61.0626548,9.167309800000002,176.92900447646505,1.3316022068119442,86.40984433833175,1.058984755094614,104.3197288,9.1144614,143.3706728
699.462,-0.128363,-175.9062682,64.5623512,-1.0363616,0.4212764,0.7401022,32.570644200000004,48.300155,-135.55752260000003,-10.168979,74.02225039999999,47.5184582,-0.9562912,0.3278496,-0.4044134,138.2526522,59.3345474,9.7409188,187.38017200755857,1.3413688670892732,88.54775862712667,1.0888197360064522,105.682008,11.034392399999998,145.2984414
719.446,-0.64104,-185.416104,69.1959182,-0.998215,0.4172146,0.7794994,31.6676068,44.4430696,-136.75064400000002,-15.187396,74.99011540000001,41.9915324,-0.9592554,0.3500758,-0.4096327999999999,138.5378634,57.6729332,10.4387178,197.9081040542845,1.333461856701765,87.2780797122988,1.1002377102293122,106.8702566,13.229863599999998,147.18936179999997
739.431,-1.3462252,-194.3653012,73.06879260000001,-0.9330632,0.4229293999999999,0.8066988,30.896027600000004,40.3923662,-137.818921,-20.7008124,72.63763580000001,36.1690446,-0.9484892,0.3657552,-0.4195314,138.756833,56.12772520000001,11.1993468,207.65050225048253,1.3039321939809754,83.74335529407827,1.0997341607996178,107.8608054,15.735359,149.01826780000002
759.416,-2.5948478,-202.3997556,76.5400832,-0.8474896,0.4280504,0.8399636000000001,30.214683,36.1612906,-138.7891938,-24.543521,66.7232788,31.116826000000003,-0.960512,0.3691828,-0.4094268,138.8690186,54.742205,11.9304458,216.4042019885654,1.2676768580254514,77.60565196694276,1.1074789147058646,108.6543356,18.5809144,150.7196396
779.4,-2.9174854,-209.74812,80.4774978,-0.7377638,0.4147214,0.8432843999999999,29.6408752,31.7556006,-139.6575074,-25.086243000000003,56.00306280000001,26.0196356,-0.9746982,0.3616544,-0.4004404,138.85587460000002,53.5786238,12.528876,224.67624088172428,1.1947459326115155,66.65346253265903,1.1140839286493456,109.2149994,21.8230232,152.1863834
799.385,-2.7056592000000004,-214.906665,84.92389979999999,-0.6215004,0.4113664,0.8507514,29.1830318,27.206959,-140.407663,-23.7065148,45.0285598,20.8785638,-0.9690758,0.3510656,-0.3731528,138.763272,52.6438842,13.001244,231.0936260704072,1.1310450949679594,55.00440407799603,1.0961742442681457,109.5802402,25.4369252,153.408907
819.369,-4.129160199999999,-217.9812102,89.0005814,-0.4911994,0.415552,0.8494134000000001,28.8052078,22.5487478,-141.03769219999998,-29.1719532,35.73201400000001,15.3525198,-0.9765968,0.3456196,-0.3464644,138.4952086,51.92077019999999,13.3981794,235.4866481432692,1.06558126830567,48.61563063674664,1.092351499354379,109.6900008,29.3720224,154.4358716
839.354,-5.6013548,-220.2351836,91.3421906,-0.3864392,0.4120178,0.8442057999999999,28.481924,17.8221898,-141.5900176,-31.7475544,28.1213352,8.091142999999999,-0.987697,0.3383704,-0.3181188,138.1733336,51.403746,13.7998632,238.49173372368256,1.015764419325229,43.17618902657073,1.091439170232863,109.6914096,33.5815562,155.3898808
859.339,-4.7670818,-223.176425,91.7650484,-0.3049882,0.4034122,0.8305372,28.242764,13.0423914,-142.1184448,-31.054098,22.0841114,-0.2694638000000001,-0.9639488,0.3538086,-0.3064746,137.914511,51.0902778,14.2692556,241.3529901462231,0.97239459368711,38.10692311983119,1.0715897045514016,109.671747,38.0478864,156.3877004
879.324,-1.6713286,-225.9122128,90.4778322,-0.252447,0.4059841999999999,0.8378864,28.115146400000004,8.2316824,-142.66880799999998,-33.1244772,22.415788600000003,-3.725199000000001,-0.9305264,0.3750658,-0.3033226,137.6767516,50.8274864,14.8238824,243.3626087777106,0.9646793652626764,40.16933750913514,1.0481213360567372,109.5616052,42.595804,157.4926904
899.308,-0.621945,-229.3727658,87.461098,-0.1964008,0.4007542,0.8437362,28.055697,3.3858682,-143.29059139999998,-32.1053088,26.0477836,-2.9341859999999995,-0.9121204,0.3874628,-0.3244522,137.49215999999998,50.5119224,15.4287406,245.4825781388371,0.9544988099776344,41.44692185311694,1.042765685839748,109.436463,47.1260542,158.719332
919.293,0.3439553999999999,-232.40231,83.19687819999999,-0.1548708,0.3837324,0.8004688,28.0712878,-1.4710342,-144.01196900000002,-24.4788676,34.6698574,-3.8059014,-0.9008998,0.4072624,-0.358972,137.59881579999998,50.0866904,16.2230072,246.84544261719503,0.901102557579236,42.61101801859686,1.0518288876418065,109.527528,51.55772460000001,160.23497619999998
939.277,4.6007182,-233.9120848,79.3879366,-0.0903842,0.3565672,0.7716518,28.2293062,-6.3158614,-144.8233764,-19.1241618,45.58055,-9.007815,-0.84738,0.4243392,-0.3917118,138.0533356,49.5610542,17.344027,247.05965777731464,0.8548426593056292,50.244012916260026,1.0254534388824683,109.8240294,55.8769156,162.1674034
959.262,9.21956,-233.108017,75.8055222,-0.0259206,0.3422802,0.74109,28.5568756,-11.110857800000002,-145.7212188,-17.5078902,53.5565084,-16.5948766,-0.822344,0.420472,-0.429537,138.784665,49.0035934,18.792682,245.29742165844425,0.8167263929348677,58.73853709979296,1.0186011935438717,110.2277894,60.114451200000005,164.51390080000002
979.247,10.6984924,-230.1505068,71.7923888,0.0450459999999999,0.321899,0.689939,29.0076408,-15.8133706,-146.71080020000002,-12.193784,59.3704302,-24.2607994,-0.8044232000000001,0.4112934,-0.4656870000000001,139.8320252,48.4433944,20.5215644,241.32521751681912,0.7626689531100633,65.28493499957527,1.016426744802989,110.8243844,64.256765,167.2323646
999.232,12.8218908,-224.56205760000003,67.331816,0.1181808,0.2983906,0.609197,29.6044718,-20.3649078,-147.79130260000002,-6.0141554,57.9532922,-30.0668892,-0.7825576,0.3992926,-0.5038848,141.0757996,47.956724400000006,22.34564,234.7894632284224,0.68856708929922,65.56502091938205,1.0127837229159835,111.4713278,68.3216322,170.1369426
1019.216,16.756376799999998,-215.9057252,62.7601112,0.1917726,0.2820574,0.5527453999999999,30.3874196,-24.715591600000003,-148.9520968,1.0905814,45.1257502,-29.7503688,-0.7379834,0.367876,-0.526331,142.2727082,47.643933,23.911038,225.46593954617148,0.6495079554760511,54.06114263164292,0.9782517935647038,111.8852886,72.3595246,172.86313479999998
1039.201,18.626821,-204.653702,57.6339966,0.249282,0.2827494,0.4992671999999999,31.3309012,-28.8187678,-150.1968936,8.7752708,22.3987834,-22.8328414,-0.7262373999999999,0.3568492,-0.5412902,143.1910248,47.5866088,24.89296,213.4286151549498,0.6255849068833103,33.16699446454264,0.9735282190647788,111.8601236,76.4053766,175.0898536
1059.185,17.929793999999998,-191.3378358,51.9310106,0.313548,0.2696614,0.4454784,32.369840999999994,-32.6348228,-151.5162844,12.0938116,0.2607218000000003,-13.8628042,-0.7014398,0.3429876,-0.5485802000000001,143.72506400000003,47.7575714,25.2659886,199.0690201499156,0.6078491785143088,18.39852154823391,0.9542528609387764,111.355223,80.39239419999998,176.78227299999998
1079.17,16.7263792,-175.22402040000003,46.0911418,0.3765413999999999,0.2738286,0.3953552,33.4813988,-36.1069168,-152.8803346,11.729868,-23.5834654,-6.5713514,-0.6649174,0.3347324,-0.552583,143.7991364,48.20573280000001,25.031621,181.9550011368457,0.6107955977730685,27.14686543217657,0.9270970285366684,110.31773760000002,84.3126496,177.9119556
1099.154,12.3270356,-155.91817339999997,39.7198396,0.4375738,0.278161,0.364927,34.56957559999999,-39.183751,-154.2445008,8.4689348,-43.3626096,-2.3346696,-0.6393546000000001,0.325696,-0.5510210000000001,143.4603608,48.909018,24.3329944,161.36944649135367,0.6340473860023712,44.243524386172346,0.9046968173914178,108.8907852,88.092769,178.5774952
1119.139,5.6000088,-134.18211839999998,32.7266652,0.4854882,0.2899656,0.3426152,35.5402452,-41.802904,-155.5555602,5.124466,-55.6525298,-2.6096452,-0.6318857999999999,0.3348058,-0.5506754,142.8736696,49.8000276,23.4006642,138.22892465755706,0.661183799554738,55.94885586850662,0.9025619004369948,107.33342439999998,91.6029316,178.95622440000002
1139.124,0.7501105999999996,-109.1373766,25.5228104,0.5282066000000001,0.2898036,0.301791,36.3441734,-43.9110118,-156.7178862,1.674113599999999,-57.489875000000005,-3.4088774,-0.6327901999999999,0.3353068,-0.5523382,142.1797212,50.721981,22.4279402,112.0845372375548,0.6738443043741783,57.61517880723413,0.9043956957668032,105.8355478,94.6329928,179.1458264
1159.108,-2.0652044000000003,-80.6373258,17.965909399999997,0.555335,0.3069157999999999,0.2637966,36.950486,-45.4501146,-157.6437498,1.781211199999999,-52.89051980000001,-3.6964314,-0.6283654000000001,0.3464942,-0.5495329999999999,141.5262972,51.56374659999999,21.5181826,82.64028849149871,0.6871556713629016,53.04944300506938,0.9038184688530104,104.5758112,97.0138612,179.1619324
1179.093,-4.5445278,-50.11831599999999,9.8849372,0.5726796000000001,0.3144862,0.2449433999999999,37.30949019999999,-46.3948884,-158.27214039999998,2.6464163999999992,-44.3127374,-4.3532026,-0.6255396,0.357835,-0.5444252,141.00578620000002,52.2687414,20.7675798,51.285576091614416,0.6977540852264214,44.60462519201562,0.9031857377019412,103.696296,98.6636298,179.0397202
1199.078,-4.0627408,-19.7278602,1.7717282,0.5792986,0.3221282,0.2314834,37.4526474,-46.7423744,-158.577771,4.5624354,-31.7533312,-4.981154999999999,-0.6292632,0.370553,-0.5345304,140.7145202,52.7739608,20.2679372,20.21962788216944,0.7020954419968556,32.463853194131026,0.9049886458997152,103.2618728,99.5163352,178.84570820000002
1219.062,-2.0002838,9.594299400000006,-6.1133376,0.5787572,0.3291182,0.247846,37.4192078,-46.5306456,-158.56958939999998,6.4300568,-17.2928054,-4.617937,-0.6264534,0.3748554,-0.521922,140.6770384,53.04420759999999,20.0463586,11.550957227388416,0.7104268617099722,19.01873000989983,0.8974201955409294,103.2578306,99.5748532,178.61594799999995
1239.047,-3.5716604000000003,36.7301652,-14.1466068,0.5758248,0.3441233999999999,0.2827222,37.168253400000005,-45.7948882,-158.29066799999998,7.775501799999999,-3.5411914,-4.4431536000000005,-0.6276474000000001,0.3818754,-0.5194086,140.88725879999998,53.089022,20.1035024,39.52199738861923,0.7279608211266867,9.630165039418076,0.8997529514293799,103.7190054,98.8839102,178.39417039999998
1259.032,-7.761806,61.6582622,-21.4198732,0.5790506000000001,0.3438534,0.3028351999999999,36.6686936,-44.5707122,-157.77128639999998,9.6479088,8.0233846,-6.0222994,-0.6357494,0.3808724,-0.5188934,141.3589994,52.966548,20.4420064,65.7327764346651,0.7384063355707073,13.918510506367946,0.9047051703431788,104.6903058,97.5372602,178.2132928
1279.016,-10.2288944,84.6025336,-27.5182132,0.5750966,0.3330352,0.3231996,35.986293,-42.8992294,-157.04523039999998,11.0955416,16.1513196,-10.187922,-0.6472766,0.36885,-0.5152176,142.0837522,52.7659302,21.060425,89.55149931690778,0.7389902064376496,22.085513869882195,0.9057960558300748,106.0974592,95.6651596,178.1056554
1299.001,-14.0062852,105.5357138,-32.594864,0.562384,0.334004,0.3455034,35.133599,-40.8234886,-156.1537294,10.0497994,20.040309,-16.2069042,-0.6693758000000001,0.3567006,-0.5154886,142.9746154,52.5849792,21.9151266,111.33906803794322,0.7397344353776969,27.66362587485052,0.9170756655783426,107.84101640000002,93.4084678,178.068856
1318.986,-20.4543394,124.6839598,-37.3501016,0.5435244,0.3341154,0.350904,34.099749200000005,-38.3653366,-155.14692380000002,7.791467399999999,20.9252716,-22.4937514,-0.6998886000000001,0.3482258,-0.5078806,143.95560600000002,52.4728378,22.944932,131.7554549960977,0.728138373613505,31.694523309619772,0.9322274207788356,109.8558568,90.8381744,178.09185580000002
1338.97,-26.2466998,142.413362,-40.5214342,0.5149844,0.3221082,0.3573144,32.9192928,-35.5578738,-154.0449858,5.608629799999998,14.7397228,-29.8904326,-0.7249952000000001,0.3355106,-0.484098,144.9444762,52.5629104,24.046074,150.37433809051095,0.7047242050603626,33.79577070388292,0.934096502690916,112.0251834,88.1207842,178.09105979999998
1358.955,-30.3187552,158.308023,-42.6969874,0.4738074,0.3162388,0.37028,31.6760394,-32.4451708,-152.8926542,-0.5201018000000008,5.174407599999999,-35.0831836,-0.7602909999999999,0.3176694,-0.4510442,145.77814940000002,52.8842172,25.108218,166.74438460134664,0.6794171835626474,35.46653029836172,0.9393599537616024,114.10211,85.329388,178.00087220000003
1378.94,-34.99489680000001,172.74027700000002,-44.396504400000005,0.4246069999999999,0.3188108,0.3710322,30.386298600000003,-29.045854400000003,-151.7219786,-7.504985400000001,-5.5052662,-33.5931846,-0.7726576,0.2952929999999999,-0.4336762,146.28801579999998,53.374933600000006,25.9372936,181.7550431295336,0.6477625522384571,34.858783876617856,0.933955442798638,115.9017172,82.42078799999999,177.6592722
1398.924,-38.8363282,187.0058806,-45.0528726,0.3630243999999999,0.3149478,0.4022492,29.0744606,-25.3581916,-150.5312438,-12.26758,-21.7325734,-26.6500788,-0.7800496,0.2761467999999999,-0.4080142,146.29600520000002,54.0659156,26.262428,196.2376648264838,0.626724222143073,36.51061442497232,0.9226104383823328,117.2215446,79.4241072,176.7936718
1418.909,-41.944886,200.4538054,-44.8788994,0.2920776,0.303025,0.4471535999999999,27.756478200000004,-21.4058176,-149.3206208,-13.2126536,-39.5455942,-18.7356824,-0.8045376000000001,0.2625023999999999,-0.3805616,145.80881960000002,54.9726036,26.003450800000003,209.65499558142992,0.6140682511250032,45.71054616582848,0.9279091503019464,118.0523414,76.3784212,175.3240716
1438.894,-42.676586,211.7954314,-44.7645172,0.2235792,0.3005704,0.4728994,26.5073512,-17.2256902,-148.1234774,-11.997966000000002,-49.0833658,-9.1622058,-0.8146122,0.2546986,-0.3707236,144.9524262,55.9219032,25.2634022,220.64101557660717,0.6032943448675447,51.35244883659706,0.930537694469042,118.445075,73.1475934,173.3868796
1458.878,-43.267487200000005,221.5716612,-44.5759536,0.1388735999999999,0.3116584,0.5449448,25.3332718,-12.8425232,-146.9477572,-10.8110606,-53.58463759999999,0.6833556000000002,-0.8543234000000002,0.2445954,-0.3326354,143.7787324,56.818344,24.1138674,230.11538873982136,0.6429476418142926,54.6686326232535,0.9488633678364236,118.4454606,69.66086720000001,171.06162460000002
1478.863,-47.0645804,228.6259306,-43.9750724,0.040639,0.3032182,0.6617402,24.1747056,-8.3126996,-145.808832,-2.3854566000000004,-55.5273308,3.1495504,-0.9001988000000001,0.2502537999999999,-0.3284496,142.6440584,57.716497,22.8139096,237.52620458284036,0.7290355940749944,55.66771538948992,0.9903857751785614,118.4693528,66.0291966,168.62274159999998
1498.848,-50.1720236,232.98689560000005,-42.8206518,-0.0554413999999999,0.2921446,0.7173744,23.0520214,-3.6965042,-144.717499,6.485864999999999,-47.187568000000006,3.4650852,-0.9151888,0.2400486,-0.3060566,141.7902406,58.4626732,21.6461598,242.14403501639492,0.7765618107520353,47.75709197591609,0.9944166694152708,118.7382192,62.1591774,166.3636588
1518.832,-49.5832518,235.3487304,-41.159439,-0.1414572,0.2894728,0.7074198,22.0294498,0.9685506,-143.6690614,17.089503999999998,-33.7589898,4.0286436,-0.9335106,0.2189058,-0.2985281999999999,141.36250020000003,58.9668922,20.7381378,244.0115226352002,0.777333528675896,38.05194487195551,1.0042314851573018,119.3330504,57.9983416,164.4071992
1538.817,-45.444849000000005,238.02844240000005,-39.8886802,-0.2507936,0.2803373999999999,0.7719268,21.1754192,5.6909876,-142.65207220000002,27.064074999999995,-22.9957868,5.6888638,-0.9394846,0.2370954,-0.3079712,141.2798128,59.2679542,20.0082192,245.58884441297576,0.8586952149616068,35.967117447630265,1.016706350116768,120.1043936,53.57696659999999,162.6602914
1558.801,-43.6565928,238.3995454,-39.0095276,-0.3622387999999999,0.2909844,0.8922294000000001,20.4279276,10.4327732,-141.67632139999998,39.121948,-13.086050800000004,6.6455798,-0.9360822,0.2515698,-0.3153546,141.6047334,59.4050032,19.4763752,245.4831655845403,1.0059633052418762,41.78439028791796,1.0193065158086845,121.1768058,48.97223,161.15269659999998
1578.786,-41.9525958,236.7881776,-39.9172394,-0.4600794,0.2747279999999999,0.8573734,19.7676676,15.160996799999998,-140.7779754,46.7003422,-2.0288650000000024,9.018712400000002,-0.9347692,0.2920303999999999,-0.3046618,142.2102478,59.3271888,19.1068536,243.76637862265628,1.0110577012791704,47.60646414237503,1.025618849364636,122.4425802,44.166192,159.884829
1598.771,-31.8850932,234.7533876,-40.3740358,-0.5446676,0.2605496,0.8216298,19.3674368,19.862254,-139.92916559999998,48.7260414,2.524806799999997,9.4895492,-0.949973,0.3276545999999999,-0.329044,142.9256318,59.17210299999999,18.8223354,240.32452002412944,1.0196197412751284,49.70566671830347,1.057391219731921,123.558195,39.309849,158.751501
1618.755,-19.6570216,233.4872406,-41.1855614,-0.6413682,0.2679862,0.8718150000000001,19.2752982,24.5506708,-139.10011279999998,43.2998966,2.9823659999999967,8.3779852,-0.9278392,0.3630056,-0.3461106,143.5680236,59.025195200000006,18.5803048,237.90531832857025,1.1150027648336482,44.20368976160323,1.0547280190268769,124.2927254,34.4745244,157.6804176
1638.74,-14.741094,231.423172,-41.190056600000005,-0.7291448,0.2903902,0.9294032,19.3623016,29.2000744,-138.24963979999998,36.945129,-1.807069800000003,7.2996836,-0.9931284,0.343812,-0.3192065999999999,144.0282042,58.982568400000005,18.2708478,235.5219844379068,1.2164575273281513,37.70269803009888,1.0983640397036494,124.6659026,29.782494,156.52048759999997
1658.725,-11.9435622,228.18544920000005,-40.8042442,-0.8073626,0.2645568,0.8595419999999999,19.5964298,33.7804112,-137.3600036,34.6587116,-13.409182600000005,1.097425,-1.0129506,0.3470878,-0.3473444,144.38372180000002,59.20498679999999,17.8921624,232.11254651432415,1.208568209936452,37.17844549470489,1.125694004230528,124.787292,25.4245756,155.252166
1678.71,-1.8999866,224.15623480000005,-38.7103844,-0.8924356,0.2684958,0.7996565999999999,20.142818,38.2662484,-136.3721802,30.2259266,-27.891460800000004,-9.3643796,-0.9859806,0.3065312,-0.3656484,144.68945920000002,59.78691260000001,17.5483288,227.48213426374545,1.227999174547182,42.18094154567226,1.0953619824388463,124.5466412,21.5206642,153.920509
1698.694,6.818614599999999,219.23542180000004,-37.1111984,-0.980017,0.275711,0.7748108,21.008554,42.6388208,-135.25495299999997,27.5482764,-41.63656160000001,-18.1535454,-0.934143,0.3270614,-0.3875976,144.93160400000002,60.6922678,17.190313800000002,222.4587708398377,1.2793676764740618,53.12308354257359,1.0629318902661262,123.92305000000002,18.053447,152.44526679999998
1718.679,14.3908192,215.055826,-35.2877816,-1.0261502,0.2717736,0.743498,22.242400600000003,46.908143,-133.92766740000002,22.431225,-53.4939232,-21.7139434,-0.9487028,0.3273701999999999,-0.3933626,144.921811,61.8299608,16.6634784,218.4063449262376,1.296007098213972,61.93750892881087,1.077934314165126,122.6794104,14.9218178,150.5911458
1738.663,18.3272098,210.91665660000004,-32.4969392,-1.0848108,0.2828122,0.722495,23.9020666,51.0440592,-132.2559572,17.653857199999997,-64.29350059999999,-23.7917014,-0.9829514,0.2980792,-0.3795202,144.563144,63.1620506,15.86728,214.1909748512856,1.333715200967013,70.79094538814235,1.0950252263955564,120.6610774,12.117991399999998,148.1232372
1758.648,21.1920484,206.4104462,-30.4947518,-1.109305,0.2729438,0.6028015999999999,26.034918000000005,55.043484,-130.1729372,19.881127600000003,-71.59761499999999,-25.2253494,-0.9821804,0.250345,-0.3746642,144.0385072,64.6209074,14.8484946,209.72435505494985,1.2916755281207428,78.47162519463826,1.0806128908775798,118.0035892,9.577423399999995,145.02143180000002
1778.633,26.7828906,201.1490784,-28.267054,-1.1487752,0.2796414,0.5369306,28.7726866,58.8790712,-127.58527080000002,21.3240376,-79.80724860000001,-24.7026024,-0.9585394,0.2640666,-0.3767326,143.2207062,66.1998114,13.4833944,204.8836287063948,1.2985292611047932,86.22140148478742,1.0632292332750637,114.4480196,7.320740199999998,141.0686652
1798.617,29.3797022,193.897348,-27.347022200000005,-1.1831972,0.2943066,0.4783186,32.130751,62.518726400000006,-124.4322404,18.674061,-78.4757888,-23.4426514,-0.9458482,0.253795,-0.3757614,142.25899959999998,67.7398892,12.0233572,198.00810106155024,1.309717783340121,84.0043325470529,1.0489219938575989,110.1282486,5.221162799999998,136.4555976
1818.602,28.2775286,183.38421320000003,-26.046276,-1.2361422,0.3059431999999999,0.4462125999999999,36.1525048,65.86134419999999,-120.5982132,17.374988199999997,-73.5565436,-21.2106592,-0.9479142,0.2361068,-0.3694566,141.2458618,69.1675122,10.542988,187.37074683144928,1.3493533505519746,78.50062028434797,1.044406975681147,105.093357,3.306168000000001,131.1412012
1838.587,28.7278948,168.7640838,-25.594399000000003,-1.2530628,0.2868386,0.3281754,40.8757768,68.8322274,-116.0974548,17.6388372,-62.23356120000001,-21.4066348,-0.8959958,0.2459018,-0.4019434,140.5075806,70.4041288,9.3627666,173.09442850844303,1.326703379191807,68.13507709588961,1.0123411804645903,99.6318038,1.5719014000000018,125.4602214
1858.571,34.1878594,151.72775280000002,-24.2588922,-1.2778046,0.2961382,0.2787046,46.3843126,71.382425,-110.9491348,12.4904292,-48.3313984,-19.8635352,-0.8618103999999999,0.281231,-0.4207362,139.9813384,71.38796219999999,8.5285996,157.4122439674351,1.3409543927149647,53.72611025880595,0.9994133233550572,93.5970258,0.0055372000000035,119.4777344
1878.569,35.3558524,131.89853980000004,-22.6836976,-1.260987,0.3217286,0.2872506,52.3134104,73.478827,-105.4497834,5.4507622,-27.12425960000001,-15.8714232,-0.8658604000000001,0.280929,-0.4389991999999999,139.8727508,71.99400920000001,8.2887778,138.42619418705056,1.3327079250260805,31.895741750312684,1.010621409297171,87.5593404,-1.484817799999999,113.7385612
1898.541,30.3978426,109.6504486,-19.967698,-1.2195308,0.3628552,0.298516,58.1354158,75.1092638,-100.0003816,2.6609367999999995,-10.3868322,-8.2640398,-0.9177834,0.2715524,-0.4320473999999999,139.9818878,72.243112,8.3382576,115.52471024129348,1.3069166272458546,13.537400844347305,1.0501104851910013,81.84647199999999,-2.8661518,108.3386392
1918.525,22.6943026,85.66227180000001,-16.0571474,-1.1679652,0.4049744,0.2890575999999999,63.4065346,76.2857042,-95.0023652,-2.289991800000001,2.836785,-9.2117328,-0.9288482,0.294094,-0.4098138,140.4969054,72.2934218,8.925115,90.0604694805816,1.2695279710129117,9.906938616893116,1.05697569042513,77.0903708,-3.992282400000002,103.9274802
1938.51,16.5958232,63.0670798,-10.9142042,-1.119,0.455275,0.3109697999999999,67.88287059999999,77.0512834,-90.725827,-11.5211408,11.6762542,-11.3998634,-0.9197644,0.3093552,-0.3605748,141.1991058,72.24602039999999,9.9117524,66.12108404665281,1.2474528216077112,19.975697309858845,1.0352204488269348,73.3162352,-4.805263000000002,100.6375794
1958.494,7.389329000000001,42.34658200000001,-4.848460200000002,-1.07648,0.4888358,0.3805063999999999,71.17428299999999,77.460611,-87.48814999999999,-21.2971598,18.614171,-8.3115162,-0.9234844,0.3040258,-0.3079946,141.7866028,72.067375,10.9884446,43.25901936549128,1.2419962762434515,29.48114107538647,1.0198606756504345,70.6123198,-5.393236000000002,98.4765946
1978.479,-6.082768,23.79623380000001,1.485206199999999,-1.048856,0.4807579999999999,0.3898574,72.9990068,77.5854492,-85.4775116,-24.1640096,18.6035982,-1.8224724,-0.9653618000000002,0.299981,-0.2483979999999999,141.9698914,71.79977099999999,11.7037628,24.606231874519214,1.217873538440983,30.55019855229581,1.0409676131677874,68.9708846,-5.785678200000001,97.1812744
1998.464,-16.6109242,6.1592572000000105,7.834131199999999,-1.0516446,0.4358788,0.3736578,73.3327272,77.45952,-84.7772536,-24.8447526,15.9701622,-0.6483132000000001,-0.972297,0.2718956,-0.2411342,141.981961,71.5526626,12.2528928,19.37092831262124,1.1981514280338024,29.54197221674291,1.0379953641119983,68.6492338,-5.906857399999998,97.0301464
2018.448,-23.9564806,-13.081234199999988,13.0560264,-1.0760196,0.3757116,0.3468004,72.08620160000001,77.0941316,-85.54056399999999,-18.3597824,13.3075434,3.4501124000000005,-0.9392496,0.2447412,-0.2903004,141.85109860000003,71.30236959999999,12.5124232,30.257089686401144,1.1913219142611622,22.93633790932779,1.0130954487696406,69.764897,-5.791762,98.0529872
2038.433,-31.106183800000004,-35.60717559999999,16.498464,-1.1050374,0.3115236,0.2902258,69.1413132,76.476468,-87.89378980000001,-9.749391400000002,14.846927399999998,9.2787552,-0.898922,0.2581412,-0.3602731999999999,141.7101806,70.9441344,12.5762204,50.07659073027949,1.184223637553887,20.03939080792607,1.0022446906118685,72.5688674,-5.532333600000001,100.4700102
2058.418,-33.9118226,-59.11878239999999,18.8118754,-1.1381587999999998,0.2637108,0.2603188,64.782489,75.5746202,-91.6368378,-11.519147600000002,19.8586872,9.5414252,-0.887183,0.2647154,-0.4069662,141.7224518,70.4838608,12.8375946,70.7031031891638,1.1969606165983573,24.86155694209888,1.0113305129524175,76.9399628,-5.090759400000001,104.4744324
2078.402,-33.8928674,-82.216803,19.9501958,-1.1631834,0.2536002,0.3054954,59.474765000000005,74.3540086,-96.375981,-19.9787928,27.9699078,8.0845632,-0.8919242000000001,0.2548174,-0.4346008,141.927826,69.9106736,13.4816936,91.1391215043964,1.2290793802260127,35.31045264819791,1.024372266926941,82.453061,-4.443334999999999,109.8576746
2098.387,-35.193550599999995,-103.944751,20.175988,-1.175429,0.2500708,0.3479594,53.6690972,72.78487240000001,-101.6373702,-27.4343544,36.091905800000006,6.7442404,-0.9068804,0.2480984,-0.419307,142.2891572,69.2299546,14.453128799999998,111.58031975246756,1.251097311603698,45.83398568959354,1.0294674527325864,88.62006,-3.554917800000001,116.090499
2118.372,-36.0376206,-123.00102539999996,20.1888718,-1.1733258,0.2479606,0.376752,47.8661684,70.8520416,-106.9269988,-33.222085,42.8806968,5.539909,-0.9301314,0.2312622,-0.3936812,142.7912386,68.4550202,15.6988462,129.75188974545927,1.257028226255083,54.526614433036606,1.036152263737449,94.9250702,-2.3970214,122.62584499999998
2138.356,-33.7478258,-138.702652,20.505016,-1.1654996,0.2541676,0.4302666,42.514425800000005,68.558644,-111.8551208,-36.3565242,47.654641000000005,3.125134,-0.9442406,0.2024023999999999,-0.3717458,143.44297799999998,67.6328842,17.174602,144.21441363199625,1.2681166482486854,60.02106399641732,1.034771463672902,100.9285522,-0.9257598,129.0297228
2158.341,-30.9038016,-152.1141358,21.0646014,-1.1462528,0.2665882,0.4824986,37.8134446,65.9255576,-116.23432,-31.223728200000004,50.0538026,4.738803,-0.9435766,0.2010866,-0.3621314,144.12465819999997,66.7607008,18.5802934,156.64441482432076,1.2719157396970289,59.18412465602622,1.0304910342322635,106.3112136,0.8351432000000003,134.81461339999998
2178.326,-28.1201384,-163.3875946,22.6116522,-1.1181818,0.2740372,0.530628,33.8444188,62.98483120000001,-119.9611252,-24.563846,51.67129680000001,6.750603199999999,-0.938398,0.2056354,-0.343538,144.8089172,65.84740880000001,19.8560606,167.3246397516602,1.2676722759526926,57.609687439433806,1.0202426581853752,110.9644984,2.862577599999999,139.8171858
2198.31,-24.9962062,-172.9739928,25.2278736,-1.0843535999999998,0.2829556,0.5772563999999999,30.5949936,59.770057,-123.0440126,-19.7737294,53.0665804,9.1617938,-0.9254292,0.2073808,-0.3375483999999999,145.451123,64.8861708,20.991351200000004,176.58215684475297,1.2605996798132544,57.36724496930114,1.0066602817057202,114.8561294,5.116113799999999,144.0353638
2218.295,-21.4348792,-181.2040984,28.4013016,-1.0471042,0.2938458,0.627802,27.9901508,56.3177582,-125.5601318,-19.6746876,55.1973222,11.4948034,-0.9113296,0.2223145999999999,-0.3212898,145.95990579999997,63.8672338,21.9929134,184.66459664984416,1.2557499396931222,59.71572837546954,0.9915505820649594,117.969755,7.549475599999999,147.5530452
2238.28,-16.216251,-188.3223082,31.88322,-1.003014,0.3072026,0.6739807999999999,25.966536,52.665052,-127.6020156,-22.5370208,57.9149216,14.9548222,-0.9093952,0.2381175999999999,-0.3230606,146.2770872,62.765531,22.8581554,191.68932750635648,1.2468603131110556,63.919497475397854,0.9940159820069092,120.3105512,10.100479,150.460171
2258.264,-11.8701642,-194.7231566,35.1935976,-0.9681418,0.324933,0.7273495999999999,24.4110616,48.841391,-129.2675628,-26.341263000000005,59.91705019999999,18.1489038,-0.9183,0.2416012,-0.3264372,146.4197936,61.60469880000001,23.6199828,198.23369498254783,1.2537613170043171,67.92126140058166,1.004095252147564,122.008732,12.7633078,152.8875456
2278.249,-9.1431356,-200.891342,37.581225800000006,-0.9253486,0.3311922,0.7556666,23.194832,44.8762444,-130.6601866,-25.603382400000005,57.988039400000005,22.039112,-0.9298448,0.2539648,-0.3505205999999999,146.4055846,60.43347,24.189416,204.58073406797507,1.2397541349874013,67.11086619561043,1.0256579170222595,123.2107526,15.5572256,154.8496026
2298.233,-5.416827,-206.50974119999995,39.515114,-0.88024,0.3384212,0.8127326,22.2612924,40.7825448,-131.85679599999995,-21.3768978,52.0127224,24.4732474,-0.9394486,0.2730322,-0.359564,146.2659302,59.339043200000006,24.5235908,210.32607888626623,1.244944033003974,61.32890745246252,1.0423034703841296,124.0046378,18.5564984,156.3803868
2318.218,-1.6508218,-212.0798554,40.8879976,-0.8317816,0.3489708,0.8624381999999999,21.5577192,36.5722546,-132.918997,-14.601477400000002,42.05221160000001,26.8227484,-0.9700644,0.2978154,-0.3714512,145.99606939999998,58.3844566,24.5537668,215.99170962524892,1.247974718562215,51.97164105975093,1.080599346014035,124.4383502,21.812202,157.4727638
2338.203,-0.3431679999999999,-218.30792860000005,41.6476838,-0.7908092,0.347838,0.8979226,20.9845354,32.2421686,-133.90590200000003,-8.9498578,26.6228128,24.6187022,-0.9970042,0.3062476,-0.3659394,145.6129914,57.7135772,24.3207762,222.24535770135608,1.246047936734137,37.34909120763649,1.1053129022117492,124.628456,25.4714086,158.2266782
2358.188,0.9802686000000002,-224.715976,42.1425598,-0.7363024,0.332808,0.9069656,20.5265134,27.7815064,-134.8429748,-4.516781400000001,9.9820294,21.2036508,-0.9837138,0.31299,-0.3808588,145.11850280000002,57.34861600000001,23.849691,228.63557497173812,1.214697076926227,23.867070042344764,1.1003222282349294,124.59198940000002,29.5671096,158.69266580000004
2378.172,3.582491,-230.7066286,42.847258,-0.6723022000000001,0.3254842,0.9293842,20.2075138,23.1899662,-135.73826300000002,-3.666152800000001,-1.2446194,20.8496672,-0.987797,0.3143555999999999,-0.3693516,144.4559784,57.1725052,23.1593972,234.6790792547601,1.1923444149171498,21.206092901677103,1.100446709696985,124.2484646,33.982539,158.89766020000002
2398.157,5.7980702,-236.7844788,43.0063552,-0.589529,0.3170232,0.929851,20.009349,18.478797,-136.62026680000002,-4.319283800000001,-11.2716996,16.9534116,-0.9833128,0.3253609999999999,-0.3656497999999999,143.6957764,57.19924619999999,22.3702156,240.7281736860485,1.1457185663941385,20.81166954611276,1.0983913779727517,123.6864274,38.7204492,158.99048240000002
2418.141,6.259852,-242.0279846,42.6618186,-0.4989149999999999,0.304203,0.9267592,19.884434,13.6674116,-137.50971080000002,-8.852789800000002,-16.7504712,13.598981600000002,-0.9718718,0.3285396,-0.3480972,142.8330536,57.3448614,21.5663236,245.83889408077607,1.0955994967225204,23.321287983774656,1.0833488473484614,122.9486196,43.6774498,159.07603440000003
2438.126,5.5983606,-245.5877502,42.0844322,-0.3959082,0.2926588,0.907456,19.8184676,8.787797000000001,-138.4085632,-13.405961,-15.8834036,11.1200788,-0.9561828,0.3234937999999999,-0.3521948,141.9535828,57.5013746,20.8510514,249.2303836278828,1.03240925411422,23.5724087180802,1.0691000714625922,122.1351152,48.7135776,159.2596146
2458.111,4.2825012,-248.0121124,41.2571878,-0.2921707999999999,0.2814642,0.8780494000000001,19.8023162,3.8654349999999993,-139.3243134,-13.685333600000002,-12.5476788,8.4628166,-0.9734912,0.3083608,-0.3275871999999999,141.192215,57.6394094,20.2831794,251.45676220535944,0.9672417593831648,20.404702002638853,1.0724201010135537,121.3898988,53.7739744,159.6074928
2478.095,3.5544199999999995,-249.2163452,39.9440232,-0.203343,0.2690052,0.8425648000000001,19.8507496,-1.0703904000000002,-140.2696748,-12.7284964,-8.926557200000001,2.1812440000000004,-0.9543232,0.295509,-0.3281022,140.693216,57.7959424,19.998757,252.42215751748915,0.9075393189692004,15.698913001772477,1.0515271716813026,120.8424664,58.8663328,160.2684318
2498.08,2.327927,-248.9069122,38.338064,-0.1288076,0.255194,0.8225389999999999,19.9599224,-5.991958599999999,-141.2525606,-9.375233400000004,-2.1101761999999997,2.5732008,-0.9422526,0.2775768,-0.3377612,140.4100066,57.8363394,19.8825292,251.85288828267173,0.870796062218221,9.948326857147524,1.0387355151001818,120.45008420000002,63.828298,161.1350898
2518.065,1.5924532,-247.2120392,35.869161,-0.0608616,0.2491215999999999,0.7528,20.1556068,-10.8712404,-142.29295059999998,-1.4152450000000023,4.499958600000001,3.7225332,-0.907704,0.2682196,-0.3547168,140.3930542,57.7575332,19.8919678,249.8057744397844,0.795282054331116,6.009142970244693,1.01078796670835,120.2374474,68.6287736,162.1849184
2538.049,3.1318144,-244.4738312,33.1516244,0.0103643999999999,0.2322934,0.7006502,20.4919112,-15.678389999999998,-143.4090822,7.153238199999997,11.9840878,4.5454788,-0.9016412,0.291089,-0.3616314,140.665265,57.5507348,20.0446394,246.73121529997132,0.7382264877603351,14.678165916261388,1.01413358534485,120.1733538,73.2291248,163.45372160000002
2558.034,5.2766666,-239.3676972,30.601223,0.0746257999999999,0.2230526,0.6725278,20.984273,-20.3606082,-144.6010102,10.797092199999998,20.732711,1.153076800000001,-0.8653444,0.3072459999999999,-0.3886996,141.26101079999998,57.2362,20.4960604,241.3735124704742,0.7124711321627285,23.404104159132437,0.9971501462505634,120.2767378,77.59680819999998,165.0970706
2578.019,5.5245574,-232.3621246,28.295498599999995,0.1346778,0.2153988,0.6310472,21.59924,-24.8821784,-145.8685944,15.438133599999995,24.7619362,-5.1821386,-0.8499298,0.3173178,-0.4253032,142.1779754,56.91176,21.2199886,234.14378685780756,0.6802612156239102,29.63686916484144,1.001975081054973,120.5787354,81.7939384,167.088583
2598.003,6.337045600000001,-222.7058868,25.7261732,0.1938744,0.2047836,0.5571624,22.345151800000004,-29.188078599999997,-147.20884999999998,17.3685916,28.5390428,-11.2334938,-0.8207359999999999,0.305598,-0.4570947999999999,143.33773200000002,56.58244620000001,22.1896446,224.2764056913417,0.6244626055882609,35.246791642112065,0.9878934028968104,120.9925802,85.7705248,169.3984946
2617.988,9.3465776,-210.2430572,23.9103808,0.2544862,0.1961776,0.5195344000000001,23.265456800000003,-33.236098,-148.602539,18.9885072,27.7608352,-14.4600684,-0.7920144,0.292028,-0.5013092,144.59197999999998,56.2951904,23.2307912,211.80464566112872,0.6108722202847009,36.61039408171796,0.9817729251695628,121.3265232,89.5312884,171.83333020000003
2637.973,11.7562938,-195.129312,21.5087194,0.2978088,0.2021107999999999,0.4886421999999999,24.3379792,-36.962797,-150.0449036,20.6539268,18.6170246,-13.3056042,-0.7398334,0.2728916,-0.5316844,145.698172,56.1310958,24.0493,196.66286852309764,0.6068855381823824,30.825596512376222,0.9510581403413148,121.3601928,93.0938928,174.0942036
2657.957,14.5418688,-177.4176328,18.5691324,0.3541116,0.2060918,0.425722,25.5583368,-40.329866,-151.5214418,21.3902324,9.2791842,-5.202445200000001,-0.7147994,0.26441,-0.5545576,146.456012,56.02165599999999,24.430013,178.97847651223535,0.5908536845664923,23.889552896664732,0.9425417561350372,120.89767519999998,96.35152200000002,175.95145480000002
2677.942,16.7324736,-156.753224,15.220156999999997,0.4183442,0.2185056,0.3747604,26.883219200000003,-43.2799514,-152.99738480000002,18.8088464,-0.1093231999999993,5.995984999999999,-0.6729932000000001,0.2625664,-0.5535316,146.7187836,55.9369896,24.2798278,158.37677255921562,0.6026623634450389,19.741744871745155,0.9100869155491468,119.8355644,99.216941,177.2772126
2697.927,17.930505,-133.7043166,11.258390199999996,0.481487,0.2326086,0.3226104,28.253431,-45.7655906,-154.43036820000003,16.9844084,-11.0119074,14.467818,-0.6527648000000001,0.2810348,-0.5524728,146.5487824,55.9348694,23.6537404,135.3702280301083,0.6245109784072014,24.88071524223709,0.900171449041748,118.2953514,101.70046,178.0841086
2717.911,19.1651878,-108.0246566,7.192777999999999,0.5350594,0.2525389999999999,0.294719,29.586618,-47.7367554,-155.73449420000003,14.0121256,-18.066113,18.257643,-0.6406614,0.2919786,-0.5438822,146.1017366,56.008609,22.7678632,109.94710961327938,0.6610021157381873,29.258599260292577,0.8896664429912821,116.5151186,103.7453644,178.5023574
2737.896,18.0174924,-79.73448719999999,3.206736599999998,0.5933394,0.2709772,0.2519304,30.7538192,-49.1675408,-156.8167054,10.127760599999998,-16.975175399999998,18.3598782,-0.6409128000000001,0.2982268,-0.541375,145.59348759999995,56.056797,21.9009916,81.8077113788963,0.6992490350056695,26.978014051269835,0.8903905503019898,114.83966839999998,105.2243378,178.717697
2757.881,17.374345599999998,-49.84546339999999,-0.1034742000000013,0.6307626,0.287893,0.2392992,31.677326400000005,-50.0330742,-157.57808219999998,7.869105599999997,-14.132092,15.1151066,-0.6461982,0.30515,-0.5304561999999999,145.1660614,56.0882676,21.186932,52.786824241462405,0.7334902481481264,22.13832185983795,0.889984503405357,113.488735,106.1213418,178.7650142
2777.865,20.8099634,-19.58424499999999,-3.123076600000002,0.6561116,0.2962578,0.2288899999999999,32.385905,-50.3425454,-157.9605162,5.577444399999997,-7.196994600000001,10.854228,-0.6575667999999999,0.303072,-0.5307154,144.9242524,56.04340979999999,20.748443,28.746318657853077,0.7554083318413956,14.167529170024832,0.8977224345216064,112.5383474,106.3859552,178.7089592
2797.85,25.0590884,10.105214200000011,-4.940786600000001,0.663045,0.3087886,0.2639266,32.864542400000005,-50.134839,-157.92160640000003,1.2994355999999978,3.560956,5.1471106,-0.6719612,0.3033842,-0.5283028,144.9219482,55.8791506,20.7006406,27.46788374982019,0.7775836428979972,6.392314763926735,0.9070158078021132,112.0574058,106.0139896,178.622247
2817.835,25.5476954,36.84045740000001,-6.662981600000002,0.6587522,0.3119284,0.3053131999999999,33.061393800000005,-49.4584452,-157.49300520000003,-2.409956000000002,15.9885874,-1.7354620000000005,-0.6938340000000001,0.304496,-0.5257668,145.223944,55.57800159999999,21.1088044,45.324379372412096,0.7902341031780646,16.26206147211413,0.9222549330603984,112.16255019999998,105.0364468,178.6018096
2837.819,28.044943,60.181159600000015,-8.261708400000002,0.656311,0.3053854,0.3386402,33.067756,-48.3843234,-156.7346526,-4.075716000000002,27.2921448,-7.285051,-0.704789,0.2957032,-0.5273014,145.8069458,55.1517686,21.8990602,66.90699981586795,0.7991755478680513,28.54022769301997,0.928555159079524,112.7391898,103.536092,178.6337128
2857.805,33.1601156,80.63345040000002,-9.884871400000003,0.654344,0.3055755999999999,0.3746452,32.9933444,-46.955392800000006,-155.7106292,-6.240389200000002,34.9163664,-12.7397808,-0.7139804,0.2903178,-0.5301536,146.5828858,54.6571382,22.9815016,87.74427202164917,0.8135733178604126,37.68815616050451,0.935475962371006,113.5895414,101.612531,178.69213080000003
2877.788,34.980377,98.333815,-11.767760000000004,0.632053,0.3178424,0.428368,32.8335268,-45.2035388,-154.4891814,-6.792674600000002,39.3042334,-19.0842386,-0.7245876,0.2928804,-0.529641,147.53293159999998,54.1590098,24.3016736,105.03164343631852,0.8270513463327172,44.21731961940808,0.944100475404456,114.6994048,99.3625486,178.790855
2897.773,31.4141912,112.5714828,-15.2290054,0.6147152,0.321719,0.4455348,32.55628420000001,-43.1668094,-153.171414,-5.623663200000002,37.2857158,-23.8808212,-0.7400477999999999,0.2932118,-0.5294302,148.5578554,53.7465426,25.6959382,117.86056488076954,0.824547845842241,44.63343826876631,0.95600221893891,116.0015712,96.913352,178.8673522
2917.758,30.0180482,125.0566986,-19.114458000000003,0.5978406,0.3145432,0.445195,32.256692,-40.8830828,-151.814508,-4.679480200000002,30.2989056,-26.4986088,-0.7439205999999999,0.288519,-0.5226928,149.5368684,53.4782182,27.0192978,130.02162738214952,0.809042270650675,40.52280202349464,0.9538704501331404,117.2801764,94.361301,178.8338058
2937.742,29.9001814,136.617227,-22.8412536,0.5573472,0.3141602,0.4749261999999999,31.9726488,-38.3496942,-150.4328796,-6.407060400000003,19.8269412,-28.1969502,-0.7395796,0.2807315999999999,-0.5125244,150.359195,53.40348680000001,28.1970042,141.70395346263967,0.7967982354764097,35.06031974895245,0.9425865883673924,118.3865462,91.753181,178.62988379999996
2957.727,24.4967024,146.84410380000003,-27.5266988,0.5115326,0.3268343999999999,0.4927914,31.649424,-35.583870399999995,-149.08116460000002,-11.333194000000002,7.5409466,-26.192576000000003,-0.7655263999999999,0.2639308,-0.5093173999999999,150.87099619999998,53.5291908,29.1097496,151.39682426036973,0.7818757508709936,29.518777064462945,0.9566056398685718,119.2215722,89.1130612,178.1909142
2977.712,15.822946599999998,155.74530020000003,-32.13926360000001,0.4698686,0.3252368,0.5190051999999999,31.2304634,-32.6080426,-147.77713640000002,-15.4703348,-9.2097628,-21.3808154,-0.7869024,0.2424638,-0.5056892,150.97217099999995,53.9068236,29.609985,159.81206599704814,0.7719597625312086,27.951569845452905,0.9662948041011292,119.7417076,86.5148662,177.3871214
2997.696,9.5525304,163.88885180000003,-34.9589226,0.4209379999999999,0.3144142,0.5475657999999999,30.7581526,-29.455167400000004,-146.5021394,-17.217298400000004,-24.8768102,-17.189843,-0.7991558,0.2251592,-0.4907182,150.7289092,54.5237906,29.7242484,167.8479456255515,0.7588632250513131,34.79628934651101,0.964443367870566,119.9707566,83.978958,176.2263878
3017.681,6.889437599999999,171.617456,-37.022129,0.3660738,0.3150692,0.5650062,30.301079000000005,-26.1304528,-145.2460358,-20.4360478,-38.1535818,-11.7260884,-0.8176864,0.2027671999999999,-0.4751559999999999,150.0940978,55.322084800000006,29.4367214,175.70046553737097,0.7433105904489187,44.84226804051943,0.9672118746566338,119.7930188,81.4525376,174.68275720000003
3037.666,3.090613,178.31527400000002,-39.2855086,0.3088108,0.3433294,0.6121960000000001,29.855472,-22.652977,-144.026538,-21.218896,-47.8249104,-4.703722399999999,-0.8472873999999999,0.1872178,-0.4543336,149.11252740000003,56.2262124,28.7469734,182.61774288488928,0.766826661975834,52.53178663098282,0.9794720327424156,119.2570554,78.8791894,172.77351140000002
3057.65,-5.5626098,183.2362824,-40.913935,0.2366614,0.3488242,0.6787713999999999,29.3163466,-19.0567048,-142.8451994,-15.232927400000005,-54.3190846,-3.3138554,-0.8803335999999999,0.1941892,-0.4449346,148.0821136,57.22333080000001,27.859634,187.83084915088853,0.7990103592654854,56.51182766968112,1.0053176070092276,118.765767,76.28003559999999,170.7048334
3077.635,-9.902222,186.5870086,-41.821210400000005,0.1703528,0.3282284,0.7033758000000001,28.7786288,-15.383028200000002,-141.7097714,-9.6166896,-53.4445348,-4.568478999999999,-0.8972358,0.1991964,-0.4168214,147.16016840000003,58.21941,26.9784592,191.47265971452643,0.794664378879562,54.49467881568438,1.0091835145663846,118.3815396,73.60243820000001,168.6882306
3097.62,-7.181764799999999,189.82612620000003,-42.8375426,0.099736,0.3458152,0.7194894000000001,28.377270400000004,-11.6275134,-140.61269199999998,-9.879100200000002,-47.9615556,-3.0142932,-0.8966901999999999,0.1930506,-0.400136,146.2490082,59.099723,26.1219808,194.732100563178,0.8044876748337416,49.06111902340894,1.0007150780478926,117.8717378,70.7272364,166.7346728
3117.604,-9.0788436,192.23811340000003,-44.788108,0.0237092,0.3704189999999999,0.7797086,28.0226694,-7.7968604,-139.567285,-6.455243000000001,-40.63874439999999,-2.5929454,-0.9278384,0.1924204,-0.3902962,145.49063719999998,59.846504200000005,25.3703748,197.59527388812768,0.8635495716168238,41.22985659015759,1.024812583151261,117.4679678,67.6433646,164.9376598
3137.589,-15.2795868,193.4479768,-46.05139080000001,-0.0628614,0.3731808,0.8201836,27.6186938,-3.9270116,-138.5686828,0.7854213999999985,-34.3016748,-7.674701400000001,-0.9501138,0.2070232,-0.3978946,145.110028,60.5361702,24.895366000000003,199.4400062560328,0.9032810209494938,35.1585384002193,1.0506640523963118,117.49133419999998,64.4631818,163.4640488
3157.573,-15.4429816,192.3967134,-47.140049,-0.1380497999999999,0.3429568,0.8368676,27.27537,-0.0644260000000001,-137.62955019999998,6.746045999999998,-25.2867478,-8.7447974,-0.9088182,0.1971182,-0.377538,145.0490812,61.084845,24.6531536,198.68861373400864,0.9148904272512856,27.593481703148075,1.003663811675244,117.7737112,61.149271,162.2827038
3177.558,-10.6597766,191.4427614,-48.505521400000006,-0.214548,0.3650622,0.803854,27.0837548,3.794344,-136.7408724,10.3137442,-15.828276400000002,-4.041097199999999,-0.8901219999999999,0.205871,-0.376175,145.0934448,61.411776,24.4544734,197.7795422583061,0.9085606790351648,19.319371620155724,0.9880322232346472,118.00969,57.617432,161.19534579999998
3197.543,-7.621357799999998,191.4337738,-50.9507302,-0.283244,0.3739005999999999,0.8283875999999999,27.0135178,7.6803732,-135.9001834,15.606123599999998,-7.1258946000000005,1.3179592,-0.9065662,0.2240284,-0.3875442,145.2457794,61.5267174,24.2628082,198.24467648322457,0.95197417929801,17.206582581141753,1.011059595643422,118.2322616,53.8463442,160.1629916
3217.527,-9.4699844,190.5727632,-52.5100556,-0.375262,0.4039843999999999,0.9002751999999999,26.955550800000005,11.5736494,-135.0919528,20.2043882,-4.179741,5.349376,-0.9336804,0.2436458,-0.3778959999999999,145.4191346,61.5502884,23.9937244,197.90140125156924,1.0557084824052518,21.31439328136638,1.036304854769001,118.4635838,49.976639,159.08567720000002
3237.512,-11.9682298,187.2632448,-53.95873340000001,-0.4310169999999999,0.3624524,0.8644268,26.88996,15.424147,-134.33666720000002,24.6515306,2.9005618,8.201164799999999,-0.9169044000000002,0.256563,-0.366598,145.7235474,61.4210746,23.778512600000003,195.24934388546,1.031688465144881,26.14135275296813,1.0202609202122566,118.83358739999998,45.9969276,158.11517980000002
3257.497,-4.3925036,186.145282,-53.771846,-0.4865462,0.3657068,0.7686326,27.0303446,19.2525776,-133.57108180000003,18.7766766,5.845463400000001,10.9668116,-0.9137176,0.2578408,-0.3789382,145.8912996,61.206478,23.5403328,193.80601518266468,0.9804410956724732,22.51674894765276,1.0222308399347184,118.860955,41.9539004,157.11141460000002
3277.482,5.080564800000002,188.1094116,-53.511872800000006,-0.5378278,0.3793948,0.7890964,27.442476,23.112238400000003,-132.7388064,13.7629592,1.3008206000000002,11.9060762,-0.9589422,0.2657022,-0.3865497999999999,145.83956919999997,61.0647956,23.1655122,195.63865518283595,1.027556463272379,18.24461100310049,1.0675151286542597,118.3970932,37.9525572,155.90431859999998
3297.466,2.602501600000002,189.775757,-52.86107940000001,-0.6120682000000001,0.4224956000000001,0.8565035999999999,27.8976004,26.975959,-131.8133974,11.486228,-11.1307098,8.403918,-1.0217944,0.27122,-0.3396712,145.5853456,61.1674994,22.6121982,197.0175237760189,1.1343405265984108,18.06798195899376,1.1104056053446416,117.68774520000002,34.1915404,154.4255956
3317.451,-2.418676799999998,188.6739258,-52.9751624,-0.6561738,0.3814994,0.7863656,28.3220428,30.8050588,-130.8443056,13.6515272,-19.483627,0.1752734000000003,-0.9899728,0.2802608,-0.3368562,145.4240938,61.5008452,22.119826,195.98486703200615,1.092921179623746,23.790893987662937,1.0826192129437386,117.102051,30.6957864,152.9641316
3337.436,1.691790800000002,188.6578704,-52.60349180000001,-0.7321145999999998,0.3853986,0.685381,28.9203248,34.6199968,-129.7934816,7.8675412,-32.943924800000005,-7.710512599999999,-0.9661753999999998,0.2731812,-0.339877,145.1196048,62.1420042,21.5905418,195.86163884111363,1.0743700403381136,34.73690242834717,1.0600185124457024,116.19928,27.5220074,151.3840234
3357.42,7.470476600000002,188.78088380000003,-52.8664168,-0.8061375999999999,0.4063241999999999,0.6943414000000001,29.7527848,38.4318208,-128.63959979999998,5.617557199999999,-47.521507,-14.240911,-0.9541794,0.3109544,-0.3409994,144.62368499999997,63.09591439999999,20.9027156,196.18585100412207,1.1388885658366057,49.92648718422159,1.059920542806903,114.8709002,24.6640936,149.54231539999998
3377.405,5.151172600000001,186.6662506,-54.29812460000001,-0.90233,0.4283034,0.7331852,30.6543096,42.2010774,-127.4024614,4.047399799999999,-55.1620134,-18.7899062,-0.9310662,0.3193982,-0.32882,144.0061312,64.21555860000001,20.1251876,194.4713604294836,1.2390334010229909,58.414807561847006,1.0377967389357514,113.3518216,22.0144812,147.527649
3397.389,2.988700000000001,180.3601012,-55.6779394,-0.9622884,0.38455,0.6679992,31.5869798,45.8634928,-126.1408524,7.185521199999999,-55.98220160000001,-18.3545322,-0.9122742,0.3181688,-0.3455116,143.3057008,65.3418396,19.205072,188.7822326607944,1.2329235979878073,59.35088426619716,1.0260866761700205,111.718721,19.4783468,145.3459244
3417.374,9.3080582,173.868927,-54.829457800000014,-1.0287016,0.3867464,0.5687462,32.7827264,49.3900628,-124.7747726,8.348502399999997,-57.40296500000001,-19.5988528,-0.90084,0.2848726,-0.3711592,142.5981904,66.495076,18.2518924,182.5467424147249,1.2374457562939718,61.22836690775036,1.015098150710265,109.815464,17.1050132,143.026665
3437.359,16.659631,166.05128180000003,-54.1241562,-1.0746738,0.4044468,0.5783422,34.257164,52.7639054,-123.3059814,13.2796494,-53.5303704,-19.2791996,-0.8789393999999999,0.2892928,-0.377596,142.0608094,67.587323,17.3756488,175.44228617081225,1.2856829666513905,58.42548399940522,0.9994015870610772,107.8036454,14.8234176,140.6816302
3457.343,16.622487200000002,155.801645,-54.839015200000006,-1.125692,0.4241332,0.5945043999999999,35.8093568,55.9482178,-121.80072320000002,22.2581422,-43.0742776,-12.039861999999998,-0.9002908,0.2975484,-0.3710479999999999,141.6827148,68.4251648,16.4817088,166.00535308695927,1.341829695537254,49.957747766851206,1.0182019412725551,105.873358,12.476947,138.28243200000003
3477.328,12.3828742,141.1461702,-53.96830980000001,-1.1363756,0.4082504,0.527763,37.3000496,58.855732,-120.3220092,30.5274204,-34.7620186,-8.483262999999997,-0.9134358,0.333457,-0.3798191999999999,141.5373138,69.0835984,15.6656066,151.61845335660556,1.3177828643386285,47.03495598543972,1.0439449967595418,104.2372642,10.227866400000002,135.9876158
3497.313,13.0730538,124.8406924,-50.522918,-1.1538256,0.4079092,0.4572736,38.8220948,61.44085,-118.86893,26.8634742,-24.5544622,-17.4397652,-0.8741351999999999,0.3303476,-0.3999258,142.00652759999997,69.68209859999999,15.588801999999998,135.30952833338765,1.306446545372967,40.35731990923611,1.0164558673205837,103.1844328,8.241248600000002,134.45773200000002
3517.298,14.927841,107.569713,-47.7058648,-1.1435494,0.4155527999999999,0.4703863999999999,40.291672600000005,63.6956398,-117.533763,15.551603599999998,-8.132111400000003,-20.1962036,-0.8494249999999999,0.3565756,-0.3957719999999999,142.9186338,70.04133320000001,16.2284104,118.6167489359725,1.304474118230469,26.75575172194188,1.0026487246909357,102.6269612,6.3456934000000045,133.7621734
3537.282,13.9387076,89.10670260000002,-45.126789200000005,-1.1094028,0.474176,0.5295354,41.5198594,65.61564619999999,-116.4466948,1.536009199999998,7.3926894,-17.5491314,-0.897386,0.3812322,-0.3688504,143.96051000000003,70.1053744,17.3040382,100.84998324890483,1.3175830871246792,19.10453332907724,1.042444358655655,102.4406506,4.489728200000004,133.750733
3557.267,5.726981000000001,70.06214380000002,-40.5327454,-1.0469108,0.5258010000000001,0.5500458,42.3252838,67.1825606,-115.6444044,-14.676213800000005,17.449365800000002,-21.8203054,-0.9294534,0.3922953999999999,-0.3217592,145.171417,70.0488284,18.9060116,81.14435134306925,1.294233092165117,31.559425629671864,1.0589184512592835,102.8461332,2.866267800000003,134.55041599999998
3577.251,-3.162337399999999,53.736598600000015,-33.8287342,-0.9878654,0.5436514000000001,0.5928956000000001,42.781025,68.4222686,-115.0270368,-30.915778,25.8724534,-28.5240434,-0.9626946,0.3263466,-0.2529064,146.6086516,69.9282228,21.096608,63.57676984955442,1.273954506934404,49.38410904497052,1.04749445982386,103.8276266,1.5059541999999992,136.12364480000002
3597.236,-11.424094399999998,39.92703040000001,-26.753566400000004,-0.9418692,0.5664236,0.6177206,42.9370132,69.366597,-114.5487196,-33.7919348,25.7968062,-24.7975492,-0.9750938,0.2793632,-0.2000194,147.8328674,69.7601044,23.1224438,49.40071866422437,1.2607664431646173,49.21675033943454,1.0338566035427932,104.8958542,0.3935073999999986,137.67116339999998
3617.221,-20.5412832,27.355568800000007,-18.6771188,-0.9232654,0.5741615999999999,0.6217590000000001,42.8050468,70.0204666,-114.1906936,-24.5969558,20.553947,-16.4291198,-0.9878788,0.2468658,-0.168903,148.70477,69.58977359999999,24.5765366,38.9757132910156,1.2524634908182832,36.01931355965456,1.032170271858321,105.8997232,-0.4306930000000051,138.7672302
3637.205,-31.3124628,14.77593920000001,-10.110442800000005,-0.931489,0.5297267999999999,0.5515548000000001,42.3761726,70.3601548,-113.9248352,-10.471260800000003,11.5919674,-6.439180199999998,-0.981143,0.239279,-0.1822803999999999,149.1180786,69.459642,25.24189,36.06965150172029,1.2051949788985516,16.8962733344472,1.0262174089900056,106.741906,-0.9005128000000042,139.16672519999997
3657.19,-36.7291636,0.5353646000000112,-2.0462458000000026,-0.96586,0.4513234,0.4943972,41.647269400000006,70.36699680000001,-113.8579148,2.456584799999997,4.558233400000001,-0.5806765999999971,-0.941456,0.2239588,-0.2438418,149.3179566,69.38731379999999,25.4032616,36.79001489377948,1.1751625174227605,5.210516857496399,0.997975835108586,107.6706872,-0.9796830000000056,139.2611764
3677.174,-35.664857999999995,-17.26813519999999,3.913988199999997,-1.009498,0.4050832,0.4283758,40.5616866,70.009784,-114.195923,11.5260154,2.1262232,5.587384600000002,-0.858131,0.2539396,-0.3269512,149.35065,69.292067,25.191684,39.818210570986,1.1690527947667206,12.984172009241584,0.9527702875250676,108.7889634,-0.7177170000000018,139.38760699999995
3697.159,-30.820290199999995,-36.34971239999999,7.743756199999997,-1.0432634,0.3581702,0.4095577999999999,39.1160644,69.29133,-115.0343598,8.206620199999998,7.303425199999999,10.911464400000003,-0.8383025999999999,0.3067702,-0.3800632,149.201422,69.04460459999999,24.8586558,48.282063332670106,1.176614637631387,15.483820268638825,0.9702098952129068,110.0853576,-0.2467254000000024,139.8930156
3717.144,-26.9296432,-55.31876439999999,10.143452199999995,-1.0624742,0.32487,0.4286647999999999,37.3213592,68.2258424,-116.3429398,-5.448139800000002,13.4986594,11.803165200000002,-0.8615055999999999,0.342328,-0.4069158,148.8822142,68.6703354,24.6398734,62.35592193333122,1.1908591240464508,18.740617428890744,1.012403490069547,111.56085500000002,0.4444929999999999,140.9828132
3737.129,-23.4949432,-72.71765579999999,12.233250199999995,-1.0745736,0.2914188,0.4738244,35.27416000000001,66.84738560000001,-118.0165848,-21.238474,19.3384836,7.098149800000003,-0.892362,0.3053068,-0.4131626,148.6334534,68.24967819999999,24.833126,77.39200366623349,1.2100177274923538,29.587724758409276,1.0296725281413504,113.3592934,1.4022925999999998,142.8497108
3757.113,-20.6454548,-88.37183359999999,13.839359199999995,-1.0781481999999998,0.2807728,0.5160292,33.132346,65.1750674,-119.88618920000002,-31.39987,23.9050832,3.361065400000002,-0.9179912,0.2597623999999999,-0.4022392,148.476648,67.785753,25.3423848,91.80056449059316,1.2278122990244558,39.6068377864088,1.0353650186035068,115.344302,2.610685599999999,145.228574
3777.098,-18.0797612,-102.5576934,14.786151199999995,-1.0803034,0.2837184,0.5519722,31.0186734,63.2316294,-121.8181594,-35.4556966,25.9925734,2.1911026000000016,-0.948237,0.2499188,-0.3895374,148.3222474,67.2884812,25.945351400000003,105.18359429058644,1.24588317113723,44.01728324135152,1.055155060055725,117.303574,4.056851799999997,147.7635108
3797.083,-15.4381404,-116.97682639999998,15.287548399999997,-1.080399,0.285515,0.5806788,28.9939374,61.01370039999999,-123.747937,-35.630352800000004,26.7729876,0.2820324000000017,-0.9389272,0.2560212,-0.3923786,148.2458742,66.79288799999999,26.6400594,118.97740638334736,1.2593524856827971,44.56898526954447,1.049329360823969,119.2519368,5.779187599999998,150.3879964
3817.068,-9.6453752,-132.1317092,15.7175312,-1.07298,0.2916274,0.6232432,27.148896,58.5008158,-125.65126959999998,-35.222609,29.300390400000005,-0.0612153999999982,-0.9021922,0.2676518,-0.3894506,148.2266756,66.255536,27.3931218,133.41237808346386,1.2746625856190337,45.81646876052858,1.018459631808959,121.0777796,7.754720199999999,153.0443914
3837.052,-3.5492711999999984,-147.15569,16.5132746,-1.0561866,0.3050914,0.6859742000000001,25.5166096,55.6842492,-127.5004776,-37.811316,32.9766908,3.786441400000002,-0.8719482,0.2984056,-0.3852688,148.0459932,65.6073334,28.0357686,148.1218507291961,1.2958284992386764,50.31396319359363,0.9988851855183556,122.5293836,9.9230842,155.5362462
3857.037,1.2900216000000018,-161.36976019999997,18.0217204,-1.0251186,0.3182638,0.7325224,24.1077958,52.5786378,-129.25681,-39.6241546,37.1325262,10.029432600000002,-0.8801988,0.3051118,-0.3738812,147.6736452,64.8348304,28.512704000000003,162.37809602563314,1.29951877899404,55.22216627438959,1.003807894835521,123.5658494,12.256192600000002,157.76951400000002
3877.021,5.353367000000001,-174.3039398,20.892916,-0.9865918,0.3228744,0.7777234,22.9420694,49.20024719999999,-130.8761154,-36.781763,38.3575822,15.055188600000005,-0.899367,0.2730148,-0.3676694,147.24688740000002,64.01117239999999,28.8602442,175.6332426023666,1.2970986642927975,55.23459880726479,1.0092466841186054,124.304818,14.810925200000003,159.73635959999996
3897.006,9.990427800000004,-185.5867768,24.8741836,-0.9415,0.3302306,0.8464636000000001,22.0567712,45.5668532,-132.32248840000003,-26.6808948,36.6765206,21.3765754,-0.9183594,0.2545174,-0.3545982,146.7946932,63.170268,28.9507212,187.5126272558905,1.308424673147568,50.13975754311918,1.016810197585744,124.737922,17.603414800000003,161.2732096
3916.994,11.992821400000002,-195.6685364,29.3872848,-0.9042404,0.3394636,0.8912692,21.4022474,41.712245,-133.59221480000002,-14.276938400000002,30.5566224,27.669396800000005,-0.9570178,0.2462936,-0.346465,146.26734019999998,62.3825552,28.6775764,198.22617488607992,1.3142477025225343,43.62492019304364,1.0471779233457894,124.8650928,20.670310200000003,162.2697912
3936.975,12.971260600000004,-205.4392486,33.159695799999994,-0.8661325999999999,0.3415034,0.9100494,20.9239652,37.6607726,-134.7286376,2.6835691999999987,21.5170946,31.9988692,-0.9892014,0.2350114,-0.3427574,145.7865082,61.71530200000001,28.0680836,208.502047693624,1.3019217193958628,38.65377774235329,1.072954986542623,124.862543,24.0545294,162.7967212
3956.96,14.9763968,-215.6073516,36.6851096,-0.8316886,0.3346908,0.9539848,20.601173,33.4019408,-135.7764588,17.4854506,10.5836958,34.071547,-0.99024,0.2486266,-0.3489167999999999,145.324469,61.2033972,27.1421182,219.2182013233415,1.309125989966451,39.73192563223166,1.0789501272764186,124.723296,27.8014564,162.91857699999997
3976.945,17.7700818,-225.8144012,39.73093239999999,-0.7868920000000001,0.3211579999999999,0.9926952,20.4276958,28.9341774,-136.769928,27.565975400000003,-0.2312367999999999,35.2599138,-1.0121206,0.2734834,-0.3408984,144.80229500000002,60.84565640000001,25.9191026,229.9705776525915,1.306822574311846,44.75709989928425,1.1024486374169455,124.3745992,31.911479,162.68903059999997
3996.929,18.1764092,-234.9148772,42.461659,-0.7224976,0.32014,0.9949006,20.3517704,24.2831076,-137.72196660000003,30.8558612,-10.1723566,32.2760282,-1.0278426,0.264848,-0.3352084,144.2434968,60.6774368,24.5751514,239.4125599594332,1.2705587768718611,45.79632087360756,1.113090088406738,123.8917264,36.3943292,162.297118
4016.914,18.082981600000004,-242.6003844,45.1922736,-0.6251534,0.3063132,0.978316,20.3550194,19.4664036,-138.639969,33.141389999999994,-15.6571332,32.186804800000004,-1.0288254,0.2533292,-0.334895,143.645511,60.58920820000001,23.128282,247.4354104159527,1.200727590205955,48.779995432635545,1.1112209718515935,123.2904916,41.1228046,161.768251
4036.898,18.1960598,-248.3082,47.68921039999999,-0.5198577999999999,0.3042408,0.9845322,20.4424266,14.520777,-139.52738960000002,32.169318,-19.7414048,29.6910388,-1.0276704,0.255228,-0.3092262,143.0274232,60.580259,21.677844,253.50013721507264,1.1541742716948424,48.02234760073369,1.103117684468253,122.5849966,46.059482,161.2052336
4056.883,14.371982400000002,-252.407547,49.7865454,-0.4134331999999999,0.3114256,0.9493184,20.5387088,9.4813548,-140.3891724,24.6189444,-19.3112702,23.8500484,-1.0333978,0.2698156,-0.2914988,142.42584240000002,60.6288696,20.4226926,257.67193049210726,1.0812577582501592,39.34262813781054,1.1071056956992136,121.8871336,51.1475148,160.811865
4076.868,10.5696442,-254.8832062,50.24326839999999,-0.3102752,0.3014708,0.8830508,20.6412788,4.38739,-141.2543,18.079086,-14.9702438,19.5840528,-0.996225,0.252343,-0.2832666,141.9043518,60.6538254,19.4112322,260.0029849844435,0.9833280522634956,30.569538336390075,1.066011823081508,121.263073,56.2664354,160.6655322
4096.853,10.095487800000004,-255.795877,50.127626,-0.2180132,0.2964712,0.842662,20.8159694,-0.7270458000000002,-142.1339418,12.1808766,-9.002515400000002,18.9577558,-0.9656782,0.2798562,-0.2793044,141.39074699999998,60.58832159999999,18.55018,260.8567201597746,0.919513009178054,24.26552169734041,1.0434868597606008,120.5747776,61.3153674,160.6841218
4116.837,10.421966800000002,-255.2037688,48.6526596,-0.1489428,0.292096,0.8110056,21.081206,-5.8216092,-143.0583436,6.141503,-4.999183,14.057957600000003,-0.973709,0.296584,-0.2777698,140.9724182,60.5242126,17.9403408,260.0089657836007,0.874776608123011,16.134932960811952,1.0550958949446445,119.8912122,66.3458218,160.9986844
4136.822,11.459436200000004,-253.5733976,47.16865779999999,-0.0858049999999999,0.2823293999999999,0.7549817999999999,21.4613606,-10.8803726,-144.0357178,2.7016016,4.0190478,11.349903000000005,-0.9526762000000002,0.2929656,-0.3053566,140.76514600000002,60.3570014,17.651444599999998,258.17759183764,0.8105984865891374,12.339841754788289,1.04243150278249,119.3037854,71.237374,161.68716239999998
4156.806,15.104152600000004,-249.4959012,45.1529192,-0.0152723999999999,0.2654675999999999,0.695362,22.0154852,-15.843066000000002,-145.07976979999998,6.545612800000001,11.2609612,9.683948000000004,-0.9206628,0.2821724,-0.3261632,140.8511414,60.09160920000001,17.6086026,253.99828002103865,0.7444693438251975,16.230623615318464,1.0166728518357515,118.8356562,75.9346752,162.6883724
4176.791,18.0798006,-243.4392362,44.2292498,0.0478716,0.26203,0.6649128,22.7361372,-20.6722694,-146.178836,9.0247264,18.0925254,3.822158200000003,-0.8948138,0.310577,-0.3568851999999999,141.29115919999998,59.7783768,17.9175756,248.08419427534264,0.7162823762947124,20.57654138212565,1.0121842004193111,118.555022,80.45064620000001,164.09641159999998
4196.776,19.3752206,-235.3491728,42.7772082,0.1039864,0.2506743999999999,0.627416,23.5913316,-25.3230388,-147.34302659999997,9.8437936,24.9466598,-2.5909933999999977,-0.8881496,0.3003744,-0.4037836,142.0901644,59.4189858,18.6149682,239.9885869209806,0.6835946629811558,26.943447337250305,1.020821085099872,118.4988328,84.7420246,165.9579948
4216.76,19.084798,-224.7054106,41.2872598,0.1669378,0.237549,0.5763662,24.547986400000003,-29.742495,-148.5636748,11.9926334,31.3829418,-5.838658999999998,-0.8496878000000001,0.2890628,-0.4555965999999999,143.1577608,58.9770638,19.5699448,229.2627071492616,0.645364821610444,34.09988608202766,1.0065261654543514,118.6097744,88.71955879999999,168.1336196
4236.745,18.4648006,-211.6261046,39.2222398,0.2307004,0.2205934,0.5125402,25.600464,-33.8936264,-149.83947139999998,14.1390676,30.166196799999994,-7.957325999999997,-0.8053124,0.2805756,-0.4972354,144.2860506,58.565761,20.545826,216.020696009194,0.6038059119450223,34.25246996997407,0.9871645110731444,118.6855866,92.4593874,170.38529739999998
4256.73,18.9199292,-196.7188536,36.56034559999999,0.29277,0.2071667999999999,0.472248,26.7606842,-37.7411744,-151.1645936,13.933568200000002,23.0442054,-6.9695069999999975,-0.7659727999999999,0.2722516,-0.5182718000000001,145.2337344,58.25026799999999,21.3165508,200.97992425369924,0.5930012895654106,27.816429553853407,0.9640751644543282,118.4730502,95.9914424,172.4811444
4276.715,18.8586018,-178.9099912,32.4325808,0.3670168,0.2081331999999999,0.4035033999999999,28.009734200000004,-41.215156,-152.5347474,10.7581582,12.3888462,-2.6262181999999976,-0.7361928,0.2651392,-0.5333622,145.7955386,58.0568072,21.709841,182.80126944412496,0.5838114029684929,16.616813775736095,0.9469708921277992,117.7858044,99.2719632,174.24458840000003
4296.699,16.655936200000003,-158.0118498,28.034545599999998,0.4484076,0.1977002,0.3211172,29.2639166,-44.2622338,-153.897989,6.630509999999999,0.4137614000000006,1.1349486000000026,-0.7084996,0.2610296,-0.5253508,145.943857,58.0100054,21.7163028,161.34156511858532,0.5858933358160341,6.739656495762371,0.9198378108867672,116.6799404,102.2722392,175.6142918
4316.684,16.4013038,-133.21699819999998,23.22689,0.5254154,0.1944192,0.246505,30.4936338,-46.8192658,-155.17371540000002,3.4139814,-8.587183399999999,2.188426400000003,-0.68486,0.2472366,-0.5113392,145.8371188,58.0984972,21.497137,136.21769266446557,0.6120660772423187,9.496536097598876,0.8897341925745015,115.34348500000002,104.917763,176.6708524
4336.668,16.9769138,-104.2620804,18.5666692,0.5914116,0.2070644,0.2032061999999999,31.6134554,-48.8098488,-156.2448884,-1.6110776000000002,-14.7854412,2.234978000000003,-0.6835522,0.25044,-0.4963279999999999,145.5254976,58.281036400000005,21.1519504,107.25445546312248,0.6587382682677241,15.03994578355797,0.8810818845651295,113.9120422,107.0908852,177.3968388
4356.653,15.776146400000002,-72.0372932,13.258959999999998,0.6392224000000001,0.2182776,0.1526416,32.5087946,-50.1803344,-157.0229218,-5.1362726,-15.2382322,1.028953800000003,-0.6822262,0.2567578,-0.4888454,145.1722902,58.4718292,20.8389164,74.92702067411061,0.6924953757059177,16.113465261239188,0.8776827336392349,112.6634956,108.6521636,177.86183820000002
4376.638,16.3114582,-38.064949,8.427296199999997,0.6614082,0.2211414,0.1461798,33.1281874,-50.9180632,-157.4119568,-6.453888000000001,-10.1412376,-1.5849215999999973,-0.689663,0.2567764,-0.4772345999999999,144.95874039999998,58.59943380000001,20.7199586,42.26136926586126,0.7125537591994305,12.12474110463165,0.8771100481713341,111.830553,109.517497,178.13191540000005
4396.622,18.1365126,-4.3752364,2.9813767999999974,0.6605032000000001,0.2369412,0.150711,33.4758536,-51.027446,-157.3943908,-4.460090599999999,-1.0867833999999994,-3.3065425999999976,-0.6827281999999999,0.2599482,-0.4708756,144.991797,58.5959778,20.8460252,18.893501276084905,0.7177182002629445,5.657449096928637,0.8691459557714342,111.5159434,109.6234238,178.240416
4416.607,19.3993658,27.036422800000004,-2.7715966000000027,0.6489402,0.2500178,0.179561,33.562808999999994,-50.548893,-157.0010528,-4.0009458,5.8433274,-4.747023199999997,-0.6803574,0.2760686,-0.4544028,145.1851318,58.49060360000001,21.1544424,33.39139558292976,0.7182439949027628,8.525624414637711,0.863470884447507,111.6223228,109.03949659999998,178.15549520000002
4436.592,19.8974214,55.3025454,-8.870466200000003,0.6309414,0.2490146,0.222864,33.43033440000001,-49.5440132,-156.2995454,-2.6204394,13.8359326,-7.672747199999998,-0.6790196,0.2819416,-0.4508618,145.6176666,58.28354420000001,21.7155504,59.438742219982935,0.7139773692093608,16.036545237547983,0.862458721153633,112.1873322,107.8275574,178.01509579999998
4456.576,19.690690600000003,80.4746912,-14.288497400000002,0.6138516,0.2526502,0.2758509999999999,33.1185524,-48.0682518,-155.3476076,-0.7226085999999999,19.8245246,-11.031218599999995,-0.6911182,0.278579,-0.454729,146.2799132,58.0182816,22.5042736,84.07175731474923,0.7188460785061014,22.69849604281713,0.8729427753600119,113.1613608,106.08653339999998,177.85188119999998
4476.561,16.603455000000004,102.0099916,-19.751734200000005,0.5932185999999999,0.2544904,0.32249,32.641035800000004,-46.174797,-154.2307404,1.739947,21.8985364,-14.329849,-0.7088004,0.2719086,-0.4568294,147.1088866,57.759652,23.4338916,105.22283073590326,0.7215770722369994,26.228188736314504,0.8860165881621405,114.4678508,103.934449,177.66463199999998
4496.546,12.9928908,120.8707276,-24.639470600000003,0.5784214000000001,0.2569664,0.3411692,32.0443702,-43.9055594,-153.009781,3.1518696000000004,20.3000016,-17.390725399999997,-0.7327636,0.2588674,-0.4589132,148.0177154,57.568077,24.424763,124.03891128731496,0.7190267517523671,26.915825769862824,0.9025276446746436,115.9733452,101.4736364,177.43454400000002
4516.53,9.64129,137.6286912,-29.5115808,0.5539464000000001,0.2602858,0.3661368,31.3840354,-41.2957068,-151.7412904,1.3252470000000005,15.1932568,-20.2448232,-0.736435,0.254069,-0.4536816,148.86833500000003,57.4940604,25.3938812,141.08701044250665,0.7132050673325591,25.34648295525463,0.9015068275751216,117.4842996,98.7897672,177.13517159999998
4536.515,5.378759600000001,152.12911979999998,-34.3353572,0.5262372,0.2722892,0.4029201999999999,30.6797812,-38.369553,-150.4725648,-4.676835800000001,5.376067,-22.0362532,-0.7640522,0.2552076,-0.441894,149.47080699999998,57.6166496,26.2168244,156.04844408070505,0.7165275198263636,23.159692238524254,0.9187910484210216,118.7910258,95.98620259999998,176.6893892
4556.499,-0.2885355999999984,164.6293792,-39.02167360000001,0.4876197999999999,0.2894204,0.4258436,29.943508,-35.160774999999994,-149.245163,-9.4671776,-7.882655600000001,-22.9225704,-0.8147252,0.2663686,-0.4232204,149.7635622,57.991384800000006,26.7944158,169.1910362847713,0.709140330928343,26.023219338911723,0.9559523469070832,119.8200542,93.1521598,176.03957880000002
4576.484,-5.642218599999998,175.9090636,-43.672233600000006,0.4479575999999999,0.2929152,0.4302586,29.195676400000004,-31.6994286,-148.0816224,-13.404146399999998,-19.4544872,-22.444129999999998,-0.8272628000000001,0.2583562,-0.402601,149.772455,58.5696358,27.1308404,181.33697161630332,0.6867224975656179,32.58661050776064,0.9556145831574988,120.5767786,90.2690644,175.2124628
4596.469,-7.056102599999998,186.5860228,-47.5924066,0.3865608,0.2945314,0.4829786,28.5116104,-27.9991112,-146.9742096,-19.189997,-33.4649864,-17.447276199999997,-0.8356328,0.2398969999999999,-0.3784248,149.2775118,59.3427628,27.014662999999995,192.6893086141615,0.6851615325896222,42.33873812965238,0.9481761842083356,120.7659014,87.341874,173.9888726
4616.453,-9.030409399999998,195.2434874,-50.771804200000005,0.3237493999999999,0.3066322,0.542,27.8761504,-24.093132200000003,-145.921637,-19.2848986,-45.811215,-11.386739199999996,-0.8975971999999999,0.230723,-0.3574116,148.3601046,60.2712304,26.4132328,201.9389604998716,0.7018553840195286,50.99247555666741,0.993306039441722,120.4839542,84.3643626,172.33486980000004
4636.438,-12.399866799999998,202.1051208,-53.63856440000001,0.2421473999999999,0.3199516,0.5779086,27.2622276,-20.020979,-144.9323852,-13.144659,-50.83329,-9.363797999999996,-0.9220464,0.224814,-0.3318294,147.3790346,61.2715226,25.5992556,209.46916751907253,0.7035500974509775,53.33372427868866,1.0053962646903556,120.116807,81.29250160000001,170.53164080000002
4656.423,-14.997351599999998,208.0280822,-56.42192620000001,0.16676,0.3012251999999999,0.6053455999999999,26.668393,-15.795509199999998,-144.0032074,-13.7870564,-49.5561476,-8.985740399999997,-0.9184176,0.1890438,-0.3101162,146.3903016,62.239975,24.7855444,216.0648913982608,0.69641138284379,52.217221485501874,0.9876236650721972,119.7219086,78.0354842,168.7887518
4676.408,-13.111216199999998,213.6665314,-57.496115200000006,0.083877,0.3005715999999999,0.667647,26.183355,-11.4359774,-143.10191360000002,-12.5819074,-47.7182218,-11.697331999999998,-0.9446332,0.1891482,-0.2932241999999999,145.52370000000002,63.2124282,24.0819408,221.6553493463264,0.7369743241555705,50.71647327540032,1.007020037323548,119.340345,74.6484056,167.18385440000003
4696.392,-15.3403684,217.9759492,-58.9431008,0.0011809999999999,0.325279,0.724607,25.7304112,-6.9789804,-142.2383914,-11.653502,-39.5243116,-18.217427999999995,-0.9740222,0.1763083999999999,-0.2783172,145.0221986,64.1129508,23.773928,226.3252757961595,0.7942689261522194,45.05385665237864,1.0282336124729827,119.2917874,71.0919312,166.0123194
4716.377,-22.0163988,221.0607942,-60.3002472,-0.0954808,0.3455089999999999,0.7702218000000001,25.213221800000003,-2.453656,-141.4182466,-4.764893599999999,-28.741844800000003,-20.5780828,-0.9565714,0.157025,-0.2761588,144.9542634,64.8533202,23.8012534,230.19278086168669,0.8495496886262041,35.66868858326956,1.007943141620796,119.7410416,67.3069762,165.2195
4736.362,-26.587819,224.0349152,-60.798909,-0.1886998,0.325894,0.7798619999999999,24.6689824,2.134712,-140.627463,4.002066600000001,-17.837930000000004,-16.001229199999997,-0.9683188,0.1469508,-0.2697226,145.15621040000002,65.3612546,23.9346908,233.65586378997256,0.8660249723882332,24.295012238454795,1.0158671748830357,120.487228,63.2265426,164.5621538
4756.346,-23.330773599999997,226.3945282,-59.76065680000001,-0.2908194,0.3093814,0.8284784000000001,24.257436,6.754643799999999,-139.8355348,17.668479,-7.2950128,-10.817936399999995,-0.9582274,0.1627091999999999,-0.2796152,145.6965058,65.633998,24.1420258,235.30861330780567,0.9309507147797246,21.964064056545865,1.0113647679974025,121.4390698,58.8793542,163.9775606
4776.331,-20.7642126,227.4554474,-60.1719544,-0.394057,0.349,0.8377420000000001,23.9622082,11.3962098,-139.0628204,28.8113208,5.2805132,1.396531600000003,-0.9559636,0.1597839999999999,-0.2953604,146.3381074,65.5529372,24.2130112,236.19440546538743,0.9893905082488916,29.32450044596984,1.0132300316656233,122.3758992,54.1567274,163.2758316
4796.316,-22.2921728,227.1381958,-61.3848594,-0.5059082,0.3550562,0.8686389999999999,23.688963800000003,16.0455388,-138.326428,41.5250778,10.1491092,16.6707512,-0.9852258,0.2091251999999999,-0.2855022,146.8032196,65.22388459999999,23.808739600000003,236.3404364957084,1.0660871091551007,45.88300828653107,1.046859461659262,123.1142558,49.1783458,162.1351676
4816.3,-20.9460026,226.0105988,-61.7398018,-0.5996548,0.3151322,0.8598593999999998,23.4890016,20.6800214,-137.612396,43.871225,11.3129138,18.8384564,-1.0063098,0.2554896,-0.2955939999999999,147.24143680000003,64.8521302,23.328224,235.2261229565225,1.0946471442470582,49.066830355970176,1.0794953275119814,123.7524352,44.1721088,160.94062
4836.285,-13.7548288,223.9796296,-60.83583600000001,-0.690009,0.3113184,0.8179406,23.4938176,25.2714248,-136.88421899999997,37.56890059999999,6.395402,12.495763800000002,-0.9876318,0.2645282,-0.327083,147.67432860000002,64.61747,22.9799074,232.50176070922436,1.1144767343412425,40.10570498045976,1.0734873217022547,124.180511,39.3460452,159.8641264
4856.27,-7.195993199999998,222.8950012,-60.4207992,-0.7572336,0.3330986,0.769595,23.714402400000004,29.840327,-136.1118162,26.863676200000004,-7.0606104,8.975714200000002,-1.0039188,0.2685864,-0.3253412,147.7010956,64.6528046,22.421418600000003,231.051156357308,1.1298822355962237,29.190285431956923,1.0889621240777108,123.9866932,34.812477599999994,158.5332348
4876.254,-2.857764799999997,224.2300932,-59.3631882,-0.8191702,0.313781,0.785368,24.147914,34.4243786,-135.2252502,16.0026326,-23.6784552,2.755647400000002,-1.0590108,0.263108,-0.3025506,147.32816459999998,65.0341156,21.66512,231.97260534253053,1.17741293858741,28.71144516359489,1.132372094207995,123.1802506,30.609737000000003,156.8903702
4896.239,-0.2042493999999973,226.5572082,-56.8600724,-0.8741733999999999,0.299489,0.7545562,24.81492,39.021949,-134.1437958,11.9020782,-42.5017944,-11.689583999999996,-1.0808254,0.229988,-0.2943008,146.9085388,65.8837798,20.9531276,233.5835570808202,1.1929911371619657,45.65860671102265,1.143543172035844,122.0936188,26.8618308,155.09692339999998
4916.224,4.172892600000003,228.4071258,-54.5403808,-0.9447638,0.2947944,0.6465792,25.7964584,43.621212,-132.8196992,12.4554954,-59.6743354,-20.986659,-1.0429848,0.196511,-0.2893516,146.4043274,67.1160674,20.1352518,234.86566647059584,1.18217893651276,64.47174208188729,1.1000719133650307,120.607869,23.4948554,152.954951
4936.208,13.076285000000002,229.7214234,-53.30059200000001,-1.0298438,0.2960638,0.5980816000000001,27.2455704,48.2127624,-131.19852459999998,12.0715748,-73.38237840000001,-27.213413,-0.9895988,0.2052626,-0.2845426,145.7416658,68.6506026,19.1539766,236.1861018474071,1.2271648733269056,79.19132670249535,1.0499538138103792,118.4960954,20.437840200000004,150.3525012
4956.193,20.241028000000004,228.3781344,-53.1118164,-1.147143,0.3000776,0.5949156,29.1881104,52.751098,-129.2314316,11.5167644,-74.3566658,-24.643241999999997,-0.9439998,0.2332378,-0.2839092,144.7917238,70.1602752,17.8899642,235.34471850421576,1.3266153171112265,79.17600007204557,1.012985650240673,115.6036134,17.409177200000006,147.12139580000002
4976.178,21.702742200000003,221.2438632,-52.6933394,-1.2346028,0.2797814,0.5313692000000001,31.568298400000003,57.114853800000006,-126.8788772,13.7280544,-75.0635284,-20.8339478,-0.932369,0.2246671999999999,-0.3119387999999999,143.5231356,71.6154678,16.254364000000002,228.46541103585804,1.3729074740354648,79.10149274444882,1.008510345937155,111.9548372,14.500614000000002,143.1332412
4996.162,27.3717146,210.1059512,-50.398358,-1.3020982,0.2604946,0.4201292,34.6361724,61.2108742,-123.9762284,12.2498528,-67.64390799999998,-20.6272388,-0.8694890000000001,0.1892252,-0.364445,142.29313380000002,72.938942,14.701395200000002,217.7928281163014,1.3927762576110494,71.77214058147044,0.9615807066809524,107.6569614,11.728067800000002,138.6776236
5016.147,34.9026058,195.1651126,-47.633925600000005,-1.3480364,0.2749522,0.387466,38.4939926,64.96115879999999,-120.4569352,11.6430794,-54.6435102,-15.989198999999996,-0.8563168000000001,0.188371,-0.411327,141.187195,73.99724739999999,13.2972638,203.90341815640855,1.4293112849081546,58.11307072900045,0.968479218430752,102.6932024,9.036088600000005,133.754199
5036.132,34.609493,175.4447024,-45.0534584,-1.3527315999999998,0.2892954,0.369349,42.9009444,68.272776,-116.4109238,16.3408814,-37.433885,-7.320823399999997,-0.8903486,0.2060628,-0.4497937999999999,140.355298,74.675348,12.0819412,184.41386802445783,1.431779764454268,41.495958916213496,1.0185759517994917,97.4543536,6.402572000000001,128.492865
5056.116,28.544423400000007,151.4950608,-41.6755302,-1.3132677999999998,0.3011956,0.3067746,47.5511534,71.0621932,-112.037082,19.6312014,-20.2641168,-7.454640199999997,-0.9165104000000002,0.2364644,-0.471706,140.3065676,75.08000200000001,11.6147552,159.69466920184055,1.3818472271497162,29.182017726724453,1.057550602199025,92.7554142,4.017808800000001,123.6518372
5076.101,27.3243474,126.1277284,-37.606260000000006,-1.2708769999999998,0.327974,0.265888,52.3336586,73.3295668,-107.5476426,9.2476886,0.5178954000000019,-16.279694199999998,-0.8895782000000001,0.2862308,-0.4693142,141.41867699999997,75.261571,12.5749806,134.42118368533903,1.3391757623064269,18.730093521747957,1.0457214079789705,89.0850184,1.9320042000000028,120.1226232
5096.085,27.3451768,98.8478944,-33.936197400000005,-1.2153032,0.4000316,0.3226757999999999,56.84032979999999,75.084857,-103.3878052,-6.4370634,21.463813,-19.7897918,-0.8938834,0.3375602,-0.4406154,143.351703,75.1261934,14.715340800000002,108.029303503765,1.319510068485436,29.895934727014904,1.052195966603541,86.5113732,0.0413364000000029,118.103146
5116.07,21.2184618,72.056147,-28.57643400000001,-1.1559937999999998,0.4866416,0.4077707999999999,60.5443466,76.354405,-99.9595062,-24.2674016,34.632600000000004,-21.8117038,-0.9305522,0.3390478,-0.3640474,145.57490560000002,74.7834488,17.5305632,80.36743135001905,1.3188702505635796,47.58228857289882,1.0551830727681524,85.030559,-1.5709561999999977,117.4900694
5136.055,8.545047200000003,46.8045152,-20.7783724,-1.0995726,0.5597712,0.4871941999999999,63.0467346,77.1779066,-97.5290956,-41.1473364,42.19339720000001,-23.235575399999995,-0.9781162,0.3023202,-0.2746784,147.75175180000002,74.3270264,20.6540944,51.91744633887862,1.3265601710943382,63.35043823258698,1.0599797297387532,84.7050172,-2.850880199999997,118.18319
5156.039,-5.091767599999997,22.9680826,-11.2666058,-1.0694195999999998,0.5820244000000001,0.5227575999999999,64.15268939999999,77.59214460000001,-96.2665146,-47.837092,40.912857,-22.6019018,-0.999639,0.2292411999999999,-0.2229774,149.5965424,73.88248899999999,23.5754814,26.084388470221537,1.3250230908996563,66.88120217143047,1.0495468445997065,85.443853,-3.709655599999999,119.841996
5176.024,-19.6221516,0.070926,-0.8828480000000027,-1.0635958,0.579512,0.5280311999999999,63.75089800000001,77.6019544,-96.255275,-39.696885,35.1219076,-13.042841399999997,-0.9895732,0.1825547999999999,-0.2053463999999999,150.7444366,73.42356099999999,25.6036814,19.64213034530528,1.3213202231461834,54.58485855941844,1.0270095019785552,86.9935386,-4.178393400000002,121.8589564
5196.009,-33.845295,-21.4992028,8.734837599999997,-1.0706876,0.5149429999999999,0.4681051999999999,61.862904400000005,77.21363960000001,-97.4703918,-26.169257,26.3713452,-1.157873999999996,-0.9948242,0.1689976,-0.2203868,151.123294,72.9842896,26.5484034,41.036777438913575,1.2769732606087725,37.17012956379744,1.0328628753738998,89.2603896,-4.229350000000002,124.0187952
5215.993,-43.0738918,-42.5447418,17.197023199999997,-1.0980256000000002,0.427203,0.427778,58.7702232,76.4339872,-99.7227982,-15.183626,20.151355400000003,6.486949400000005,-0.9846078,0.1762073999999999,-0.27571,151.0656156,72.56981060000001,26.8073568,62.93768995258813,1.2534578727457737,26.05187393419417,1.0375536476421834,92.2953924,-3.8641766000000017,126.530155
5235.978,-48.7536122,-64.72584320000001,23.636042,-1.1384604,0.3477108,0.385795,54.7526558,75.2490248,-102.814566,-6.3333964,15.296696400000002,11.111712200000005,-0.9564902,0.1859425999999999,-0.3413522,150.7941252,72.1852386,26.6550428,84.40978593696788,1.2513323558630616,19.939181997487637,1.0324579786294643,96.0414694,-3.0637862000000013,129.4696088
5255.963,-50.8738058,-87.4435564,28.292739399999995,-1.172814,0.2970515999999999,0.366132,50.1827034,73.6480482,-106.4547914,-4.6185994,17.0340664,11.496545000000005,-0.9278646,0.2022658,-0.3982192,150.6045286,71.760205,26.5519548,105.04760242486456,1.264035194558506,21.063271955570304,1.0297682754054138,100.4218252,-1.8878431999999976,133.0067462
5275.947,-47.77508,-109.9976526,31.1205646,-1.2006862000000005,0.2737026,0.3837408,45.450479,71.6250472,-110.3643388,-11.2688764,21.6585866,10.372460800000002,-0.9193926,0.2230508,-0.4161422,150.4651,71.2549316,26.6441248,123.8968578598322,1.289890485933531,26.52677688441838,1.033541843824545,105.014621,-0.3701155999999969,137.0084636
5295.932,-42.8168716,-131.4551422,33.557035,-1.2166654,0.2690796,0.440697,40.9075102,69.18282239999999,-114.2304078,-20.8118462,30.1901114,9.120336400000005,-0.9266924,0.2216608,-0.4199400000000001,150.4398956,70.6189406,27.0596074,142.26669850117537,1.3217005608315069,37.78566268634215,1.0412693782467628,109.5323854,1.436118200000004,141.2900152
5315.917,-38.7768856,-150.3200562,35.9978622,-1.2079294,0.272046,0.4926114,36.7862162,66.34649060000001,-117.8007416,-27.7318806,36.9296538,8.192875200000003,-0.9443462,0.1942217999999999,-0.3967956,150.51698619999996,69.88735340000001,27.729482,159.36000826988194,1.3325796234785825,46.90394157683644,1.042573067573223,113.73076999999998,3.540862800000005,145.5302236
5335.901,-33.9556992,-165.306427,39.0129332,-1.1790452,0.269685,0.5408436,33.2764932,63.169235400000005,-120.8823868,-30.486853000000004,43.916257,7.650385200000005,-0.952957,0.162526,-0.3715856,150.75074479999998,69.0448868,28.6244118,173.20858313759993,1.324911084763427,54.00568700092646,1.03567253639959,117.4742516,5.875651400000004,149.5067986
5355.886,-28.201511,-176.9743622,42.555638,-1.1440290000000002,0.2980826,0.5989252,30.4511926,59.6985292,-123.406581,-31.271971200000003,48.3582098,8.631262000000003,-0.9606564,0.1446825999999999,-0.3383812,150.99033839999998,68.11904160000002,29.5474826,184.19075010533768,1.3252799645579798,58.23187547646984,1.0287349562045416,120.5391458,8.420512400000003,152.95406359999998
5375.871,-23.7188006,-186.9679688,46.0847244,-1.1084942,0.3151536,0.6510351999999999,28.2188634,55.979265,-125.4374068,-30.5777376,51.6877004,11.432437000000004,-0.9467976,0.1683069999999999,-0.3297886,151.1753724,67.1162278,30.3993632,194.01908329369124,1.3236041759777126,61.1335998051283,1.0166186415292215,122.956509,11.136962800000004,155.83677000000003
5395.855,-17.709958599999997,-196.0711244,49.8101258,-1.0786844,0.3348904,0.706865,26.5256426,52.039438,-127.0573456,-30.552321800000005,51.6073292,15.680399600000005,-0.9365624,0.2036309999999999,-0.3236412,151.12343760000002,66.0753076,31.0026138,203.0728369066277,1.3324300143123915,61.98899681510912,1.0116117533877311,124.597795,14.035869600000003,158.0599594
5415.84,-12.139909599999996,-204.9953554,52.7350708,-1.0495503999999998,0.3537697999999999,0.7568792,25.243569,47.904458,-128.391658,-30.4661316,54.6698986,20.6959094,-0.9269338,0.2196755999999999,-0.3383714,150.91831359999998,64.93041860000001,31.441146,212.01759557392757,1.3414824773081606,65.9189172658032,1.010919800555791,125.67474459999998,17.0259606,159.832804
5435.825,-7.871200199999997,-213.8834902,55.09920580000001,-1.0129452,0.3727744,0.7962026,24.2584078,43.5894602,-129.53374939999998,-25.3379564,52.7589382,29.558441400000003,-0.9312774,0.2409567999999999,-0.3530602,150.4452056,63.73134319999999,31.4715618,221.0068452616632,1.3412521432397264,65.56843030389666,1.0246898457782434,126.1867978,20.141883,161.0053112
5455.81,-2.711324799999997,-222.863141,57.36045,-0.9675959999999998,0.3756136,0.8489407999999999,23.5187648,39.0961448,-130.5530152,-15.9212186,46.91751,39.46231720000001,-0.960228,0.2634702,-0.3667867999999999,149.72268960000002,62.53918159999999,31.0116688,230.1424604951452,1.340905693039447,63.3404485704238,1.061125305949434,126.2039248,23.4430368,161.564684
5475.794,0.602988400000003,-230.8844392,59.99717559999999,-0.8985074,0.3790068,0.8931001999999999,22.9735416,34.4371524,-131.4638214,-5.3757878,37.9886022,44.528783,-1.014752,0.2550015999999999,-0.3654286,148.9197112,61.4555528,30.2174352,238.55324131037557,1.3223424932826744,58.777933844611816,1.108280424443435,125.9461696,27.0184004,161.68125659999998
5495.779,-0.708282799999997,-237.671399,62.1581726,-0.8140467999999998,0.380662,0.9078306000000002,22.5108946,29.6369822,-132.28911739999998,2.8503304000000003,25.868054,43.1702682,-1.0466242,0.2569796,-0.3598048,148.1390044,60.600068,29.2540718,245.66610264363572,1.2773927153113878,50.40786305325798,1.136186703383225,125.6281098,30.9630858,161.5431892
5515.763,-0.916156399999997,-243.4107208,63.2710304,-0.7253046,0.3733576,0.928861,22.135295,24.7101404,-133.05815439999998,6.987239400000002,9.819845400000002,38.7586012,-1.0585024,0.2780144,-0.3405388,147.267511,60.0688126,28.0961606,251.5011762016284,1.2362222363231945,40.58916167024709,1.146161424808286,125.132216,35.3586722,161.154315
5535.748,-1.6331785999999973,-248.9561614,63.53994,-0.6428404,0.36814,0.9503472,21.8185944,19.659804,-133.8033508,4.1793700000000005,1.6105566000000018,35.4175528,-1.072272,0.3013307999999999,-0.33129,146.3060058,59.70418479999999,26.8985988,256.9419419763265,1.2049608458452084,35.69963686789392,1.1620329414920387,124.4874114,40.0443808,160.70194959999998
5555.733,-4.470798399999997,-253.693167,61.6002258,-0.558488,0.3424508,0.9297284,21.5095176,14.5177246,-134.5692168,0.6281660000000002,-5.555014199999998,29.989909600000004,-1.0587247999999998,0.3102961999999999,-0.3131506,145.33317259999998,59.4998284,25.7633586,261.1030425702357,1.137354955293729,30.506514928813647,1.1468414154318982,123.823655,44.9821038,160.3325754
5575.717,-9.832523399999996,-258.08564140000004,59.4119116,-0.4683203999999999,0.3173894,0.9029516,21.1590278,9.2915736,-135.3604918,-7.050349199999999,-7.416435999999999,23.451686200000005,-1.0118307999999998,0.3006089999999999,-0.3307836,144.3869872,59.3906572,24.8320674,265.01821079546056,1.0655428758295369,25.5869602025584,1.1061578227082245,123.2279594,50.09908359999999,160.1925592
5595.702,-11.081004599999996,-261.499118,56.4594054,-0.3772722,0.2825062,0.8787964,20.8493736,4.008501,-136.1905912,-9.4451916,-3.446966599999997,22.197737600000004,-0.973297,0.2642505999999999,-0.33048,143.5286834,59.2219484,24.05386,267.75406969053654,0.997209696395016,24.368684364583164,1.0612975361364785,122.6793098,55.21344739999999,160.2444512
5615.687,-12.718342999999996,-263.7390014,53.9354202,-0.2748016,0.2541634,0.8395974,20.5802638,-1.3047069999999998,-137.0529416,-7.8712074,5.273467600000001,25.493563200000004,-0.9569932,0.2571012,-0.3438286,142.8114928,58.870378200000005,23.3970396,269.4977674495383,0.9192598910802536,27.1971897646514,1.048882795199559,122.231229,60.1750852,160.4499812
5635.672,-13.602558799999995,-263.82417,51.156871,-0.1759915999999999,0.2312748,0.7843618,20.3717372,-6.6032816,-137.9485014,-6.8768176,14.8863148,22.296758800000003,-0.9492040000000002,0.2506498,-0.339534,142.4010894,58.4062996,23.0751388,269.0822322870966,0.8364714637600257,27.677399473464742,1.0387958861162478,122.0293522,65.0095812,161.0236402
5655.656,-14.855643999999996,-262.023642,49.4291572,-0.0675759999999999,0.2059758,0.7064588,20.2181412,-11.858653999999998,-138.85539239999997,-8.4163762,32.3955036,15.577342200000004,-0.932779,0.243253,-0.3621794,142.4651672,57.7451058,23.3518352,267.05864656869136,0.7389699466548555,36.91825607817141,1.0297682276290914,122.247026,69.6037598,162.20722759999998
5675.641,-11.155686199999996,-257.96505119999995,48.0752122,0.0229134,0.1865048,0.6610658,20.2192162,-17.029163599999997,-139.76934820000002,-1.9307858000000009,40.816328,3.473881600000003,-0.8938022,0.2472074,-0.3613891999999999,143.09232179999998,57.0815726,24.1523658,262.643566460872,0.6872532693645336,41.009369887623045,0.9952869059805016,122.8731056,74.11073619999999,163.921714
5695.626,-9.136979199999995,-251.55933840000003,46.1208978,0.0985846,0.1786966,0.6033261999999999,20.3465134,-22.0630922,-140.706122,2.5370217999999998,44.5925706,-9.969621599999996,-0.8728988,0.2716378,-0.4003529999999999,144.202066,56.4979704,25.4246678,255.91545935918955,0.6369096496483312,45.76381963054271,0.9980089849491736,123.85555259999998,78.5610626,166.1307898
5715.61,-5.760175199999997,-242.6024628,43.770482,0.1732702,0.16667,0.5286888000000001,20.6286076,-26.9098788,-141.6731568,5.520010999999999,42.7893442,-21.215669799999997,-0.8441266000000001,0.2754185999999999,-0.4285014,145.60726,56.0509994,26.980134,246.58667780209132,0.5807867925095062,48.078094217313016,0.9859100221904026,124.97865240000002,82.9608782,168.65329079999998
5735.595,-0.9568849999999968,-231.6913056,41.0416618,0.2453796,0.1523332,0.4783004,21.103307,-31.5284476,-142.6864716,9.425976599999998,29.1663244,-27.690271199999994,-0.7927312000000001,0.2797592,-0.4623586,147.0104614,55.8776184,28.4399572,235.3002225303695,0.5587377064048569,41.30707727495776,0.9594078592715616,125.9071544,87.40606600000001,171.1264288
5755.58,3.563261600000003,-218.6798768,37.44283879999999,0.3038782,0.158949,0.4714872,21.7808308,-35.8677318,-143.7705872,11.649353199999998,6.3927212,-30.274658,-0.7576067999999999,0.2831814,-0.4838657999999999,148.1291808,56.0851676,29.505615,221.89085498933028,0.5830153726961923,33.06250491623772,0.942489194167148,126.34835,91.9528994,173.2762022
5775.564,5.433811800000003,-202.2181092,32.376335999999995,0.3614322,0.1698148,0.409738,22.6115182,-39.8551606,-144.94184260000003,10.235257799999998,-11.7224468,-24.562665,-0.7556516,0.2796414,-0.5084336,148.79719540000002,56.515406000000006,30.0588716,204.8656074891192,0.5721499192867898,29.07749599111856,0.9527399323978606,126.1856772,96.3705666,175.0007142
5795.549,7.289031000000003,-182.5363494,27.1154696,0.434447,0.1753542,0.338793,23.5788324,-43.4273042,-146.1767242,8.516431799999998,-27.4290254,-14.855486799999994,-0.7312692,0.277538,-0.5068142,148.9286926,57.0973442,30.0112756,184.68323561391915,0.5781643262219142,32.335221246542766,0.9320099879477044,125.3498602,100.5246484,176.1879998
5815.534,9.641714400000003,-160.0167328,21.6516006,0.4936516,0.184084,0.2978402,24.6602514,-46.5285568,-147.43873,6.592104999999999,-41.1280714,-7.643111399999997,-0.711168,0.2828902,-0.4953092,148.5911956,57.82504180000001,29.4559804,161.76250876238188,0.6052169908178389,42.34845047091254,0.9116567298521304,123.9309442,104.3535986,176.89471039999998
5835.518,12.158352600000004,-134.47593980000002,16.1047524,0.550489,0.1954343999999999,0.2568004,25.8072686,-49.1037162,-148.6688752,4.194543399999999,-46.1048684,-3.8550917999999967,-0.694234,0.2823909999999999,-0.4897588,147.999124,58.5969276,28.6602784,135.9814949649564,0.6381059389039724,46.45551439067519,0.8953039739744485,122.19185539999998,107.7006438,177.32915359999998
5855.503,17.360198800000006,-105.5220916,11.359571199999998,0.6067656000000001,0.2135845999999999,0.200837,26.9863674,-51.1040794,-149.762677,3.821795599999999,-46.5760216,-0.3334835999999973,-0.6893526000000001,0.2776581999999999,-0.4880204,147.2695984,59.342803200000006,27.7154416,107.54221578460331,0.6738830575623045,46.73374713205988,0.8890809827963705,120.283231,110.4468826,177.47811860000002
5875.488,23.404454000000005,-74.6388422,7.6340283999999965,0.64429,0.2259612,0.1910118,28.1062896,-52.50956719999999,-150.6026826,3.3917895999999983,-43.0332544,2.1631056000000024,-0.6897976,0.2761434,-0.4788742,146.50211180000002,60.0011406,26.739088200000005,78.59391593251111,0.7089806596407832,43.22087744114572,0.8839662922051723,118.3958222,112.5107078,177.3417708
5895.472,28.921147,-43.547718,4.831307199999996,0.6652802,0.2317216,0.2168384,29.090520000000005,-53.3474602,-151.1134888,3.535816599999998,-34.6407196,1.4755898000000027,-0.6943622,0.2704263999999999,-0.479846,145.891156,60.530658,25.9447782,52.49931443422766,0.7370966938829396,34.85195573698158,0.8862965002310458,116.800636,113.8781182,177.058267
5915.457,31.585851,-13.317726,2.135288599999997,0.6666506,0.2471642,0.2382245999999999,29.851036800000003,-53.6328934,-151.2634398,3.0767087999999987,-22.415309,0.1459018000000027,-0.692806,0.2676262,-0.488959,145.528,60.8807908,25.4503808,34.34511998247447,0.7498427330361748,22.62594753685957,0.8892046110111216,115.6769632,114.5136842,176.7138206
5935.442,32.611472000000006,15.3313538,-0.7757414000000031,0.6656626000000001,0.2544772,0.2500158,30.3480026,-53.397587,-151.05004879999998,2.4873405999999987,-9.3775112,-1.6881959999999971,-0.7008368,0.2690037999999999,-0.483958,145.4559266,61.0250634,25.305946,36.04386619200599,0.7552305890310854,9.847567481411325,0.8931688588462319,115.107924,114.4226504,176.35599480000002
5955.429,31.643718400000004,41.1595002,-4.253794000000004,0.6505210000000001,0.2565266,0.2860656,30.587509600000004,-52.6915162,-150.5270782,2.2395497999999985,2.9561684000000006,-4.487302399999997,-0.7015364,0.2748735999999999,-0.4726922,145.6973756,60.985717,25.529694,52.09149771591076,0.755524318239936,5.821545992679636,0.8894642952040064,115.109866,113.6772332,176.0567722
5975.411,29.0917382,63.2182094,-9.137190600000002,0.6373538000000001,0.2545164,0.3110722,30.619482800000004,-51.5627976,-149.7949524,3.104311999999999,11.745749,-7.799329999999998,-0.6918716,0.280895,-0.465203,146.21884459999998,60.8348152,26.0580886,70.18802948723034,0.7535014119802564,14.4370676043733,0.8797739159128101,115.5993618,112.3976128,175.85304100000002
5995.396,25.391736200000004,82.4264642,-14.981252000000003,0.6172698000000001,0.2589712,0.323106,30.4860722,-50.0375748,-148.9332244,3.4568379999999985,15.9870746,-11.49918,-0.6977734,0.2912349999999999,-0.4509412,146.9324066,60.64196079999999,26.8014616,87.54027746844177,0.743293734439811,19.994184751987493,0.8803712335316278,116.4463344,110.6795356,175.734686
6015.38,22.178663600000004,99.5017976,-21.24149,0.6056622,0.2568091999999999,0.3365126,30.2471394,-48.15523,-148.000943,3.148499199999999,17.5797844,-15.802977599999997,-0.7211084,0.2932436,-0.431131,147.7866882,60.4622466,27.7164552,104.13309628611565,0.7389305756782838,23.84734718556732,0.8898668847937427,117.5395488,108.6174766,175.71739820000002
6035.365,18.0249614,114.97280139999998,-27.630592,0.5878644000000001,0.2601248,0.3599764,29.931963,-45.940299200000005,-147.0490174,1.998069799999999,16.412187799999998,-18.029220599999995,-0.7380958,0.2802356,-0.429303,148.65899960000002,60.3301038,28.6785524,119.61226487909086,0.7367716558876027,24.46231768969582,0.8986759523287579,118.7270366,106.270403,175.72756980000003
6055.35,12.708731000000004,129.1984942,-33.8858064,0.5646258000000001,0.2646722,0.3754724,29.5384014,-43.4077194,-146.1027254,0.3505663999999986,10.906713200000002,-17.852137799999998,-0.763925,0.2690097999999999,-0.424352,149.3893462,60.2990712,29.5156794,134.1715715886047,0.7278964147735858,20.923147795158645,0.9143425496087556,119.8509448,103.7067906,175.6184048
6075.334,7.967516000000003,142.3695726,-39.581725,0.5345262000000001,0.2684208,0.4080441999999999,29.0866098,-40.573570200000006,-145.1736664,-2.529798200000001,2.9771882,-15.443465799999998,-0.8016824,0.2641112,-0.4131054,149.8381226,60.3884892,30.0976668,147.9840851831458,0.7240635700770478,15.92997691230945,0.9397369142182084,120.7515128,100.9620594,175.27133320000002
6095.319,4.808578400000004,155.12584239999998,-45.0647926,0.5017004,0.281735,0.4352205999999999,28.6219152,-37.4457888,-144.2737764,-6.004241000000001,-5.273455199999999,-9.898020199999996,-0.8243128000000001,0.263105,-0.4044013999999999,149.89216919999998,60.5717374,30.3079048,161.61059661612413,0.7214533056612327,12.721283096138375,0.9551211051959853,121.270254,98.0175262,174.5816812
6115.304,1.4598710000000044,166.9199982,-50.798677000000005,0.4600192000000001,0.2933346,0.4709234,28.159761600000003,-34.0422884,-143.4261324,-8.2060776,-15.6952148,-3.948598799999997,-0.8544202000000001,0.2631668,-0.3913554,149.5184326,60.88304800000001,30.0799522,174.48473459696976,0.7207161026322085,18.145823477558743,0.9759352908361496,121.358671,94.9253364,173.50608460000004
6135.288,-2.228425199999996,177.36529539999998,-56.1404556,0.4157666000000001,0.3009108,0.5080958,27.6877958,-30.3884466,-142.63326740000002,-10.0040582,-27.6798814,-0.5258021999999969,-0.8943218,0.272937,-0.3682638,148.747174,61.377167400000005,29.4444438,186.05151073339024,0.7221983918632332,29.436940784337253,1.0049499063708,121.0593782,91.765614,172.0777112
6155.273,-3.978349599999996,186.2143554,-60.3612846,0.363259,0.2918066,0.5746431999999999,27.2471506,-26.5281424,-141.8923372,-13.239876600000002,-37.7780686,-0.5190305999999971,-0.9174718,0.2622915999999999,-0.339232,147.685675,62.056713,28.5542372,195.79350883300376,0.7398128142921019,40.03431268666005,1.0127337937729737,120.4385244,88.5848554,170.4465744
6175.258,-6.765947599999995,193.2513336,-63.5097756,0.308062,0.3155708,0.6203025999999999,26.8257684,-22.5022154,-141.2032656,-15.430015,-41.9805108,-4.221288599999997,-0.936917,0.2418314,-0.3167324,146.5973082,62.85826099999999,27.680771799999995,203.53217824675,0.7610929254850554,44.92513692103377,1.0181430666290077,119.7715398,85.3604764,168.8840374
6195.242,-10.135479599999996,197.5762024,-66.82924440000001,0.237148,0.3104606,0.6469704000000001,26.4062288,-18.3539846,-140.58749400000002,-15.1697154,-41.4937066,-6.715460799999997,-0.951293,0.2184803999999999,-0.2902718,145.5879974,63.6876318,26.8909132,208.8186572330229,0.7557748715937307,44.68719465887534,1.0183073086786718,119.1817686,82.0416164,167.4784072
6215.227,-8.353841399999997,201.4999786,-68.4741578,0.1620302,0.3024045999999999,0.6655660000000001,26.0732926,-14.105009999999998,-140.0089936,-11.425652600000005,-37.6204858,-4.709425599999998,-0.9331616,0.1890861999999999,-0.2760234,144.6584168,64.4250632,26.107662800000004,212.98060552162045,0.7487859695328166,39.5982976735847,0.9913289464615468,118.5851242,78.5300732,166.11665639999998
6235.212,-7.773417599999997,204.256543,-69.4729874,0.063591,0.3334356,0.7528484000000001,25.800969400000003,-9.7952664,-139.45698539999998,-6.4795326000000015,-31.1371978,-1.7749853999999967,-0.9533844,0.1578089999999999,-0.251674,143.86193559999998,65.0121794,25.3638346,215.88806673314625,0.8258352305459729,31.85372823895188,0.998591656744818,118.0609662,74.80744580000001,164.82082
6255.196,-13.668363599999998,205.3463716,-69.99262080000001,-0.0178305999999999,0.3326188,0.7710376000000001,25.456628,-5.456847,-138.9355804,2.825207599999999,-19.6538396,-0.1151057999999966,-0.9477604,0.1469437999999999,-0.265984,143.48344120000002,65.3819732,24.8736812,217.37737568394664,0.8399120055241264,19.85619445792218,0.995283750707606,118.0268132,70.8388202,163.8092616
6275.181,-13.148070999999996,207.5491854,-68.6744774,-0.1042307999999999,0.3151628,0.7668102000000001,25.168634,-1.0948898,-138.3999756,11.825936199999996,-10.1788246,5.811728600000004,-0.933902,0.136793,-0.2744832,143.33140580000003,65.5222886,24.4312542,219.01077593896545,0.8355773650575512,16.650448239134388,0.9829681060620634,118.1627718,66.61717839999999,162.83122980000002
6295.166,-10.634801599999996,210.2430848,-66.0304076,-0.1921473999999999,0.3443128,0.8287102000000001,24.976005,3.2867996,-137.81139539999998,21.5438888,-3.627870399999999,10.690516600000004,-0.9525962,0.1251237999999999,-0.2710522,143.3632478,65.485901,23.9783012,220.62472309130155,0.91773227204596,24.322576620104154,0.998280912722326,118.3872428,62.1991014,161.7896966
6315.15,-17.147317599999997,210.7593538,-63.88067860000001,-0.2929663999999999,0.3775228,0.8975036,24.700753,7.651376600000001,-137.192566,28.3210554,2.871564000000001,10.240297000000004,-0.9904494,0.1519275999999999,-0.265759,143.68450940000002,65.3423324,23.700134,220.8942661398556,1.0167917623888187,30.25213614646368,1.0366773151193769,118.9837564,57.6909558,160.89270000000002
6335.135,-20.817798,210.2789064,-61.264723200000006,-0.3751156,0.334936,0.864571,24.3982768,11.9883936,-136.5480622,32.217435,13.1433724,7.700555800000004,-0.9569862,0.1877116,-0.306876,144.4128938,65.0493544,23.7879622,220.00901231340816,1.0001884080013923,35.63719848210884,1.0223654489178515,120.014617,53.0609608,160.3360244
6355.12,-13.693723399999996,210.3788208,-58.9065576,-0.4799953999999999,0.3581332,0.8343432,24.288794,16.3097914,-135.8652374,33.0691162,17.018686199999998,9.640232000000005,-0.9521958,0.2246153999999999,-0.3102943999999999,145.1383486,64.6574118,23.8621084,218.8989466170094,1.0270265567888883,38.42051794597513,1.0263583848374602,120.8495546,48.3476204,159.72734580000002
6375.104,-11.655817999999996,208.8796112,-58.54563680000001,-0.5885187999999999,0.3868762,0.8666008,24.273121,20.6013972,-135.17596740000002,29.6328176,18.1425202,11.875534400000005,-0.9932986,0.2640749999999999,-0.3102462,145.71296999999998,64.2172696,23.8504686,217.24212680009788,1.116702520208726,36.71897650272759,1.073606268145543,121.439849,43.6158724,159.026436
6395.089,-13.513280999999996,206.600525,-58.53920000000001,-0.6629525999999999,0.3638126,0.855893,24.2696214,24.857218,-134.4883758,23.4283534,14.5385252,5.174131000000002,-1.0123896,0.2935187999999999,-0.3498364,146.31497800000002,63.9171506,24.005605,215.15860110695223,1.1421114591906167,28.054020917356706,1.1106176186728536,122.04535660000002,39.0599326,158.4939808
6415.074,-10.872675399999997,204.53909,-57.3688958,-0.7399564,0.3589856,0.8305939999999999,24.3824204,29.0749492,-133.7670624,19.8182574,5.996356999999999,-2.367743199999997,-0.9945884,0.2728461999999999,-0.380544,146.940164,63.8450376,24.2601414,212.71023626918645,1.1688851644812333,20.840485395144952,1.0993019922682756,122.5577436,34.770088400000006,158.0272038
6435.058,-6.158819799999995,202.490335,-56.652331,-0.7963342,0.3565538,0.7455476000000001,24.6567392,33.247605,-133.0046418,22.7272846,-8.132475999999999,-4.9879051999999975,-0.9970724,0.2516281999999999,-0.3808912,147.4089414,64.0432052,24.273120400000003,210.35625362102897,1.147658483282305,24.648444767655427,1.096607599879939,122.7522022,30.795600200000003,157.27776219999998
6455.043,0.3899130000000042,201.2391022,-55.30195020000001,-0.8433842,0.364572,0.7399324,25.1757012,37.3902994,-132.1417146,25.4516914,-22.4250668,-10.407828399999996,-0.9891436,0.2420499999999999,-0.3837036,147.8044188,64.53962920000001,24.1449412,208.6998657937587,1.1797074249844324,35.482321064286964,1.0882195167216584,122.6287176,27.149329800000004,156.2866558
6475.028,5.524114800000005,201.0777588,-54.4627336,-0.8751474,0.350483,0.7307716,25.933292800000004,41.5114792,-131.1478334,30.400483599999998,-35.9991668,-11.662485999999998,-0.9761918,0.245993,-0.3556928,148.0014922,65.27910299999999,23.694578,208.39618585650533,1.192790189590072,48.54011735779268,1.0676986252721692,122.0681994,23.767623800000003,154.8424114
6495.012,4.934025800000003,200.3156494,-51.5627824,-0.9526485999999998,0.378993,0.7401768,26.89149680000001,45.5625274,-129.93063820000003,36.69374319999999,-51.1263622,-8.918711399999996,-0.9879502,0.2613578,-0.3162437999999999,147.79876399999998,66.24104919999999,22.676647,206.9043850042056,1.2645302465299908,63.56004338316349,1.069749334348622,120.9072672,20.67852180000001,152.6072852
6514.997,1.644563400000004,196.5673646,-49.08062600000001,-0.9980188,0.3321682,0.6002352,28.003385,49.5006834,-128.4998856,37.6778638,-61.76392,-14.872137399999996,-0.958439,0.2478351999999999,-0.3304964,147.54988099999997,67.44101420000001,21.589272,202.6088380676367,1.211057196652462,73.86192324291474,1.0436740264531834,119.546496,17.940330800000005,150.0891576
6534.982,6.860674600000005,192.4511354,-44.56987540000001,-1.0741826,0.3146224,0.5650304,29.5359442,53.3039892,-126.74397740000002,29.0920232,-66.775181,-22.1705674,-0.9106038,0.2383183999999999,-0.3350276,147.276468,68.8060424,20.6633806,197.6638109667213,1.253840047872407,76.1367498011968,0.99911882832562,117.7405238,15.502053200000002,147.407358
6554.966,8.855767400000005,186.5769532,-41.256717,-1.1560114,0.3107421999999999,0.5651075999999999,31.4554132,56.9286536,-124.6427978,22.070401,-66.75326399999999,-18.2136484,-0.9475750000000002,0.216519,-0.3475996,146.6286834,70.128061,19.4915094,191.28905033811,1.3237332327053517,72.6280788882187,1.0322811341423228,115.1732702,13.199407400000004,144.1343072
6574.951,4.823441400000005,176.25510560000004,-38.31652,-1.2172374,0.3075208,0.5130709999999999,33.6267586,60.304126,-122.2280196,25.050425,-64.356315,-20.2931574,-0.9584366,0.1906305999999999,-0.3924046,146.0853852,71.41407480000001,18.3798682,180.43636978701605,1.3562734906472218,71.97965900392293,1.0530537080211435,112.4586266,11.109948800000002,140.6078878
6594.936,7.599930800000003,162.4632416,-37.1130822,-1.226395,0.271166,0.37866,36.1262546,63.4091576,-119.5644058,25.7024628,-54.0162194,-22.289831,-0.889128,0.1845103999999999,-0.4241506,145.88453980000003,72.54459080000001,17.626738800000002,166.82159539378802,1.311853303986768,63.83733326403039,1.0022456882284505,109.7582852,9.1354332,137.1911446
6614.92,16.550816000000005,148.0830536,-35.96744940000001,-1.2239491999999998,0.2893416,0.3831426,39.056336,66.22507479999999,-116.6735794,21.6410908,-38.344968400000006,-17.462185799999997,-0.8855848,0.2374379999999999,-0.4094928,145.924524,73.3608094,17.209950400000004,153.28462966034098,1.3147503404091438,47.366669141122486,1.0041521772554596,106.868188,7.1357345999999975,133.8835298
6634.905,16.640428200000006,133.0435898,-36.199910800000005,-1.186643,0.3253262,0.3893798,42.192420000000006,68.73681719999999,-113.6066696,16.9769474,-24.3153888,-12.504306199999998,-0.9508038,0.2541884,-0.3748078,146.1255646,73.88205439999999,17.057167200000002,138.8810072669333,1.290571723889641,32.18404183847782,1.0531478983171545,103.9331446,5.145237199999997,130.6638368
6654.89,12.014082400000005,119.803511,-35.28009960000001,-1.1185436,0.3232264,0.3283036,45.58766860000001,70.9549698,-110.2139862,9.2252632,-15.3162168,-18.1944802,-0.9727324,0.2391579999999999,-0.3059208,146.807837,74.3242448,17.571818,125.46674799175688,1.2097100249774242,25.5094313523855,1.0473740529755355,101.2201684,3.369274999999999,127.7858042
6674.874,13.161502400000009,110.7565872,-31.842497400000003,-1.0742324,0.338055,0.3238535999999999,49.6834244,72.9113692,-106.1572052,-0.9774622,-12.0762268,-22.8913966,-0.9745648,0.2029367999999999,-0.2319184,147.68681039999998,74.78174440000001,18.506764,115.99220402374212,1.1718095350643465,25.899936763937443,1.0221281908116222,98.003386,1.870375200000004,124.6639692
