Timestamp (ms),Wrist Gyroscope X (deg/s),Wrist Gyroscope Y (deg/s),Wrist Gyroscope Z (deg/s),Wrist Accelerometer X (g),Wrist Accelerometer Y (g),Wrist Accelerometer Z (g),Wrist Roll (deg),Wrist Pitch (deg),Wrist Yaw (deg),Arm Gyroscope X (deg/s),Arm Gyroscope Y (deg/s),Arm Gyroscope Z (deg/s),Arm Accelerometer X (g),Arm Accelerometer Y (g),Arm Accelerometer Z (g),Arm Roll (deg),Arm Pitch (deg),Arm Yaw (deg),Wrist Gyroscope Magnitude (deg/s),Wrist Accelerometer Magnitude (g),Arm Gyroscope Magnitude (deg/s),Arm Accelerometer Magnitude (g),Difference Roll (deg),Difference Pitch (deg),Difference Yaw (deg)
0.0,6.498372,-1.528271,1.683584,-0.882384,-0.429602,-0.134722,-108.102173,61.807022,92.814392,2.081887,2.071146,2.95866,-0.972645,-0.235111,0.034518,-79.069733,76.778503,-114.448593,6.884686338888722,0.99061062943217,4.168641053111314,1.0012527007054712,29.03244,14.971480999999995,-207.262985
19.986,8.2242435,-1.8690795,1.547528,-0.877909,-0.4369475,-0.130998,-107.9620935,61.8289355,92.8328095,2.803405,2.296446,3.3390425,-0.9678615,-0.2355844999999999,0.0313695,-79.131794,76.81708900000001,-114.547325,8.574758435979202,0.9893471615369652,4.9276717262564524,0.9966142610622978,28.8302995,14.988153500000005,-207.3801345
39.972,9.765835333333332,-1.760715,1.8156566666666667,-0.8756253333333334,-0.4391826666666666,-0.1400276666666666,-107.82703399999998,61.85355766666667,92.82968133333333,3.951385,1.9555563333333328,3.880654666666667,-0.9708363333333332,-0.2302649999999999,0.0413343333333333,-79.10443866666667,76.864441,-114.57450333333334,10.088025882213918,0.9895498403353248,5.873425289640355,0.9986258976499768,28.72259533333333,15.010883333333334,-207.40418466666665
59.958,10.55163775,-0.8150152500000001,2.26745125,-0.8751245,-0.43185575,-0.145202,-107.73275375,61.883666,92.77899175,4.04757,1.4255305,4.1326807500000005,-0.974561,-0.2240697499999999,0.050488,-79.0222625,76.91370975000001,-114.541273,10.823245550022609,0.9866234844723252,5.957684977636096,1.0012619206431763,28.71049125,15.03004375,-207.32026475
79.944,11.0970866,0.0118989999999999,2.8040326,-0.8765959999999999,-0.4296433999999999,-0.1461066,-107.6623276,61.919041400000005,92.6996048,3.764596800000001,1.4271076,4.3528316,-0.9687518,-0.2237796,0.045851,-78.97831099999999,76.9643388,-114.537146,11.445875738271988,0.9870973290122508,5.929246841421477,0.9953188803496094,28.6840166,15.0452974,-207.2367508
99.93,13.167112,0.9657622,3.5918938,-0.8717468,-0.431058,-0.1468824,-107.4873458,61.98708039999999,92.567955,3.9065572,2.3258046,5.0034492,-0.9646112,-0.2238354,0.0432758,-79.0189038,77.0694766,-114.6587326,13.682369535938257,0.9835283026451248,6.7605517593783455,0.9911860815831908,28.468442,15.082396200000002,-207.2266876
119.916,14.655133799999998,2.2197276,4.8269594,-0.8759016,-0.4255403999999999,-0.1487504,-107.3472182,62.073980000000006,92.3652144,4.0477018000000005,3.5440358000000005,5.636927200000001,-0.9699646,-0.2204202,0.0390812,-79.1634702,77.1933948,-114.8892318,15.588446823316058,0.9850964046299632,7.792241517785799,0.9954615663171732,28.183748,15.1194148,-207.2544462
139.902,14.7129054,3.142521,5.7712138,-0.8788594,-0.4258114,-0.143164,-107.2443206,62.1740692,92.1110304,3.5978904,4.6400962,6.0024726,-0.9689758,-0.2171526,0.0341494,-79.4195296,77.329265,-115.224173,16.11371875980528,0.9870182998477384,8.3967246822447,0.993597269618209,27.824791000000005,15.1551958,-207.3352034
159.888,13.7030904,3.4967432,6.9166940000000015,-0.8772270000000001,-0.4331174,-0.1363382,-107.1778076,62.289998,91.830554,3.5498758,6.5103366,6.638679600000001,-0.9597818,-0.216582,0.0184387999999999,-79.87521799999999,77.48339860000002,-115.7605652,15.743016083551284,0.9877783134342444,9.952796977341665,0.9840878292513732,27.302589600000005,15.1934006,-207.5911192
179.874,14.0741976,3.5353796,7.6822222,-0.8825626,-0.4365348,-0.1341458,-107.111499,62.4192796,91.5534742,3.7306306,9.1721656,7.3655546,-0.9658658,-0.2160854,0.0150762,-80.57144000000001,77.6593858,-116.546347,16.41945446505805,0.9937175001918,12.340892230023764,0.9898570278122188,26.540059000000007,15.240106200000003,-208.0998212
199.86,15.404160999999998,3.2557947999999994,8.3767808,-0.8959223999999999,-0.4345112,-0.1277383999999999,-107.0108384,62.5676072,91.298129,4.1939352,11.6460414,8.5104936,-0.965731,-0.2090512,-0.0013804,-81.5331268,77.86580060000001,-117.6107574,17.834204004240746,1.0038894503787557,15.02158027865091,0.9880995264074364,25.477711600000003,15.2981934,-208.90888640000003
219.846,18.6819206,1.9188614,8.383278999999998,-0.9004289999999999,-0.4434424,-0.1233366,-106.7885468,62.719883,91.109271,5.874821,15.01094,9.9186972,-0.9540868,-0.2050552,-0.0233874,-82.8604278,78.1025132,-119.0796234,20.56636946981541,1.0112494563945733,18.926764002621496,0.97615379293431,23.92811900000001,15.3826302,-210.1888944
239.832,25.2965236,-0.2678416,7.931001599999999,-0.9077152,-0.449609,-0.1234444,-106.34755400000002,62.87305679999999,91.0198378,8.662601200000001,20.1167466,11.927639,-0.9507266,-0.201787,-0.047473,-84.7277296,78.37955179999999,-121.1527252,26.5120091986113,1.0204575724073,24.939781984475605,0.9730635883875012,21.61982440000001,15.506494999999996,-212.172563
259.818,34.493616,-3.4181380000000003,6.9724114,-0.9195956,-0.4483834,-0.1261652,-105.6003066,63.0260886,91.0717268,11.4257806,25.892094199999995,13.897781999999998,-0.9615438,-0.2016716,-0.0644286,-87.22964759999999,78.6845262,-123.925978,35.356862599407066,1.0308352917056929,31.52930936288541,0.9845755217671014,18.370659000000003,15.658437600000005,-214.9977048
279.804,42.95014,-6.9641288,5.865382599999999,-0.9241426,-0.4586316,-0.1277646,-104.541197,63.1694748,91.2655852,14.5551126,31.0713232,15.917635,-0.9635458,-0.2001408,-0.0844824,-90.3594084,79.0024706,-127.39858080000002,43.90462764910975,1.0395702394097668,37.82392803756324,0.9877318079479064,14.181788600000004,15.832995799999996,-218.664166
299.79,50.5720466,-11.2020074,4.2764594,-0.9297486,-0.4731852,-0.1227446,-103.14732039999998,63.292646000000005,91.643164,18.0296558,37.2837582,17.453959,-0.9657992,-0.1959514,-0.1016998,-94.269374,79.29967819999999,-131.73186479999998,51.97407981005604,1.050429878445087,44.94204933640901,0.9907108030109696,8.877946400000003,16.0070322,-223.3750288
319.776,56.3147788,-15.7172798,2.8406002,-0.9400046,-0.4764982,-0.1126608,-101.4449782,63.401014,92.2296448,19.883575,43.103141,18.5273752,-0.9808374,-0.189358,-0.1112247999999999,-98.939804,79.54147800000001,-136.8734542,58.53593943126442,1.0598828418655717,50.95587258254028,1.0051215914195657,2.5051741999999986,16.140464,-229.103099
339.761,57.9272414,-20.780113,1.1028084,-0.9477,-0.4756846,-0.0969512,-99.4916152,63.4841576,93.054622,19.816145,47.7164504,19.4009706,-0.9904264,-0.1832454,-0.1204378,-104.26775360000002,79.7001192,-142.68008719999995,61.55156032850632,1.0648054582216415,55.19000726271696,1.0144104662842155,-4.776138399999999,16.215961600000004,-235.7347092
359.748,56.243824,-26.0863826,-1.252534,-0.949435,-0.4833794,-0.0756574,-97.3363356,63.5172486,94.14472200000002,19.0931162,50.9121168,19.832701,-0.9921586,-0.1768738,-0.1231994,-110.00945900000002,79.75469380000001,-148.892874,62.01157905357446,1.068085439346553,57.87855174621205,1.015303462439068,-12.6731234,16.237445200000003,-243.03759600000004
379.733,51.4579674,-31.449210800000003,-3.8711698,-0.9489594,-0.4864886,-0.0421266,-95.0357406,63.4901534,95.5134552,17.268988200000003,53.40637339999999,19.402769,-0.9981166,-0.1621426,-0.1224111999999999,-115.9680726,79.68922140000001,-155.2914214,60.43145889768615,1.067225257949736,59.38792906019982,1.0185830706504797,-20.932332,16.199068000000004,-250.8048766
399.719,45.3674698,-35.685746400000006,-6.0609052000000005,-0.9378094,-0.4904575999999999,-0.0166231999999999,-92.6822204,63.39862359999999,97.0874528,13.5827536,53.09032119999999,18.0362648,-1.0116278,-0.1575838,-0.103923,-121.673198,79.50577100000001,-161.36378159999998,58.03804255850134,1.058447664697863,57.69211599874978,1.0290886500609555,-28.9909776,16.107147400000002,-258.45123440000003
419.705,39.1460214,-38.8090104,-8.0737498,-0.9264704,-0.4976178,0.0184541999999999,-90.3205306,63.2376128,98.8201692,9.6538112,51.201184,16.4224682,-1.015494,-0.1520312,-0.0839416,-126.8804384,79.22733639999998,-166.85770259999998,55.71118124317206,1.0518134028669914,54.63016360461602,1.0302367407639856,-36.559907800000005,15.9897236,-265.6778718
439.691,33.9412156,-40.762941,-9.5753398,-0.9154792,-0.5102932,0.0690994,-87.9756164,63.00759800000001,100.6642746,6.794471799999999,48.064029600000005,14.0332012,-1.016962,-0.1441482,-0.076698,-131.42550820000002,78.87354,-171.62683399999997,53.90093327263108,1.0503694791259122,50.529659847958136,1.0299868912812626,-43.4498918,15.865942,-272.29110860000003
459.678,30.3707924,-42.3259012,-11.074043800000002,-0.909042,-0.5232266,0.119272,-85.6534196,62.7066054,102.56770179999998,4.914805800000001,43.7935828,11.4132422,-1.019735,-0.1424824,-0.0729332,-135.2066698,78.4801118,-103.5868164,53.2588151340262,1.0556274166085116,45.52247036385471,1.0322208853714403,-49.5532502,15.7735064,-206.15451820000004
479.663,29.1547404,-44.0935732,-12.0824194,-0.9034736,-0.5223829999999999,0.1574592,-83.3199876,62.34622039999999,104.511754,4.263237200000001,38.2199546,8.8275124,-1.0175508,-0.1382456,-0.0778846,-138.19181220000002,78.08770899999999,-34.72691640000001,54.22385954441685,1.0554344812685437,39.45712985281215,1.0298482836889906,-54.8718246,15.7414886,-139.2386704
499.649,27.8958758,-46.453663,-14.2526524,-0.910253,-0.527308,0.1972394,-80.976088,61.901255000000006,106.4983766,4.662431,33.1241484,6.949181,-1.0077256,-0.1262896,-0.1005388,-140.5658204,77.713861,34.74678039999999,56.02910666075108,1.0702885740702643,34.1648735783662,1.0205723875693289,-59.5897324,15.812606000000002,-71.75159620000001
519.635,28.0100832,-50.4960854,-17.106921399999997,-0.9237906,-0.5369384,0.2334666,-78.5654222,61.347712,108.5647508,4.8558602,28.2951734,5.3032654,-0.9991422,-0.1270012,-0.1302519999999999,-142.4187652,77.36262040000001,104.7474976,60.22512898600378,1.0937086318386997,29.194534418634746,1.0155688180159332,-63.853343,16.014908400000003,-3.817253200000002
539.621,30.4245082,-55.8475496,-20.6752924,-0.9381002,-0.5385384,0.2545848,-76.0477738,60.6640542,110.712018,5.2936574,23.9033936,4.0488598,-0.9936504000000002,-0.1316968,-0.1511002,-143.8376678,77.04410980000002,175.181729,66.87351651709237,1.1112466035519029,24.81508210635523,1.0136648533861872,-67.78989399999999,16.380055600000006,64.46971099999999
559.607,33.4587726,-62.5234026,-23.968848,-0.9501502,-0.5361678000000001,0.2784812,-73.39285279999999,59.8393182,112.9635348,5.3191884,20.8953134,3.1867756,-0.9918568,-0.1298427999999999,-0.1722492,-144.9915466,76.75006379999999,173.8865356,74.85433194563493,1.125972064960015,21.795949762367997,1.015041305227881,-71.5986938,16.910745600000006,60.92300079999999
579.593,35.4206612,-69.9529168,-27.774319400000003,-0.9550866,-0.5449109999999999,0.2979994,-70.6496506,58.846409,115.2961306,5.0978678,19.0897966,2.7880316,-0.9882418000000002,-0.1337613999999999,-0.1818174,-145.9806062,76.47266220000002,172.7635954,83.18321120758758,1.1392638209918369,19.95449098669888,1.0136920313092928,-75.33095560000001,17.626253200000004,57.4674648
599.595,38.5021416,-77.6002664,-30.8733302,-0.9524312,-0.5518386,0.3219454,-67.8145852,57.6900232,117.69179239999998,5.0917546,17.383200600000002,2.4946384,-0.9889292,-0.138046,-0.1837787999999999,-146.814798,76.2165694,171.79808939999998,91.96400801822227,1.1468652369675174,18.28455218902602,1.0152892730931808,-79.00021280000001,18.5265462,54.106297
619.565,39.8282662,-84.8798754,-33.482358,-0.9411444,-0.5552935999999999,0.3446698,-64.96840599999999,56.372271,120.10390320000002,5.110001,16.364762,2.2183928,-0.9857434000000002,-0.1396184,-0.1828236,-147.5380952,75.9733412,170.9446104,99.55878832959829,1.1458189363439408,17.28695497048965,1.0122291326468924,-82.5696892,19.6010702,50.84070719999999
639.551,37.3630446,-92.335126,-35.825379,-0.9317618,-0.57149,0.3734184,-62.21643919999999,54.885174600000006,122.5040954,5.2906456,15.952304000000002,1.6767742,-0.980987,-0.1432642,-0.1874456,-148.1680972,75.72736339999999,170.182138,105.85476076072868,1.1550853533387913,16.890189622707055,1.008957867371081,-85.95165800000001,20.8421888,47.67804259999999
659.537,32.9431036,-99.4857928,-39.13901499999999,-0.9326542,-0.6111283999999999,0.3938892,-59.6610094,53.2094948,124.8280256,6.418823399999999,15.7824972,0.9344732,-0.9689042,-0.1490971999999999,-0.2023063999999999,-148.6948854,75.4666288,169.5019988,111.86837595592011,1.182569439796598,17.063462481862047,1.0009661349448542,-89.033876,22.257134,44.67397319999999
679.523,30.2621068,-107.053583,-43.4893706,-0.9327696,-0.6229852,0.4267048,-57.2709818,51.3304802,127.0672682,8.0115852,16.9157908,0.0097748000000001,-0.9619856,-0.1658138,-0.2231942,-149.1388092,75.1625302,168.8727112,119.44701794643782,1.200102775784741,18.717093026240445,1.0013621531650974,-91.8678274,23.832049999999995,41.80544299999999
699.509,25.3226012,-115.3258486,-48.4314552,-0.9338082,-0.6373968000000001,0.456154,-55.0987146,49.235596400000006,129.2175246,10.9289462,18.2499302,-1.9496828,-0.9635306,-0.1841198,-0.238699,-149.413089,74.8056104,168.3564058,127.6201055462421,1.2191590982121572,21.3612518445896,1.0095882975200337,-94.3143744,25.570014,39.13888119999999
719.495,21.6268294,-123.32960819999998,-54.1176566,-0.9260426,-0.6673004,0.4928422,-53.143049,46.9115998,131.2527496,16.025995,19.237116200000003,-4.6243008,-0.9691024,-0.1975444,-0.2501056,-149.4318542,74.3994168,167.9976718,136.4061316969942,1.243277183477506,25.461408313783597,1.020164723369947,-96.2888052,27.487817,36.74492219999999
739.481,20.7612686,-130.94934080000002,-58.7031394,-0.9078756,-0.6824982,0.5263012,-51.3454394,44.385318000000005,133.1788238,21.353500200000003,20.1481308,-8.2068044,-0.980075,-0.2097061999999999,-0.2511886,-149.14378040000005,73.9424086,167.8453006,144.99937484434795,1.2518126262344698,30.483943051796437,1.0332567002993014,-97.798341,29.5570906,34.666476799999984
759.467,21.4328328,-138.4069716,-63.3253966,-0.8792159999999999,-0.6784774,0.5819150000000001,-49.6620196,41.6604112,135.0019624,26.184943999999994,20.1094536,-12.9818182,-0.9955488,-0.2130358,-0.2400146,-148.4834776,73.44648120000001,167.9791934,153.70739072622126,1.2537852384646104,35.47631632725613,1.0459964978317278,-98.821458,31.78607,32.97723099999998
779.453,21.2638186,-145.7746368,-66.5966148,-0.8482386,-0.6958300000000001,0.6329347999999999,-48.1081118,38.7546928,136.7333496,30.411936200000003,19.7107174,-19.0120262,-1.0098028,-0.2111356,-0.2292392,-147.423355,72.9037292,168.4428958,161.67097395155756,1.266607505299491,40.92499705662812,1.0568020378916003,-99.3152432,34.1490364,31.709546199999988
799.439,22.8274778,-152.9614654,-70.099948,-0.8077816,-0.7100226000000001,0.6753044000000001,-46.6505746,35.6711212,138.37014159999998,33.5116096,17.3325536,-25.5363678,-1.0290262,-0.2172656,-0.2111098,-145.91758420000002,72.3367034,169.309302,169.80078430215684,1.269913083037056,45.55822069282954,1.0726912924443082,-99.2670096,36.6655822,30.93916039999999
819.425,24.075569,-160.17193600000002,-73.3374038,-0.7601151999999999,-0.7011822000000001,0.711762,-45.281128,32.4198676,139.92602219999998,34.45608299999999,12.783326999999998,-33.0639816,-1.042036,-0.2155958,-0.1924452,-143.93586739999998,71.76058040000001,170.6594056,177.80060995617006,1.255403018760063,49.43543247648346,1.081367527382194,-98.6547394,39.3407128,30.73338339999999
839.411,24.7636118,-166.67341919999998,-77.0303572,-0.7044828,-0.6936604,0.7422818,-44.0211684,29.0030154,141.3856444,34.2817086,7.219109599999999,-39.726271800000006,-1.0546856,-0.215612,-0.1690428,-141.5498352,71.1838194,172.4445344,185.2753115435503,1.2363021623515993,52.96723288108981,1.0896906522601724,-97.5286668,42.180804,31.05889
859.397,24.9800512,-172.0863984,-79.822792,-0.6389853999999999,-0.68026,0.747258,-42.877403,25.4545236,142.7531614,32.2765958,-0.7267170000000001,-44.9955528,-1.0604674,-0.2257266,-0.1486219999999999,-138.77481400000002,70.6437392,102.6877564,191.3358554869249,1.1955963062744714,55.37965805069813,1.0943637892832163,-95.897411,45.1892156,-40.06540500000001
879.383,24.7531254,-176.0967316,-82.9172118,-0.5675072,-0.6702292,0.7519397999999999,-41.8621472,21.789488,144.01351,29.6842538,-11.0576032,-48.783361,-1.0634754000000002,-0.2292956,-0.1292768,-135.62589119999998,70.17935320000001,33.38824159999999,196.20917437764376,1.156150969989871,58.16564125536471,1.095567838886648,-93.763744,48.3898652,-110.6252684
899.369,24.2498642,-179.045276,-85.0820906,-0.4927294,-0.654108,0.7617528,-40.9620642,18.0380778,145.18326100000002,25.9198664,-22.1263912,-51.012741,-1.0488556,-0.2311361999999999,-0.1070384,-132.1714264,69.784526,-35.4978088,199.7103625566316,1.1184394778423197,61.34913533263829,1.0793420364631223,-91.20936220000002,51.7464482,-180.6810698
919.355,22.892941200000003,-181.2634524,-86.7020002,-0.4197662,-0.6300132,0.7591996,-40.1836478,14.2228502,146.27312920000003,22.148612000000004,-33.3648534,-51.356079,-1.0414998,-0.254444,-0.0923525999999999,-128.43484800000002,69.4581986,-103.9972686,202.2319528942806,1.0721493960623398,65.12465973948945,1.0761006390030627,-88.2512002,55.2353484,-250.27039780000004
939.341,21.1393584,-182.372104,-87.9552978,-0.353817,-0.611,0.7511438,-39.5307258,10.359204,147.28825680000003,18.4515066,-45.0184922,-51.2697272,-1.0274794,-0.2756294,-0.079174,-124.3842804,69.19206100000001,-172.07881460000002,203.5745347582481,1.0308852883650246,70.68032019546689,1.06674927037459,-84.85355460000001,58.832857,-319.3670714
959.327,19.494137,-182.4900972,-89.07092420000001,-0.287423,-0.5930974,0.7514296,-38.9872268,6.4697648,148.2329894,16.5482996,-55.3620584,-50.267202600000005,-1.0135952,-0.2854839999999999,-0.0715293999999999,-120.0665314,68.9521806,-167.8261046,204.0007021833071,0.9995113558994316,76.58717508281539,1.0554585727461785,-81.07930460000001,62.4824158,-316.059094
979.313,18.7189128,-181.7483796,-89.57199080000001,-0.225779,-0.5752126000000001,0.7450884,-38.52815940000001,2.5743078000000006,149.11841420000002,15.3764346,-65.44281240000001,-49.77568720000001,-1.0048296,-0.2970698,-0.0603227999999999,-115.4604554,68.699115,-163.2314758,203.484674409438,0.967988851100218,83.64696929394344,1.0495579218452118,-76.932296,66.1248072,-312.34989
999.299,17.945923200000003,-180.4377564,-89.40479880000001,-0.1707406,-0.5490356000000001,0.7341065999999999,-38.1455712,-1.3178468,149.9580718,14.241023000000002,-71.4570594,-48.2978758,-0.9912096,-0.3021803999999999,-0.0667448,-110.7822084,68.4039352,-158.52455759999998,202.1708637332158,0.932472488987895,87.41626210822494,1.0383950758759213,-72.6366372,69.721782,-308.4826294
1019.285,16.878176000000003,-177.713147,-89.3815598,-0.1156262,-0.5354096,0.7153965999999999,-37.8429238,-5.184700599999999,150.7408264,14.2271894,-74.609465,-46.05560140000001,-0.9795948,-0.3042067999999999,-0.0575302,-106.1659074,68.04552,-153.8710358,199.6394216431503,0.9010134034464524,88.82625516211623,1.02735459957374,-68.3229836,73.2302206,-304.6118622
1039.271,16.8960476,-173.668335,-89.00549759999998,-0.0557336,-0.5142978,0.6937146000000001,-37.5862496,-8.983393799999998,151.4648254,13.615930799999996,-74.0495438,-44.208055,-0.9668082,-0.3085016,-0.0556065999999999,-101.8177354,67.5993134,-149.4776216,195.8778844310845,0.8653602761318318,87.31025504155586,1.0163579225614172,-64.2314858,76.5827072,-300.942447
1059.257,16.7655988,-169.5027892,-87.7847702,-0.0076418,-0.4922014,0.6743152,-37.374345600000005,-12.7174264,152.1479492,12.6009718,-68.8711198,-42.5735916,-0.9518276,-0.3236776,-0.0571212,-97.9535766,67.0557282,-145.56821599999998,191.62058012846376,0.8348781972361238,81.94221338561668,1.0069785500957604,-60.57923100000001,79.7731546,-297.71616520000003
1079.243,16.473095,-164.9559662,-85.61690819999998,0.0420154,-0.4669127999999999,0.6480276,-37.205977,-16.3549616,152.8065796,12.4438302,-59.100599,-39.3843224,-0.9274388,-0.3418682,-0.0640004,-94.7734924,66.45601359999999,-142.3788268,186.57997913383363,0.7998203717102734,72.10308289603417,0.990511304890984,-57.567515400000005,82.8109752,-295.18540640000003
1099.229,15.7670724,-159.89525139999998,-83.04597019999999,0.0900812,-0.449469,0.6215828,-37.0895058,-19.8825874,153.44730220000002,14.200366,-47.0688268,-35.7236252,-0.9139702,-0.3638815999999999,-0.0648146,-92.2763136,65.8452898,-139.95707080000005,180.86383043271897,0.7723355370629271,60.77254518524322,0.9858764008128807,-55.18680780000001,85.7278772,-293.404373
1119.215,15.919534000000002,-154.8000732,-79.4689148,0.1368298,-0.4396434,0.6125496,-37.0085068,-23.2822474,154.0909118,14.898425,-31.850526,-31.596706,-0.9035938,-0.3801084,-0.0735881999999999,-90.5790204,65.263434,-138.4118164,174.7335189509791,0.766306548185359,47.27336357831688,0.983045967556065,-53.570513600000005,88.5456814,-292.5027282
1139.201,15.766608000000002,-150.564627,-75.4663728,0.167271,-0.4438338,0.6114964,-36.9776314,-26.5777102,154.7619782,16.833474000000002,-13.771518600000002,-26.8574134,-0.8850353999999999,-0.3938846,-0.0989642,-89.7178984,64.7477716,-137.81874699999997,169.15515438514836,0.7738836325161556,34.55924226596008,0.9737693003232132,-52.740267,91.3254818,-292.5807252
1159.187,17.3577358,-145.8417816,-69.9437524,0.2226332,-0.4310246,0.5715838000000001,-36.9824798,-29.7280192,155.49144600000002,20.173603000000004,5.0769266,-20.1940556,-0.8642726,-0.3958616,-0.1078536,-89.634407,64.3540186,-138.152591,162.67527394216123,0.7497038001569954,28.99222867044353,0.956716223599391,-52.6519272,94.0820378,-293.644037
1179.173,17.435678799999998,-140.8293822,-65.1796014,0.2674294,-0.4194511999999999,0.5486527999999999,-37.0444258,-32.7394006,156.2652252,23.285953400000004,22.469681,-12.455277800000005,-0.8554458,-0.402817,-0.1160772,-90.2236998,64.10429180000001,-139.29997880000002,156.15792719139597,0.7405927950727309,34.67356536417773,0.9526399994680468,-53.179274,96.8436924,-295.565204
1199.159,17.6883352,-134.9253036,-60.455265,0.3236756,-0.416717,0.5304854000000001,-37.1571128,-35.589840800000005,157.0768098,25.9832008,38.8156064,-5.497999200000002,-0.8572224,-0.411313,-0.1254516,-91.4361632,63.97391,-141.19899600000002,148.90451242296172,0.7482203630866512,47.0319680559515,0.9590342699681385,-54.2790504,99.5637508,-298.2758058
1219.145,18.1432082,-129.2266264,-54.7151344,0.3702,-0.4048534,0.5112386000000001,-37.3295356,-38.2725876,157.9519136,29.3212712,55.2639392,-0.2057328000000016,-0.8511558000000001,-0.4151792,-0.143686,-93.2564606,63.908037,-143.8478698,141.50068164826553,0.7498794713962506,62.561028177854,0.9578547022290388,-55.926925,102.1806246,-301.7997834
1239.131,18.193219,-123.25428,-48.1698616,0.4314992,-0.3832096,0.4712306,-37.59598,-40.7764182,158.91883560000002,31.0225324,65.8951538,3.716563199999999,-0.8457229999999999,-0.4137942,-0.1436312,-95.4490874,63.8655808,-146.953253,133.5774918257695,0.7450499550427206,72.92723532984299,0.9524195264147411,-57.8531074,104.64199899999998,-305.8720886
1259.117,16.899074,-116.707167,-42.5894932,0.4742794,-0.3835946,0.46086,-37.9699012,-43.1073402,159.95655219999998,30.3337636,72.5899522,4.992794799999999,-0.8539428000000001,-0.4283394,-0.1515598,-97.8910536,63.77701040000001,-150.3265624,125.37944992005752,0.7645114165357637,78.83125252369061,0.967296914210027,-59.9211524,106.8843506,-310.2831146
1279.103,17.323330199999997,-109.871437,-36.1156464,0.526484,-0.3821436,0.4491927999999999,-38.4257454,-45.25719,161.0809266,28.8263898,77.5876068,5.250071799999999,-0.8562862000000001,-0.4286361999999999,-0.1608572,-100.5332564,63.6181534,-153.89475399999998,116.94515959437156,0.7905651806453405,82.93588325784025,0.9709943805464172,-62.107511,108.8753434,-314.9756806
1299.089,17.8561938,-103.610356,-28.9032178,0.5711192,-0.3694176,0.4225936,-38.9828392,-47.2284234,162.3226838,25.9019414,79.84074100000001,5.840566399999998,-0.8437202000000001,-0.42416,-0.1653264,-103.2716368,63.395275000000005,-157.516034,109.03827551215277,0.8007695389806982,84.14016108607663,0.9587013612303888,-64.2887976,110.6236984,-319.8387178
1319.075,17.456462,-97.307991,-22.8541612,0.6201586,-0.3595058,0.3916948,-39.6503342,-49.0361222,163.663144,21.6547058,75.903302,6.523092,-0.836656,-0.4217881999999999,-0.1651212,-105.880551,63.132437,-160.90943620000002,101.46864472421572,0.8168634682336088,79.20093602368738,0.951400840174466,-66.2302168,112.1685592,-324.5725802
1339.061,17.654085000000002,-90.308409,-17.717049199999998,0.6676712,-0.3629293999999999,0.3650458,-40.3936708,-50.6691812,165.0716492,17.417948,69.6618782,7.334777799999999,-0.8446400000000001,-0.4223818,-0.1649584,-108.2845428,62.8650092,-163.9871188,93.70789340100292,0.8430664367601405,72.180060627972,0.9586628126206836,-67.890872,113.5341904,-329.058768
1359.047,18.690980000000003,-83.9427488,-12.6220132,0.7066472,-0.3551575999999999,0.3513855999999999,-41.1894228,-52.1360588,166.5470766,12.8333642,61.9976248,7.151363799999999,-0.8543694000000001,-0.4160612,-0.170318,-110.4268508,62.6018614,-166.6774294,86.9198080225749,0.8654241884723122,63.71454089712464,0.9654336926613863,-69.237428,114.7379202,-333.224506
1379.033,18.4861632,-77.8272506,-8.1662654,0.7424854,-0.3528475999999999,0.3291388,-42.0590052,-53.4485824,168.0815982,7.422889,53.95503759999999,5.179483199999998,-0.8614896,-0.417636,-0.1671358,-112.2866562,62.3207624,-168.939493,80.40837678000639,0.8855045723791379,54.708979242376806,0.97186343435989,-70.22765100000001,115.7693448,-337.0210912
1399.019,18.0326464,-72.09612419999999,-4.8184478,0.7696332,-0.3518523999999999,0.327182,-42.9726564,-54.615528000000005,169.6394472,1.7954282,45.0091468,1.135697999999999,-0.8710140000000001,-0.421366,-0.1726674,-113.834517,62.0003218,-170.7297914,74.47311528364166,0.9072945690634326,45.05925729561584,0.9828676030751854,-70.86186059999999,116.6158498,-340.3692386
1419.005,16.084195200000003,-66.841307,-1.9530548000000003,0.7961487999999999,-0.3574578,0.3122353999999999,-43.9676568,-55.65298,171.2255738,-2.985132,37.5729568,-3.110239200000001,-0.8708994000000001,-0.4220933999999999,-0.1735428,-115.1066544,61.6428466,-172.1084412,68.7770025499204,0.9268872291360152,37.819461704700494,0.983232275037674,-71.1389976,117.2958266,-343.334015
1438.991,13.549978200000002,-62.297879,-0.0848649999999999,0.8141491999999999,-0.3618644,0.3056116,-45.0383454,-56.5826462,172.8226166,-7.307475800000001,31.945381,-6.375641600000001,-0.8699444,-0.4294978,-0.178947,-116.18680120000002,61.2591332,-173.17755419999995,63.75448877677039,0.9419040364615494,33.38495732533437,0.98655645966422,-71.1484558,117.8417794,-346.0001708
1458.977,10.5422322,-57.628914,1.0226358000000002,0.8414538,-0.3733222,0.2794149999999999,-46.1678726,-57.41256560000001,174.4000304,-10.0340062,26.9179346,-8.262009200000001,-0.8604274000000001,-0.432432,-0.1759546,-117.0887238,60.8778504,-173.98873899999998,58.59416500435478,0.9620221955715368,29.891759392387737,0.978924290512765,-70.92085119999999,118.290416,-348.3887694
1478.963,8.6795972,-53.1638002,1.5757724,0.8586414,-0.3828112,0.2584082,-47.3129654,-58.1537788,175.9369688,-11.6694638,21.275561,-9.116412,-0.8546882,-0.4363667999999999,-0.1791718,-117.8030624,60.526340600000005,-174.5526976,53.89070530171571,0.9749791107847592,25.921706135938955,0.9762225347105647,-70.49009699999999,118.6801194,-350.4896664
1498.949,5.984342799999999,-48.5023188,1.8038566000000005,0.8763298,-0.3895354,0.229594,-48.4795662,-58.8183892,105.4190978,-11.7368274,15.9195032,-8.885563800000002,-0.8467256000000001,-0.4401966,-0.180682,-118.33461,60.2247698,-174.90902999999997,48.90338624633379,0.986106054670186,21.68264152717725,0.971268898642863,-69.8550438,119.04315900000002,-280.3281278
1518.935,3.770360199999999,-42.6085294,1.8815764,0.8881696,-0.3990968,0.201771,-49.5936958,-59.38526459999999,34.7796204,-11.0676556,11.1698786,-7.856958200000001,-0.8322900000000001,-0.4435974,-0.1910232,-118.718753,59.978776,-175.1110716,42.81638381995197,0.9944018456214772,17.578139280808326,0.9622760312535068,-69.12505719999999,119.3640406,-209.890692
1538.926,2.1908898,-35.088239,2.4326438,0.9025682,-0.3997703999999999,0.162225,-50.5695236,-59.8291282,-36.056118600000005,-8.8031982,7.8176996,-6.3880278000000015,-0.8281942000000001,-0.4472682,-0.1953997999999999,-118.97409360000002,59.7882722,-175.2177154,35.24063379246383,1.0003812668140082,13.394761093722286,0.9613196957749904,-68.40457,119.6174004,-139.16159679999998
1558.907,1.2803817999999996,-25.356886600000003,2.9826192,0.908793,-0.3938364,0.1357046,-51.3223306,-60.1275216,-107.16956460000002,-6.724829,5.7994872,-4.883970800000001,-0.8231299999999999,-0.4485884,-0.2051448,-119.1563476,59.6404572,-175.28632499999998,25.563784791991186,0.999713741665643,10.134621237987016,0.9596139528381192,-67.834017,119.7679788,-68.1167604
1578.893,0.0633735999999997,-13.430598,4.389797,0.9079328,-0.3888733999999999,0.115058,-51.80357360000001,-60.242817,-178.6215056,-5.5907648000000005,5.490798400000001,-3.5582612000000013,-0.8142992,-0.4485495999999999,-0.2186108,-119.3389266,59.5138726,-175.378357,14.129943260749137,0.9943856565273856,8.606203627952748,0.9550238806739024,-67.53535300000001,119.7566896,3.2431486000000005
1598.879,-0.1811904000000002,0.7773596000000011,6.7602834000000005,0.8988434,-0.3894014,0.0964528,-51.951246600000005,-60.1330718,-178.46164240000002,-6.305581800000001,6.494721800000001,-2.2450324000000013,-0.8134214,-0.4470594,-0.2287512,-119.5950804,59.3989502,-175.5366212,6.80724243413439,0.9843048565730842,9.326411076772043,0.9559516685522128,-67.64383380000001,119.532022,2.9250212000000038
1618.865,0.3695229999999997,16.747839600000002,9.5087252,0.8803491999999998,-0.3900956,0.0855962,-51.7213798,-59.7787284,-106.7257264,-7.7796704,7.7293554,-0.6626248000000011,-0.8092926,-0.4449402,-0.2386178,-119.9505706,59.296749,-175.7736512,19.26246436580668,0.9667036777288268,10.986595380631815,0.9538683077173914,-68.22919080000001,119.0754774,-69.0479248
1638.851,2.3195448,33.7100534,12.1313744,0.8429336,-0.4057652,0.0979531999999999,-51.0805258,-59.1677192,-35.4249422,-10.2852728,9.0085486,1.294801399999999,-0.7981494,-0.4416874,-0.2563749999999999,-120.4405958,59.2085524,-176.1044526,35.90150739374371,0.94062600481288,13.733801189562334,0.9475538848340604,-69.36007,118.3762716,-140.6795104
1658.837,5.656854,50.1553368,15.5351482,0.8093508,-0.4064712,0.1224116,-50.0798658,-58.2909438,35.5223632,-13.1989572,8.8805044,2.935455799999999,-0.7924016,-0.4410738,-0.2750892,-121.026303,59.143193,-176.4748018,52.81002401338891,0.9139213060787236,16.176919679580685,0.9476921761234712,-70.9464372,117.4341368,-211.997165
1678.823,7.124730199999999,65.85705420000001,19.0188494,0.7796714,-0.4001278,0.1499326,-48.8162078,-57.1489768,106.1798676,-16.4648818,6.229666399999999,4.649121999999999,-0.7898924,-0.4424889999999999,-0.2835606,-121.632518,59.130712,-176.7926454,68.91755945203234,0.8890835353629939,18.20756467829084,0.9487534624817556,-72.8163102,116.2796888,-282.972513
1698.809,6.6078448,78.7075966,22.117364,0.7379712,-0.3969824,0.1820952,-47.4294128,-55.77520440000001,176.657431,-18.565769,2.239666,5.7752566,-0.7797192,-0.4514254,-0.2982774,-122.18938599999998,59.1679678,-177.0033448,82.02272347196059,0.8575285300223195,19.57185405496272,0.9490607619981768,-74.7599732,114.9431722,-353.6607758
1718.795,4.2454382,89.4238158,25.2324748,0.702472,-0.4045194,0.1988056,-46.02922220000001,-54.189331800000005,175.0379852,-20.1691962,-4.081441,4.895922199999999,-0.7807714000000001,-0.4574772,-0.3041953999999999,-122.5792388,59.2534514,-176.98359399999998,93.012474229401,0.8346415532141447,21.152415705517612,0.954685397897632,-76.55001659999999,113.4427832,-352.0215792
1738.781,-1.2894902000000008,98.9491576,28.816424800000004,0.6749457999999999,-0.3954304,0.2263487999999999,-44.7566408,-52.39468839999999,173.40223999999998,-21.3311434,-15.7644778,3.611617599999999,-0.7909006,-0.4614714,-0.3069632,-122.6301666,59.4416968,-176.5447512,103.06786556914616,0.8143407231885434,26.76901605862057,0.9657670621079184,-77.8735258,111.8363852,-349.94699120000007
1758.767,-7.967682400000001,106.6481948,31.893163,0.6310774,-0.4045836,0.2893012,-43.6550164,-50.41062,171.7786652,-20.77267,-27.2343562,1.0727705999999997,-0.8080084,-0.4666344,-0.3114528,-122.2860596,59.706239200000006,-175.66232,111.59970995961676,0.8035183622675713,34.269006599515,0.9836808854307172,-78.6310432,110.1168592,-347.4409852
1778.753,-11.8852484,112.4080428,36.117856,0.5922782000000001,-0.4271498,0.3421738,-42.7353318,-48.251927,170.2457122,-18.5405088,-37.8604526,-3.458679800000001,-0.8140888000000001,-0.4634648,-0.3146702,-121.4994812,59.997399,-174.3198792,118.66476620165344,0.8064324691142589,42.29807092053552,0.9882092541018426,-78.7641494,108.249326,-344.5655914
1798.739,-13.0782236,118.332324,41.5597006,0.5637844000000001,-0.4264546,0.3588478,-41.9467806,-45.9209776,168.8127716,-16.5565334,-49.9566402,-5.757062400000001,-0.8082882,-0.4416326,-0.2997553999999999,-120.25117500000002,60.3676978,-172.49264240000002,126.09832492834396,0.7927724258003428,52.9426903904124,0.9686188453004412,-78.3043944,106.28867540000002,-341.30541400000004
1818.725,-14.138684,124.7403974,45.994861400000005,0.5208166000000001,-0.412174,0.3993654,-41.2810258,-43.4218282,167.4580506,-15.2431314,-60.07151799999999,-4.727500400000001,-0.8154394,-0.4283656,-0.2815312,-118.6417284,60.8438002,-170.286496,133.6996499769801,0.7750032643987509,62.15536654009844,0.9631709707570926,-77.3607026,104.2656284,-337.74454660000004
1838.711,-13.5422742,129.3464704,49.4670532,0.4610148,-0.4274649999999999,0.4784119999999999,-40.7025986,-40.7998074,166.1838502,-13.7509398,-59.1180612,-2.627996200000001,-0.8142593999999999,-0.410818,-0.2747924,-117.037993,61.3315878,-168.1221528,139.14342222231593,0.7900246918850321,60.7531058420669,0.9525233134732818,-76.3353944,102.1313952,-334.30600300000003
1858.697,-11.381544,133.1266476,54.83508380000001,0.427666,-0.4301871999999999,0.5218048,-40.209942,-38.0502194,165.03768,-11.3180544,-50.0892718,2.6929577999999985,-0.8153926,-0.398326,-0.2552944,-115.7366654,61.8237348,-166.3611452,144.42690282766415,0.8001496634398342,51.42261687787014,0.942710944607158,-75.5267234,99.8739542,-331.39882520000003
1878.683,-9.3946964,136.67177099999998,58.886715,0.3918696,-0.4268067999999999,0.5439486,-39.7672394,-35.1923554,163.97785960000002,-10.668843,-39.7220734,11.0247962,-0.8276709999999999,-0.3784674,-0.2245397999999999,-114.8623872,62.3756536,-165.1074464,149.11431357256026,0.7947363760218604,42.58184422268687,0.9373873153013113,-75.0951478,97.568009,-329.08530600000006
1898.669,-8.8176316,139.4673644,60.2241882,0.3379756,-0.4543428,0.618911,-39.370137,-32.261124800000005,162.95441599999998,-10.37373,-26.118565,18.8631706,-0.8505874,-0.3720968,-0.2140989999999999,-114.54422,62.94878679999999,-164.49459539999998,152.17046101022606,0.8388716898478574,33.84690409560126,0.95278189288525,-75.174083,95.2099116,-327.4490114
1918.655,-5.317311800000001,141.2035584,62.9835526,0.3154562,-0.4760916,0.6924082,-38.9746826,-29.260744800000005,162.003534,-9.2416242,-9.5556422,25.0545856,-0.8708667999999999,-0.3647968,-0.2023074,-114.8667664,63.4952362,-164.6327364,154.70503097093382,0.8975549794504178,28.36283087592234,0.9656158515306384,-75.8920838,92.755981,-326.6362704
1938.641,-2.682843,142.0230012,65.91483840000001,0.3031396,-0.4628948,0.6909616,-38.61292039999999,-26.1955582,161.1441834,-8.9551808,2.1482568,30.3833396,-0.890983,-0.3573216,-0.1793014,-115.6820282,64.0445916,-165.3344758,156.596604170448,0.885207967445933,31.748347920614123,0.9765646031663856,-77.0691078,90.2401498,-326.4786592
1958.627,-3.8873618,142.5817354,66.6187202,0.2739588,-0.473871,0.6885730000000001,-38.3311798,-23.1058404,160.3296694,-11.3101922,7.934253200000001,32.6630814,-0.9165626,-0.3542678,-0.1670849999999999,-116.8095688,64.581827,-166.331952,157.4252734872187,0.8796248774718916,35.46476713564713,0.9967497534790766,-78.47838900000002,87.6876674,-326.66162139999994
1978.613,-6.4095366,142.5767396,65.7118934,0.230049,-0.503578,0.729521,-38.1477334,-20.0196442,159.5332062,-12.2382224,15.8087112,32.594256200000004,-0.9298402,-0.3499158,-0.1691084,-118.2787978,65.0333606,-167.68407899999997,157.12180551599425,0.9158134274654418,38.237088991555126,1.0077904125244692,-80.1310644,85.05300480000001,-327.2172852
1998.599,-6.372189199999999,143.2612824,66.1417328,0.2182732,-0.5242340000000001,0.7374384,-38.011416,-16.913456,158.7596772,-11.6970928,24.883961,32.5249668,-0.9372944,-0.3454704,-0.1683494,-120.1062178,65.376349,-169.4418334,157.92127357604403,0.930741570141143,42.58998662082949,1.0130212781713326,-82.0948018,82.289805,-328.2015106
2018.585,-7.5009262,142.6616668,65.9949722,0.1728072,-0.5371284000000001,0.7380502,-37.9450006,-13.8103712,158.0113068,-10.7466166,30.6379572,31.6519462,-0.9607174,-0.339003,-0.171956,-122.1420836,65.62463840000001,-171.4479124,157.36566151384756,0.9290249427106037,45.34335549983174,1.0331843120217032,-84.19708299999999,79.4350096,-329.4592192
2038.571,-8.9322194,141.9218536,65.33398280000002,0.1349348,-0.5648068,0.7572778,-37.95562460000001,-10.730003,157.274887,-9.5748206,35.0447928,31.2231118,-0.9735962,-0.3386232,-0.1805552,-124.3406692,65.7861908,-173.657208,156.49321512826128,0.9542975363848112,47.90299993103162,1.0464967331433577,-86.3850446,76.51619380000001,-330.932095
2058.557,-8.9245632,141.2196044,63.8644752,0.088958,-0.5944784000000001,0.7763796000000001,-38.0110278,-7.6798601999999985,156.531494,-8.8195898,38.56427599999999,32.368641000000004,-0.9726638,-0.3286378,-0.1794904,-126.6989212,65.8951492,-104.0587064,155.2459200358409,0.9818774756183788,51.11474804624709,1.0422545155150156,-88.68789340000001,73.5750094,-260.5902004
2078.543,-6.1890196,140.4928832,63.5837844,0.0493808,-0.6087188,0.7815914,-38.055182,-4.6511332,155.796527,-8.6851466,39.0235014,34.0834074,-0.9701134,-0.3129072,-0.1809589999999999,-129.12878719999998,65.9931014,-34.54069200000001,154.33551707913415,0.9918982596194228,52.535170057530685,1.0352666730617768,-91.0736052,70.64423459999999,-190.337219
2098.529,-4.8691084,138.79942,62.6319618,-0.0068208,-0.6147112,0.7661294,-38.1208024,-1.6584035999999998,155.0677366,-9.6197296,34.8749526,34.9176848,-0.9766786,-0.2976042,-0.183542,-131.47552639999998,66.1231552,35.089996400000004,152.35402800012872,0.982278290639898,50.27968007278402,1.0373798789833937,-93.354724,67.7815588,-119.9777402
2118.515,-2.069345,138.1917754,60.9535484,-0.0477626,-0.6232782,0.7486342,-38.1791466,1.2991116000000005,154.317407,-11.916652,29.307322,37.3954226,-0.9826208,-0.2921004,-0.1818532,-133.7865294,66.3252106,104.81263119999998,151.05159396538727,0.9753000286904744,48.98309248233904,1.0411228873783536,-95.60738279999998,65.026099,-49.5047758
2138.501,-0.2353231999999999,139.4531828,58.0376952,-0.092999,-0.6344746000000001,0.7584912,-38.24832,4.2358536,153.500241,-16.4252124,24.116016400000003,35.7336058,-0.9970392,-0.2641782,-0.1715258,-136.0026732,66.5412216,174.7421752,151.04840162738162,0.9932349835379342,46.13307309143817,1.0456090989263245,-97.7543532,62.305368,21.241934200000003
2158.487,0.8138156000000002,140.8530516,56.06025079999999,-0.1291998,-0.614476,0.758943,-38.3369612,7.1609512,152.6285522,-21.0748494,14.7775564,34.1039366,-0.9914798,-0.240913,-0.1814971999999999,-138.0118528,66.8439986,173.0043028,151.6014385176538,0.985021735874412,42.727086748392765,1.0363457439411232,-99.6748916,59.6830474,20.375750600000003
2178.472,-1.0070249999999998,142.9363922,52.793311200000005,-0.17653,-0.6124696000000001,0.739859,-38.5261642,10.0737926,151.6646058,-24.9495956,5.264758000000002,33.687181599999995,-1.0019982,-0.2495714,-0.1965738,-139.821408,67.2494766,171.5706084,152.3776887275919,0.9765619241528722,42.2495704304018,1.0511553335961532,-101.2952438,57.175684,19.906002600000004
2198.459,-2.342427,145.7908418,49.7044126,-0.2309324,-0.6140950000000001,0.7417588,-38.8076286,12.989880199999998,150.59228539999998,-26.553785,-2.6567741999999988,31.478093800000003,-1.0072838000000002,-0.2356052,-0.1946852,-141.3879608,67.7339202,170.439572,154.04864539785476,0.9902770116347244,41.26781235124548,1.0526313652502095,-102.5803322,54.74404,19.847286600000007
2218.445,-3.778180999999999,147.85348520000002,47.2303252,-0.3001158,-0.619078,0.7678624,-39.1800148,15.9052872,149.42603479999997,-31.3099778,-7.676821399999999,27.556341600000003,-0.9925812,-0.2184332,-0.2017502,-142.80464179999998,68.2335112,169.57828060000003,155.25988327946516,1.0309896841517865,42.40990755731356,1.036162943100997,-103.624627,52.328224,20.15224580000001
2238.431,-2.9568794,147.6291444,45.6312706,-0.3792898,-0.6148448,0.753365,-39.6099648,18.802254,148.19821480000002,-35.2195386,-16.2606756,24.742850800000003,-0.977805,-0.211235,-0.236174,-143.977533,68.828427,169.06793520000002,154.54876340052877,1.043768989621784,46.011239234304334,1.0278623456115124,-104.3675682,50.026173,20.86972040000001
2258.417,0.1442626,146.1858584,45.0301598,-0.4597232,-0.6144592,0.7340202,-40.0465616,21.6755816,146.9384644,-35.887712,-20.7706894,21.607984,-0.9845116,-0.2112648,-0.2521346,-144.9361696,69.44510040000002,168.80388499999998,152.96418306079414,1.061928049865395,46.757399235741,1.0380114463582566,-104.889608,47.7695188,21.865420600000004
2278.403,4.6490602,144.5294558,44.3638352,-0.5214688000000001,-0.6028638,0.715032,-40.4631388,24.513733,145.64284659999998,-36.66555699999999,-25.0279624,17.802552600000002,-0.991313,-0.1848282,-0.248724,-145.6693818,70.0896682,168.801581,151.25649482994154,1.0708152183023365,47.82983222939245,1.0386176176342476,-105.206243,45.5759352,23.158734400000004
2298.389,8.8072268,142.6151278,44.3490442,-0.575342,-0.5887626,0.7038032,-40.8601084,27.316285400000005,144.3248168,-41.540317,-28.4019396,15.5856082,-1.0127166,-0.1931346,-0.2534698,-146.3038576,70.7562088,169.007068,149.61109465133435,1.0830506730772111,52.67997050555785,1.061669828687224,-105.4437492,43.4399234,24.682251200000003
2318.375,11.5966266,141.4546298,42.8024004,-0.6125326,-0.5752332,0.669165,-41.2975672,30.0708394,142.93760679999997,-42.47015700000001,-33.7773554,13.83796,-1.014069,-0.1817946,-0.2608798,-146.7244356,71.4904312,169.4597412,148.24283969337876,1.0741839775708817,56.001009905037954,1.0627527856459376,-105.4268684,41.4195918,26.5221344
2338.361,13.3343304,140.78642299999998,42.0163248,-0.6403603999999999,-0.5534060000000001,0.6485304,-41.79298719999999,32.788195200000004,141.482718,-39.9514162,-37.3617696,12.3404186,-1.0060324,-0.1850419999999999,-0.2455594,-146.8490022,72.2658996,170.1648742,147.52624450602133,1.0662604383771912,56.07408862614115,1.0519701281605482,-105.056015,39.4777044,28.6821562
2358.347,12.841816599999998,141.4450808,39.8483552,-0.6677848,-0.5490314,0.608204,-42.4363786,35.472477000000005,139.8960388,-38.5025822,-41.2208306,10.0305722,-1.0081776,-0.1835354,-0.2245578,-146.6143922,73.08121179999999,171.2101958,147.51106585016572,1.0570166143032,57.29064574676276,1.049063163844656,-104.1780136,37.6087348,31.314157
2378.333,11.6187552,142.4239412,38.8876612,-0.7072533999999999,-0.5340092,0.5849358,-43.2408494,38.1399048,138.1802644,-36.8489346,-44.3793182,6.9893236000000005,-1.0136256,-0.190658,-0.2121684,-145.9552584,73.90713339999999,172.6571318,148.09397250713673,1.0618489005587566,58.10523650616565,1.0529970369843973,-102.714409,35.7672286,34.4768674
2398.319,8.737728,143.9198242,36.664372400000005,-0.7442592,-0.5204456,0.5597682,-44.2826516,40.773245200000005,136.278122,-32.524664,-48.7003066,3.4888538,-0.9902073999999998,-0.177969,-0.2036222,-144.7193726,74.7517852,174.6090972,148.77345156931315,1.0668297976131151,58.66639354932834,1.026472435240518,-100.436721,33.978539999999995,38.3309752
2418.304,6.0150768,144.5201904,35.5422516,-0.7948172,-0.5107594000000001,0.5298374,-45.568335,43.3708374,134.1941468,-28.5255006,-49.9508482,0.2733413999999998,-0.9819228,-0.175542,-0.2045828,-143.0213256,75.5587616,104.9524292,148.94803869457243,1.0832069130793802,57.522744509463365,1.018254143610366,-97.4529906,32.187924200000005,-29.241717600000005
2438.291,3.3134040000000007,144.93405760000002,35.1674316,-0.8394852,-0.4996686,0.4840502,-47.1177598,45.935939,131.9125352,-24.6521576,-50.1740806,-2.4471196,-0.9914974,-0.1873852,-0.1966202,-140.821341,76.3074312,35.724881,149.17643226665535,1.0902791876235371,55.95673000388102,1.0280271447942608,-93.7035812,30.3714922,-96.1876542
2458.276,0.694686,144.8942016,34.737120000000004,-0.8914799999999999,-0.4938668,0.4566046,-48.94973,48.4472206,129.4107942,-19.4118676,-50.375753,-5.0962454,-0.987547,-0.1851486,-0.192946,-138.0834656,76.98818680000001,-33.0643798,149.0016098967875,1.116749196231365,54.226458590009,1.023111548271722,-89.1337356,28.540966200000003,-162.475174
2478.263,-2.571062,143.8254424,34.3108352,-0.9349714,-0.4860596,0.4332852,-51.0876068,50.8775078,126.6810638,-13.970297399999998,-49.0053634,-6.678697,-0.9698274,-0.181853,-0.195928,-134.9842376,77.5829286,-101.6001006,147.8837437093243,1.1393689122093686,51.39357785782495,1.0059937776068797,-83.8966308,26.7054208,-228.2811644
2498.248,-5.271568,140.6129058,34.4724112,-0.9764678,-0.4802136,0.3976142,-53.5095566,53.2001756,123.7425948,-7.985112800000001,-45.7406822,-7.6739498,-0.9605296,-0.1825248,-0.2092991999999999,-131.65700379999998,78.0687226,-170.03075239999998,144.8727919267113,1.158529895213516,47.06231549852856,0.9998692765616114,-78.1474472,24.868547000000003,-293.7733472
2518.234,-8.6328918,135.027278,34.076336600000005,-1.019161,-0.4759622,0.3669512,-56.1919632,55.3703454,120.6382278,-1.8711380000000009,-40.6076736,-7.630020199999999,-0.9520774,-0.1765216,-0.2191068,-128.341301,78.4631364,-166.603601,139.5280951672325,1.183166236389156,41.36062766534847,0.9927834812604206,-72.14933780000001,23.092791000000005,-287.2418288
2538.22,-11.591817,127.1994566,32.4846352,-1.0457842000000002,-0.478394,0.3391066,-59.0865432,57.336622,117.4116668,3.1915422,-31.9734592,-5.695766000000001,-0.9301106,-0.1671815999999999,-0.2423946,-125.5475418,78.7618958,-163.815042,131.79272933198496,1.198965678561818,32.63326194475816,0.9756077888783382,-66.46099860000001,21.425273800000003,-281.22670880000004
2558.207,-11.6659414,115.5683332,32.0204812,-1.0678342,-0.476396,0.3192984,-61.9748298,59.088061800000006,114.243698,7.531929600000001,-20.9263174,-1.4292396,-0.9048226,-0.1493816,-0.2723239999999999,-123.6933654,78.9839294,-162.07479840000002,120.48836061484948,1.212095085275161,22.286396058113727,0.9566499677861908,-61.7185356,19.895867600000003,-276.3184964
2578.192,-9.6090238,100.6345686,30.324163400000003,-1.080828,-0.4750351999999999,0.2976606,-64.6766616,60.5888232,111.2794968,11.5378132,-9.6318346,4.215577,-0.9030702,-0.1315951999999999,-0.2810574,-123.018753,79.1633316,-161.6170928,105.54243043253727,1.2175588033501297,15.609755303744528,0.954906458709878,-58.3420914,18.574508400000003,-272.8965896
2598.178,-7.543019799999999,83.7059614,27.8040128,-1.0789222,-0.4827745999999999,0.2983116,-67.0454794,61.8203798,108.6819048,13.5386448,2.8833726,10.5054684,-0.914464,-0.12231,-0.2772908,-123.77406,79.2980362,-162.6545868,88.52484537904625,1.2190710556618758,17.377387803533544,0.9633765261623516,-56.7285806,17.4776564,-271.3364916
2618.164,-3.7407954,66.175313,25.1279374,-1.0533852,-0.4944996,0.3079467999999999,-68.9511612,62.80455099999999,106.5554536,14.7571986,12.0469818,15.4403198,-0.930468,-0.1310714,-0.253177,-125.6253036,79.393309,-164.8312956,70.88426368984126,1.2037364601977627,24.52158552246664,0.9731644281676968,-56.6741424,16.588758000000006,-271.3867492
2638.15,1.556672,48.6750968,21.920249,-1.0327468,-0.5132228,0.3416174,-70.28927619999999,63.5631508,104.97744,15.583350399999995,18.6075596,19.8006198,-0.9447928,-0.1236424,-0.2209594,-128.3192672,79.45966480000001,-167.8816528,53.40585728575992,1.2027743110545883,31.323260181866196,0.9781328817997892,-58.029991,15.896514000000002,-272.8590928
2658.136,6.444403199999999,32.5364638,16.925585599999998,-1.0011294000000002,-0.5367770000000001,0.3757712,-71.0774414,64.0962616,103.91157560000002,15.162732599999998,22.5470558,21.3044194,-0.965081,-0.1354074,-0.1841226,-131.44039,79.4743178,-171.35868840000003,37.23744428818669,1.1964922139415703,34.52761896103628,0.9917749907950492,-60.3629486,15.378056200000003,-275.270264
2678.122,10.1843394,17.0302406,11.5402814,-0.9759496,-0.5665886,0.4259572,-71.3244278,64.4163528,103.3747958,14.1809608,23.6748496,20.4731434,-0.9839293999999998,-0.153857,-0.1598525999999999,-134.5194152,79.4366256,-102.7767944,22.954911428700104,1.2062088540638227,34.36201032347671,1.0086336769908686,-63.19498739999999,15.0202728,-206.1515902
2698.108,13.371405200000002,2.1622056,4.988996800000001,-0.9625498,-0.5948613999999999,0.4705544,-71.0632798,64.518367,103.3395434,12.4286132,21.8877582,17.551883,-1.0017508,-0.1631826,-0.1339708,-137.1585814,79.3639388,-33.7162536,14.434670039514886,1.225472825504246,30.685712993876653,1.0237584683391097,-66.0953016,14.845571799999998,-137.05579700000004
2718.094,16.974193000000003,-12.4271166,-1.5097982,-0.9637422,-0.6191634,0.5025586000000001,-70.27385699999999,64.4007272,103.8128832,9.7372288,19.329333,13.3831798,-1.0175146,-0.1572471999999999,-0.1263969999999999,-139.28305959999997,79.25939780000002,35.920800799999995,21.091134288984268,1.2508906788342298,25.4469298833389,1.0373229221076723,-69.0092026,14.8586706,-67.8920824
2738.08,19.4426134,-27.817454399999995,-8.4442046,-0.979702,-0.6363952,0.5441421999999999,-68.9682204,64.03731239999999,104.79733760000002,5.113110599999999,16.518104400000002,8.1318926,-1.026799,-0.1515498,-0.1327018,-140.8539458,79.114746,106.2144258,34.97328375266755,1.2887612630770215,19.1080964576555,1.0463714904393564,-71.8857254,15.0774336,1.417088199999992
2758.066,18.1950676,-44.3873694,-16.8712132,-1.003498,-0.6491233999999999,0.5712204000000001,-67.2534424,63.378144,106.2774904,-0.5787537999999998,14.1456894,3.1929812,-1.0299594,-0.151474,-0.1489744,-141.9610808,78.9302504,177.095685,50.852107941170736,1.3246366180231166,14.513118669184797,1.051643528092918,-74.7076384,15.552106400000005,70.8181946
2778.052,20.1740614,-62.0543778,-24.4828782,-1.0305466,-0.6661712,0.5790754,-65.0993202,62.40838779999999,108.2299698,-6.0244212,12.9766356,-1.1810461999999995,-1.017201,-0.1544786,-0.174352,-142.7450744,78.6935744,176.4171174,69.69325564552238,1.3568856552289734,14.355542219530795,1.0435325256852133,-77.6457542,16.285186600000003,68.1871476
2798.038,25.402077400000003,-81.0753976,-30.862037999999995,-1.0548012,-0.6576118,0.5903568,-62.48242180000001,61.1113472,110.6155014,-8.2456694,12.9940426,-4.8118252,-1.0055138,-0.1578906,-0.1935471999999999,-143.27883,78.4021636,176.0388612,90.3933129260518,1.3760741267558665,16.12420133526204,1.036073338227869,-80.7964082,17.290816400000004,65.4233598
2818.024,29.849184,-100.6490472,-37.296538,-1.0717246,-0.640719,0.6076068,-59.5034988,59.4447852,113.344156,-7.8790446,13.2440892,-7.601847999999999,-0.9970772,-0.1609962,-0.2055342,-143.5960876,78.06842939999999,175.874057,111.41021602402144,1.3886325930973968,17.183519300814073,1.0306924985386865,-84.0925888,18.6236442,62.529901
2838.01,33.6417552,-119.9519852,-43.4726546,-1.0872381999999998,-0.6258036,0.6188290000000001,-56.3086928,57.3927512,116.2860046,-5.676783800000001,13.047104999999998,-10.0847386,-0.9964006,-0.1663782,-0.2037195999999999,-143.6519654,77.7102584,175.930719,131.94740673589854,1.3988089149534328,17.440033710497733,1.030532647003364,-87.3432726,20.3175072,59.6447144
2857.996,38.9457384,-138.64051519999998,-48.2728636,-1.0981266,-0.6042996,0.6392414000000001,-52.9779746,54.968367,119.3299378,-1.7688012,13.1964324,-11.7863394,-0.9903844,-0.1626458,-0.1979144,-143.5161102,77.3357514,176.1037262,151.88229769985332,1.4070144290879465,17.781796372270254,1.0229785069826052,-90.5381356,22.3673844,56.7737884
2877.982,40.6571846,-156.1640456,-53.314844400000005,-1.104715,-0.5750202,0.6692234,-49.71083,52.1636366,122.334958,2.9468568000000004,13.228755800000002,-13.352369,-0.9857066,-0.1572125999999999,-0.1877586,-143.1825592,76.9512482,176.3826966,169.94907599382108,1.4138258099004275,19.025501384402485,1.0156705148601488,-93.4717292,24.7876116,54.04773859999999
2897.968,39.9152878,-172.4572416,-58.115715,-1.1031156,-0.5614654,0.6905496,-46.6499284,48.9932974,125.2047974,7.593078600000001,13.351207400000002,-14.642182600000002,-0.989628,-0.1657158,-0.1923046,-142.68661179999998,76.5487686,176.732956,186.31201440164517,1.417380038105758,21.220346202532504,1.0216684217175356,-96.0366834,27.5554712,51.5281586
2917.954,38.1290192,-187.3365142,-62.1356582,-1.0884784,-0.5521708000000001,0.7177035999999999,-43.8797494,45.4950728,127.8779784,13.6510258,13.6110692,-16.5133336,-0.9947592,-0.1808456,-0.1857718,-141.962622,76.120671,177.19213580000002,201.02147068835208,1.4159012243416418,25.383102583103256,1.0279893767443515,-98.0828726,30.6255982,49.31415739999999
2937.94,35.6484154,-200.6492492,-64.80928639999999,-1.0513606000000002,-0.5451128000000001,0.7455364,-41.414136,41.7092376,130.3558762,21.0038372,13.515342800000004,-19.1331368,-1.0112748,-0.1919096,-0.1810634,-140.9610686,75.6627074,177.7864778,213.84848451352627,1.3994040158871777,31.46271749123286,1.045126772457179,-99.5469326,33.9534698,47.43060159999999
2957.926,32.249931399999994,-212.051129,-66.79653479999999,-0.9992976,-0.5405163999999999,0.7661673999999999,-39.2731736,37.6615184,132.6368866,28.8209382,12.146361,-23.8037986,-1.0289022,-0.1997884,-0.1633286,-139.51004640000002,75.1704116,106.6840516,224.64976395884983,1.3703160791793547,39.30396153137623,1.060769236694466,-100.2368728,37.5088932,-25.95283500000001
2977.912,28.9831022,-220.9327544,-68.533461,-0.9231436,-0.5379001999999999,0.7764376,-37.449202,33.395555200000004,134.717508,35.9368342,9.462843,-29.6900534,-1.0581484,-0.2140508,-0.1477528,-137.5307952,74.6381912,35.98210459999999,233.12686987249,1.3207520880448231,47.565751553568354,1.0896452043261788,-100.0815932,41.242636,-98.73540340000002
2997.898,26.0608498,-226.5997802,-69.5232742,-0.8251073999999999,-0.5331014000000001,0.7774246,-35.9184318,28.9702318,136.60641479999998,41.816986,5.4059708,-36.577666,-1.0796004,-0.2193634,-0.1165472,-134.9847474,74.0675736,-34.251596,238.45358863828167,1.2527523030918282,55.81944543277194,1.1078089071530162,-99.0663156,45.0973418,-170.85801080000002
3017.884,22.6784854,-229.932434,-69.83699340000001,-0.7275647999999999,-0.5220404000000001,0.7893124,-34.6660386,24.434939000000004,138.32648319999998,44.6923248,0.0676201999999999,-43.8434876,-1.0909838,-0.2197702,-0.0939,-131.93189239999998,73.4531342,-104.0131592,241.3720024202352,1.1936878914628228,62.60718707505949,1.116853527849771,-97.2658538,49.0181952,-242.3396424
3037.87,19.1459604,-231.328244,-70.413646,-0.626717,-0.5130538,0.782609,-33.675373,19.8261392,139.8899108,44.1061898,-6.1161302,-50.4610656,-1.0885425999999998,-0.2272331999999999,-0.0723882,-128.4869004,72.7905732,-173.3469604,242.564230287104,1.1262660638874102,67.29845591679262,1.114360790182533,-94.8115274,52.964434,-313.23687120000005
3057.856,15.6412906,-231.3800568,-70.65750879999999,-0.5381858,-0.5043812000000001,0.7784384,-32.916241400000004,15.1871318,141.32702020000002,41.2759354,-13.3305782,-56.0867172,-1.0857632000000002,-0.2374416,-0.0658353999999999,-124.7719788,72.078334,-170.3282318,242.4332159713824,1.0723855150222985,70.90223553996069,1.1133708006670375,-91.8557374,56.8912022,-311.655252
3077.842,11.2833504,-229.9062288,-70.2538604,-0.4484871999999999,-0.4839322,0.757193,-32.380443,10.559659800000002,142.66732480000002,37.8617388,-21.151542600000003,-59.8222924,-1.065304,-0.2379506,-0.0494702,-120.8818558,71.331021,-167.0398438,240.6653131184256,1.004326830274727,73.88914458369469,1.092675798736478,-88.5014128,60.7713612,-309.70716860000005
3097.828,7.093415,-227.5086032,-71.1870406,-0.3691745999999999,-0.478723,0.7588341999999999,-32.0458854,5.953255,143.9089844,32.587134,-31.468421,-59.77210319999999,-1.0440402,-0.2558814,-0.0407628,-116.83755019999998,70.60887439999999,-163.4621154,238.4912489291029,0.9702035554994632,74.9992476196838,1.0757122458844837,-84.7916648,64.6556194,-307.3710998
3117.814,4.2136464,-224.1925356,-72.12551579999999,-0.2850434,-0.474029,0.7359682,-31.874265200000004,1.3876118000000002,145.0671998,27.3271566,-39.658506,-57.987883,-1.0298264,-0.2732468,-0.0492535999999999,-112.818631,69.9101714,-159.7822386,235.5464664650216,0.9206532594499408,75.38013770758613,1.0665983990988177,-80.9443658,68.5225596,-304.8494384
3137.8,2.356073,-220.161374,-72.84405819999999,-0.2099646,-0.4554894,0.7123614,-31.8312606,-3.1195234,146.1583192,24.479463599999995,-46.8220218,-55.7533586,-1.0079536,-0.2761512,-0.0488759999999999,-108.8325576,69.228398,-156.0585936,231.91127289675725,0.8712143771629806,76.81134589866001,1.0462403205719035,-77.001297,72.34792139999999,-302.21691280000005
3157.786,0.8137976,-214.3239076,-73.45265500000001,-0.1214157999999999,-0.4411702,0.6832392,-31.9001488,-7.5339016,147.1814026,19.924932,-53.4842286,-51.813250200000006,-0.992736,-0.2939366,-0.0314703999999999,-104.932617,68.5736282,-152.314343,226.56277752979665,0.8223069659648519,77.08552730849989,1.0358155610878417,-73.03246820000001,76.1075298,-299.4957456000001
3177.772,0.2756836,-207.8658356,-73.8303498,-0.0442926,-0.4320368,0.6720414,-32.0508154,-11.8337478,148.1462768,13.171556199999998,-57.00622499999999,-49.037047,-0.981153,-0.3247464,-0.0377764,-101.2917448,67.90555119999999,-148.6864774,220.58830921588728,0.8001607802704154,76.3402355246602,1.0341897747120303,-69.2409294,79.73929899999999,-296.8327542
3197.758,-0.3187049999999999,-201.646823,-72.4979538,0.0149215999999999,-0.4131714000000001,0.6481406000000001,-32.28108,-16.011124000000002,149.0952392,8.436100399999999,-54.3108592,-49.1375894,-0.9527662,-0.3261126,-0.0540811999999999,-98.1264738,67.1567384,-145.448004,214.28368137601447,0.7687779245613652,73.72475777541827,1.0084828386911897,-65.8453938,83.16786239999999,-294.5432432
3217.744,-0.2184483999999999,-195.0856566,-71.07878860000001,0.0693478,-0.3976472,0.6183192,-32.5749726,-20.0582768,150.0354888,6.1695864,-51.92727219999999,-46.0871584,-0.9216588,-0.3348344,-0.0506016,-95.3340664,66.4030856,-142.54613020000002,207.63105576863995,0.7384111633238761,69.70316753108604,0.981900983278538,-62.7590938,86.4613624,-292.581619
3237.73,0.4425597999999999,-188.3019286,-69.8776916,0.1197382,-0.396363,0.6122878,-32.9145014,-23.9734648,150.96657399999998,4.2104102,-46.3029996,-41.9166398,-0.9154154,-0.361315,-0.054639,-93.0287624,65.6704028,-140.1152374,200.84995383868224,0.7391462739790279,62.59952090977062,0.9856567881890532,-60.11426099999999,89.6438676,-291.0818114
3257.716,3.5529036,-181.5914304,-68.03876799999999,0.1689512,-0.3912854,0.586043,-33.2586008,-27.7404058,151.9079468,5.387463,-35.58989319999999,-37.7833756,-0.8906577999999999,-0.3591506,-0.078446,-91.3525464,64.98027979999999,-138.3787446,193.95191329210124,0.7246345079304463,52.18475569833062,0.963542549707692,-58.0939456,92.7206856,-290.2866914
3277.702,6.7843086,-175.120532,-65.5712844,0.2150366,-0.3734498,0.5501351999999999,-33.6026528,-31.3629378,152.8725312,9.1205546,-25.7629808,-30.4075796,-0.8629716000000001,-0.3547084,-0.0820632,-90.1358656,64.41604939999999,-137.21774299999998,187.1171315219661,0.6988234617831888,40.88442971404989,0.936628208112141,-56.5332128,95.7789872,-290.0902742
3297.688,10.3112658,-168.028134,-64.0589248,0.2771396,-0.3635895999999999,0.5103873999999999,-33.9332604,-34.840705400000004,153.840024,13.0637858,-15.421188199999998,-21.0002674,-0.8543774000000001,-0.3588722,-0.0818634,-89.3320648,64.03099,-136.59468700000002,180.1202983132447,0.6852000096286338,29.14595642279737,0.9302965193007872,-55.3988044,98.8716954,-290.434711
3317.674,12.337389,-160.3312224,-62.2528778,0.3363236,-0.360095,0.4792189999999999,-34.2836258,-38.1622294,154.8137606,14.7623378,-4.4215994,-15.386898400000002,-0.8532306000000001,-0.3687357999999999,-0.0813512,-88.96296400000001,63.75249719999999,-136.49104319999998,172.43472051184273,0.6873374883584918,21.776909811709093,0.933052284022412,-54.6793382,101.9147266,-291.30480380000006
3337.66,14.2170832,-152.2730286,-59.7300576,0.4004518,-0.3470244,0.4358906,-34.6504066,-41.3144042,155.79877040000002,16.3440582,7.429383599999999,-11.229272,-0.8400572000000001,-0.374213,-0.0846228,-89.05489680000001,63.5545838,-136.93393559999998,164.1855062867349,0.6861400684167629,21.175942216839378,0.9235217847569596,-54.4044902,104.868988,-292.732706
3357.646,15.2190722,-144.8304414,-57.442054000000006,0.4519832,-0.3543104,0.4167021999999999,-35.046672,-44.3207274,156.7980134,17.7346268,18.3014038,-6.5522892,-0.8341958,-0.3979026,-0.0882686,-89.539902,63.4373146,-137.8495514,156.5473298478341,0.7095529551169807,26.313321009450124,0.9284397974938172,-54.49323,107.758042,-294.64756480000005
3377.632,17.2668882,-136.51066440000002,-54.419535,0.5080434,-0.3644234,0.3797698,-35.45597,-47.1630644,157.8162934,19.948707,29.594012,-2.5340038,-0.8317804000000001,-0.420381,-0.0955244,-90.4268938,63.381974,-139.26510019999998,147.96889103003022,0.731531005319091,35.77957004334188,0.936858436467602,-54.9709238,110.5450384,-297.0813936
3397.618,18.6524232,-128.8214616,-50.637822,0.5501677999999999,-0.3540998,0.3624982,-35.9017822,-49.8379356,158.87838140000002,23.269412800000005,39.2445482,1.0020538,-0.8317638,-0.4433298,-0.1011504,-91.6333146,63.367871,-141.11321719999998,139.66771594357752,0.7479814312669264,45.6355590225103,0.9479471156022578,-55.731532400000006,113.2058066,-299.9915986
3417.604,19.5269188,-121.87139,-46.9613282,0.5958766,-0.3497606,0.3535709999999999,-36.4032082,-52.3533882,159.99818720000002,27.7997806,52.119806,5.4398266,-0.8304047999999999,-0.4532616,-0.1153082,-93.2914414,63.4012564,-143.5634308,132.05795169039237,0.7761532398830272,59.320263758043424,0.953055187743522,-56.8882332,115.7546446,-303.561618
3437.59,20.493586,-115.173198,-42.648468,0.6382369999999999,-0.3449612,0.3260774,-36.9933166,-54.7116454,161.2130554,31.1322992,59.95471739999999,9.8325626,-0.8258552,-0.4540637999999999,-0.123069,-95.2037994,63.4761672,-146.3726714,124.51403305424505,0.7954062914418014,68.26761662219577,0.950450800724835,-58.2104828,118.1878126,-307.58572680000003
3457.576,20.9772294,-108.8112794,-37.86475900000001,0.6851096,-0.315412,0.3043068,-37.6970664,-56.9133788,162.5441498,33.281369999999995,62.0519014,13.8944698,-0.8335855999999999,-0.4551808,-0.1217444,-97.172821,63.590470800000006,-149.2938934,117.10541683497466,0.8133034626032278,71.77147307569584,0.9575365330614596,-59.4757546,120.5038496,-311.8380432
3477.562,19.627162,-103.3737536,-34.1342544,0.7259119999999999,-0.3034618,0.2991084,-38.5682624,-58.9791534,164.00497439999998,33.432677,59.5344812,15.801533999999998,-0.8496658,-0.4436974,-0.12099,-99.0518936,63.7255172,-152.11937540000002,110.6187404781472,0.8417262801848353,70.0841410013181,0.9661459178387084,-60.483631200000005,122.7046706,-316.1243498
3497.548,19.823285,-98.0048036,-29.6566684,0.7697662000000001,-0.2966784,0.2778064,-39.598761,-60.89908439999999,165.62457279999998,30.5925904,51.92582219999999,15.940008799999998,-0.865835,-0.4433222,-0.1154561999999999,-100.6781128,63.86389919999999,-154.60343600000002,104.29488068670176,0.8704794492519397,62.34004715327268,0.979558550754512,-61.0793518,124.7629836,-320.2280088
3517.534,22.0197434,-93.3106216,-24.3790644,0.8096540000000001,-0.2733877999999999,0.2527588,-40.7894372,-62.6758262,167.4505678,25.1541318,36.91672079999999,13.448645,-0.8778801999999999,-0.4421558,-0.109311,-101.7839202,63.98439559999999,-156.3899442,98.9246176833632,0.8911607598420613,46.6523383505366,0.9890016641779122,-60.994483,126.6602218,-323.84051200000005
3537.52,21.4624236,-89.11198279999999,-19.3084796,0.8379582000000001,-0.2527676,0.230471,-42.2206316,-64.3104316,169.508426,18.3856546,21.956302,10.5823004,-0.8788406,-0.4438475999999999,-0.1054674,-102.3948836,64.0916192,-157.47680640000002,93.67175929700984,0.9050868943908094,30.530256702843907,0.9901943570314264,-60.174252,128.4020508,-326.98523240000003
3557.506,19.1568654,-84.73407599999999,-14.8156764,0.870107,-0.2483985999999999,0.1918734,-43.930324,-65.792102,171.79676220000002,10.7694466,9.2567286,6.2757824,-0.8908272,-0.4364378,-0.099541,-102.60806399999998,64.16769719999999,-157.952966,88.12691640308884,0.9249883553637418,15.525896082882278,0.9969751572680636,-58.67774000000001,129.9597992,-329.7497282
3577.492,16.829766799999998,-79.81134039999999,-10.7362192,0.8999558000000001,-0.2443533999999999,0.162301,-45.9001832,-67.12215719999999,174.2941712,3.0176072,0.1735687999999999,1.3911002,-0.8978486,-0.4325445999999999,-0.0918818,-102.5619566,64.1895324,-157.9700498,82.27002801566013,0.9465572569296588,3.3273471577617686,1.000834254351019,-56.6617734,131.3116896,-332.264221
3597.478,13.2906804,-73.77399299999999,-7.483025800000002,0.924027,-0.2522343999999999,0.1142996,-48.0561302,-68.283708,104.8978576,-3.2497688,-5.678200199999999,-3.4105046000000003,-0.8918896000000001,-0.4181122,-0.0745908,-102.346124,64.1503998,-157.66289039999998,75.33418814709864,0.964630752066572,7.377973732086245,0.9878505240276184,-54.289993800000005,132.4341078,-262.560748
3617.463,7.75488,-66.48485120000001,-6.766188,0.9414224,-0.2596942,0.0678323999999999,-50.285310200000005,-69.29488819999999,35.4450468,-7.409971799999999,-8.830750400000001,-6.1686874000000005,-0.8819115999999999,-0.4155254,-0.0599797999999999,-102.0480772,64.0710106,-157.175064,67.27670401373634,0.9789374072049551,13.074499567586294,0.9767430596977692,-51.762767,133.3658988,-192.6201108
3637.453,4.715165,-58.4341218,-6.9533510000000005,0.9721532,-0.2748036,0.0347458,-52.4493826,-70.1653046,-34.1569734,-9.4035392,-9.8284478,-7.2682182,-0.8845636000000001,-0.4188326,-0.0480266,-101.7289336,63.9745154,-156.6220214,59.03497659560527,1.0108442676598803,15.422448944511787,0.9798877811133682,-49.279551000000005,134.13982,-122.465048
3657.436,3.1522974,-49.7717896,-6.861336400000001,0.9808406,-0.2757796,0.0235938,-54.45573019999999,-70.901764,-103.972696,-9.7393682,-9.8912286,-7.382326799999999,-0.8704636000000001,-0.4325384,-0.0482376,-101.4150452,63.865345000000005,-156.06703779999998,50.34129473979269,1.0191463770150784,15.722291344922578,0.9732025546890432,-46.959315,134.767109,-52.09434180000002
3677.422,0.9537734,-41.0238484,-5.8757498,0.9843238,-0.2733082,-0.0005187999999999,-56.243173,-71.48819119999999,-174.0721558,-7.918291399999999,-9.0672188,-6.4382458,-0.8470974,-0.4469635999999999,-0.0553194,-101.1161392,63.7571832,-155.5671202,41.45347098804791,1.021563010580904,13.65154952536909,0.959380373380694,-44.87296619999999,135.2453744,18.505035599999985
3697.408,-2.0192076,-31.376113,-4.2840482,0.9850624,-0.2656991999999999,-0.012282,-57.7475698,-71.922612,-172.5371766,-5.51102,-6.7614396,-4.7851502,-0.8402461999999999,-0.4575426,-0.0683966,-100.8932022,63.664058,-155.2015624,31.73154164708342,1.020340553099013,9.94917430450428,0.9591855932616794,-43.1456324,135.58666999999997,17.335614199999988
3717.394,-2.630802,-20.7721988,-0.6564936000000003,0.986668,-0.264845,-0.0127674,-58.9178304,-72.177449,-171.3718018,-4.086869399999999,-3.5274836,-3.1589696,-0.8367787999999999,-0.4537366,-0.0795646,-100.801599,63.5907526,-155.0102446,20.948421086009475,1.0216749105032188,6.254976496730381,0.9551995539583128,-41.8837686,135.7682016,16.361557199999993
3737.38,-2.8861942,-8.7587,3.7650598,0.9667632,-0.2593204,-0.0176416,-59.6231846,-72.2248596,-170.70014659999998,-3.4440968,0.2757677999999995,-2.1393958,-0.827116,-0.4440524,-0.0873722,-100.8686294,63.5250926,-155.0074188,9.96095467049668,1.0010940918719675,4.063848549877901,0.9428347218545784,-41.24544480000001,135.7499522,15.69272779999999
3757.366,-2.4589285999999992,4.024557,7.8920822,0.9549362,-0.2580638,-0.0280793999999999,-59.772093,-72.06054680000001,-170.60230719999998,-3.0846318,5.3346216,-1.0205458,-0.8206979999999999,-0.427629,-0.0895968,-101.1415618,63.468529,-155.241388,9.19393008227188,0.9895900785907464,6.246171202157002,0.929752308636682,-41.36946880000001,135.5290758,15.360919199999987
3777.352,0.3167502000000002,18.1586982,11.3843386,0.9417242,-0.2612428,-0.0300756,-59.2480368,-71.68476100000001,-171.1532014,-3.7016466,10.7702936,0.7381656000000001,-0.8173674,-0.4102349999999999,-0.0937278,-101.6604858,63.4314844,-155.7350434,21.43459391654839,0.9777508942122426,11.412550119693488,0.9193297135960524,-42.412449,135.1162454,15.418157999999988
3797.338,5.116280000000001,32.7822214,14.4932092,0.9219234,-0.266638,-0.0214844,-58.04545879999999,-71.09469140000002,-172.321106,-5.2499720000000005,16.195015599999998,3.5862084000000003,-0.8052522,-0.3971606,-0.1024959999999999,-102.4569778,63.426304,-156.5022706,36.20640100689355,0.9599479975263868,17.39832253331504,0.9036996612886384,-44.411519000000006,134.5209954,15.818835399999989
3817.324,9.08773,47.4253408,17.198652799999998,0.8976914,-0.2586324,-0.0128943999999999,-56.2327208,-70.28143460000001,-174.0542176,-6.9127386,20.7249974,6.695325800000001,-0.8078993999999999,-0.3980152,-0.1099111999999999,-103.4941452,63.4553948,-157.5010132,51.25956929865869,0.9342948322211142,22.85035797859811,0.9073026021327394,-47.26142440000001,133.73682939999998,16.55320439999998
3837.31,12.142914,61.4209378,19.8635656,0.8811134,-0.252487,0.0035912,-53.9771652,-69.2388488,-104.2025238,-9.3652636,23.3123832,9.466928800000002,-0.8134626,-0.4039773999999999,-0.1197054,-104.70979,63.516021,-158.6441406,65.68518249185557,0.9165824597634412,26.84768358099813,0.9161050835459216,-50.7326248,132.7548698,-54.44161680000002
3857.296,12.4932524,75.1808998,23.0553214,0.8534306,-0.255464,0.0252018,-51.4860838,-67.9543762,-34.61298839999999,-12.8232536,22.6304076,11.6912142,-0.8225244,-0.4120234,-0.1299658,-105.9931076,63.612102400000005,-159.78561399999998,79.62284154138838,0.8912018710907199,28.517637884339795,0.9290859916673806,-54.5070238,131.5664786,-125.1726256
3877.282,10.4347574,87.5880418,26.688325,0.8247064,-0.2538,0.0475688,-48.9680242,-66.424083,34.87948300000001,-16.7471486,18.2113708,12.4734922,-0.8373086000000001,-0.4227115999999999,-0.1344331999999999,-107.1874572,63.7379668,-160.7421754,92.1564751911716,0.8641862512991051,27.7075625111455,0.9475458161327928,-58.219433,130.1620498,-195.6216584
3897.268,7.0442350000000005,99.4075746,30.656247200000003,0.8059611999999999,-0.2650086,0.0631752,-46.5609144,-64.63663179999999,104.388324,-22.104949,8.231251799999999,11.6253422,-0.864467,-0.4243934,-0.1288438,-108.0816834,63.907949,-161.24844979999995,104.2654910647684,0.850760906409339,26.296974307982754,0.971603662431858,-61.520769,128.5445808,-265.6367738
3917.254,2.7071828,110.5880342,34.033822,0.7676644,-0.2943492,0.1059391999999999,-44.3514952,-62.5962898,173.97821960000002,-27.8191516,-5.0824022,10.409888400000002,-0.8663234,-0.4245267999999999,-0.1458567999999999,-108.5725664,64.1292122,-161.1763582,115.7382529108707,0.8289591043378678,30.134727215735698,0.9757117624647352,-64.2210712,126.725502,-335.1545778
3937.24,-2.0857008,118.6370668,37.887579,0.7394782,-0.2939774,0.1578516,-42.4344388,-60.3590926,171.749414,-30.3442292,-20.7958116,9.1767496,-0.8675784,-0.4317997999999999,-0.1538284,-108.4758698,64.4141502,-160.3966036,124.55750643464256,0.8112754449683288,37.9137278444883,0.9812270502147604,-66.041431,124.7732428,-332.1460176
3957.226,-8.3973964,124.710608,42.5325554,0.7265406000000001,-0.2742048,0.2047002,-40.871942,-57.9392234,169.74525440000002,-31.586824399999998,-37.798124,6.4969336,-0.8873710000000001,-0.4368171999999999,-0.1498412,-107.6655288,64.74241939999999,-158.8027986,132.03132311267078,0.8030888417052251,49.685368065443775,1.000344412227249,-66.7935868,122.6816428,-328.54805300000004
3977.213,-16.065678400000003,129.7218384,46.689566,0.6935432,-0.2845392,0.2578448,-39.6946922,-55.365071,167.9650846,-31.477453999999994,-52.95374,3.4489788,-0.8977398000000001,-0.428222,-0.1508878,-106.1830078,65.08566139999999,-156.4697572,138.80121380447756,0.7927475433515515,61.6994663272914,1.006020853649108,-66.4883156,120.4507324,-324.4348418
3997.198,-21.447191,133.37894580000005,50.7614722,0.6616016,-0.3090322,0.3261574,-38.8678788,-52.6607536,166.4183926,-29.3305364,-62.816417,1.7249094,-0.896358,-0.4267428,-0.1481114,-104.19299759999998,65.41641539999999,-153.6274262,144.31442147069433,0.7997476022684656,69.34809242270347,1.0037450215696215,-65.3251188,118.077169,-320.0458188
4017.184,-20.9551934,136.6517822,57.1089706,0.6481858,-0.3047142,0.3532914,-38.266874,-49.8244362,165.1152158,-26.1681286,-67.69370740000001,-0.6816628000000001,-0.9092164,-0.4232286,-0.1244936,-101.8495772,65.69048760000001,-150.473291,149.58029359464203,0.7986303201840261,72.5787409656289,1.0105916912026738,-63.582703200000005,115.5149238,-315.5885068
4037.17,-18.444224,141.7960936,62.0878136,0.6007762,-0.3330807999999999,0.3825724,-37.7817354,-46.8268372,163.966528,-23.344059,-62.981729400000006,-1.7110688000000005,-0.9060606,-0.4079932,-0.1003616,-99.595996,65.89815519999999,-147.484256,155.88847987202416,0.7862801682967974,67.1905580066771,0.998737559558646,-61.8142606,112.7249924,-311.450784
4057.156,-14.5429042,148.421286,65.6881722,0.5373956000000001,-0.3768548,0.4201867999999999,-37.3154526,-43.6673072,162.8898314,-20.979596,-50.8284022,-0.3995228,-0.8978680000000001,-0.3898515999999999,-0.0783426,-97.7996506,66.0656266,-145.0519074,162.95800123786813,0.7793397962869855,54.989358397747296,0.98198206624221,-60.484198000000006,109.7329338,-307.9417388
4077.142,-10.497955,155.14909659999998,67.9160584,0.4901098,-0.3974818,0.472742,-36.829911,-40.357405,161.84072859999998,-18.8585394,-32.7826068,3.8446254,-0.8909646,-0.3863649999999999,-0.061139,-96.7615296,66.243042,-143.49888919999998,169.68806741656985,0.7884696544263958,38.01479924149389,0.973053857193506,-59.9316186,106.600447,-305.3396178
4097.128,-9.1706532,161.53536979999998,71.4014496,0.4470854,-0.3841199999999999,0.5326663999999999,-36.3824516,-36.8950114,160.83806140000002,-15.4543914,-11.4023286,10.0186988,-0.906271,-0.4000318,-0.0543737999999999,-96.6427354,66.46773540000001,-143.02558,176.8500596028137,0.7944602085580623,21.6616166684736,0.9921235188113826,-60.2602838,103.3627468,-303.8636414
4117.114,-13.2613684,166.0712706,74.0501038,0.378329,-0.3888002,0.600988,-36.0931762,-33.3185466,159.8903288,-10.9406678,10.366005,15.3040964,-0.902949,-0.3903459999999999,-0.046493,-97.4547974,66.7341492,-143.6668856,182.31551958988493,0.8096202837781672,21.47947015618576,0.9848088623514716,-61.3616212,100.0526958,-303.5572144
4137.099,-18.8416886,167.9889862,76.0868392,0.3154994,-0.4039132,0.6620236,-35.99022359999999,-29.688030200000004,159.0019286,-8.3405646,26.4752534,21.3472082,-0.9226606,-0.3681843999999999,-0.0510397999999999,-99.02818,67.07737279999999,-145.1908052,185.3766862721681,0.8372341318242825,35.017243728984894,0.9947197577105624,-63.0379564,96.765403,-304.19273380000004
4157.086,-22.5111976,167.73791799999998,78.0931152,0.2740404,-0.428934,0.68934,-36.045031,-26.0330972,158.1868804,-5.7116934,39.1530884,26.7351546,-0.928002,-0.351186,-0.0580632,-101.2281602,67.47191620000001,-147.4480622,186.39017622718595,0.8568968157182987,47.75307596626336,0.9939268855374824,-65.18312920000001,93.5050134,-305.63494260000004
4177.072,-22.0597232,167.10452880000005,82.673442,0.2236784,-0.4441257999999999,0.6941577999999999,-36.1912148,-22.3379684,157.48377380000002,-4.994126,48.1218744,31.7887464,-0.9369626,-0.3351066,-0.0584414,-103.9534486,67.8970368,-150.28531800000002,187.737723820382,0.8538939068485264,57.88938147844357,0.9968002530077328,-67.7622338,90.2350052,-307.7690918
4197.058,-17.3112196,165.3240814,84.9087982,0.1388828,-0.4685862,0.7037935999999999,-36.3211112,-18.654267,156.8567506,-6.560597799999999,50.4148996,36.079527,-0.9308322,-0.3138016,-0.0742444,-107.0024552,68.3450272,-153.4295592,186.6580676707053,0.8568470635809169,62.34128498607623,0.985105202326513,-70.681344,86.99929420000001,-310.2863098
4217.044,-11.7595258,163.6783416,86.6185698,0.0924203999999999,-0.495737,0.7058478,-36.390866800000005,-14.964383400000004,156.2855562,-8.6591132,47.2886994,40.722624,-0.9578754,-0.3079268,-0.0791688,-110.1104844,68.8545212,-156.5863036,185.55770690048053,0.8674778500169327,63.00423349108654,1.0092630454826137,-73.7196176,83.81890460000001,-312.87185980000004
4237.03,-6.8014579999999984,163.63208600000002,88.8208404,0.0516668,-0.503957,0.7171756,-36.4075194,-11.2465146,155.7591402,-11.0700654,42.075982,40.4375606,-0.9713368,-0.2871932,-0.0769992,-113.1074052,69.348085,-159.5652556,186.3085105114617,0.8780563520108491,59.39807165643741,1.0158267519420423,-76.6998858,80.5945996,-315.3243958
4257.016,-2.2293637999999985,164.2067716,90.30148,-0.0066538,-0.5027193999999999,0.7316632000000001,-36.36610399999999,-7.4959586,155.2569214,-15.6213316,36.0334704,41.3061306,-0.9643652,-0.2679354,-0.0736478,-116.024434,69.8555298,-162.3537384,187.41182244575103,0.8877511511820415,56.99678425287774,1.003600326817922,-79.65833,77.3514884,-317.6106598
4277.002,1.1965490000000014,164.11973840000002,90.584114,-0.0725958,-0.504372,0.7424868,-36.2854812,-3.7490688000000008,154.76762380000002,-21.9535354,27.138262,41.3031576,-0.9632642,-0.2402539999999999,-0.0899508,-118.7963348,70.3922134,-164.83927620000003,187.462534846723,0.9005264642062887,54.07766460074006,0.9968405338559824,-82.51085359999999,74.1412822,-319.60690000000005
4296.988,2.5612344000000014,164.6307644,89.7506774,-0.1282506,-0.5163819999999999,0.7516422,-36.214708,-0.0030736,154.2660734,-26.7596076,19.6939976,40.291812,-0.9666702,-0.2035946,-0.0948554,-121.4511872,70.947325,-167.0867372,187.5234188103953,0.9209042203971052,52.224134790517375,0.9924210717363672,-85.2364792,70.9503986,-321.3528106
4316.974,4.348386400000001,165.32365380000002,86.675972,-0.1985854,-0.5288408,0.7674993999999999,-36.1491944,3.7123006,153.7109862,-32.70365339999999,13.253488,40.8575468,-0.9666504,-0.1838542,-0.1065142,-124.0908952,71.54787739999999,-169.1837068,186.71781675086808,0.9529764329920022,53.986322530689804,0.989727557199172,-87.9417008,67.8355768,-322.894693
4336.961,7.227056600000002,165.8914396,84.21980740000001,-0.2652359999999999,-0.540129,0.7722742,-36.0632852,7.4146428,153.1126768,-38.8434474,10.467192999999998,42.4700952,-0.9698114,-0.1949634,-0.1261066,-126.886525,72.16880940000001,-171.3090944,186.18586422753248,0.979028555417379,58.49858563685859,0.9972200125714886,-90.8232398,64.7541666,-324.4217712
4356.946,8.910279400000002,166.2904234,81.5617142,-0.3412161999999999,-0.5550322000000001,0.7771694,-35.9917328,11.0790248,152.4657652,-42.0001548,8.453138,42.663862,-0.9853796,-0.2100266,-0.152836,-129.78656,72.7680542,-173.47027599999998,185.42980131785671,1.014140776458397,60.46216722898751,1.0190402208449478,-93.7948272,61.6890294,-325.9360412
4376.932,10.7464664,166.73970319999998,78.4403138,-0.4061175999999999,-0.5753246000000001,0.7891618,-35.9347648,14.720508,151.7574492,-41.320044,4.534752799999998,41.2259332,-1.013943,-0.2275162,-0.1674979999999999,-132.54493399999998,73.35220799999999,-175.4934326,184.5819546769209,1.0576891069563683,58.54474858883507,1.052568101604566,-96.6101692,58.6317,-327.2508818
4396.918,10.8434088,165.9360992,75.9143754,-0.4599774,-0.574406,0.8021592,-35.926213,18.3305472,151.008267,-39.2032372,1.2141411999999985,39.2453758,-1.0248136,-0.2378125999999999,-0.1626278,-135.1342742,73.9176438,-105.3814484,182.7986896137067,1.0885682539424892,55.484839979008925,1.0645400644393614,-99.2080612,55.58709660000001,-256.3897154
4416.904,8.6723482,164.1974824,72.33674479999999,-0.5199802,-0.5992632,0.8125845999999999,-36.0376762,21.8677864,150.1960752,-36.7114454,1.2566799999999982,36.3970848,-1.021775,-0.2358464,-0.1715978,-137.6869596,74.41100940000001,-35.27904959999999,179.6347057170765,1.135689008233962,51.7112874517544,1.0625881045742984,-101.6492834,52.54322300000001,-185.4751248
4436.89,7.631067200000001,162.1556244,69.3369318,-0.5747747999999999,-0.613466,0.7828142,-36.2521202,25.3355678,149.3204772,-32.8322546,-0.7075840000000018,34.1797276,-1.0244624000000002,-0.2279448,-0.1825078,-140.0700804,74.87579660000002,34.92310499999999,176.52277423211612,1.1486969468021928,47.39948729729552,1.0652657592927883,-103.81796020000002,49.54022880000001,-114.39737220000002
4456.876,10.559062400000002,159.814203,66.9953256,-0.6216216,-0.616863,0.7542758,-36.4818642,28.741082,148.3911194,-28.0992674,-6.916885400000001,30.2376004,-1.043809,-0.2213105999999999,-0.1823226,-141.9281524,75.37119600000001,105.5737368,173.61004271510998,1.1557964166847032,41.85360928287447,1.0824773164478412,-105.4462882,46.630114000000006,-42.817382600000016
4476.862,13.800339000000005,157.5590548,64.5619454,-0.6532612,-0.6017118,0.7365402,-36.7246956,32.0777646,147.4003174,-23.022345400000003,-10.797135,26.7810634,-1.05049,-0.2033846,-0.1537726,-143.3638214,75.8854522,176.55726639999995,170.83193466040507,1.153819202431958,36.930094350812944,1.0809905402582949,-106.6391258,43.8076876,29.15694899999998
4496.847,14.6480352,156.54086940000002,61.2465158,-0.6782566,-0.5825016,0.7089198,-37.057283,35.34100840000001,146.3049012,-22.12233,-15.122520200000002,22.0159506,-1.0635692,-0.1736286,-0.1358336,-144.3756684,76.4109542,175.9628512,168.73276037974352,1.141011574121034,34.681265586047296,1.0861754466086777,-107.31838539999998,41.069945800000006,29.657949999999985
4516.834,12.530457600000002,157.16396500000002,58.064088600000005,-0.6996990000000001,-0.5415244,0.6755798000000001,-37.576154200000005,38.5574264,145.0589448,-24.3447318,-21.993239800000005,16.3999528,-1.0764914,-0.1476985999999999,-0.1033932,-144.7500092,76.99035940000002,176.0706452,168.01476913395226,1.1132095187180175,36.67869974735287,1.0914846606902726,-107.173855,38.432933000000006,31.011700399999985
4536.819,5.403630200000002,159.049341,51.8100098,-0.7348855999999999,-0.5232052,0.6618754,-38.47352120000001,41.6990226,143.5363374,-29.032440200000003,-30.427281600000004,10.5151228,-1.0768204,-0.1364684,-0.0848218,-144.32623299999997,77.64044179999999,105.0919586,167.36238886723842,1.1188742429422351,43.35054621376016,1.088742639841923,-105.8527118,35.941419200000006,-38.44437880000001
4556.806,-4.686795999999998,161.4903414,44.6810436,-0.7773752,-0.5066468000000001,0.6321792,-39.893652200000005,44.7613112,141.6449342,-33.969323,-36.7471726,5.491348,-1.0544962,-0.137548,-0.0855856,-143.141388,78.31483,34.989242399999995,167.62306547554627,1.1227883693902072,50.34306806333543,1.066867650201186,-103.2477358,33.553518800000006,-106.6556918
4576.791,-12.487932199999998,162.99448560000002,40.212894,-0.8368574000000001,-0.5013644,0.5817698,-41.7942412,47.7545912,139.3919282,-35.056804799999995,-43.083397000000005,0.2531762000000001,-1.035195,-0.1540762,-0.1013712,-140.9573792,78.9918564,-34.0767182,168.34556017458746,1.135848876265747,55.54478155536449,1.0514962118908846,-99.163138,31.237265200000007,-173.4686464
4596.777,-15.430773599999998,162.79108279999997,37.4276392,-0.9085370000000002,-0.4960038,0.5388332,-44.0794554,50.6630026,136.7990938,-31.1571872,-49.064829200000005,-4.569501,-1.0133384,-0.1657844,-0.1139216,-137.5658356,79.65742660000001,-101.998877,167.74943692655506,1.1669620676807282,58.301013010324425,1.0331105028720209,-93.4863802,28.994424,-238.7979708
4616.763,-16.048375,160.1911226,35.3960084,-0.9779086,-0.4795488,0.4965248,-46.704644,53.44679699999999,133.8733614,-23.488143,-50.952012,-6.508128999999999,-0.9865972,-0.1568293999999999,-0.1396042,-133.3967668,80.2758286,-169.2905242,164.83817370573396,1.1970000662282525,56.48146715089149,1.0086916418855865,-86.6921228,26.8290316,-303.1638856
4636.749,-14.4108048,155.209607,34.130568800000006,-1.0363338,-0.4640221999999999,0.4422528,-49.628315,56.0637382,130.6385576,-14.833891000000005,-49.6281648,-8.0646562,-0.9859652,-0.163476,-0.146285,-128.6796204,80.7897004,-164.2072448,159.57001324399795,1.2185614002680043,52.42172968569464,1.01007478901913,-79.0513054,24.7259622,-294.8458024
4656.744,-10.1975158,148.4082488,33.6640582,-1.0756282,-0.4594806,0.4093836,-52.7721176,58.4800224,127.1259966,-6.8170194,-45.9886476,-8.841064,-0.9800911999999998,-0.1537036,-0.1656412,-123.73185119999998,81.19437560000001,-159.0576598,152.51972480589825,1.2392309624765516,47.32432645298883,1.0058034420839093,-70.9597336,22.7143532,-286.1836564
4676.721,-6.531400799999998,139.8149306,31.5588532,-1.101346,-0.4522904,0.3879008,-56.1059654,60.6485832,123.3836184,-1.9222294,-39.6771664,-8.096930400000002,-0.9659868,-0.1337403999999999,-0.1917814,-119.0836762,81.4901702,-154.3141326,143.481131966514,1.2521967290680804,40.54050790631461,0.9938798205781018,-62.9777108,20.841587,-277.697751
4696.707,-9.223704799999998,129.4889784,27.7458272,-1.1091352,-0.41601,0.3467012,-59.7270126,62.5273202,119.44440319999998,1.8011336,-30.330010400000003,-5.6753292,-0.9611918,-0.1335503999999999,-0.2173836,-115.38123019999998,81.6815612,-150.6037292,132.74902328953485,1.234279925325078,30.90894651452116,0.9944752461858264,-55.6542176,19.154241,-270.04813240000004
4716.693,-13.7642226,117.04027219999998,21.940282,-1.1157401999999998,-0.4568127999999999,0.30912,-63.57928300000001,64.0555986,115.42069700000002,7.1610068,-21.46350020000001,-3.6559054,-0.961599,-0.1519968,-0.2224354,-112.6127686,81.79306940000001,-147.94658199999998,119.87182786072782,1.2446321956866937,22.92002407325952,0.998625641161091,-49.033485600000006,17.737470799999997,-263.367279
4736.68,-9.651690399999998,102.2899458,19.9868892,-1.0979206,-0.5061868,0.3105042,-67.22823780000002,65.303035,111.5748214,14.1686182,-13.796877,-1.0394096000000004,-0.9568288,-0.1611556,-0.2125236,-110.7369004,81.86882779999999,-146.3333892,104.67026263097588,1.248225772292913,19.80363423634845,0.9933069819938648,-43.5086626,16.565792799999997,-257.9082106
4756.666,-4.796281999999999,86.43559400000001,17.4265982,-1.0710984,-0.5100956,0.3121748,-70.4970678,66.2784226,108.0768386,20.3805362,-7.675449400000003,1.1176565999999997,-0.9761762,-0.155762,-0.167669,-109.5948884,81.9253128,-145.5873168,88.30516720996913,1.2267446390251555,21.806603026766787,1.0026438388836985,-39.0978206,15.646890199999998,-253.6641554
4776.651,0.5104624000000015,71.374607,13.155123,-1.0488032,-0.522192,0.312945,-73.33592960000001,66.9925522,104.957782,23.7201028,-2.9317198000000024,2.3121249999999995,-0.9848536,-0.1348026,-0.124173,-109.0896332,81.97789159999999,-145.5508758,72.5785943471723,1.2126859487184802,24.012167329166783,1.001762091680814,-35.75370360000001,14.985339399999996,-250.5086578
4796.637,11.9073356,56.256514800000005,10.144793,-1.0314568000000002,-0.5661077999999999,0.3344194,-75.4879148,67.50173020000001,102.3571748,23.682625,0.3609405999999971,1.6643111999999998,-0.9829006,-0.1332246,-0.096956,-108.943666,81.9984146,-145.8773956,58.390897608672674,1.2231997002057515,23.743776801044078,0.9966156979806812,-33.4557512,14.496684399999998,-248.2345704
4816.623,27.3533812,41.42268,9.348237,-1.0087426000000002,-0.539417,0.351743,-76.74105660000001,67.886778,100.4100024,21.4866174,2.3846921999999973,0.1105677999999997,-0.9877472,-0.1380286,-0.0801989999999999,-108.96526780000002,81.9768752,-146.3303406,50.51173543309597,1.196768762540517,21.618827660655437,1.0005639935190551,-32.224211200000006,14.0900972,-246.740343
4836.609,35.649807800000005,26.9585586,5.2652304,-1.0070478,-0.4873736,0.3519123999999999,-77.23494400000001,68.10951220000001,99.1177234,18.3995236,3.623707199999997,-0.7245710000000003,-0.9866108,-0.1074714,-0.0821042,-109.21603380000002,81.9465956,-146.951419,45.00439233154537,1.172825918342343,18.76695835004516,0.9958373723416089,-31.981089800000007,13.8370834,-246.0691424
4856.595,40.563141,11.576149,0.8169751999999999,-1.0152991999999998,-0.4643586,0.3744878,-76.9722076,68.1719238,98.5450076,14.916007000000002,4.905709199999998,-1.0320286000000003,-0.9785606,-0.0954804,-0.0906394,-109.7310224,81.90572499999999,-147.7680542,42.19055678624658,1.1775833249768102,15.73589306681485,0.9873767545819984,-32.7588148,13.733801199999997,-246.3130618
4876.581,41.3526812,-5.5402512,-3.7469362,-1.0208234,-0.4482718,0.4093335999999999,-75.9469574,68.06092980000001,98.7812808,10.8595512,6.535595799999998,-0.9208914000000004,-0.9841674,-0.1134968,-0.098347,-110.5358884,81.84355459999999,-148.7956604,41.8900722925469,1.187679256681601,12.70794655705606,0.9955597055134364,-34.588931,13.782624799999995,-247.5769412
4896.567,40.1102724,-23.2979784,-8.9755158,-1.0326664,-0.4474878,0.420011,-74.2050598,67.7469558,99.8181674,8.0450356,7.280042999999997,-0.4530180000000003,-0.9962572,-0.114205,-0.1038528,-111.5102842,81.7824904,-149.93757939999998,47.24605415698879,1.2012720195521078,10.859412930515182,1.008145125785311,-37.3052244,14.0355346,-249.7557468
4916.553,39.5670946,-41.5004702,-13.542646,-1.0515314,-0.4554854,0.4420808,-71.77377320000001,67.217215,101.607773,4.288109,8.200800399999997,0.2194767999999996,-1.0021288,-0.1078841999999999,-0.1083156,-112.7048872,81.72668920000001,-151.22594,58.91729171124343,1.2282592025007424,9.256844822198293,1.0137225466578317,-40.931114,14.5094742,-252.833713
4936.539,38.38428280000001,-60.292988,-17.9705418,-1.0641642,-0.4702377999999999,0.4705693999999999,-68.74573819999999,66.4373794,104.06642159999998,0.1791651999999999,9.134964599999996,0.5578255999999997,-1.004257,-0.1248442,-0.1037199999999999,-114.0384382,81.6583482,-152.57309279999998,73.6989683823598,1.254991869824996,9.15373409118702,1.0172885700344028,-45.2927,15.220968800000003,-256.6395144
4956.525,38.6250984,-79.02357579999999,-21.7250816,-1.0801586,-0.4956167999999999,0.4947606,-65.2194588,65.38135220000001,107.0755494,-3.679412600000001,10.568672599999996,0.8551971999999998,-1.0060074,-0.1252334,-0.1013719999999999,-115.5945754,81.58055120000002,-154.0679108,90.60134065870484,1.2873098558267004,11.223470045307613,1.0188280403062728,-50.3751166,16.199199000000004,-261.14346020000005
4976.511,39.7221114,-97.5440356,-25.443636,-1.0947608,-0.5076454,0.5155394,-61.32025159999999,64.00265499999999,110.488585,-7.080496999999999,12.350949999999996,0.4663505999999998,-1.006827,-0.1313311999999999,-0.1014773999999999,-117.3400146,81.47044680000002,-155.68653880000002,108.3515741838049,1.3122446167960302,14.244187816496568,1.0204146974310002,-56.019763,17.467791800000008,-266.17512380000005
4996.512,39.8394012,-115.8114596,-28.728788400000003,-1.1071424,-0.5119878,0.53904,-57.232326,62.2757646,114.1450714,-10.4716146,14.333129199999997,-0.4371160000000003,-1.0017958,-0.1451887999999999,-0.1061395999999999,-119.24016419999998,81.3102738,-157.39457099999998,125.79672231655708,1.3335891131928903,17.756248911081464,1.0178114890446266,-62.0078382,19.03450920000001,-271.53964240000005
5016.483,37.9358314,-133.60150620000002,-32.1405888,-1.1166193999999998,-0.5123664,0.5544898,-53.1698222,60.17920840000001,117.8753464,-11.9165676,16.311099799999997,-2.3042704000000005,-0.9934904,-0.1643309999999999,-0.1066006,-121.1331756,81.08030400000001,-159.06879279999998,142.55352402283347,1.3478935976587172,20.33140974274155,1.0126161861107692,-67.9633534,20.901095600000005,-276.9441392
5036.469,35.8794272,-149.8685242,-35.3157726,-1.1195926,-0.5129882,0.5713562000000001,-49.290079,57.7172372,121.5296738,-11.3277338,18.708046199999995,-4.1999398,-0.9895202,-0.1723174,-0.1071396,-123.0150238,80.7825776,-160.7460236,158.09842388974343,1.357605388392533,22.269890884075316,1.0101100961969245,-73.72494479999999,23.065340400000004,-282.2756974
5056.455,32.3905212,-164.7137452,-39.1028328,-1.1176444,-0.5082564,0.5963040000000001,-45.7344644,54.893801800000006,124.9808776,-10.0216196,21.4368796,-6.2107034,-0.9904364,-0.1894176,-0.1114439999999999,-124.867694,80.40698239999999,-162.422989,172.3623951284123,1.3649293144365828,24.46518961943217,1.014526024688731,-79.13322959999999,25.5131806,-287.4038666
5076.441,27.3036606,-178.1753846,-43.0914392,-1.1135576,-0.510625,0.6264572,-42.619127,51.73823159999999,128.1409926,-6.3902314,23.2967552,-8.6556966,-0.9914746,-0.2018436,-0.119925,-126.5096282,79.956894,-163.9628174,185.33437266693196,1.3759349703291213,25.66115632284571,1.0188938742239644,-83.8905012,28.2186624,-292.10381
5096.427,22.4535982,-190.1325806,-46.947587,-1.095527,-0.509319,0.6464576,-39.9598762,48.28923100000001,130.98308400000002,-0.2249386000000005,25.2783538,-10.9514054,-0.9994782,-0.218608,-0.1208674,-127.8773252,79.4377412,-165.3533538,197.125945027196,1.3702162895279562,27.549574378688565,1.0302208784149154,-87.917449,31.1485102,-296.3364378
5116.413,18.3581314,-200.1471466,-49.9638276,-1.0644166,-0.5083838,0.6792336000000001,-37.7185768,44.592054000000005,133.5287596,8.7076612,26.042583399999994,-14.0191008,-1.0156082,-0.2244756,-0.1238526,-128.81459639999997,78.86109919999998,-166.49019159999995,207.1045275919,1.361174151174992,30.83139148595959,1.0474677930272416,-91.0960196,34.269045199999994,-300.0189512
5136.399,14.3774718,-208.6321168,-53.14986280000001,-1.0194752,-0.504649,0.7195654,-35.865483,40.6769454,135.79888899999997,19.1283794,25.179522,-18.4077478,-1.0230602,-0.2267914,-0.1250482,-129.1437194,78.2299072,-167.2209136,215.77529926167975,1.3460217908686325,36.58891096612789,1.0553310211783031,-93.2782364,37.5529618,-303.0198026
5156.385,10.491405000000002,-215.7695588,-55.7656976,-0.9600414,-0.501359,0.7475328,-34.36261019999999,36.5656398,137.8331084,29.205016,24.7564324,-23.190341,-1.0356612,-0.2334452,-0.1249041999999999,-128.9205382,77.533101,-167.59521160000003,223.1062193495182,1.315996057619779,44.76165569359903,1.0689676523478715,-94.557928,40.9674612,-305.42832
5176.371,7.880100000000001,-221.0374848,-57.7707886,-0.8831681999999998,-0.4947983999999999,0.7543774,-33.146361,32.3021632,139.66788319999998,39.3715382,22.226729799999998,-29.909114,-1.061129,-0.2410622,-0.1103906,-127.96005540000002,76.7709748,-167.4236692,228.59818389083085,1.262496252574462,54.20978360131373,1.0937512621607346,-94.8136944,44.4688116,-307.0915524
5196.357,6.316813200000001,-224.36225600000003,-59.3698218,-0.7983048,-0.4891964,0.7763329999999999,-32.16327,27.9227072,141.3315796,47.8145372,17.895863399999996,-38.268773,-1.0675604,-0.2251218,-0.0978545999999999,-126.2404204,75.9410432,-166.6433652,232.17041109275095,1.2162633754105234,63.80431710634612,1.0954179819706085,-94.0771504,48.018336,-307.9749448
5216.343,4.215262400000001,-225.7895052,-61.1502196,-0.6983197999999999,-0.4757711999999999,0.7745143999999999,-31.406780399999995,23.461835,142.8352754,50.9686478,12.206818799999995,-45.886984,-1.0708444,-0.2123622,-0.0742804,-123.9190748,75.061011,-165.30413779999998,233.96157473544645,1.1462466286226711,69.65934814791719,1.094222560005212,-92.5122944,51.599176,-308.13941320000004
5236.329,1.6600536000000017,-225.3751588,-62.9806074,-0.5935352,-0.4672804,0.7600772,-30.8654714,18.9663104,144.1923432,49.5946372,4.806480399999998,-51.34420179999999,-1.0837333999999998,-0.2172088,-0.0553337999999999,-121.15885899999998,74.160187,-163.4761044,234.0155441216524,1.0716120360573784,71.54688917985415,1.1066704904782811,-90.2933876,55.1938766,-307.66844760000004
5256.315,-1.4660337999999984,-223.1683686,-64.8570204,-0.4878833999999999,-0.469121,0.7534322,-30.5301714,14.492396599999998,145.416974,46.2249018,-5.676180600000003,-56.8557206,-1.0807516,-0.233583,-0.0199927999999999,-117.90911839999998,73.2410876,-161.05974999999998,232.40633187125997,1.0128004762209584,73.49512594430139,1.1058864095572385,-87.378947,58.74869100000001,-306.476724
5276.301,-3.8619475999999984,-219.4338806,-66.368077,-0.3901744,-0.4676034,0.7373696,-30.3601058,10.0622022,146.52936400000002,38.5659786,-14.290814400000006,-61.454638,-1.0519425999999998,-0.2408383999999999,-0.0142662,-114.4976912,72.28299439999999,-158.30270660000002,229.28337104796356,0.9563487486848508,73.94751255655561,1.079254322702374,-84.1375854,62.220792200000005,-304.83207060000007
5296.287,-5.701529599999999,-215.273178,-67.0916152,-0.3046091999999999,-0.4546720000000001,0.7259097999999999,-30.3266804,5.6942124,147.5607788,32.6785088,-23.2843842,-60.83388,-1.0251256,-0.2595494,-0.0091533999999999,-111.0148864,71.36217380000001,-155.33365759999998,225.55782725532768,0.9090975910454718,72.87529376146134,1.0575122559797026,-80.68820600000001,65.6679614,-302.8944364
5316.273,-7.793583599999998,-210.8859008,-68.815503,-0.2345375999999999,-0.4557618,0.7286978,-30.420544,1.3848353999999998,148.5107848,28.6262086,-32.2145082,-60.1342806,-1.0133464,-0.2848384,-0.0127843999999999,-107.4651322,70.4557132,-152.19156479999998,221.96661135112333,0.8909136814966082,73.98220097197783,1.0526952462089303,-77.04458819999999,69.0708778,-300.70234960000005
5336.26,-8.388742999999998,-206.9341218,-69.4501344,-0.1775663999999999,-0.4515336,0.7387408,-30.599181,-2.8696724,149.41798699999998,23.378715,-39.01724800000001,-59.535425800000006,-0.9917016,-0.2954832,-0.019661,-103.99497219999998,69.53837159999999,-149.0021026,218.4386022259696,0.8838271255865369,74.92247247476578,1.0349729174455726,-73.3957912,72.40804399999999,-298.4200896
5356.245,-7.178343599999998,-202.8451814,-70.08848420000001,-0.1215166,-0.4370458,0.7272358,-30.8140674,-7.072079,150.2905272,18.7720234,-42.95849020000001,-57.8079364,-0.9684372,-0.3026474,-0.0375998,-100.7190018,68.6166476,-145.9038666,214.73260546896972,0.8571156422413723,74.4283430799053,1.01532251232337,-69.9049344,75.6887266,-296.1943938
5376.231,-4.962137999999999,-199.1057374,-70.2722854,-0.0714168,-0.4239898,0.7204218,-31.0445842,-11.2089974,151.1445342,16.543690400000003,-46.2363794,-54.6524904,-0.9533708,-0.3104745999999999,-0.0324004,-97.6421798,67.7176118,-142.9522736,211.2011164138766,0.8389727526812298,73.47374482761776,1.0031750323138828,-66.5975956,78.9266092,-294.0968078
5396.217,-2.728166199999998,-194.6214386,-70.5520248,-0.0092538,-0.4167988,0.6867902,-31.2911704,-15.262552599999998,151.9772092,12.1369446,-46.244552000000006,-51.5051552,-0.9412998,-0.3174827999999999,-0.032016,-94.8950118,66.83830880000001,-140.2428346,207.0326917588819,0.8034224612941314,70.2754937804087,0.9939143152364192,-63.6038414,82.1008614,-292.2200438
5416.203,0.4348684000000015,-189.45224,-70.06262339999999,0.055228,-0.4013478,0.6650864000000001,-31.5241134,-19.2155342,152.7948576,8.230359799999999,-42.728758000000006,-45.96894,-0.9237278,-0.336028,-0.0274856,-92.5990492,66.01958619999999,-137.92191480000002,201.99285024285672,0.778761907140944,63.29793857135966,0.9833327633533828,-61.07493579999999,85.2351204,-290.7167724
5436.189,2.1468194000000014,-183.3731078,-70.15337960000001,0.1248466,-0.3903264,0.6200876,-31.766389,-23.0504852,153.5803862,7.8737268,-35.00030400000001,-40.9768104,-0.9009294,-0.3526849999999999,-0.027666,-90.8179976,65.2605728,-136.141559,196.34612847486537,0.7432698054826927,54.46205875993858,0.9678976705031168,-59.0516086,88.31105799999999,-289.7219452
5456.175,4.117436800000002,-177.11665939999995,-69.0599958,0.1918318,-0.3776444,0.5739181999999999,-32.021246,-26.761823000000003,154.3586608,9.4131512,-26.5874322,-34.177408,-0.8782318,-0.3643861999999999,-0.0306812,-89.489781,64.6120414,-134.8804536,190.1487505683737,0.7132999597881945,44.31246082200945,0.9513199952251188,-57.46853500000001,91.3738644,-289.2391144
5476.161,4.328665400000001,-170.0163176,-68.0702298,0.265518,-0.3648078,0.5355108,-32.3152246,-30.337894800000004,155.12029420000002,11.9350678,-16.412253000000003,-26.1184596,-0.8702668000000001,-0.3858066,-0.0290248,-88.6076368,64.107891,-134.1611604,183.1879957296166,0.7002544938673939,33.07539604907911,0.9523935503775948,-56.2924122,94.4457858,-289.2814546
5496.147,4.1576710000000014,-162.8809662,-67.3082166,0.3259328,-0.3640906,0.5309812,-32.6407442,-33.7769908,155.8578522,15.028803200000002,-4.1244210000000034,-21.5567984,-0.8715375999999999,-0.4132774,-0.0369442,-88.2073302,63.6855154,-134.040265,176.2892265575588,0.7216198375028503,26.600212996662524,0.9652672539137334,-55.566586,97.4625062,-289.8981172
5516.133,3.707482200000001,-156.2647278,-65.3308408,0.3874247999999999,-0.3538873999999999,0.500507,-33.01794,-37.0812784,156.6044036,17.9608492,9.030896399999998,-19.0667048,-0.8653496,-0.4200123999999999,-0.0400968,-88.2897398,63.3158956,-134.5213014,169.4123057463842,0.7251493119232756,27.70719086632596,0.9627295049722742,-55.2717998,100.397174,-291.12570500000004
5536.119,4.629513200000001,-150.0346832,-62.7831724,0.4283287999999999,-0.3539694,0.485055,-33.4321642,-40.2576192,157.3838622,20.551170000000003,22.5349726,-14.5642858,-0.8522786,-0.4279714,-0.0607065999999999,-88.8406844,63.030914800000005,-135.5868592,162.70699214232144,0.7375894861444271,33.7978401575564,0.955627345004045,-55.4085202,103.288534,-292.9707214
5556.105,5.838225600000001,-143.71644580000003,-59.86649,0.4727934,-0.3495712,0.4654386,-33.88976,-43.297315000000005,158.2112426,24.6368862,37.354773,-9.8941796,-0.8559675999999999,-0.4389028,-0.0692589999999999,-89.88109119999999,62.8282766,-137.2945742,155.79633595325964,0.7499111369508791,45.82848478261457,0.9644236668490668,-55.991331200000005,106.1255916,-295.5058168
5576.091,7.559721200000001,-138.3548736,-57.19487899999999,0.5091012,-0.3353818,0.444661,-34.3771508,-46.21564539999999,159.0910216,29.7145122,49.8518716,-5.3772594,-0.8428874000000001,-0.4356634,-0.0885519999999999,-91.3132508,62.6956312,-139.554938,149.9015497495551,0.7545782852253834,58.28444265806892,0.9529445019949064,-56.9361,108.9112766,-298.6459596
5596.077,8.440811000000002,-132.9862272,-53.767481800000006,0.56538,-0.308139,0.4041232,-34.927137,-49.0171476,160.0438842,33.9122916,60.9016006,0.8999130000000001,-0.8474385999999999,-0.4332732,-0.0892356,-93.0766968,62.6543418,-142.28675859999998,143.6924702771202,0.7602103317498652,69.71268407264864,0.955950228262727,-58.1495598,111.6714894,-302.3306428
5616.063,8.179004400000002,-127.9214216,-51.6435606,0.6105352,-0.302519,0.383001,-35.5593636,-51.70990280000001,161.058664,38.2051258,68.4641638,7.1316632,-0.8463434,-0.4316664,-0.1033077999999999,-95.055681,62.691970000000005,-145.35732739999997,138.19494769558705,0.781639777519696,78.72632331199831,0.9556702010387056,-59.4963174,114.4018728,-306.4159914
5636.049,7.780318400000001,-122.8182998,-48.8551496,0.6625284,-0.288131,0.3507215999999999,-36.3059846,-54.28729460000001,162.169153,42.6045678,73.27302999999999,12.7449576,-0.8617492,-0.4406801999999999,-0.0955657999999999,-97.1531602,62.7836136,-148.6597536,132.40730252749069,0.8030996169057236,85.71184321335934,0.9725962906069096,-60.8471756,117.0709082,-310.82890660000004
5656.035,6.872289,-117.83648680000002,-46.779589,0.7092794,-0.2722048,0.3146684,-37.1617874,-56.7527692,163.3599398,43.2188988,70.9751608,15.0461566,-0.8761556,-0.4432083999999999,-0.0996676,-99.1571246,62.8825844,-151.87249160000002,126.96848398116369,0.8223070730365634,84.44959142886495,0.9869224649037432,-61.99533720000001,119.6353536,-315.23243140000005
5676.021,6.419958000000001,-112.3754822,-43.9053452,0.7502452,-0.2710788,0.287176,-38.1590096,-59.0908888,164.6721712,41.9986916,67.1243178,15.085978399999998,-0.8837594,-0.454895,-0.1025839999999999,-101.0265458,62.9480836,-154.90928660000003,120.81864176332824,0.8478334924432273,80.6049060573398,0.9992415199386784,-62.8675362,122.0389724,-319.5814578
5696.007,5.4007352000000015,-107.9066622,-41.1352976,0.7753608,-0.2687544,0.2680244,-39.3461144,-61.3140616,166.14538599999997,41.5326546,60.63995879999999,13.931576000000002,-0.8708034,-0.4543669999999999,-0.1115906,-102.6501924,62.97014320000001,-157.6598328,115.60764852070125,0.8632788522206252,74.80811995520523,0.988534467860843,-63.304078,124.2842048,-323.8052188
5715.992,4.694228200000001,-102.4439882,-37.304751800000005,0.8076320000000001,-0.2619512,0.2074803999999999,-40.7346534,-63.3874876,167.8008364,39.7103546,51.66067119999999,13.2236206,-0.8578325999999998,-0.4526318,-0.1140125999999999,-103.9538042,62.985038800000005,-160.01229240000004,109.12584938306333,0.8740343214025409,66.48760300285305,0.9766018579507002,-63.2191508,126.3725264,-327.8131288
5735.979,3.537969400000001,-95.6915178,-33.878896600000004,0.8437430000000001,-0.2463044,0.1478182,-42.2824142,-65.2921126,169.583716,35.697869000000004,38.4050826,11.8659544,-0.8447828,-0.4411896,-0.1090047999999999,-104.8122042,63.017958,-161.7778686,101.57343865980194,0.89130147972479,53.75954886786964,0.9592644519354608,-62.529790000000006,128.3100706,-331.3615846
5755.964,0.2213646000000011,-87.119127,-31.0836244,0.8755318000000001,-0.240401,0.1193365999999999,-43.953743,-67.0140532,171.4075104,31.3689472,27.0349762,10.723596,-0.8362374000000001,-0.4259706,-0.1114086,-105.3166338,63.08091499999999,-163.0489898,92.49855673127306,0.9157454874100118,42.77728717137367,0.945069213008804,-61.3628908,130.09496819999998,-334.45650020000005
5775.951,-3.8505121999999994,-77.1758424,-28.8032594,0.9124134,-0.228456,0.0787866,-45.6495208,-68.5387082,173.1554506,26.7762852,16.438195999999994,10.6065772,-0.833149,-0.4131782,-0.1044875999999999,-105.5008976,63.1974516,-163.85981139999998,82.46553732569548,0.9438737652753784,33.16147187242621,0.9358264474302916,-59.8513768,131.7361598,-337.015262
5795.937,-6.770080999999999,-64.9957276,-26.760722,0.943824,-0.2220846,0.0266669999999999,-47.2315986,-69.8386258,174.7044344,21.2251738,6.664210399999995,10.4672634,-0.8351238000000001,-0.4130732,-0.0958898,-105.4136676,63.3615172,-164.2437714,70.6145512267921,0.9699672372931778,24.58624221349521,0.9366194977837692,-58.182069,133.200143,-338.9482058
5815.923,-9.5814714,-52.642724,-24.354212,0.9627552,-0.202109,0.0202174,-48.6529868,-70.9294066,176.0098452,16.2614832,1.012099799999994,10.549248400000002,-0.8333193999999999,-0.418728,-0.095345,-105.2124208,63.5525154,-164.3881868,58.78935810561413,0.9839483554896568,19.409967121918186,0.9374673484582596,-56.559434,134.481922,-340.39803199999994
5835.908,-13.7516376,-40.7654026,-20.8386336,0.9722308,-0.1902326,0.0177124,-49.9225166,-71.7977126,177.057483,12.7513374,-0.2124954000000057,9.6401098,-0.8323014000000001,-0.427646,-0.1010081999999999,-105.0334596,63.725564600000006,-164.47675180000002,47.80349606605012,0.9908253628592476,15.986665591664696,0.9411744674741236,-55.110943,135.5232772,-341.53423480000004
5855.895,-17.3615864,-29.3278678,-15.8318656,0.9724576,-0.1879284,-0.0096857999999999,-51.0149864,-72.43032539999999,177.8390504,11.3089516,2.8462037999999943,9.2703242,-0.8213162,-0.4339221999999999,-0.1008558,-104.9989244,63.86791459999999,-164.6940278,37.57920276423391,0.9904971893175468,14.89738813132633,0.9343557504660204,-53.983938,136.29824000000002,-342.5330782
5875.881,-19.2320834,-17.538903599999998,-9.6637384,0.9698498,-0.185266,-0.0190627999999999,-51.86469580000001,-72.81450980000001,178.324994,10.2072238,8.730710599999995,9.2185508,-0.8235084,-0.4337026,-0.1088324,-105.2289932,63.9756058,-165.1788788,27.76461797429028,0.9875705117407464,16.29093011882438,0.9370744481667824,-53.3642974,136.7901156,-343.50387280000007
5895.867,-19.2555404,-5.0480752,-2.6086064,0.9629864,-0.1845272,-0.0265665999999999,-52.392946,-72.9311588,178.47357780000002,8.7080788,16.310595399999993,9.2111874,-0.8150767999999999,-0.4195567999999999,-0.1157676,-105.800859,64.0420158,-166.00804139999997,20.0764470629394,0.9808663916968304,20.657011691128734,0.924002291952915,-53.40791299999999,136.9731746,-344.4816192
5915.853,-16.723514,8.696196,4.628762400000001,0.952216,-0.1900862,-0.0461933999999999,-52.4710582,-72.7519472,178.2049376,6.626560400000001,24.791683199999994,9.4775372,-0.8184006,-0.402791,-0.118167,-106.7562012,64.0672638,-167.2167816,19.409409747188757,0.972101797287712,27.356216295412526,0.919773652400611,-54.28514299999999,136.819211,-345.4217192
5935.839,-11.5456476,23.9231654,11.0380696,0.9421832,-0.1922036,-0.0498807999999999,-51.9766482,-72.28036660000001,177.4434448,2.9288631999999994,32.01072799999999,10.423072199999998,-0.8202244000000001,-0.3890412,-0.126963,-108.0878952,64.062346,-168.76057740000002,28.765583633112453,0.9628808339684825,33.79209050681403,0.9166464558496912,-56.111247000000006,136.3427126,-346.20402220000005
5955.825,-5.128857399999999,39.6596768,17.052692,0.929087,-0.1901611999999999,-0.0327428,-50.9083612,-71.5111694,176.20993040000002,-2.3886304000000003,37.04429639999999,12.134075,-0.8225187999999999,-0.3761036,-0.1366051999999999,-109.7499404,64.0478318,-170.552829,43.474008862271454,0.9489130763701594,39.05408079912369,0.9146868726255122,-58.8415792,135.55900119999998,-346.7627594
5975.811,0.6534270000000013,55.3448262,22.6415182,0.910598,-0.1923906,-0.0252409999999999,-49.362314,-70.443196,174.5865446,-8.6294552,38.0874802,13.620144399999996,-0.8244856,-0.3690859999999999,-0.146011,-111.5969558,64.03781,-172.4126252,59.80062792608007,0.9310424096964436,41.35978697371458,0.9150520160757858,-62.2346418,134.481006,-346.9991698
5995.797,5.119009200000002,70.269281,27.6186154,0.8910973999999999,-0.1953746,-0.0048965999999999,-47.4852716,-69.0858824,172.69410399999998,-15.776075600000002,34.66247359999999,13.8806032,-0.8486076,-0.3743132,-0.1515356,-113.4465072,64.0420398,-174.11924760000002,75.67538585339202,0.9122772535273912,40.53446413366608,0.9397916091024436,-65.9612356,133.1279222,-346.8133516
6015.783,7.4288926,84.30414880000001,32.364346,0.8705294,-0.2055086,0.0295718,-45.4557756,-67.45013800000001,170.6689758,-24.7422542,24.6569656,11.4392298,-0.8753499999999999,-0.3893087999999999,-0.1642184,-115.0486358,64.0649156,-175.35320140000002,90.60810583034277,0.8949467650612298,36.755966507687,0.9719910735989296,-69.59286019999999,131.51505360000002,-346.02217720000004
6035.769,7.460180000000001,96.5841492,37.2271932,0.8430481999999999,-0.2236418,0.0522883999999999,-43.4585954,-65.550566,168.6553862,-32.7271128,11.258224599999997,6.793564600000001,-0.8887206000000001,-0.4024096,-0.1722922,-116.2167068,64.1029206,-175.9296174,103.77868796564344,0.8737734254399362,35.269874586427754,0.9906777443837932,-72.7581114,129.6534866,-344.58500360000005
6055.755,7.962000800000001,108.2997132,42.6821562,0.8196746000000001,-0.2418855999999999,0.068636,-41.571631,-63.3804938,166.74472959999997,-39.0791708,-5.398809000000005,0.5223327999999998,-0.9029312,-0.4248089999999999,-0.1824268,-116.7728316,64.1575562,-175.68669440000002,116.67899465551908,0.8573715611498437,39.45379019293343,1.014409668611592,-75.20120059999999,127.53805,-342.431424
6075.741,9.3783476,118.9574982,48.9289268,0.7865832000000001,-0.25024,0.1092703999999999,-39.862278,-60.9530516,165.0276978,-42.3692422,-24.75960000000001,-6.5773928,-0.902992,-0.4357441999999999,-0.1948016,-116.550769,64.23949280000001,-174.505423,128.96852197148414,0.8326302951721132,49.51214570999476,1.0213790791181303,-76.688491,125.1925444,-339.5331208
6095.727,9.9412422,128.7991974,55.4290984,0.7496966,-0.2542574,0.1596626,-38.362429,-58.281922,163.5252258,-42.4687178,-45.139841800000006,-12.3101226,-0.8849396,-0.4330838,-0.2081799999999999,-115.47406759999998,64.372557,-172.37008980000002,140.57185527978248,0.807579075598842,63.18810353011155,1.006984898531552,-77.1116386,122.654479,-335.89531560000006
6115.713,9.7510436,138.3197662,61.7458816,0.7119951999999999,-0.2579492,0.1864498,-37.0705984,-55.3656858,162.2236328,-39.3134956,-61.35834580000001,-15.753436400000002,-0.8718745999999999,-0.4244458,-0.1938102,-113.6288116,64.5500076,-169.45618299999998,151.7893094637201,0.7798964562836017,74.55580657475609,0.988879137653758,-76.5582132,119.9156934,-331.67981580000003
6135.699,10.196050200000002,147.9512206,67.161026,0.6647038000000001,-0.2558597999999999,0.2337378,-35.9378416,-52.2224112,161.0800142,-36.2255868,-78.04764480000001,-18.6891422,-0.8687908,-0.407685,-0.1714952,-110.987036,64.753157,-165.7341126,162.80088000402043,0.7496190620170489,88.05118985001353,0.9748923617572762,-75.0491944,116.9755682,-326.81412680000005
6155.685,8.883069600000002,156.62339160000002,71.4164688,0.6096282000000001,-0.2524364,0.3006305999999999,-34.9748106,-48.8790594,160.06545420000003,-32.742511,-86.7752548,-17.871971600000002,-0.8505034,-0.3741416,-0.1502394,-107.9109222,64.978328,-161.6107026,172.36620242282643,0.7250858128087737,94.45329131936722,0.9412278404161664,-72.9361116,113.85738740000002,-321.6761568
6175.671,5.6044812,164.68568399999998,74.2854904,0.5544392,-0.2579559999999999,0.3661238,-34.167913,-45.3533804,159.123398,-29.308645,-82.6014572,-13.143634400000002,-0.8623620000000001,-0.3566502,-0.1169351999999999,-104.9434844,65.22426920000001,-157.6892212,180.7515388815196,0.71273470615586,88.62704174539687,0.9405006247754863,-70.7755714,110.5776496,-316.81261920000003
6195.657,1.4770344000000013,171.88031,74.71253979999999,0.493021,-0.2844844,0.4247213999999999,-33.5054626,-41.6757948,158.20234399999998,-28.7445786,-72.95969600000001,-8.795955200000002,-0.88005,-0.3405926,-0.0827076,-102.350885,65.4592546,-154.20133660000002,187.42194695307555,0.7102037368968992,78.90967537117614,0.9472760256506654,-68.84542239999999,107.1350494,-312.40368060000003
6215.643,-0.9523311999999984,177.16215200000002,74.4417696,0.4292648,-0.3028074,0.4981452,-32.9438812,-37.8927584,157.3008394,-30.110063200000003,-58.7114654,-3.4669078000000013,-0.8778027999999999,-0.33102,-0.0640623999999999,-100.4041168,65.68988060000001,-151.39769900000002,192.16896757063844,0.7239538868580235,66.07322850456977,0.940327595671636,-67.4602356,103.582639,-308.6985384
6235.629,-2.9357137999999985,180.2171172,74.3507982,0.375,-0.3138394,0.5712492,-32.4837422,-34.04064,156.43348999999998,-28.6670188,-35.738593800000004,5.3071328,-0.8860876,-0.3325132,-0.0583326,-99.4760392,65.965491,-149.746512,194.97402119352,0.7519613138273803,46.12169459416889,0.9482188330078452,-66.99229700000001,100.006131,-306.180002
6255.615,-4.995575199999998,181.9803436,73.08329800000001,0.3102636,-0.3529292,0.6396272,-32.1257588,-30.158487200000003,155.5892852,-25.709261400000003,-11.143307200000006,15.20263,-0.9030848,-0.3398798,-0.053362,-99.6384598,66.330475,-149.35643620000002,196.17076661651123,0.7936910461114198,31.87882331586287,0.9663994709658528,-67.51270099999999,96.4889622,-304.9457214
6275.601,-5.540085399999998,182.5994782,71.1612444,0.2518296,-0.3903472,0.6771532,-31.8371918,-26.275951000000003,154.7598936,-24.8500404,7.611837399999994,24.2940742,-0.9163256,-0.3449707999999999,-0.0534786,-100.7309434,66.7914598,-149.99830939999998,196.05403512732937,0.8211732705429714,35.576208591146646,0.980569945861059,-68.8937516,93.0674108,-304.75820300000004
6295.587,-4.801563199999999,181.6899688,71.5690462,0.1962148,-0.385635,0.718551,-31.6088704,-22.4077708,153.99754,-23.0847112,22.239317599999996,32.7633544,-0.9391748,-0.3562396,-0.057184,-102.5793916,67.3430742,-151.499115,195.33670455315436,0.8387670359313366,45.83588692325124,1.0060944127760574,-70.97052120000001,89.750845,-305.49665500000003
6315.573,-7.745797599999998,180.2653778,70.692949,0.1379334,-0.4065571999999999,0.7623804,-31.503610400000003,-18.5798846,153.2654966,-20.3940744,30.937651399999996,40.0713562,-0.9598958,-0.3380444,-0.0598619999999999,-104.9361726,67.9881562,-153.60403119999998,193.78621429852407,0.8749504294596122,54.57811037850189,1.0194397590211008,-73.43256219999999,86.56804079999999,-306.8695278
6335.559,-10.5700422,179.9386262,68.995073,0.080926,-0.454974,0.7783787999999999,-31.5029656,-14.7719406,152.52820419999998,-22.152324,35.02634119999999,46.173172,-0.969803,-0.3125601999999999,-0.0582454,-107.7030808,68.7151826,-156.1075772,193.0024743083063,0.9052203678891896,62.04459564701326,1.0205901547899627,-76.2001152,83.4871232,-308.6357814
6355.545,-10.527836399999998,179.1443756,68.28313899999999,0.0307377999999999,-0.474166,0.7921072,-31.5544442,-10.985923,151.7988616,-26.5716744,30.986800199999998,49.977121,-1.0003974,-0.3125422,-0.0704592,-110.5899858,69.49711620000001,-158.634866,192.00554606592056,0.9236947678733924,64.5286625500868,1.0504485154314989,-79.03554160000002,80.4830392,-310.4337276
6375.531,-12.030516,177.0648162,67.12298059999999,-0.0271424,-0.4907002,0.84352,-31.686665800000004,-7.2479558000000015,151.0755248,-27.5477262,22.884459199999995,47.5477616,-1.0111291999999998,-0.3080172,-0.074377,-113.1925126,70.2468658,-160.8287076,189.74239635831,0.9762424834833814,59.52617344359593,1.059617285965777,-81.5058468,77.4948216,-311.9042324
6395.516,-13.638999199999995,174.8430328,65.777546,-0.0680972,-0.525328,0.8456092,-31.8921364,-3.5553476,150.3468932,-29.776548,15.644901599999992,45.1470826,-1.0013124,-0.2943498,-0.0800976,-115.5547974,70.9761474,-162.711566,187.30401484127776,0.997828469906767,56.29977641306588,1.0467492310384374,-83.662661,74.53149499999999,-313.0584592
6415.503,-11.530046199999996,173.445105,65.1740808,-0.1286098,-0.5535154,0.8371226,-32.101491800000005,0.1067422,149.61241139999998,-32.0007236,8.937756199999995,44.9166276,-1.0079124,-0.293084,-0.0922053999999999,-117.7448334,71.7347488,-164.3586914,185.6443029612277,1.011777656466064,55.86978818441428,1.0537017950629677,-85.64334160000001,71.6280066,-313.97110280000004
6435.489,-8.961481999999998,171.17113339999997,64.3908594,-0.1960724,-0.5678052,0.8792418,-32.3075798,3.7280574,148.8758116,-32.076685000000005,1.9559521999999945,42.8483452,-1.0226438,-0.3010944,-0.1112566,-119.662314,72.48597099999999,-165.7085846,183.10119563604025,1.064853639734607,53.56043461339978,1.071837772441968,-87.35473420000001,68.7579136,-314.5843962
6455.475,-7.8620058,168.2407868,62.7421504,-0.246833,-0.5568900000000001,0.8893179999999999,-32.5384232,7.281698,148.12571699999998,-29.6971874,-3.310105800000005,36.9433868,-1.0087058,-0.2771214,-0.1139038,-121.1949236,73.1722152,-166.69837339999998,179.73132980952016,1.0779329789523096,47.51519302425621,1.0522631500466222,-88.6565004,65.8905172,-314.82409040000005
6475.46,-6.959460799999998,164.9946016,62.683484,-0.3037508,-0.5488620000000001,0.8592051999999999,-32.7965828,10.7813544,147.3895476,-30.6665176,-6.876575800000005,33.824857800000004,-1.010987,-0.2502754,-0.1317344,-122.5579698,73.83515320000001,-167.4838256,176.637685158484,1.0638362746455303,46.17189190009953,1.049803049222815,-89.761387,63.0537988,-314.87337319999995
6495.446,-6.886707799999999,162.6786164,60.4721306,-0.377714,-0.5638796,0.8579789999999999,-33.1101014,14.21808,146.6133726,-30.219235200000004,-8.640276400000005,30.4776142,-1.026486,-0.2287018,-0.1267548,-123.7557328,74.462361,-168.1036466,173.69121324190348,1.0939634516441397,43.78060666168707,1.0592661614732533,-90.64563139999998,60.244281,-314.7170192
6515.432,-6.239151199999999,160.4826234,58.9595412,-0.4115515999999999,-0.5466772,0.8588674000000001,-33.4610834,17.6012306,145.8044402,-29.7823196,-10.804375400000003,25.6077876,-1.033263,-0.2337277999999999,-0.1145927999999999,-124.64967959999998,75.0257612,-168.41809659999998,171.08426847479925,1.0981274476330878,40.73671408333499,1.065548038088232,-91.1885962,57.4245306,-314.2225368
6535.418,-5.624386399999999,158.3652864,57.027281,-0.4528678,-0.5336256,0.8205544,-33.8665848,20.9153814,144.9457092,-28.496473200000004,-14.285078200000005,21.400024,-1.0190476,-0.2183452,-0.1108862,-125.167157,75.5581708,-168.3687436,168.41409809509267,1.0784966613817402,38.39366446718794,1.0480593431572662,-91.3005722,54.642789400000005,-313.3144528
6555.404,-5.211512599999999,156.55437020000002,55.9698926,-0.5127569999999999,-0.5292078,0.7862625999999999,-34.329591400000005,24.187664,144.04294120000003,-27.6947326,-17.318735600000004,18.6754396,-1.0209326,-0.1972286,-0.1059976,-125.373268,76.0865674,-168.01423619999997,166.3401922866333,1.0775850373815516,37.62590677739818,1.0451975820898554,-91.0436766,51.89890340000001,-312.0571774
6575.391,-4.772372799999999,155.96210019999998,53.395609,-0.5609162000000001,-0.5283066,0.7542679999999999,-34.8706964,27.417460600000005,143.0447906,-26.8144096,-21.112575400000004,16.9909028,-1.0234712,-0.1968556,-0.0987614,-125.1975052,76.6276426,-167.2866178,164.91829280409706,1.0782648389194558,38.124063007191474,1.0468998226242854,-90.3268088,49.210182,-310.3314084
