Timestamp (ms),Wrist Gyroscope X (deg/s),Wrist Gyroscope Y (deg/s),Wrist Gyroscope Z (deg/s),Wrist Accelerometer X (g),Wrist Accelerometer Y (g),Wrist Accelerometer Z (g),Wrist Roll (deg),Wrist Pitch (deg),Wrist Yaw (deg),Arm Gyroscope X (deg/s),Arm Gyroscope Y (deg/s),Arm Gyroscope Z (deg/s),Arm Accelerometer X (g),Arm Accelerometer Y (g),Arm Accelerometer Z (g),Arm Roll (deg),Arm Pitch (deg),Arm Yaw (deg),Wrist Gyroscope Magnitude (deg/s),Wrist Accelerometer Magnitude (g),Arm Gyroscope Magnitude (deg/s),Arm Accelerometer Magnitude (g),Difference Roll (deg),Difference Pitch (deg),Difference Yaw (deg)
0.0,4.188045501708984,-0.3578143715858459,-1.1946134567260742,-0.9367241859436036,-0.1906423866748809,0.3068060278892517,-31.80885505676269,68.64042663574219,-122.1782684326172,2.1879594326019287,-2.1273112297058105,-0.8392927050590515,-0.9426600933074952,0.2745099663734436,0.2208354473114013,48.85983276367188,70.17344665527344,-104.29450988769533,4.369766304951473,1.003955506423458,3.1649694771845023,1.0063458987555278,80.66868782043457,1.53302001953125,17.883758544921875
22.192,4.373366832733154,-0.1098210886120795,-1.3593968152999878,-0.935620367527008,-0.1849672272801398,0.3076923191547394,-31.79041576385498,68.63616180419922,-122.20850372314452,1.8176177740097048,-2.1673483848571777,-0.9935239851474762,-0.9420379400253296,0.2719057202339172,0.2203524708747863,48.81764221191406,70.16563415527344,-104.35595703125,4.589246609407016,1.002149619917748,3.021625213439431,1.0049521742523997,80.60805797576904,1.5294723510742188,17.85254669189453
32.658,3.9083464940389,0.0749683330456416,-1.5750878651936848,-0.9345766305923462,-0.1827322691679,0.3070484101772308,-31.7925599416097,68.63235219319661,-122.24947357177734,1.5976404349009197,-2.191312551498413,-1.029431124528249,-0.9411668380101522,0.2689525783061981,0.2192129244407017,48.772926330566406,70.15854136149089,-104.41796112060548,4.265678555692074,1.000565790598786,2.931366916021594,1.00309676719818,80.5654862721761,1.5261891682942708,17.831512451171875
56.159,3.3024947345256805,0.1489494331181049,-1.685991883277893,-0.9333831667900084,-0.1844088323414325,0.3065259754657745,-31.81072187423706,68.62748718261719,-122.2962417602539,1.2949425727128985,-2.162131130695343,-1.0562922209501266,-0.9412940293550492,0.2640287019312382,0.2174766026437282,48.72302055358887,70.15423965454102,-104.4805965423584,3.832591974635647,0.9996004786813524,2.7977981182565226,1.0015638716594468,80.53374242782593,1.526752471923828,17.815645217895508
76.356,3.164878249168396,0.2139931946992874,-1.675357174873352,-0.9319744229316712,-0.1844707578420638,0.3043642997741699,-31.828114700317386,68.62435607910156,-122.34245910644532,1.1192245364189148,-2.0819210767745973,-1.0876885294914245,-0.9411388754844664,0.2579236507415771,0.2161391824483871,48.67026519775391,70.15345001220703,-104.54407806396485,3.689806951308712,0.9976374064202684,2.673981002909121,0.9995973270065086,80.49837989807129,1.5290939331054687,17.798381042480468
97.784,2.81406409740448,0.3559841603040695,-1.6778385639190674,-0.9312524557113648,-0.1826919466257095,0.3036350548267364,-31.846715927124023,68.61866302490235,-122.42386627197266,1.146894919872284,-1.6782379627227784,-1.1915170669555664,-0.9405041217803956,0.2492326378822326,0.213378557562828,48.58815460205078,70.1558334350586,-104.6567596435547,3.363763690257047,0.9964099001925698,2.5802061529980462,0.9962052106007352,80.4348705291748,1.53717041015625,17.76710662841797
118.667,2.6211089849472047,0.3356355234980583,-1.5719092965126038,-0.930756103992462,-0.1851010650396347,0.3038963973522185,-31.86680335998535,68.6128921508789,-122.50232849121092,1.588707435131073,-0.8031956672668457,-1.1926944732666016,-0.9401368379592896,0.245818144083023,0.2109238058328628,48.55117340087891,70.17192993164062,-104.7309310913086,3.1478502567178266,0.9964738958877573,2.88543979661969,0.9944432478304616,80.41797676086426,1.5590377807617188,17.771397399902344
139.91500000000002,2.66562135219574,0.1852973386645317,-1.2733513355255126,-0.9308037519454956,-0.1863764554262161,0.3045717656612395,-31.87003784179688,68.6071044921875,-122.56351623535156,1.9558360934257508,-0.0386276245117187,-1.2526371955871582,-0.9407906770706176,0.2446691811084747,0.2112833857536315,48.54957427978516,70.19930114746094,-104.77516174316406,3.0754100165595064,0.9969580684213996,3.068222439908451,0.9948378003878826,80.41961212158203,1.5921966552734377,17.7883544921875
160.0,3.3166543006896974,-0.0056434646248817,-0.9925141572952272,-0.9310654640197754,-0.1848453372716903,0.3060415089130401,-31.83980522155762,68.60090942382813,-122.60321350097657,2.367631030082703,0.4768830060958862,-1.359403395652771,-0.940091335773468,0.2447824209928512,0.2109276503324508,48.57419967651367,70.23474884033203,-104.80035705566408,3.531802360908473,0.9973719352928316,3.189679747607568,0.9941301339817556,80.41400489807128,1.6338394165039063,17.8028564453125
182.435,3.5752470970153807,-0.1173169329762458,-0.8334108829498291,-0.9313146591186524,-0.1843995600938796,0.3076554358005524,-31.792970275878908,68.59400177001953,-122.63086242675782,2.9056941986083986,0.8249771893024445,-1.2357444524765016,-0.9402735710144045,0.2516700744628906,0.2127674221992492,48.63350830078125,70.26917877197266,-104.80074157714844,3.7074625980756415,0.998010364287256,3.386576547360725,0.9964305612972824,80.42647857666016,1.675177001953125,17.830120849609376
192.667,4.04954776763916,-0.1141008332371711,-0.7624499559402466,-0.931354546546936,-0.1840822130441665,0.3081792473793029,-31.73330192565918,68.58783874511718,-122.65497589111328,2.8971914291381835,0.7593157112598419,-1.091496968269348,-0.940218734741211,0.2570086419582367,0.2135867595672607,48.69950714111328,70.29776916503906,-104.79434509277344,4.138418842654197,0.9981499026331264,3.3295565807980494,0.9978651941809076,80.43280906677246,1.709930419921875,17.860630798339844
222.297,4.112173557281494,-0.036135458946228,-0.7024720311164856,-0.9316309809684752,-0.1794132709503173,0.3086711883544922,-31.665880966186524,68.5848403930664,-122.67298126220705,2.430662989616394,0.1854664742946624,-0.9723311424255372,-0.9404508948326112,0.2579605340957641,0.2138366758823394,48.73684539794922,70.31627502441407,-104.80845489501954,4.190814889170818,0.9977217694821564,2.768374007217393,0.9983799001214712,80.40272636413575,1.7314346313476563,17.8645263671875
242.752,3.8646392822265625,0.0924202322959899,-0.7783602237701416,-0.9322135210037232,-0.1803755313158034,0.3084229588508606,-31.61223602294922,68.58323211669922,-122.70015716552734,2.0064796686172484,-0.2016382873058319,-0.8308129787445069,-0.9405097723007202,0.2579204022884368,0.2127441734075546,48.75580520629883,70.32777709960938,-104.8331527709961,3.9760992996319486,0.9983684434586972,2.269148813331349,0.9981892773728422,80.36804122924805,1.7445449829101562,17.86700439453125
252.417,3.4480192184448244,0.3377583980560302,-0.7927688121795654,-0.9327584624290466,-0.1815595120191573,0.3079413652420044,-31.5765380859375,68.58566284179688,-122.7373046875,1.5576395481824874,-0.4787674009799957,-0.6863358616828918,-0.9417917370796204,0.2587048470973968,0.2149659931659698,48.75734481811524,70.33249969482422,-104.86654357910156,3.576754256099784,0.9989453688715751,1.930501088688929,1.0000771181485204,80.33388290405273,1.7468368530273437,17.870761108398437
274.84,3.051796388626099,0.44765545129776,-0.7478859663009644,-0.933234691619873,-0.1802892506122589,0.3089380025863647,-31.547566604614257,68.5904052734375,-122.7734832763672,0.8503026515245438,-0.2726593613624573,-0.8587741017341614,-0.9408812403678894,0.2566182196140288,0.2137302875518798,48.746340942382815,70.34359283447266,-104.89815521240234,3.192215245033561,0.9994681405370542,1.662729878579345,0.99840420170606,80.29390754699708,1.7531875610351562,17.875328063964844
298.31,2.245755696296692,0.4403585791587829,-0.7271522402763366,-0.9325095653533936,-0.1822997152805328,0.308192765712738,-31.53716163635254,68.5948257446289,-122.81178131103516,0.2446716099977493,0.0913634896278381,-1.066664493083954,-0.9410403490066528,0.2569431126117706,0.2135572850704192,48.73155975341797,70.36244354248046,-104.92101440429688,2.4388637665748862,0.99893701531887,1.6399942595893056,0.9986018375848296,80.2687213897705,1.7676177978515626,17.890766906738282
312.339,1.549074137210846,0.5049853324890137,-0.7482637643814087,-0.9324089765548706,-0.1862478524446487,0.307395875453949,-31.54925994873047,68.59932098388671,-122.8584197998047,-0.2339976042509079,0.3122445046901703,-1.2702171683311465,-0.9424634337425232,0.2558608591556549,0.2141585797071456,48.70712051391602,70.38756713867187,-104.94376220703126,1.8756994538440048,0.9992982681680036,1.7095934822000995,0.9997965673078671,80.25638046264649,1.7882461547851562,17.914657592773438
334.943,1.1693239375948905,0.5904950499534607,-0.7701003551483154,-0.9342177629470824,-0.1847751975059509,0.3092485725879669,-31.56860237121582,68.60493316650391,-122.90520324707032,-0.3570651143789291,0.6418777287006379,-1.34462012052536,-0.9455587983131408,0.2530521839857101,0.2130765199661254,48.68979110717773,70.42000427246094,-104.9561981201172,1.6914335672241478,1.0012882919424897,1.815357985455188,1.0017983491236315,80.25839347839356,1.8150711059570312,17.949005126953125
357.452,0.6538131594657898,0.5444543302059174,-0.8709722757339478,-0.9355831623077392,-0.1847616910934447,0.3096509456634521,-31.60084648132324,68.60874786376954,-122.95485076904296,0.1852545917034149,1.1092409789562223,-1.2317644655704498,-0.9465899467468262,0.2540213078260421,0.2102732241153716,48.71191177368164,70.45736389160156,-104.9388656616211,1.3802989635792564,1.0026833974865297,2.208839235479115,1.0024189768323557,80.31275825500488,1.8486160278320312,18.01598510742188
379.808,0.3485777974128722,0.5524637699127197,-0.9552497386932371,-0.937812840938568,-0.1851620167493819,0.3110521912574767,-31.64212417602539,68.6114730834961,-123.00777587890624,0.6366161942481995,1.2688294351100922,-1.1667205154895783,-0.9477476954460144,0.2552787274122238,0.2117042988538741,48.75159301757813,70.49468383789062,-104.91240539550782,1.2091782346222142,1.0052724944281068,2.4056430408354093,1.0041472437207546,80.39371719360352,1.8832107543945316,18.09537048339844
402.583,0.0379763960838317,0.3274407684803009,-0.991933572292328,-0.9404526948928832,-0.1817050248384475,0.3152729332447052,-31.67677230834961,68.60956420898438,-123.0481201171875,0.9415383100509644,2.609576219320297,-1.1756956160068512,-0.9480971693992616,0.2522655516862869,0.2098857223987578,48.85312118530273,70.55127716064453,-104.82675170898438,1.2736895461441624,1.008424105441555,3.607098287543687,1.0033394953638584,80.52989349365234,1.9417129516601563,18.221368408203126
412.375,-0.2206919312477112,-0.2932933032512664,-0.86888787150383,-0.9423964619636536,-0.1824972331523894,0.3150416612625122,-31.69561767578125,68.59869842529297,-123.06581115722656,0.850385046005249,4.590437650680542,-1.4786003172397613,-0.9501328825950622,0.251163962483406,0.2057441532611846,49.030643463134766,70.63995819091797,-104.65914916992188,1.5419446327249238,1.0103164546199015,5.391414403600033,1.004166364999299,80.72626113891602,2.041259765625,18.406661987304688
435.052,-0.5985608026385307,-1.1945953905582427,-0.6276457071304321,-0.94216228723526,-0.1834474116563796,0.3167920708656311,-31.687313079833984,68.57406463623047,-123.0462631225586,0.0924949526786804,6.616811347007752,-2.236032491922378,-0.9479385375976562,0.2523132503032684,0.2034600645303726,49.25715942382813,70.76540985107422,-104.42415771484374,2.123548324292547,1.0108261851740692,7.633600599056294,1.0019068877198936,80.94447250366211,2.19134521484375,18.622105407714844
457.426,-0.9694857001304626,-2.3227676153182983,-0.3131526470184326,-0.9412846565246582,-0.1836878329515456,0.3199446439743042,-31.64098129272461,68.53211669921875,-122.97818450927734,-1.5326955437660217,9.27353892326355,-3.258524346351624,-0.9485616445541382,0.2479394555091857,0.2007185637950897,49.52942123413086,70.94214630126953,-104.1063674926758,2.977870099769633,1.0110538863431322,10.29201938567022,1.000869657810632,81.17040252685547,2.410029602050781,18.87181701660156
478.214,-1.1228473007678983,-3.453319799900055,-0.0698527753353119,-0.9398972153663636,-0.1862711280584335,0.3219346761703491,-31.5599422454834,68.47200164794921,-122.86915893554688,-2.767629396915436,11.0025821685791,-4.103477096557617,-0.9513344049453736,0.247224199771881,0.197358825802803,49.8259895324707,71.15404663085937,-103.73716583251954,3.766874371890197,1.01086962300993,12.235266570483285,1.0025876870147648,81.3859317779541,2.682044982910156,19.131993103027344
499.847,-0.749097329378128,-4.210579252243042,-0.0053745448589325,-0.9353408813476562,-0.1889609456062316,0.322834700345993,-31.452764129638677,68.39813079833985,-122.73951416015623,-3.488536787033081,10.498813247680664,-4.720894765853882,-0.9508456468582154,0.250668042898178,0.1972225010395049,50.06787261962891,71.36492919921875,-103.41089477539064,4.426276128351023,1.007411804214673,12.150415751360898,1.0029737522332511,81.52063674926758,2.9667984008789063,19.328619384765624
522.138,-0.2505545794963837,-4.460602045059204,-0.3627342462539673,-0.9296862721443176,-0.1835846811532973,0.3282065033912658,-31.33446388244629,68.31485443115234,-122.61014251708984,-3.170410192012787,8.876515102386474,-4.705980396270752,-0.9468258023262024,0.2542700648307799,0.1993220001459121,50.24616622924805,71.54940795898438,-103.15847625732422,4.806443480584763,1.002919087994344,10.722962215852956,1.0004971790741908,81.58063011169433,3.2345535278320314,19.451666259765624
532.2750000000001,0.1736370921134948,-4.293879270553589,-1.0827533423900604,-0.9244662880897522,-0.1812345743179321,0.3282363176345825,-31.241259765625,68.22728118896484,-122.5171890258789,-2.264066159725189,6.515898758172989,-4.036553740501404,-0.9434120774269104,0.2597971141338348,0.2002436608076095,50.36652755737305,71.6880874633789,-102.98661346435549,4.868949810221509,0.9976591523753604,8.510366879504499,0.998918905843332,81.60778732299805,3.4608062744140624,19.53057556152344
554.759,0.4059834599494933,-3.8080605030059815,-1.9371008813381196,-0.92134131193161,-0.1785634130239486,0.3252431154251098,-31.19253044128418,68.14141845703125,-122.47713928222656,-1.252006444334984,3.5534916698932646,-3.202770614624024,-0.9397829174995422,0.2639094948768615,0.2004877179861068,50.40853042602539,71.77214660644532,-102.91899261474607,4.728378559368468,0.9933079449291744,5.463913015913791,0.996544755152079,81.60106086730957,3.6307281494140624,19.558146667480468
577.1709999999999,-0.146097868680954,-3.3736021518707275,-2.734389019012452,-0.919452965259552,-0.1750606298446654,0.3228240430355071,-31.197794723510743,68.05720825195313,-122.4836929321289,-0.9508117765188218,1.520303076505661,-2.6258830070495605,-0.9370127320289612,0.2637320756912231,0.1993140429258346,50.38628540039063,71.82053070068359,-102.92539978027344,4.846334697827651,0.9901399606444412,3.714534043021247,0.9936459737199476,81.58408012390137,3.763322448730469,19.55829315185547
600.136,-1.490632599592209,-3.00553936958313,-3.262401986122131,-0.9208383202552796,-0.1726273328065872,0.3205443859100341,-31.260118103027345,67.97665100097656,-122.52300262451172,-1.5526879400014877,0.8587389647960663,-2.4469804763793945,-0.9374976396560668,0.2620503783226013,0.2003426611423492,50.32482833862305,71.85770263671876,-102.96002655029297,5.308003092053161,0.990247348723716,3.6143976327150353,0.9938791040963512,81.58494644165039,3.881051635742188,19.56297607421875
620.1940000000001,-2.873454350233078,-2.897611474990845,-3.337977695465088,-0.9236037492752076,-0.1755774617195129,0.317927050590515,-31.36111488342285,67.89893341064453,-122.57339782714844,-3.256710931658745,1.6946803748607635,-2.8051626205444338,-0.937568199634552,0.2558791399002075,0.1987755507230758,50.24992980957031,71.91389465332031,-102.97256622314453,5.734621563277813,0.9924616171841952,5.1940338880032,0.992084009670047,81.61104469299316,4.014961242675781,19.600831604003908
642.197,-3.528237295150757,-3.3913464069366457,-2.84433319568634,-0.9262110710144044,-0.1742686688899993,0.3216331541538238,-31.43624267578125,67.8179718017578,-122.5825912475586,-5.107391425967217,4.659480679035187,-3.53606493473053,-0.9347401261329652,0.2393345057964324,0.1905299127101897,50.24322280883789,72.02831726074218,-102.87415313720705,6.081700560000288,0.9958959139413132,8.309366220162797,0.9838541009876852,81.67946548461914,4.210345458984375,19.70843811035156
663.5699999999999,-2.485973644256592,-4.934258317947387,-1.7082422018051149,-0.9284564018249511,-0.1770771920680999,0.3295653462409973,-31.401605987548827,67.71939697265626,-122.49613800048829,-5.821873188018799,9.79453581571579,-4.166067504882813,-0.9319335579872132,0.2131805539131164,0.1760913640260696,50.43933258056641,72.23263244628906,-102.54761352539064,7.438148135498762,1.001120375240453,13.292731289113476,0.9735565575394,81.84093856811523,4.513235473632813,19.948524475097656
672.2139999999999,1.818691110610961,-7.846760606765747,0.290601372718811,-0.925337040424347,-0.1795160770416259,0.3426125645637512,-31.122486114501957,67.58477172851562,-122.2390853881836,-3.3154247283935545,16.929056119918823,-4.509100914001465,-0.9296574234962464,0.1773576870560645,0.1593860492110251,51.021375274658205,72.54961395263672,-101.86890258789064,11.519299266453004,1.0032220714735935,20.032631817669373,0.9623885035125688,82.14386138916015,4.964842224121094,20.37018280029297
694.7189999999999,9.11585898399353,-12.333702325820925,3.334880375862121,-0.9192970156669616,-0.1856467366218566,0.3621736943721771,-30.46847915649414,67.39115142822266,-121.73390502929688,3.119489860534668,23.613816261291504,-4.550354766845703,-0.9345402956008912,0.1438170388340949,0.1417408257722854,52.08478317260742,72.96423797607422,-100.82186584472656,18.424542034652795,1.0060137823438835,27.46546701595125,0.9584674107753196,82.55326232910156,5.573086547851562,20.91203918457031
712.313,17.723568391799926,-18.346179294586182,7.237595105171204,-0.917529022693634,-0.1857451200485229,0.3770662844181061,-29.356195068359376,67.12109985351563,-120.91748504638672,12.55264778137207,28.600105667114256,-4.184869766235352,-0.9358452916145324,0.1268281295895576,0.1241552382707595,53.65849151611328,73.43641204833985,-99.44133911132812,27.729289695752914,1.009704756202234,35.114696764087185,0.9536970904531116,83.01468658447266,6.315312194824219,21.476145935058597
734.785,24.95744514465332,-24.93619384765625,11.05276141166687,-0.917478346824646,-0.1879831582307815,0.3882660269737243,-27.83375244140625,66.76002349853516,-119.80906677246094,22.7380952835083,31.340594482421874,-3.9582393646240233,-0.9429595470428468,0.1325977578759193,0.1152968540787696,55.666352081298825,73.92374877929687,-97.82397766113282,37.25631707962759,1.0141425232887626,41.88644190043671,0.9605483273699428,83.50010452270507,7.163725280761719,21.98508911132813
757.064,30.129414367675786,-31.355576705932616,14.337787628173828,-0.9179848313331604,-0.1820159673690795,0.406304782629013,-25.98286819458008,66.29934387207031,-118.45250854492188,32.01211776733398,31.658028030395503,-3.8495760440826414,-0.9501726865768432,0.1598602846264838,0.1145329684019088,57.986035919189455,74.38138580322266,-96.0798324584961,46.02431730521979,1.020549804348432,46.780933823664526,0.9729257134288708,83.96890411376953,8.082041931152343,22.372676086425784
772.717,31.51596908569336,-37.20577049255371,16.374774360656737,-0.9219030976295473,-0.1657893419265746,0.4285801291465759,-23.959870529174804,65.73331909179687,-116.9355926513672,38.53946228027344,29.05521583557129,-3.371218967437744,-0.9576445817947388,0.2017193138599395,0.1141560420393943,60.42436828613281,74.76066741943359,-94.35345306396484,51.92597040642786,1.031168548955408,48.92148607378444,0.9880284937874242,84.38423881530761,9.02734832763672,22.582139587402345
797.023,28.23760108947754,-42.10488586425781,16.68549461364746,-0.9279840230941772,-0.14685800075531,0.4483248710632324,-21.970529937744143,65.06376037597656,-115.37938537597655,40.62450180053711,25.25029983520508,-2.9372477769851684,-0.9549140214920044,0.2491740882396697,0.1176075160503387,62.78456497192383,75.04939117431641,-92.75500946044922,54.30387002480789,1.04246377790333,48.09499630089395,0.9955586391468696,84.75509490966797,9.985630798339844,22.624375915527345
817.2779999999999,22.809478950500488,-46.144467163085935,15.661911582946775,-0.9298753380775452,-0.1365547955036163,0.4746370434761047,-20.15097579956055,64.28930969238282,-113.88338165283204,38.01465606689453,22.57190322875977,-2.977969002723694,-0.9617110252380372,0.2710912227630614,0.1176703035831451,64.98663101196288,75.28508148193359,-91.26790313720704,54.82665094078254,1.0542142110281252,44.41153100297441,1.006664658806677,85.13760681152344,10.995771789550782,22.615478515625
840.0699999999999,18.67780132293701,-50.05932159423829,14.6063383102417,-0.9312129378318786,-0.1263314396142959,0.5038581609725952,-18.48888397216797,63.41221160888672,-112.46178741455078,34.40824508666992,20.493151092529292,-2.744704937934876,-0.9661426544189452,0.2686892479658126,0.1075103968381881,67.04036331176758,75.48625030517579,-89.86075286865234,56.18123406923536,1.0669565953626594,40.25685763465484,1.0095205322798315,85.52924728393555,12.074038696289062,22.60103454589844
861.915,14.709923362731931,-54.47268981933594,14.087256240844727,-0.9351697206497191,-0.1165503650903701,0.525554871559143,-16.970232582092287,62.43164978027344,-111.10043182373047,31.929966735839844,18.63201332092285,-2.5533834218978884,-0.9733041763305664,0.2502807021141052,0.091520981490612,68.97027435302735,75.6673370361328,-88.53120727539063,58.56621219269107,1.079208283115296,37.16525414665646,1.011238345181726,85.94050693511963,13.235687255859377,22.569224548339843
872.093,11.503082275390623,-59.34872207641602,14.388333511352538,-0.9431939601898194,-0.1177249550819396,0.5425855040550231,-15.568665885925292,61.34690246582032,-109.78678588867189,30.853560638427734,17.668029403686525,-3.0673326730728148,-0.9811816692352296,0.2331195443868636,0.0766783170402049,70.83779754638672,75.84962463378906,-87.24480438232422,62.22608164799453,1.0945802029289555,35.8058195496112,1.0136120717785135,86.40646343231201,14.50272216796875,22.541981506347657
894.6469999999999,11.38057117462158,-65.24591598510742,15.738880157470703,-0.951162576675415,-0.1068043410778045,0.5725343823432922,-14.171721076965332,60.14105987548828,-108.4648208618164,30.666090393066405,17.789225769042968,-3.383966875076294,-0.991365647315979,0.220651939511299,0.0558407738804816,72.75320739746094,76.0381851196289,-85.90694122314453,68.10728172910035,1.1162356037657843,35.70921257019805,1.0181003609575032,86.92492847442627,15.897125244140623,22.557879638671874
916.979,11.348101615905762,-71.78220672607422,17.449507331848146,-0.9570414781570434,-0.0932307124137878,0.6034364104270935,-12.76992244720459,58.80328216552734,-107.1283401489258,32.29236755371094,18.100732803344727,-3.5535998821258543,-0.9949469447135926,0.2246670275926589,0.0436680898070335,74.7714111328125,76.21864318847656,-84.49811706542968,74.78035331518295,1.1365953179315471,37.25957094962733,1.021695122492542,87.5413335800171,17.41536102294922,22.63022308349609
940.219,10.903782272338868,-78.77412109375,18.8989709854126,-0.9625653862953186,-0.0850917771458625,0.6367962956428528,-11.394615936279298,57.32243041992187,-105.7888931274414,32.35322151184082,19.049877166748047,-4.280330896377564,-1.0045463562011718,0.2322904586791991,0.0390119887888431,76.89361114501953,76.40075378417968,-82.98423309326172,81.77012198024136,1.1587193260186273,38.00162311160015,1.032501756281675,88.28822708129883,19.07832336425781,22.804660034179687
961.892,11.073206520080566,-86.07764587402343,20.44043846130371,-0.9590548157691956,-0.0784161314368247,0.6762020230293274,-10.047687149047851,55.68685455322266,-104.46097106933594,30.05252456665039,20.090350341796874,-5.459122228622436,-1.005389499664307,0.2354755461215972,0.034527251496911,79.08209991455078,76.59332122802735,-81.35587158203126,89.1903512828634,1.1774743529586638,37.15476859368011,1.0337704481536494,89.12978706359863,20.906466674804687,23.105099487304688
971.894,9.239449054002762,-93.77282409667968,21.08459129333496,-0.950082552433014,-0.0755021467804908,0.7123937487602234,-8.805413246154785,53.88680725097656,-103.18404388427734,27.01098518371582,20.888543319702148,-7.105442571640015,-1.0060654640197757,0.2257761359214782,0.0280712457373737,81.30803680419922,76.81097717285157,-79.62765045166016,96.72832902898864,1.1906124703651304,35.572524402786186,1.032597618766506,90.113450050354,22.924169921875,23.556393432617185
994.591,6.003232556581497,-101.51129608154297,21.32792510986328,-0.937272822856903,-0.086344814300537,0.736087417602539,-7.725361728668213,51.9253547668457,-101.98799743652344,25.428390884399413,21.52143249511719,-9.561909675598145,-1.0087640762329102,0.2013934522867202,0.023907889612019,83.57762908935547,77.07687225341797,-77.82302856445312,104.11586610108586,1.1956874675110687,35.19423818518936,1.0304465903589988,91.30299081802367,25.151517486572267,24.16496887207031
1020.888,3.349114352464676,-109.29351043701172,21.544623565673827,-0.9199672698974608,-0.0875505775213241,0.7627208709716797,-6.785812664031982,49.80290756225586,-100.86054687499998,25.37262077331543,20.20683460235596,-12.503067874908448,-1.008283805847168,0.1808473855257034,0.0152170987799762,85.77299194335937,77.39551544189453,-76.09513702392579,111.66853918494,1.199200973086425,35.453318211631945,1.0252265073766422,92.55880460739137,27.59260787963867,24.765409851074217
1040.072,0.5442054569721221,-117.24632720947264,20.8143009185791,-0.8991725206375122,-0.0800675757229327,0.7927519083023071,-5.995010089874268,47.516363525390624,-99.82758178710937,27.403208923339843,18.434244918823243,-14.981638717651368,-1.002987551689148,0.1754197984933852,0.0072353449882938,87.92035369873047,77.7473648071289,-74.46032409667968,119.2929173566215,1.202657729569612,37.0351532241405,1.0186738406679163,93.91536378860474,30.23100128173828,25.36725769042969
1062.005,-3.1883140742778777,-125.14918823242188,19.897829437255854,-0.8798843026161194,-0.0713516391813754,0.8213043451309204,-5.372751998901367,45.070211029052736,-98.88815612792968,29.529686737060548,14.746260833740234,-17.510901641845702,-1.0074975728988649,0.1864647686481475,0.0078669277252628,89.82956390380859,78.1282958984375,-73.11400451660157,126.82388415416158,1.207419612209987,38.170955491525405,1.025390426947994,95.20231590270996,33.058084869384764,25.77415161132813
1071.915,-4.766414785385132,-132.5190216064453,19.11514663696289,-0.8510392189025879,-0.0666296891868114,0.8533017635345459,-4.863448143005371,42.474578094482425,-98.02472534179688,29.7408935546875,9.782608222961423,-19.40397453308105,-1.0119296789169312,0.2002295553684234,0.0127040985273196,91.31864624023436,78.529052734375,-72.20199279785156,134.0331191945685,1.208910405796861,37.84400835163332,1.0323392923209307,96.18209438323974,36.054474639892575,25.822732543945317
1094.562,-5.983929252624511,-139.22393188476562,17.893449592590333,-0.8109335422515869,-0.0536357820034026,0.8845491051673889,-4.45535306930542,39.740970611572266,-97.23831329345704,28.269639587402345,2.8224880218505857,-20.88209648132324,-1.020310378074646,0.2131882727146148,0.0215756374644115,92.10284423828124,78.94792175292969,-71.97908477783203,140.54718855117466,1.20354984746826,37.07114333211547,1.0429709618338774,96.55819730758668,39.20695114135742,25.259228515625
1112.283,-7.607932615280151,-145.21788330078124,16.147007751464848,-0.7654067039489746,-0.0515730507671832,0.9099530696868896,-4.163359212875366,36.88450050354004,-96.53819274902344,25.57122344970703,-4.540022850036621,-21.51968421936035,-1.0159297347068788,0.2305363655090331,0.0359601858304813,92.03238220214844,79.37030487060547,-72.5706283569336,146.34636251141904,1.1930073221841622,36.59483934597843,1.042999169115592,96.1957414150238,42.48580436706543,23.967564392089844
1135.374,-9.433177375793456,-150.2506072998047,15.073782157897952,-0.7155385613441467,-0.0485489152371883,0.9355609655380248,-3.967213821411133,33.92663497924805,-95.89544525146484,21.62608184814453,-14.34732551574707,-20.87077236175537,-1.0158164262771607,0.2328454077243804,0.0537390872836112,90.72000579833984,79.76855773925782,-74.34271392822265,151.3471565152277,1.1820500881934752,36.497444637683465,1.044201310071402,94.68721961975098,45.841922760009766,21.552731323242188
1151.844,-10.83426113128662,-154.70851135253906,13.143145942687989,-0.6603769898414612,-0.0531511992216109,0.9587770819664,-3.867893600463867,30.877661514282227,-95.32520446777345,17.32380895614624,-21.6465576171875,-19.432315635681157,-1.0080194354057312,0.2281282305717467,0.0654993999749421,88.3930679321289,80.12054901123047,-77.05613861083984,155.69397495695182,1.1681872126834547,36.31469257159686,1.036122689443875,92.26096153259276,49.24288749694824,18.269065856933597
1174.49,-12.529473686218262,-158.94644775390626,11.30035047531128,-0.60993732213974,-0.0448300816118716,0.972015869617462,-3.853486347198486,27.7478271484375,-94.8112060546875,13.857627296447754,-26.540807151794432,-18.95125560760498,-0.9970256924629212,0.2215244442224502,0.0744345657527446,85.28301391601562,80.43851165771484,-80.49232635498046,159.8847437913608,1.150238426794921,36.743203149039616,1.0245009843922868,89.13650026321412,52.69068450927735,14.318879699707033
1197.131,-15.89590015411377,-162.9220733642578,9.372975540161132,-0.5593731939792633,-0.0495503559708594,0.9838467240333556,-3.9559123039245607,24.542788314819337,-94.34777069091795,11.710502052307127,-30.87652244567871,-15.976627922058103,-0.9973329901695251,0.2197520285844802,0.0922911554574966,81.47653198242188,80.65086975097657,-84.58680114746093,164.04724588257508,1.1348696698263447,37.56512185204846,1.026102241816314,85.43244428634644,56.10808143615723,9.760969543457032
1213.24,-18.612149047851563,-166.4335174560547,7.826310539245606,-0.5060857951641082,-0.0493369750678538,0.9997788548469544,-4.147710371017456,21.27086982727051,-93.91556243896484,9.165347003936768,-34.30604286193848,-13.2371337890625,-1.0135975360870362,0.2126908302307128,0.1124150484800338,77.1299835205078,80.74538726806641,-89.1728729248047,167.73634112578085,1.1244833066312565,38.44193963289405,1.0425177415023843,81.27769389152527,59.4745174407959,4.742689514160157
1234.704,-21.449587440490724,-169.53133850097657,5.994590616226197,-0.4488402307033539,-0.0627255871891974,1.005930483341217,-4.433946800231934,17.940782737731933,-93.51424713134766,5.890926313400269,-35.15380973815918,-10.975288009643554,-1.013059389591217,0.2148889213800429,0.1214815542101859,72.6968147277832,80.73010864257813,-93.77802429199218,171.07328412557348,1.1069381932802589,38.090670110078506,1.0435048516816865,77.13076152801514,62.789325904846194,-0.2637771606445312
1256.836,-22.65960960388184,-171.80984191894532,4.467758893966675,-0.390032821893692,-0.0648317225277423,1.0012226462364198,-4.769951248168946,14.570568943023682,-93.12959747314451,4.927047681808472,-36.3159065246582,-7.720803546905517,-1.0150683641433715,0.2140026718378066,0.1374912336468696,68.31479187011719,80.58921813964844,-98.31014862060547,173.41341228707353,1.0802149680557451,38.4976037459905,1.047133247450322,73.08474311828613,66.01864919662475,-5.180551147460937
1280.969,-24.219226837158203,-173.23231201171876,2.5745163679122927,-0.3286791920661925,-0.0787689074873923,1.0125056743621823,-5.166953372955322,11.172359371185305,-92.76641693115236,4.183616662025452,-38.32398529052735,-2.593716716766357,-1.0226962089538574,0.219554254412651,0.1548294961452483,64.05283203125,80.28592681884766,-102.7050567626953,174.97154048241376,1.0704649467529008,39.24787001303886,1.05766101853562,69.21978540420533,69.11356744766235,-9.938639831542968
1300.786,-24.022052383422853,-174.26297302246093,1.0787699699401856,-0.2700788885354995,-0.0809432849287986,1.0026879072189332,-5.5805535316467285,7.757712483406065,-92.4113510131836,1.1966033220291137,-38.44015121459961,-0.9771126747131348,-1.010824155807495,0.2204121977090835,0.1630963057279586,60.07512664794922,79.90173034667968,-106.75492706298829,175.94667816551828,1.0440923827982007,38.9886524824794,1.0475770600527965,65.65568017959595,72.14401786327362,-14.343576049804687
1312.876,-25.95658760070801,-175.12012939453126,-0.8875505447387695,-0.2154885590076445,-0.0956808805465698,0.9832664966583252,-6.061038017272949,4.3312597990036,-92.07042541503908,-1.048353981971741,-37.090222930908205,1.8623199462890625,-0.9887472033500672,0.2148217499256133,0.1628041356801986,56.633740997314455,79.44074096679688,-110.21911010742188,177.10866552986073,1.0138389606371945,37.49660841123201,1.0250940833233644,62.69477901458741,75.10948116779328,-18.14868469238281
1334.646,-24.60782127380371,-175.66387023925782,-2.2833797931671143,-0.1505830518901347,-0.1067332237958908,0.9808490753173827,-6.536908149719238,0.8932586431503295,-91.72781219482422,-0.6057138442993166,-35.95300445556641,4.511173057556152,-0.9881953120231628,0.2050637185573577,0.1752125591039657,53.72467422485352,78.9169189453125,-113.155859375,177.47855609546335,1.0028112608869153,36.54385642380121,1.0244908690878072,60.261582374572754,78.02366030216217,-21.42804718017578
1356.677,-22.999269485473636,-175.88807373046876,-3.409077405929565,-0.0956558592617511,-0.1136727690696716,0.9754539728164672,-7.002692794799804,-2.545526623725891,-91.37972106933594,-2.2619040489196776,-35.43571014404297,6.764247226715088,-0.986415708065033,0.206038537621498,0.1889479547739028,51.22737503051758,78.33857879638671,-115.64480743408204,177.5618606627858,0.990762380051142,36.54561459770473,1.0255684696050706,58.23006782531738,80.8841054201126,-24.265086364746093
1379.134,-20.295580673217778,-176.43599548339844,-4.480913138389587,-0.0513238082639872,-0.1209648489952087,0.9729422569274904,-7.4360603332519535,-6.003988766670227,-91.02283935546876,-3.6702136754989625,-34.13915939331055,8.889478969573975,-0.9767452597618104,0.2133484095335006,0.1955003291368484,49.16788787841797,77.72628784179688,-117.6641372680664,177.8681503464127,0.9844799164826548,36.06521643211342,1.0191062849901718,56.60394821166992,83.73027660846711,-26.641297912597658
1401.442,-15.78887324333191,-177.14383544921876,-5.578428173065186,-0.0128294768743217,-0.1236983940005302,0.959707498550415,-7.804680252075196,-9.48972601890564,-90.65892333984377,-5.870287203788758,-31.441799926757813,10.177871608734131,-0.9559649109840394,0.2211112856864928,0.1876847147941588,47.50517120361328,77.11859130859375,-119.23832397460936,178.27269551484795,0.969140171127405,34.44222166036283,0.9995568588992872,55.30985145568848,86.60831732749939,-28.579400634765623
1412.672,-9.241976380348206,-178.13707275390624,-6.565064239501953,0.0385176596231758,-0.1209783941507339,0.950984525680542,-8.0604736328125,-13.00448007583618,-90.28907318115236,-6.514227509498596,-28.27262840270996,13.19606590270996,-0.9624454975128174,0.218724575638771,0.1861414074897765,46.3397819519043,76.50930786132812,-120.29370880126952,178.64968116449708,0.9615468673955312,33.214186111889084,1.0050915680807715,54.4002555847168,89.51378793716431,-30.004635620117188
1436.777,-3.469504952430725,-179.07142333984376,-6.984377861022949,0.0827232499606907,-0.1144053652882575,0.9132338762283324,-8.224163722991943,-16.53227005004883,-89.9065185546875,-10.04552183151245,-24.47510395050049,13.59520206451416,-0.9572060585021972,0.2253283351659774,0.1863770395517349,45.46954879760742,75.9445556640625,-120.97812347412108,179.40558876393192,0.9289915587048114,31.14263197679045,1.001488802814761,53.69371252059936,92.47682571411131,-31.071604919433597
1459.024,2.0174663305282587,-180.12997741699218,-7.25898323059082,0.143677005637437,-0.1213031515479087,0.8982073903083801,-8.313078689575196,-20.089582633972167,-89.50843811035156,-12.517155933380128,-20.512266540527342,15.747446060180664,-0.9636590480804444,0.2253475904464721,0.1843657910823821,44.9639175415039,75.41005249023438,-121.23890991210938,180.5143301219979,0.9253870122766732,30.25790841752649,1.0072235870033373,53.2769962310791,95.49963512420656,-31.73047180175781
1480.398,8.900275397300721,-180.72412109375,-6.468627357482911,0.2138262189924717,-0.105903136730194,0.850741183757782,-8.29262409210205,-23.64948005676269,-89.08358917236328,-15.219308471679687,-17.028593444824217,16.623714447021484,-0.9619053602218628,0.2253907859325408,0.1925486207008361,44.65768966674805,74.91368560791015,-121.23858184814452,181.33933158767175,0.8914772041684536,29.425366744755944,1.007303069289934,52.9503137588501,98.56316566467284,-32.15499267578125
1502.833,14.037657856941223,-179.88666381835938,-6.08952693939209,0.2928834080696105,-0.1119948893785476,0.8084709167480468,-8.203528118133544,-27.19261283874512,-88.64261474609376,-17.651197052001955,-14.956854248046875,18.82857990264893,-0.9677814841270448,0.2370082795619964,0.2071122765541076,44.53990707397461,74.413671875,-120.99354705810546,180.81224279059583,0.8753323150956822,30.74786370354277,1.0187740629789528,52.74343519210815,101.60628471374513,-32.35093231201172
1522.8919999999998,19.7891149520874,-178.13059692382814,-4.7548497200012205,0.3562128394842147,-0.1059183999896049,0.7640700459480285,-8.036326694488526,-30.70275535583496,-88.17271728515625,-23.0030216217041,-13.629740715026855,20.42207584381104,-0.9680355429649352,0.2561663061380386,0.2225899934768676,44.45604705810547,73.90298004150391,-120.60162963867188,179.43767987435265,0.8576851568706558,34.20178710176592,1.026471263740684,52.49237375259399,104.60573539733886,-32.42891235351563
1533.082,23.592197799682616,-175.5803649902344,-3.845089530944824,0.4220058381557464,-0.0959000080823898,0.7102266669273376,-7.8251927375793455,-34.18591575622558,-87.68676147460937,-26.61329574584961,-13.455624771118163,23.313177490234374,-0.953558838367462,0.2543546885251998,0.2170962303876876,44.44124603271485,73.35836181640624,-120.06187744140624,177.2729927168912,0.8422779526390446,38.26411272132098,1.0111925618478514,52.26643877029419,107.54427757263184,-32.37511596679688
1553.035,25.32704963684082,-172.18903198242188,-3.236808681488037,0.4780975580215454,-0.0822509363293647,0.6507343769073486,-7.6035760879516605,-37.61287384033203,-87.1957992553711,-29.796374130249024,-13.072620010375976,25.03743133544922,-0.9343915581703186,0.261929515004158,0.2179263025522231,44.44787673950195,72.79395446777343,-119.43212432861328,174.0872922737529,0.820009530399196,41.30204196697088,0.9949734792957728,52.051452827453616,110.40682830810547,-32.236325073242185
1574.3480000000002,26.38964080810547,-167.4586975097656,-3.313626289367676,0.5234560370445251,-0.0984960317611694,0.6041460037231445,-7.39894847869873,-40.956790161132815,-86.7020980834961,-35.5813907623291,-12.058032035827637,26.420397186279292,-0.9340874552726746,0.2658032864332199,0.2086018919944762,44.44202880859375,72.23249053955078,-118.69402618408203,169.58339116088763,0.8097617853100415,46.24861282522333,0.993751116432136,51.84097728729248,113.1892807006836,-31.991928100585938
1596.759,27.57454872131348,-162.27277221679688,-2.2333363354206086,0.5606498420238495,-0.0843113593757152,0.575917661190033,-7.1980184555053714,-44.19722213745117,-86.1927703857422,-39.79575119018555,-11.047533226013185,28.99066467285156,-0.9576970100402832,0.2495830953121184,0.2190063804388045,44.47903900146484,71.65621337890624,-117.81939086914062,164.6465880103706,0.8114024742475914,50.81128168836772,1.0144245649397152,51.67705745697022,115.85343551635742,-31.62662048339844
1611.986,26.64524154663086,-156.07558898925782,-1.7349417150020598,0.5959105372428894,-0.0836473412811755,0.5388740062713623,-7.046839427947998,-47.31906280517578,-85.67278594970703,-43.987630462646486,-9.31373643875122,26.154337692260743,-0.9463209748268128,0.2335203886032104,0.2010320395231246,44.35380935668945,71.15647583007812,-117.02461090087893,158.37572291194363,0.8096874916214114,52.96147120668894,0.996186597203272,51.400648784637454,118.47553863525393,-31.351824951171874
1634.657,25.96528358459473,-149.13671875,-0.7492227971553802,0.6143136024475098,-0.0926545523107051,0.5103401362895965,-6.966746997833252,-50.29515762329102,-85.11164093017578,-48.00579299926758,-5.566656494140625,23.76819763183594,-0.9568532347679138,0.2263929426670074,0.1976489156484603,44.18421249389648,70.75464172363282,-116.1902572631836,151.42236470976746,0.8072526728536144,55.227693055158376,1.0042342067351,51.150959491729736,121.04979934692383,-31.07861633300781
1656.45,26.643090438842773,-140.936279296875,0.4406166613101959,0.6354572892189025,-0.0918955631554126,0.4684848666191101,-6.925232410430908,-53.10962448120117,-84.51015167236328,-52.62971572875976,-1.6697495460510254,19.206770515441896,-0.9633546829223631,0.2108352541923523,0.1916065722703933,43.86678466796875,70.48668823242187,-115.41203918457032,143.47968280450405,0.799221910579879,57.063420286237246,1.0056971064172957,50.79201707839966,123.59631271362304,-30.901887512207036
1679.313,25.7215576171875,-132.0187744140625,2.077572399377823,0.6661175489425659,-0.0764802552759647,0.428735601902008,-6.953780460357666,-55.752159881591794,-83.85975646972656,-53.55462417602539,1.6989279747009278,15.595796966552737,-0.9524029612541198,0.1914244681596755,0.1854929506778717,43.48695983886719,70.32565002441406,-114.67699432373048,134.56978123071383,0.7996487486987067,56.67658900027102,0.989636240520395,50.440740299224856,126.07780990600584,-30.817237854003903
1692.171,23.95319061279297,-122.75113525390626,3.354338204860688,0.6910087585449218,-0.0805282831192016,0.3899001777172088,-7.091256237030029,-58.21367721557617,-83.14489440917968,-54.95032424926758,5.421321010589599,9.719292736053466,-0.928752648830414,0.1864719659090041,0.1578282892704009,43.001078033447264,70.30800933837891,-114.02686767578123,125.17493195385843,0.8001419957584283,56.49050952730546,0.9605591795440388,50.092334270477295,128.52168655395508,-30.88197326660156
1714.6650000000002,23.514227294921877,-112.92596893310548,4.664464092254638,0.7179715633392334,-0.0800083622336387,0.3547985017299652,-7.3099493980407715,-60.48276062011719,-82.36321563720703,-53.19662322998047,8.242215728759765,9.29686803817749,-0.9291892409324646,0.181610009074211,0.1640940368175506,42.63842239379883,70.34094848632813,-113.28280029296874,115.47592497097942,0.8069965185725202,54.917159729237845,0.9611171664234108,49.9483717918396,130.8237091064453,-30.91958465576172
1736.642,22.83979606628418,-102.63790893554688,5.117468643188476,0.7540023803710938,-0.070859707891941,0.3264671444892883,-7.572751522064209,-62.55315017700195,-81.55814056396484,-52.29342346191406,10.769132518768313,7.530453872680664,-0.9234976410865784,0.1844527840614318,0.1662530690431594,42.31610870361328,70.43225708007813,-112.51519927978516,105.29495481802056,0.8263789438021284,54.26942374205301,0.9565422748196007,49.88886022567749,132.98540725708008,-30.957058715820317
1759.837,21.470597076416016,-92.39212799072266,5.284464263916016,0.780211329460144,-0.0739696815609931,0.3025760948657989,-7.897454071044922,-64.42050399780274,-80.72850646972657,-50.319966888427736,13.374566841125487,7.878309822082519,-0.9211528778076172,0.1881390392780303,0.158456853032112,42.16858596801758,70.55908813476563,-111.60680694580078,95.0375391469207,0.8416034832065765,53.07739368979136,0.9536192277465222,50.0660400390625,134.97959213256837,-30.87830047607422
1782.505,19.719577026367187,-82.05549468994141,4.729619455337525,0.8039945363998413,-0.0744274348020553,0.2751302659511566,-8.250160217285156,-66.08789443969727,-79.91765441894532,-47.89274368286133,15.888922500610352,8.374999237060546,-0.9166189193725586,0.1863691747188567,0.1539747834205627,42.209529113769534,70.72110443115234,-110.55297241210936,84.562061778764,0.8544669938670186,51.70384733255675,0.94817593064019,50.45968933105469,136.80899887084962,-30.635317993164065
1791.3870000000002,16.551545715332033,-71.31890411376953,3.791122007369995,0.8317746639251709,-0.0722794458270072,0.2485343694686889,-8.625790309906005,-67.55056762695312,-79.15960998535157,-42.595808029174805,17.27474479675293,11.338286876678463,-0.9086882591247558,0.1874238640069961,0.1567694932222366,42.54725036621094,70.85977325439453,-109.29841918945311,73.42295726258011,0.872186971302472,47.840151140838266,0.9411357149671936,51.17304067611694,138.41034088134765,-30.13880920410156
1814.281,13.672130012512207,-60.16732025146485,2.5420099288225178,0.8547563433647156,-0.0807151496410369,0.2218552291393279,-8.978458786010743,-68.78963012695313,-78.49466094970703,-38.640232467651366,18.9901668548584,11.70061979293823,-0.900126051902771,0.1870001584291458,0.1577472567558288,43.05722198486328,71.01478271484375,-107.94654083251952,61.884349016083696,0.8880373598091665,45.19851470673248,0.9330170276888916,52.03568077087402,139.80441284179688,-29.4518798828125
1834.597,10.7901216506958,-49.06410217285156,1.659706607460976,0.8709303855895996,-0.0830094471573829,0.2035918772220611,-9.312067413330078,-69.81268615722657,-77.91714019775391,-31.673214530944826,18.47082347869873,12.83451862335205,-0.8998042225837708,0.1874969214200973,0.1599632292985915,43.750214385986325,71.14369201660156,-106.54991760253908,50.38858314695387,0.8992762539545025,39.26893258641769,0.9332098428159707,53.06228179931641,140.9563781738281,-28.63277740478516
1856.385,7.339268636703491,-37.54413833618164,0.5681581407785415,0.8901478052139282,-0.0860391616821288,0.1877128154039382,-9.601134490966796,-70.61375427246094,-77.46413116455078,-24.6052152633667,17.173711585998536,12.18354263305664,-0.8963679552078248,0.1847848027944564,0.1674275934696197,44.49730377197265,71.25441284179688,-105.24432525634764,38.35314612687064,0.9143381129888744,32.69535264173052,0.9306842812553404,54.09843826293945,141.8681671142578,-27.78019409179688
1879.011,5.048830556869507,-25.64517698287964,-0.2323521226644516,0.9041852593421936,-0.0982367470860481,0.1802262753248214,-9.826409721374512,-71.18016052246094,-77.13094940185547,-17.91280345916748,15.26898422241211,11.012775421142578,-0.9096837043762208,0.1855756938457488,0.1741618990898132,45.24600830078125,71.34733123779297,-104.0773681640625,26.801318089389355,0.9275791132214872,26.26518151972965,0.944834381905529,55.07241802215576,142.5274917602539,-26.94641876220703
1898.735,4.457126522064209,-13.406767559051511,-0.9833208173513412,0.913928246498108,-0.104008936882019,0.1804528474807739,-9.922772789001463,-71.50319976806641,-76.9477783203125,-12.08144336938858,13.432839393615724,8.785789966583252,-0.9279434323310852,0.1787347197532653,0.1714552998542785,45.942979431152345,71.44868316650391,-103.08811492919922,19.13460037938698,0.937578342147636,20.59429873316311,0.9609119799106752,55.86575222015381,142.9518829345703,-26.14033660888672
1922.278,1.3416611671447751,-1.3881941795349113,-1.252676260471344,0.921346354484558,-0.0917967669665813,0.1885170310735702,-9.945677375793457,-71.59637451171875,-76.90713195800781,-4.421758997440338,10.044771671295166,5.747897732257843,-0.9501293897628784,0.177127131819725,0.1600049525499343,46.53599090576172,71.55069580078126,-102.37138977050782,16.62249868587595,0.9452161898795908,15.877698382247171,0.9802213227538996,56.48166828155517,143.1470703125,-25.4642578125
1932.801,-3.258825206756592,11.046094608306884,-1.193128561973572,0.9226677536964416,-0.0975992299616336,0.1962468206882476,-9.948120307922364,-71.43913421630859,-76.98561553955078,2.9584967017173764,6.872603797912598,2.777369701862336,-0.9615792393684388,0.1685220181941986,0.1532516747713088,47.01411361694336,71.65731964111328,-101.93096771240236,19.125333739581823,0.9487467702618142,15.609718575237943,0.9886216020373396,56.96223392486572,143.09645385742186,-24.945352172851564
1961.328,-6.166348886489868,23.625444889068604,-0.5047183990478515,0.9173131108283996,-0.1019154123961925,0.2020647823810576,-9.929226684570311,-71.02937927246094,-77.1485824584961,10.966738736629486,3.0411219596862797,-0.3429618716239929,-0.9612062335014344,0.1601023405790329,0.14150533080101,47.35936431884765,71.76357574462891,-101.79959259033204,26.286764322818705,0.9452139021862096,17.867872868711387,0.984832432260206,57.28859100341797,142.79295501708984,-24.65101013183594
1981.143,-9.539012002944949,35.905073165893555,0.5906898498535156,0.9082937479019164,-0.0945148639380931,0.2145754873752593,-9.906081962585448,-70.37088775634766,-77.38597259521484,20.03997329473496,-1.1476515769958495,-3.187134158611298,-0.9624242782592772,0.1590356290340423,0.1376669168472289,47.58561019897461,71.8552963256836,-101.98480224609376,37.64516713578633,0.938519965766046,22.970317556394036,0.9852016486033334,57.49169216156006,142.22618408203124,-24.598829650878905
1991.248,-12.911522674560548,47.762913131713866,1.8417052745819087,0.895309567451477,-0.0932948194444179,0.2271113663911819,-9.91151065826416,-69.47256469726562,-77.66539001464844,29.282325744628903,-5.050379276275635,-6.783241736888885,-0.9627334237098694,0.1628356188535689,0.1456313699483871,47.66614074707032,71.94169921875,-102.51707916259764,49.75037966312338,0.9290561597986636,30.78249878963068,0.9873539164625896,57.57765140533447,141.4142639160156,-24.85168914794922
2013.741,-14.230652618408204,59.00459365844726,2.966460943222046,0.8778979539871216,-0.0977774918079375,0.2388567268848418,-9.922769546508787,-68.34847259521484,-77.96999053955078,37.083374404907225,-7.328006935119629,-10.088671875,-0.9538722038269044,0.1680216670036315,0.1457151651382446,47.667398834228514,72.04191131591797,-103.29729766845703,60.95218564206505,0.9156170295053117,39.23117314700676,0.9796756333091804,57.5901683807373,140.3903839111328,-25.32730712890625
2036.285,-13.947583961486815,69.86292724609375,3.743241262435913,0.8632746458053588,-0.0988750085234641,0.2489805072546005,-9.89352798461914,-67.01109771728515,-78.31591033935547,44.09291687011719,-8.982325267791747,-13.357494354248049,-0.9518684148788452,0.1748251408338546,0.1409446507692336,47.60748519897461,72.16559295654297,-104.29032745361329,71.35488860954831,0.9044553942429768,47.03296409878816,0.9782887717185011,57.50101318359375,139.17669067382812,-25.97441711425781
2051.42,-13.420268249511718,80.11685562133789,4.057732677459716,0.8490861654281616,-0.0956190630793571,0.2689144074916839,-9.805171966552734,-65.47050476074219,-78.71825561523437,50.39566650390625,-10.607105445861816,-15.871546363830566,-0.9635447144508362,0.1892252504825591,0.1556713759899139,47.48342514038086,72.2927001953125,-105.482177734375,81.4288255530627,0.8961917419824397,53.98427479906484,0.9947135050606504,57.2885971069336,137.7632049560547,-26.763922119140624
2073.63,-13.09985466003418,89.11714324951171,3.632863450050354,0.8325682163238526,-0.0892046511173247,0.2809997200965881,-9.655440330505373,-63.75957794189453,-79.18595581054687,54.65437774658203,-13.29947910308838,-16.89969482421875,-0.9667947053909302,0.2000799894332885,0.1643919855356216,47.27380294799805,72.38888702392578,-106.85269927978516,90.26682207642384,0.883812870898989,58.96460352165411,1.0014785122306713,56.92924327850342,136.14846496582032,-27.66674346923828
2096.21,-12.96025276184082,98.30069274902344,2.792111524939537,0.8163177013397217,-0.0964828312397002,0.2896818161010742,-9.45674819946289,-61.86958618164063,-79.7144775390625,58.71222152709961,-15.150844764709472,-16.758680152893067,-0.9607649564743042,0.2186837345361709,0.1584932476282119,47.09486846923828,72.4493194580078,-108.27879333496094,99.29145013894556,0.8722761859267406,63.22054111589341,0.9989543666647936,56.55161666870117,134.31890563964845,-28.56431579589844
2118.744,-11.108406448364258,108.0778793334961,1.7668331950902938,0.7941437244415284,-0.0970460191369056,0.3193706214427948,-9.174921989440918,-59.77995376586914,-80.30483856201172,62.09507675170899,-18.365907669067383,-16.44814510345459,-0.9661584854125976,0.2187881708145141,0.1840074598789214,46.81472473144531,72.45010528564453,-109.87843475341796,108.75967884858854,0.8637130301772615,67.11404717858143,1.009146873583668,55.98964672088623,132.23005905151368,-29.57359619140625
2132.967,-8.39262228012085,117.56265258789062,0.893904295563698,0.7676672220230103,-0.0909722343087195,0.3479390442371368,-8.807242584228515,-57.497108459472656,-80.94113006591797,62.287316131591794,-21.14634113311768,-14.79723529815674,-0.9710106134414672,0.223339694738388,0.2060881972312927,46.46375122070312,72.37702941894531,-111.5542739868164,117.97186418299732,0.8503584585930588,67.57696812127341,1.0185367776003331,55.27099380493164,129.87413787841797,-30.61314392089844
2153.6040000000003,-8.236498165130616,125.84712829589844,1.1280358225107192,0.7297815918922425,-0.0831186078488826,0.3819393396377563,-8.452814865112305,-55.0401969909668,-81.56737823486328,60.89498519897461,-23.934259796142577,-15.286315727233887,-0.9705833196640016,0.2359775960445404,0.2139909893274307,45.95861358642578,72.26115264892579,-113.36445007324218,126.2281289112788,0.8324440526497723,67.44679943497435,1.022851769794531,54.411428451538086,127.30134963989258,-31.797071838378905
2177.25,-8.042075824737548,133.98642120361328,2.2350014358758927,0.6893526554107666,-0.0866094894707202,0.4366761445999145,-8.148034286499023,-52.39675827026368,-82.14284973144531,56.72703399658203,-22.80248069763184,-17.788099288940433,-0.9485695719718932,0.2438422769308089,0.2178447663784026,45.3328971862793,72.18362121582031,-115.21587219238282,134.35406049676516,0.8282585737981947,64.30038649308884,1.0048340679371486,53.48093147277832,124.58037948608398,-33.0730224609375
2198.672,-5.7673151016235344,140.6205047607422,3.6541256487369536,0.6435432672500611,-0.0744810730218887,0.4968397498130798,-7.860204410552979,-49.606652069091794,-82.6554458618164,50.979410552978514,-20.553277206420898,-19.330497741699222,-0.9363141059875488,0.2368290990591048,0.2400989413261413,44.59571609497071,72.14728546142578,-117.06112213134766,140.86100168014914,0.8233661467648614,58.96426426112016,0.9959888979117376,52.45592050552368,121.75393753051758,-34.40567626953125
2222.186,-6.080970764160156,145.23523864746093,5.290140253305435,0.6002119183540344,-0.0683619417250155,0.5338814377784729,-7.652719879150391,-46.71642990112305,-83.09100646972657,44.90175094604492,-16.15701541900635,-20.43945007324219,-0.914988338947296,0.2493699610233306,0.2246372431516647,43.92616729736328,72.18092498779296,-118.71269073486329,145.52002780300538,0.812565266855119,52.80109944415669,0.975242208790602,51.57888717651368,118.897354888916,-35.62168426513672
2231.385,-8.636431789398193,148.07819213867188,6.780936145782471,0.549154269695282,-0.0674391664564609,0.6030511617660522,-7.560935306549072,-43.75355606079101,-83.45968780517578,40.27828826904297,-10.924063968658448,-21.715181732177737,-0.8979591608047486,0.264504700899124,0.233471816778183,43.34935073852539,72.2963134765625,-120.17173614501954,148.53341183914785,0.8252054613371003,48.01328645880544,0.9653145864120964,50.910286045074464,116.04986953735352,-36.71204833984375
2257.255,-6.171649932861328,151.10593872070314,6.936605834960938,0.5103034257888794,-0.0718624264001845,0.641876220703125,-7.454412746429443,-40.723410034179686,-83.80467987060547,33.9555778503418,-1.5972580909729004,-21.927649688720702,-0.8795018553733825,0.2585754305124282,0.2168538838624954,43.049737548828126,72.54972381591797,-121.20902404785156,151.53271824613034,0.8272091389620215,42.46397171995044,0.9429545524219896,50.50415029525757,113.27313385009764,-37.404344177246095
2276.154,-6.054899597167969,153.329931640625,6.536259937286377,0.4719061851501465,-0.0668450817465781,0.6847977042198181,-7.363821887969971,-37.64891586303711,-84.14409484863282,30.644326782226564,7.815220546722412,-21.98476448059082,-0.9014909148216248,0.2516753286123275,0.2227942317724227,43.06499099731445,72.94154815673828,-121.84517211914064,153.72722127496414,0.8390050283746442,41.62477515545904,0.9632617177444806,50.42881288528442,110.5904640197754,-37.70107727050781
2298.441,-6.248919677734375,155.76839294433594,6.840554237365723,0.436686223745346,-0.0723560996353625,0.7055678844451905,-7.29914665222168,-34.521846008300784,-84.46720275878906,27.32243156433105,16.476498317718505,-22.552045822143555,-0.9229527473449708,0.247184270620346,0.2057338386774062,43.39375762939453,73.47509155273437,-122.08582763671876,156.18128154566722,0.8362462396101857,42.235151666088846,0.9789569014106908,50.69290428161621,107.99693756103515,-37.61862487792969
2321.098,-7.742385864257812,158.13577880859376,7.505514240264892,0.4069285333156586,-0.0735582590103149,0.7657125234603882,-7.285119342803955,-31.33827209472656,-84.76952667236328,23.849316024780272,21.572829151153563,-23.41870574951172,-0.9636627197265624,0.2378031253814697,0.2466685831546782,43.790734100341794,74.0942596435547,-122.17761688232422,158.68984177174835,0.8723509226639414,41.51584569519952,1.0259803233017808,51.07585344314575,105.43253173828126,-37.40809020996094
2331.229,-6.073897361755371,161.59166564941407,8.870156288146973,0.3655953228473663,-0.0854477256536483,0.7615989208221435,-7.267900085449218,-28.08417205810547,-85.04026794433594,18.25215711593628,25.570829772949217,-24.357236099243163,-0.9657845258712768,0.2297549754381179,0.2209660291671752,44.24032211303711,74.78651733398438,-122.09898834228515,162.1154068836622,0.8532138851192526,40.317396754192,1.020178399295806,51.50822219848633,102.87068939208984,-37.058720397949216
2361.206,-8.410563945770264,163.9436279296875,10.628861808776856,0.3158389508724212,-0.0913789421319961,0.8225867629051209,-7.327931594848633,-24.777974319458004,-85.27335662841797,14.199947190284728,26.689681243896484,-24.695970916748045,-0.9880217790603638,0.2167270123958587,0.2511533260345459,44.61017074584961,75.49920196533203,-122.0150650024414,164.59109900298037,0.8919119466193475,39.90289878923806,1.0455310383855927,51.93810234069824,100.27717628479004,-36.74170837402344
2381.036,-5.773963928222656,166.12892456054686,13.04457206726074,0.2544798955321311,-0.0878542006015777,0.828956401348114,-7.370308303833008,-21.42681293487549,-85.45564117431641,8.47815716266632,28.02563552856445,-25.11752319335937,-0.9734119772911072,0.2301659822463989,0.2224426358938216,44.98091812133789,76.2412322998047,-121.81564025878906,166.88747425265603,0.8802284036478826,40.095534851348006,1.030278978098962,52.3512264251709,97.66804523468016,-36.359999084472655
2391.041,-7.762478351593018,167.35995788574218,13.887023162841796,0.1981813728809356,-0.0869036555290222,0.8876611113548278,-7.467730712890625,-18.0442138671875,-85.62248992919922,1.0085538148880004,30.231477355957036,-25.297900390625,-0.9817122340202332,0.2402929514646529,0.2384927779436111,45.38355407714844,77.00590209960937,-121.43252563476562,168.27046925019891,0.9208062713481906,41.66403726089087,1.0436267477514405,52.85128479003906,95.05011596679688,-35.810035705566406
2411.073,-3.011705875396729,169.0998992919922,14.725614738464357,0.1347482904791831,-0.0984692603349685,0.8781949877738953,-7.496454238891602,-14.625234413146972,-85.77373046875,-7.228729510307312,34.26534767150879,-23.88689613342285,-0.963176476955414,0.2290820807218551,0.1903955936431884,46.06738662719727,77.80828399658203,-120.59736328125,169.95017435166852,0.8983804840766931,43.96870687534455,1.012245756552172,53.56384086608887,92.433518409729,-34.8236328125
2435.442,-2.508470344543457,169.278466796875,14.8641170501709,0.0726220905780792,-0.0897589534521102,0.9225528120994568,-7.524782276153564,-11.204066181182862,-85.9231674194336,-11.496230292320252,36.80248260498047,-21.969467163085938,-0.9732853651046752,0.2116441339254378,0.1963533073663711,47.01313400268555,78.61387176513672,-119.40807495117188,170.12580790146916,0.9338621568658164,45.44691872629479,1.019258971455221,54.53791627883911,89.81793794631957,-33.48490753173828
2450.856,0.3386852264404297,169.45259704589844,16.212216758728026,0.016994471848011,-0.063403769955039,0.9139277100563048,-7.501985359191894,-7.775799953937531,-86.04561767578124,-15.009731578826903,39.47585906982422,-18.489041900634767,-0.9751286387443544,0.2265623658895492,0.1622796475887298,48.52158126831055,79.39209594726563,-117.57985076904296,170.43818691022454,0.9210265892772244,46.77777495686824,1.0167796939176168,56.02356662750244,87.16789590120315,-31.53423309326172
2473.298,-3.305710887908936,170.2574432373047,15.517159843444825,-0.0165657371282577,-0.0758699085563421,0.9387274026870728,-7.554455184936524,-4.329884588718414,-86.1845947265625,-20.363132286071775,39.82190170288086,-14.471309566497805,-0.997965669631958,0.2288975387811661,0.1805430620908736,50.44678573608398,80.10229949951172,-115.22270050048829,171.2875137679813,0.9462207897741752,47.7215391315576,1.041639106043457,58.00124092102051,84.43218408823013,-29.038105773925786
2497.089,1.5622191429138188,172.2778350830078,16.13605308532715,-0.067773862183094,-0.0942482601851224,0.9022045850753784,-7.523465251922607,-0.8475434899330138,-86.31653442382813,-25.469904136657718,38.99743499755859,-9.178344583511352,-0.9846230268478392,0.2198688238859176,0.1566276252269744,52.92859191894532,80.69570465087891,-112.20326385498046,173.31101199062988,0.91477856367579,48.72093459661564,1.0225052399077257,60.45205717086792,81.54324814081193,-25.886729431152343
2510.757,1.7288008689880374,174.52386474609375,16.250462341308594,-0.1092822402715682,-0.0792660366743802,0.9226795077323914,-7.484363460540772,2.6744531989097595,-86.44864501953126,-28.92993450164795,38.57192687988281,-3.80943112373352,-0.988235068321228,0.2353419214487075,0.1750975042581558,56.02019577026367,81.16325073242187,-108.50006256103516,175.5639779443673,0.9360414515206604,49.80027254267385,1.0323643796310815,63.504559230804446,78.48879753351211,-22.051417541503906
2533.51,1.8342836380004883,178.20732421875,16.029854774475098,-0.1494312688708305,-0.0698543589562177,0.8881210565567017,-7.446384239196777,6.27396901845932,-86.59220733642579,-36.11089248657227,36.14783897399902,-0.4113638401031494,-0.9847737550735474,0.2682319939136505,0.1728703409433364,59.22074584960937,81.53101348876953,-104.5433792114258,179.21523804799827,0.9093012814989624,52.78193955585225,1.0367287268707046,66.66713008880615,75.2570444703102,-17.951171875
2556.111,-3.05604019165039,182.2893432617188,14.118474197387696,-0.2093573749065398,-0.1060091689229011,0.8951961755752563,-7.5214869499206545,9.95468258857727,-86.78780364990234,-45.49803009033203,34.73213500976563,1.3236867189407349,-0.9629952073097228,0.2715151131153107,0.1693682581186293,62.440371704101565,81.82959747314453,-100.37857208251954,183.2353759266285,0.9328813723257776,58.53439953082996,1.0163514663312667,69.96185865402222,71.87491488456726,-13.590768432617187
2578.376,3.655900001525879,186.86004638671875,13.4045747756958,-0.2803293645381927,-0.1105148568749427,0.8617758750915527,-7.488444709777832,13.721306324005129,-87.01615753173829,-51.36867446899414,34.72200088500976,6.391953301429749,-0.9490806937217712,0.2500282317399979,0.1572981804609298,66.04888229370117,81.9902130126953,-95.7010055541992,187.81968315957775,0.9215689544714608,63.34759458124091,0.9958666682831804,73.537327003479,68.26890668869018,-8.684848022460937
2600.287,1.6041514992713928,190.96441040039065,10.508386588096618,-0.3484614342451095,-0.0886612251400947,0.8800273895263672,-7.53464183807373,17.563011741638185,-87.31979522705078,-53.67516250610352,31.73279266357422,11.423921179771424,-0.9613667368888856,0.2567835003137588,0.1674575120210647,69.52705459594726,81.99693756103515,-91.1044204711914,191.7161341693605,0.9591170135586722,64.68707535303571,1.0107395600506088,77.061696434021,64.43392581939698,-3.784625244140625
2610.74,-0.8900924563407898,194.73098754882807,7.961560034751892,-0.4229826807975769,-0.0847976025193929,0.8844580173492431,-7.675373268127442,21.472793960571288,-87.69894256591797,-56.216939544677736,24.62247877120972,17.057228255271912,-0.9629266619682312,0.2776677399873734,0.1559330582618713,72.22897491455078,81.82124481201171,-87.23600921630859,195.32362577142172,0.9876928358055818,65.99001014299196,1.0155056563743277,79.90434818267822,60.34845085144043,0.462933349609375
2633.27,-3.0088741183280945,197.88233947753903,4.383380389213562,-0.5134329795837402,-0.0924171041697263,0.8924200654029846,-7.931289863586426,25.434999465942383,-88.19162445068359,-58.228205871582034,18.39951019287109,24.099969458580016,-0.9515538811683656,0.2723069816827774,0.1398682564496993,74.29947509765626,81.45260772705078,-83.9607147216797,198.4662377884618,1.0414014541489025,69.23148446549064,1.0010871060098758,82.23076496124267,56.0176082611084,4.230909729003907
2656.346,0.0099153637886047,200.7199584960937,0.1568875074386596,-0.6163585782051086,-0.090313048288226,0.8420819044113159,-8.229504585266113,29.429312896728515,-88.82998657226562,-58.5155632019043,10.64652614593506,31.482090759277344,-0.9502055406570434,0.251682549715042,0.1207233197987079,75.5858139038086,80.88590393066406,-81.4677001953125,201.11595988710647,1.062710650273956,70.32757750156006,0.9932662188104172,83.81531848907471,51.456591033935545,7.362286376953125
2675.962,-5.236007297039032,201.3982360839844,-4.135911297798157,-0.7202447533607483,-0.0836646985262632,0.8483665347099304,-8.754886913299561,33.42601890563965,-89.6319580078125,-56.230935668945314,-2.928472709655762,36.22121658325195,-0.9674294471740724,0.2380331724882125,0.102787984907627,75.40598907470704,80.15605010986329,-80.50255584716797,201.6445034769623,1.133288908167846,69.66177070558186,1.0063975822699929,84.1608759880066,46.73003120422364,9.129402160644531
2698.671,-9.172417211532592,200.94609375,-7.015197086334228,-0.8296771168708801,-0.0846853982657193,0.8170046210289001,-9.504134559631348,37.39284133911133,-90.59819793701172,-51.34499588012695,-18.69987850189209,40.48157958984375,-0.9798376560211182,0.2459183782339096,0.0857571318745612,73.84212646484374,79.24628295898438,-81.04201965332031,201.45961527055823,1.183282523443581,71.94513721762601,1.0181423109808392,83.3462610244751,41.853441619873045,9.556178283691406
2721.003,-12.96165199279785,199.58814086914063,-11.282622051239011,-0.938269019126892,-0.1047883436083793,0.7905740141868591,-10.540585708618163,41.31036224365234,-91.80508880615234,-47.44285850524902,-29.93198938369751,40.77904357910156,-0.9641357898712158,0.2352436512708663,0.0658992245793342,71.49062957763672,78.24689178466797,-82.46754302978516,200.53338597499985,1.235228068428927,73.56202970064929,0.997542093485345,82.03121528625488,36.93652954101562,9.337545776367188
2731.021,-11.368795013427734,196.08938293457032,-14.72422676086426,-1.0254714131355285,-0.1115046113729476,0.7462568163871766,-11.790710639953613,45.11966094970703,-93.27374877929688,-42.34043312072754,-34.32591648101807,40.85045166015625,-0.981422972679138,0.2167826175689697,0.0453856743872165,69.0936279296875,77.22778930664063,-84.04940948486328,197.19373127448992,1.277671316588678,71.14304401854375,1.0086386446608,80.88433856964112,32.10812835693359,9.224339294433594
2758.218,-15.83887996673584,190.2263214111328,-17.484693145751955,-1.0972073078155518,-0.1203773945569991,0.7169793367385864,-13.40631103515625,48.77699584960938,-95.02494354248049,-36.74968528747559,-37.94458541870117,38.39770431518555,-1.0111254692077636,0.2133517384529113,0.0310535833239555,66.60652389526368,76.23057250976562,-85.84192504882813,191.9373428775155,1.3248336018572888,66.49591090650685,1.037449024335378,80.01283493041993,27.45357666015625,9.183018493652344
2778.849,-19.560924530029297,182.7674987792969,-19.150844192504884,-1.148418426513672,-0.1540438666939735,0.6663645505905151,-15.396589851379394,52.247624206542966,-97.07202453613282,-33.03551902770996,-35.21982879638672,33.10661315917969,-1.0193984508514404,0.1956736423075198,0.0209129387512803,64.43469009399413,75.3370132446289,-87.39274597167969,185.0318419177065,1.3448337097522969,59.90726797341593,1.0440950864114051,79.83127994537354,23.089389038085937,9.679278564453124
2800.685,-20.626785278320312,172.628955078125,-19.53463649749756,-1.167860507965088,-0.1882671728730201,0.6218832492828369,-17.69519329071045,55.48081665039062,-99.39152069091796,-32.481917190551755,-26.74103374481201,25.5769416809082,-1.0031538248062133,0.1523076571524143,0.0015370816923678,62.83380508422852,74.65025329589844,-88.37388763427734,175.17800683354798,1.3431834959857498,50.55508657935388,1.0198761398822471,80.52899837493896,19.16943664550781,11.017633056640625
2811.0170000000003,-20.38782539367676,159.51996459960938,-18.385099601745605,-1.1769792318344117,-0.2147932708263397,0.5501946747303009,-20.247087287902836,58.41199417114258,-101.93547821044922,-31.642413330078124,-16.90456624031067,20.068239212036133,-1.016437840461731,0.1183999396860599,-0.0201259220950304,61.81947326660156,74.15381774902343,-88.7696029663086,162.11051680687973,1.3182974738950208,42.20905558008658,1.025384269329743,82.06656055450439,15.74182357788086,13.165875244140626
2833.227,-22.960536193847656,144.83175506591795,-16.392477989196777,-1.156621789932251,-0.2443301260471344,0.5292002439498902,-23.05426521301269,61.0133659362793,-104.64505004882812,-29.55101661682129,-9.04750485420227,12.16574194431305,-1.0279802083969116,0.0846280820667743,-0.0106126028113066,61.06501770019531,73.86283874511719,-88.93747406005859,147.57483962305986,1.295842011339719,35.5254632913316,1.0327320206131203,84.11928291320801,12.849472808837891,15.70757598876953
2850.815,-20.28349437713623,129.6811050415039,-13.43795223236084,-1.1061638593673706,-0.2718113839626311,0.5309361577033996,-25.935901260375974,63.28313369750977,-107.43939056396484,-23.998518562316896,-2.3634331226348886,5.227533173561096,-1.0199965715408326,0.0676895849406718,0.0243070957250893,60.5969596862793,73.76019134521485,-88.92294921875,131.97291631475804,1.2582560199205084,27.94593014707853,1.0245083913609023,86.53286094665528,10.477057647705076,18.516441345214844
2873.268,-15.125790560245514,115.04418029785155,-10.92911787033081,-1.062670373916626,-0.2969898164272307,0.532842481136322,-28.79604568481445,65.2350341796875,-110.27627563476562,-16.85452733039856,3.2834487438201903,1.7279123544692994,-1.0070103883743289,0.0813506469130515,0.0576167444698512,60.46997146606445,73.78644256591797,-88.70065002441406,116.75119969805682,1.2279869231637008,22.776469724890383,1.0149664159221428,89.26601715087891,8.551408386230468,21.57562561035156
2890.5910000000003,-7.989218676090241,100.15840759277344,-9.556051349639892,-1.035986304283142,-0.3131178438663482,0.5461158156394958,-31.54095039367676,66.87416763305664,-113.10474548339845,-10.061653089523316,8.120127439498901,-1.5221137762069703,-0.9986687421798706,0.0895745187997817,0.0700107652693986,60.6662109375,73.9277572631836,-88.28441619873047,101.57659872878357,1.2147077843147298,19.998250331394548,1.0078433761900876,92.20716133117676,7.053589630126953,24.82032928466797
2913.114,0.5004682898521423,83.40065536499023,-8.080036067962647,-1.0137471675872802,-0.3301559448242187,0.580182284116745,-33.957841873168945,68.19171905517578,-115.73460845947264,-1.976127195358276,12.03268642425537,-5.224139380455017,-1.002066707611084,0.0730792313814162,0.0798209842294453,61.145914459228514,74.16932678222656,-87.74268341064453,85.30941073966251,1.2154371916004034,18.803628123986577,1.0100343296694754,95.10375633239748,5.977607727050781,27.99192504882813
2935.9790000000003,11.322835767269137,64.55081100463867,-6.058791637420654,-1.0077152729034424,-0.3390053987503051,0.595533263683319,-35.7734561920166,69.18993835449218,-117.93279418945312,8.514333009719849,14.19971294403076,-6.749967575073242,-1.0029438972473144,0.0726080693304538,0.0768312595784663,61.94308853149414,74.45597991943359,-87.0906982421875,70.32981619230745,1.2191979648681672,20.58933072347092,1.010833549360861,97.71654472351074,5.266041564941406,30.842095947265623
2958.309,22.955515325069427,43.69023685455322,-3.748683500289917,-1.0102736234664915,-0.3315897762775421,0.5789518356323242,-36.76319427490235,69.85322418212891,-119.48648071289062,16.627086877822876,18.070621681213375,-7.429924011230469,-1.007672357559204,0.0718558482825755,0.0461133636534213,63.17765731811524,74.78004760742188,-86.15576782226563,59.79539402102282,1.2119535698562711,26.278141347797032,1.0138357866239018,99.94085159301758,4.926823425292969,33.330712890625
2980.627,34.515310287475586,21.064466285705567,-0.915444040298462,-1.0161373138427734,-0.3100374341011047,0.5548372268676758,-36.75468826293945,70.15635375976562,-120.2177719116211,24.148709201812743,21.42194652557373,-10.040009117126464,-1.0097309350967407,0.064868976920843,0.0067163497209548,64.79338302612305,75.16080932617187,-84.98692474365234,54.89001729317357,1.2005169658915364,34.21006965224269,1.0129920751868655,101.5480712890625,5.00445556640625,35.23084716796875
2990.709,44.52815551757813,-1.3572011947631837,2.5658427715301517,-1.019487237930298,-0.2877498596906661,0.5203619778156281,-35.70499877929687,70.11958923339844,-120.05276336669922,33.910169219970705,25.10792007446289,-12.255889511108398,-1.0161727666854858,0.0623909525573253,-0.0115750253200531,66.88882293701172,75.59607849121093,-83.52794952392578,55.20714812121353,1.1832412158500882,44.23445866423829,1.0188392450612456,102.5938217163086,5.4764892578125,36.52481384277344
3013.042,52.4657470703125,-21.928805351257324,6.273465299606324,-1.0246149063110352,-0.2590603530406951,0.4727966785430908,-33.72468032836914,69.77172088623047,-119.06479034423828,42.15324745178223,30.631092834472657,-14.270651245117188,-1.0109851479530334,0.0668402723968028,-0.0295210938900708,69.64039001464843,76.0891326904297,-81.56711273193359,61.95707961698879,1.1596657915190447,54.15129546843009,1.0142458216070924,103.36507034301758,6.317411804199219,37.497677612304685
3036.05,58.26390151977539,-40.85938701629639,10.087179899215698,-1.030724000930786,-0.231824904680252,0.450180846452713,-30.9898983001709,69.12065277099609,-117.39205932617188,47.75282211303711,37.54743614196777,-16.210439491271973,-0.9987345695495604,0.0706044405698775,-0.0616189427673816,73.19992065429688,76.62839202880859,-78.8962158203125,74.09778749627414,1.149503940412787,63.133961792220326,1.0043710505171466,104.18981895446775,7.5077392578125,38.495843505859376
3058.088,63.23504791259766,-58.888981628417966,14.363429260253906,-1.0434417724609375,-0.205373567342758,0.4487488687038422,-27.67993621826172,68.16747741699218,-115.20128021240234,55.14758377075195,43.42965927124023,-17.588769340515135,-0.9880818486213684,0.0749600216746329,-0.0939538024365901,77.63251342773438,77.17484436035156,-75.48712921142578,89.04540795523238,1.155060556939942,72.63103539508828,0.9974868638781818,105.3124496459961,9.007366943359376,39.71415100097656
3080.8740000000003,66.05297317504883,-76.63603515625,19.072014617919923,-1.0564942836761475,-0.1659876167774199,0.4752874076366424,-23.985833740234376,66.89330749511718,-112.64246978759766,63.7427116394043,47.45736236572266,-18.0581356048584,-0.9846270322799684,0.0938390210270881,-0.1105853378772735,82.93094177246094,77.68726043701172,-71.3747688293457,103.9789830091892,1.1724056323926653,81.90024025848963,0.9976776327575962,106.91677551269532,10.793952941894531,41.26770095825195
3090.51,67.1562370300293,-93.87389221191408,23.942669105529784,-1.0671268224716186,-0.1355043970048426,0.5268203496932984,-20.10343246459961,65.27467041015625,-109.8794677734375,70.20556945800782,49.2280517578125,-18.23965950012207,-0.9948312997817992,0.1320832848548888,-0.1069241371005773,88.78305511474609,78.12216186523438,-66.83075103759765,118.60901369186482,1.2021143176615496,88.34979712663241,1.0149002455755234,108.8864875793457,12.847491455078124,43.04871673583985
3116.298,67.63846282958984,-109.43589630126954,28.149751663208008,-1.0675475358963014,-0.0953271369915455,0.6032201588153839,-16.216907119750978,63.319437408447264,-107.0886734008789,75.40560684204101,48.00941772460938,-17.31135997772217,-1.0071819424629211,0.200522518157959,-0.0863485645502805,94.88350524902344,78.4464614868164,-62.141648864746095,132.3042680250224,1.237328583605614,91.82624313717469,1.041062063904688,111.1004123687744,15.12702407836914,44.947024536132815
3136.197,65.91956253051758,-122.85895690917968,31.034817123413085,-1.0616632938385009,-0.0578055150341242,0.6681716918945313,-12.53167371749878,61.05094909667969,-104.44342346191408,76.22978286743164,44.04707794189453,-15.463621139526367,-1.0165510654449463,0.261481000483036,-0.0616220239549875,100.79236297607422,78.63605346679688,-57.66584701538086,143.43342842239105,1.26255732485644,89.74446602397816,1.0602855525393111,113.324036693573,17.585104370117186,46.7775764465332
3158.065,60.333929443359374,-134.03628997802736,32.354545211791994,-1.0464807510375975,-0.0281275914516299,0.7393047690391541,-9.253502082824706,58.50121078491211,-102.08469848632812,72.65950241088868,39.79097061157226,-13.758811569213869,-1.0294081568717957,0.2790951818227768,-0.0369111586362123,106.32381134033204,78.71650085449218,-53.502374267578126,151.18365623438544,1.2854245348393174,84.11143415606702,1.0721916904484563,115.57731342315674,20.21529006958008,48.58232421875
3180.533,54.187503051757815,-143.8388244628906,33.34437866210938,-1.026882994174957,-0.0175515217240899,0.7940318346023559,-6.4448363304138185,55.70423812866211,-100.0656494140625,68.43884811401367,35.54325180053711,-13.101723670959473,-1.0285704016685486,0.2563588224351406,-0.0327334944158792,111.41356811523436,78.73848876953124,-49.70217437744141,157.90391896630177,1.300091619648502,78.38986335398583,1.0683634976997989,117.8584044456482,23.03425064086914,50.3634750366211
3190.514,47.65044631958008,-153.11398010253907,34.45073471069336,-1.0093485951423644,-0.0028585146646946,0.8302446007728577,-4.082395961880684,52.68855743408203,-98.35609436035156,65.0379524230957,29.50335998535156,-13.502212715148923,-1.0274222254753114,0.2348995231091976,-0.0387187547981738,115.94955444335938,78.76851196289063,-46.39672393798829,164.61940734575902,1.307524987573133,73.52419299320965,1.0625668400887407,120.03195040524004,26.079954528808592,51.95937042236328
3220.509,41.36582794189453,-161.91170349121094,35.34959869384765,-0.9794310331344604,0.0071971803903579,0.8585263848304748,-2.1102192431688307,49.46889801025391,-96.9125,60.98357315063477,20.86952056884765,-14.98616065979004,-1.0244511723518372,0.2192078612744808,-0.0434111878275871,119.75499267578124,78.86718444824218,-43.75473251342773,171.21383504473928,1.304578071149676,68.18810554406916,1.054567501271554,121.86521191895008,29.398286437988283,53.15776748657227
3240.491,35.48336486816406,-169.79771118164064,35.69490280151367,-0.9386916279792784,0.018461787328124,0.8853013157844544,-0.4829074412584305,46.07790603637695,-95.70428466796876,56.63292999267578,10.00791130065918,-16.77394504547119,-1.034418785572052,0.2199440859258174,-0.0386817368678748,122.67085723876951,79.09098968505859,-41.93406295776367,177.3169775230643,1.2931080063946487,63.44875354248836,1.0641765401955758,123.15376468002796,33.01308364868164,53.77022171020508
3250.813,30.308996963500977,-176.53787231445312,35.509704971313475,-0.8838968515396118,0.0299749372527003,0.9040927052497864,0.8543231934309006,42.5453239440918,-94.69376525878906,50.640890502929686,-4.337804794311523,-18.320784950256343,-1.030072605609894,0.237304200977087,-0.0175613331608474,124.26627349853516,79.47784271240235,-41.33844223022461,182.87073445043103,1.268475625513751,60.41516739093296,1.0633926068988084,123.41195030510426,36.932518768310544,53.355323028564456
3273.177,25.16494464874268,-181.31883544921877,34.007236099243165,-0.8272184371948242,0.0418400781229138,0.9196183443069458,1.913701817393303,38.91617469787597,-93.8802017211914,40.061399269104,-19.20938911437988,-18.6214282989502,-1.0351763486862182,0.2656791061162948,0.0119262625463306,124.1185775756836,80.01189880371093,-42.299607849121095,186.42565242235364,1.241152040635169,56.357550527981154,1.071118335491034,122.20487575829029,41.09572410583496,51.58059387207031
3290.315,20.22490119934082,-184.42589416503907,31.65974578857422,-0.75599764585495,0.0505408711731433,0.9397516250610352,2.7174256086349486,35.22215042114258,-93.251220703125,26.99953308105469,-33.89849739074707,-17.623110198974608,-1.0363694906234742,0.2637692004442215,0.0359260846860706,121.88049621582032,80.6686508178711,-45.11766052246094,188.4477000540067,1.2095184427028094,54.24420067763056,1.0723456767694284,119.16307060718536,45.44650039672852,48.13356018066406
3313.007,14.120028686523437,-186.87412109375,29.474699401855467,-0.6995352745056153,0.0531103089451789,0.949120044708252,3.2762872695922853,31.488187408447267,-92.76904602050782,15.335940766334534,-45.46503868103027,-16.395633697509766,-1.034171199798584,0.2411298781633376,0.0463130635209381,117.5178939819336,81.3803482055664,-49.84953689575195,189.9324701843236,1.1827586369400669,54.22478837611171,1.065040655414742,114.24160671234132,49.89216079711914,42.91950912475586
3335.381,8.408808755874634,-188.82041931152344,28.18264846801758,-0.6466684579849243,0.0559723362326621,0.9586763739585876,3.641751670837402,27.72704620361328,-92.3795150756836,6.847650456428528,-53.0384880065918,-14.79891242980957,-1.0249164342880248,0.2026003956794738,0.0645099066197871,111.21387634277345,82.06320495605469,-56.36698455810547,191.26399305548563,1.1595395217158313,56.57744764638494,1.0474027770340166,107.57212467193604,54.336158752441406,36.01253051757813
3350.527,3.5965322971344,-190.5039794921875,27.5579776763916,-0.6051567196846008,0.0636730752885341,0.9691494345664978,3.863569021224976,23.948661041259765,-92.04300079345704,2.0446959257125856,-56.57355346679688,-12.640495109558104,-1.026689887046814,0.1830954521894454,0.0709295652806758,103.38133544921877,82.6220947265625,-64.32216262817383,192.685629255352,1.1460641782648633,58.40107378522659,1.0455269961045175,99.51776642799378,58.67343368530273,27.720838165283205
3373.081,-1.815272665023804,-192.2134704589844,27.396604537963867,-0.557523912191391,0.0782038316130637,0.98426673412323,3.947400760650635,20.133818054199217,-91.73330841064453,-1.9740948915481569,-59.18480758666992,-10.701395988464355,-1.0266440868377686,0.1773117333650588,0.0732343651354312,94.30084686279297,83.0001708984375,-73.4449851989746,194.29280836309172,1.1355807736709764,60.49487633955291,1.044572368753552,90.35344610214231,62.86635284423828,18.288323211669923
3395.369,-6.839109373092652,-193.9629150390625,27.094773483276366,-0.5100085377693176,0.0869388118386268,0.9880122900009156,3.905464410781861,16.2776029586792,-91.44156951904296,-3.358728289604187,-57.1279899597168,-8.263278436660766,-1.013957679271698,0.1732551366090774,0.0787382848560809,84.99832458496094,83.14054565429687,-82.7512924194336,196.0593716456285,1.1174158313023297,58.066137861341375,1.031925245877625,81.09286017417908,66.86294269561768,8.690277099609375
3418.994,-11.117685651779174,-195.7219970703125,26.79994430541992,-0.4617415606975555,0.09634081274271,0.9853899717330932,3.7566998958587647,12.37670431137085,-91.15727844238282,-3.8755286693573,-54.23425598144532,-4.389455366134643,-1.011596429347992,0.1694393754005431,0.0894497610628604,76.17310028076172,83.03502655029297,-91.55642852783204,197.96580191302607,1.094740048142961,54.86993213186154,1.029845648276408,72.41640038490296,70.65832223892212,-0.3991500854492187
3430.474,-16.352272987365723,-197.5911193847656,26.36198959350586,-0.4035982906818389,0.1021108046174048,0.985207748413086,3.482023286819458,8.424797886610031,-90.87433776855468,-4.739334917068481,-52.47628707885743,-1.9632437467575072,-1.009463894367218,0.1663502246141433,0.090365520864725,68.08836822509765,82.73629913330078,-99.59374084472655,200.1453148781121,1.0724534784556394,53.063108862286086,1.0273442468133478,64.6063449382782,74.31150124669075,-8.719403076171876
3452.957,-21.628664207458492,-199.19078369140624,25.905463409423827,-0.3309072077274321,0.1052947595715522,0.9736243605613708,3.081189203262329,4.424476546049118,-90.58232879638672,-4.519427871704101,-49.48665542602539,1.0690568208694458,-1.004714262485504,0.1619312226772307,0.106387973576784,61.18909683227539,82.28138275146485,-106.44002075195311,202.17212105637256,1.0378673812712629,50.09093591858341,1.023857397811667,58.10790762901306,77.85690620541573,-15.857691955566406
3475.241,-27.09910926818848,-200.1655029296875,25.007791900634764,-0.2477008432149886,0.0904945731163024,0.9618404150009155,2.550579643249512,0.4195783793926239,-90.27823486328126,-1.5664597511291505,-46.28048477172852,5.011446690559387,-1.003375279903412,0.1715423971414565,0.1247270211577415,55.8162338256836,81.68435668945312,-111.8113037109375,203.70114825105483,1.0050959887064916,47.08690461959736,1.0261361858525389,53.26565418243408,81.2647783100605,-21.53306884765625
3498.876,-30.5432430267334,-200.4799560546875,23.979319381713868,-0.169107655622065,0.0798666648566722,0.9382963657379152,1.9303455352783203,-3.580701428651809,-89.95513763427735,-0.5027750492095947,-41.32834434509277,8.133765769004821,-0.991971218585968,0.171451523900032,0.138741448521614,51.868283081054685,81.03495635986329,-115.7725326538086,204.3052244645473,0.9652936055239432,42.81875892675487,1.016979099501874,49.93793754577637,84.6156577885151,-25.81739501953125
3520.553,-33.69434013366699,-200.03228149414065,22.45447807312012,-0.0777709344401955,0.0637536004185676,0.9145923852920532,1.2271842658519745,-7.55382450222969,-89.61530456542968,-1.5650223731994628,-37.03097381591797,11.385367274284365,-0.9869162440299988,0.1772093057632446,0.1454370111227035,49.07687225341797,80.35806579589844,-118.55060577392578,204.13664107374004,0.9286518816003588,40.06776755098488,1.0140662608571165,47.84968798756599,87.91189029812813,-28.93530120849609
3530.371,-36.04056091308594,-198.96524353027343,20.63312683105469,0.011572821997106,0.046449714899063,0.8938370227813721,0.4550519168376922,-11.489845705032348,-89.25800933837891,-2.5002158164978026,-32.164563751220705,14.270117568969727,-0.993666970729828,0.2039304137229919,0.1741322934627532,47.28608169555664,79.6676528930664,-120.30378112792968,203.29698843996297,0.9031599870258444,36.64339179452976,1.0305897019373176,46.83102977871895,91.15749859809875,-31.04577178955078
3555.239,-37.20022201538086,-196.7519439697265,18.56888027191162,0.0889820715412497,0.0207727625966072,0.8603058576583862,-0.3710443794727325,-15.367270946502686,-88.88026885986328,-6.6616286277771,-28.591403579711915,16.703063774108887,-0.9835283756256104,0.2104735791683196,0.1710214763879775,46.13741226196289,78.98523559570313,-121.32717590332032,201.13373569539772,0.8724686281428726,35.93974774983737,1.0212697105040345,46.50845664143562,94.35250654220582,-32.44690704345703
3575.496,-35.47152557373047,-193.64999084472657,16.368822479248045,0.1584642043337225,0.0075415566563606,0.8176402688026428,-1.1931512653827667,-19.189325904846196,-88.48397521972656,-10.454297637939453,-23.316220474243163,19.30533218383789,-0.9778005242347716,0.1957596957683562,0.1683175921440124,45.59835205078125,78.34799652099609,-121.6566390991211,197.59780431562288,0.8412650834513121,33.68136764911764,1.0127304891510602,46.79150331616402,97.53732242584228,-33.172663879394534
3596.376,-34.015109634399415,-189.7948211669922,14.276324844360351,0.2273379385471343,-0.0087108232080936,0.7942601799964905,-2.0186428844928743,-22.928527641296387,-88.06692199707031,-13.885600376129153,-21.998345947265623,21.352219772338863,-0.9946036338806152,0.2122599214315414,0.1856533467769622,45.277288818359374,77.69561157226562,-121.69567565917968,193.40952895844208,0.8321536929622584,34.32420180221446,1.0357412492384517,47.29593170285225,100.62413921356202,-33.628753662109375
3617.882,-30.477170944213867,-185.00144653320316,12.53225154876709,0.2814316511154174,-0.0207791030406951,0.7590476870536804,-2.8107262134552,-26.57434539794922,-87.62317962646485,-17.50969352722168,-21.31752014160156,21.44963150024414,-0.9910490870475768,0.2230247467756271,0.1904747486114501,44.973287200927736,77.05164337158203,-121.64515380859376,188.04254520884768,0.8143670071079349,35.43978125138777,1.0356564412552307,47.78401341438293,103.62598876953123,-34.02197418212891
3641.108,-26.450109481811523,-179.9473449707031,10.882630729675292,0.3239943146705627,-0.0304655395448207,0.7230899453163147,-3.5599371910095217,-30.115956497192386,-87.15312957763672,-22.85460796356201,-18.859592056274412,22.27990379333496,-0.9627132177352904,0.2119360327720641,0.1659945279359816,44.800000762939455,76.44610290527343,-121.35328674316406,182.3182488377516,0.7956673681134507,38.363472178168266,1.0016693084566366,48.35993795394897,106.56205940246582,-34.200157165527344
3660.339,-21.592721176147464,-174.85845031738282,9.204463768005372,0.3657930135726929,-0.0304056130349635,0.6875599980354309,-4.2424705028533936,-33.55854454040527,-86.66415557861328,-26.470631980895995,-15.970260429382323,23.143329620361328,-0.9546547651290892,0.2172454386949538,0.1620032623410224,44.77916641235352,75.8739517211914,-120.83125,176.49813293662177,0.7823238766723348,40.46142248795142,0.9943418697654084,49.02163691520691,109.43249626159668,-34.16709442138672
3670.104,-17.701141929626466,-169.5643096923828,7.383960723876953,0.4086212754249573,-0.0313591986894607,0.661964750289917,-4.871730327606201,-36.89573059082032,-86.16655120849609,-29.486714363098145,-12.976343297958374,23.3234504699707,-0.9511635065078736,0.231050819158554,0.1653772637248038,44.85372848510743,75.34024200439453,-120.1479232788086,170.7188282175711,0.7826080013618871,41.58732733505592,0.9938765791422768,49.725458812713626,112.23597259521485,-33.9813720703125
3690.203,-12.82533974647522,-164.07636413574218,5.595570731163025,0.4511571228504181,-0.0357202820479869,0.6331513524055481,-5.429868698120117,-40.12550354003906,-85.66190185546876,-34.253173828125,-8.615603399276734,23.785011291503903,-0.9444472789764404,0.2304218620061874,0.1485061451792716,45.08822937011719,74.87116241455078,-119.2013671875,164.81103579985887,0.781907000727083,43.782969250180976,0.9838378168521912,50.51809806823731,114.99666595458984,-33.53946533203125
3712.613,-8.861571216583254,-158.86720581054686,3.850541758537292,0.4950385928153992,-0.0393795020878314,0.6044171690940857,-5.934076499938965,-43.25774993896484,-85.15305023193359,-37.8249698638916,-2.8529649257659915,23.070957565307616,-0.9486454010009766,0.2250857651233672,0.1476777389645576,45.481590270996094,74.49989013671875,-118.01520080566408,159.35581652064295,0.7864621097482651,45.14377409589439,0.9863764470046852,51.41566677093506,117.7576400756836,-32.86215057373047
3730.296,-4.203408145904541,-153.13185424804686,1.9206061363220213,0.5468023002147675,-0.050659768283367,0.558436143398285,-6.371574783325196,-46.29542465209961,-84.64380340576172,-40.00468101501465,2.414058542251587,21.838732719421387,-0.950459349155426,0.2215003162622451,0.152676136791706,45.99393920898437,74.220751953125,-116.65814514160157,153.3665930499806,0.7883845078021252,46.83912830262038,0.9879516310092032,52.36551399230957,120.51617660522462,-32.01434173583984
3752.552,1.127561664581299,-147.86190490722657,-0.0521965026855468,0.597688615322113,-0.0577449053525924,0.542319905757904,-6.713808917999268,-49.23434906005859,-84.14805755615234,-42.57300987243652,7.489323854446411,20.133198928833007,-0.9638386011123656,0.2272521942853927,0.1647693216800689,46.58668975830078,74.03099060058594,-115.16214447021484,148.0771686767351,0.8137768733622309,48.929628804033925,1.0039854531129078,53.30049867630005,123.26533966064451,-31.0140869140625
3775.182,6.263587856292725,-143.1924041748047,-1.650927448272705,0.6389786839485169,-0.0643243841826915,0.5000418126583099,-6.966466999053955,-52.09514694213867,-83.66075134277344,-48.26073226928711,11.199176406860351,17.04865264892578,-0.9513062596321106,0.2233098447322845,0.1695766478776931,47.06825942993164,73.93300933837891,-113.66145935058594,143.5183164182742,0.8193524825863421,53.17162141921765,0.991902622744516,54.03472642898559,126.02815628051758,-30.0007080078125
3798.294,8.42261881828308,-139.25798950195312,-3.099985671043396,0.6844438552856446,-0.0687648117542266,0.4568167269229889,-7.188978576660157,-54.89325103759766,-83.17957611083985,-53.98226699829102,14.48349494934082,15.377259063720704,-0.9441840767860412,0.2148442268371581,0.1718997627496719,47.49332275390625,73.9032196044922,-112.09883728027344,139.67495949080504,0.8297004930159171,58.148689446834496,0.9836637279862046,54.6823013305664,128.79647064208984,-28.919261169433597
3812.543,11.311358451843262,-135.19344177246094,-4.843804144859314,0.7303275823593139,-0.0794325426220893,0.4206050276756287,-7.359868240356445,-57.623291015625,-82.71352691650391,-59.13744201660156,18.39885597229004,17.388189697265624,-0.9455944657325744,0.2089529365301131,0.1683217257261275,48.09727020263672,73.89505310058594,-110.24228515625,135.85166827448185,0.8495878827898871,64.48152573654683,0.9831615691043992,55.45713844299316,131.51834411621093,-27.528758239746093
3835.293,14.81670322418213,-131.18724060058594,-6.131122779846192,0.7672994494438171,-0.0764431223273276,0.3938740134239196,-7.452873229980469,-60.27786636352539,-82.26973724365234,-63.59427337646484,20.84669761657715,23.19929370880127,-0.9559579372406006,0.2056767255067825,0.168557834625244,48.98059844970703,73.8259506225586,-108.00062713623046,132.24922864425247,0.8695775820246221,71.3538964110954,0.9925079662027376,56.4334716796875,134.10381698608398,-25.730889892578126
3858.153,16.55904426574707,-126.76304168701172,-6.913381671905517,0.8003200650215149,-0.0820059552788734,0.34509197473526,-7.527937889099121,-62.85805435180664,-81.82223205566406,-66.99033203125,23.930574417114254,30.523129272460935,-0.9506441116333008,0.1954369187355041,0.1615312993526458,50.228825378417966,73.67349090576172,-105.30462951660157,128.1356395881508,0.8778434837488005,78.38095847467775,0.9841172896036892,57.75676326751709,136.53154525756835,-23.4823974609375
3878.894,17.677064895629883,-121.88673400878906,-7.415194606781005,0.8299216866493225,-0.0923644587397574,0.3085629880428314,-7.605240154266357,-65.34387512207032,-81.3608612060547,-69.2295928955078,25.76230125427246,37.140999984741214,-0.9610354185104372,0.1983902186155319,0.1528991341590881,51.76112747192383,73.42816619873047,-102.26248931884766,123.50693601729134,0.8932096998029533,83.36651874926213,0.9933743893215462,59.36636762619018,138.77204132080078,-20.90162811279297
3889.802,20.001123046875,-115.95528717041016,-7.964352035522461,0.8552704811096191,-0.097730965912342,0.2648453801870346,-7.638699913024903,-67.7157814025879,-80.90684967041015,-68.46018676757812,24.327058410644533,42.56117706298828,-0.969675064086914,0.1984141200780868,0.1492337703704833,53.37884368896484,73.06837005615235,-99.142578125,117.98142322402332,0.903608611731413,84.73798760082953,1.0010559440201912,61.01754360198974,140.78415145874024,-18.235728454589843
3912.459,22.03466415405273,-109.52180786132811,-8.200644588470459,0.8773298263549805,-0.0995689556002616,0.2229858368635177,-7.627788734436035,-69.96279449462891,-80.46358795166016,-66.48677062988281,19.60784845352173,43.6203498840332,-0.9494843363761902,0.2011042445898055,0.1453189700841903,54.75673370361328,72.61943664550782,-96.30968475341795,112.08369024869498,0.9133144051568962,82.54661003193164,0.9816231981125548,62.38452243804932,142.5822311401367,-15.846096801757811
3935.127,22.757994842529296,-102.41487579345704,-8.387164211273193,0.8934724569320679,-0.1017769426107406,0.1885564059019088,-7.591749095916748,-72.07159729003907,-80.03821105957032,-61.83013000488281,13.153765296936037,41.71327667236328,-0.9461642146110536,0.202063375711441,0.1378488540649413,55.7340560913086,72.11709442138672,-93.9884262084961,105.34457320524776,0.9202065331901308,76.8026583631506,0.9776570995943996,63.32580518722534,144.18869171142578,-13.950215148925782
3958.181,22.791458892822263,-93.8511947631836,-8.780165576934815,0.9061495304107666,-0.1034060701727866,0.1541297674179076,-7.488383483886719,-74.00847473144532,-79.6859619140625,-55.794795227050784,3.699726676940918,35.87204856872559,-0.940132486820221,0.2016579896211623,0.1218183428049087,56.08686294555664,71.60213623046874,-92.446142578125,97.0769099515874,0.9260995813452968,67.82157078145406,0.9698978312176711,63.57524642944336,145.61061096191406,-12.7601806640625
3979.786,22.238664627075195,-83.60881195068359,-8.697585010528565,0.9150497674942016,-0.0964954495429992,0.129288314282894,-7.336575698852539,-75.74389343261718,-79.39953002929687,-47.532088088989255,-6.431415748596192,30.984804534912108,-0.9315215945243835,0.1945919036865234,0.1160515069961547,55.90388946533203,71.06051788330078,-91.63943939208984,87.01223098891518,0.929849485674214,59.09199073277362,0.9594201956301772,63.24046516418457,146.80441131591795,-12.239909362792968
3989.907,20.28024387359619,-71.94066162109375,-8.440707969665528,0.9153898358345032,-0.0869210541248321,0.1104300767183303,-7.131263065338135,-77.24882202148437,-79.20848846435547,-39.145996475219725,-14.065672492980957,25.547443771362303,-0.9140384197235109,0.1931133866310119,0.1042973905801772,55.35083541870117,70.52952270507812,-91.40109252929688,75.24142553202974,0.9267303697836644,51.395613979965525,0.9404861500745484,62.482098484039305,147.7783447265625,-12.192604064941406
4015.19,15.83236484527588,-58.94315223693848,-7.812415409088135,0.910291600227356,-0.0754871398210525,0.1012366920709609,-6.915009212493897,-78.49091491699218,-79.11904602050781,-29.952806091308595,-19.508521556854248,21.6745361328125,-0.9234915256500243,0.1860780894756316,0.0953029423952102,54.61553421020508,70.0112533569336,-91.55095520019532,61.62018664397287,0.9194757168440996,44.196860118873126,0.9470371291823734,61.530543422698976,148.50216827392578,-12.4319091796875
4037.429000000001,10.285014963150024,-44.51549987792969,-6.740736389160157,0.9053002953529358,-0.0719946295022964,0.0888435512781142,-6.739800930023193,-79.43995056152343,-79.10328826904296,-20.68645577430725,-22.504397201538087,16.359682846069337,-0.9185909628868104,0.1819055646657943,0.0863424658775329,53.76734313964844,69.53487548828124,-92.016943359375,46.56006695363128,0.9127010225719638,36.44029127036241,0.9406414818032848,60.50714406967163,148.97482604980468,-12.913655090332032
4058.078,4.403707265853882,-29.18837342262268,-5.344772100448608,0.8993080615997314,-0.0615694351494311,0.0914399474859237,-6.616028213500977,-80.07709197998047,-79.15499877929688,-11.48110146522522,-22.81143112182617,12.465783548355102,-0.9178734421730042,0.1828291624784469,0.0865347206592559,52.98389587402344,69.1080825805664,-92.61100463867189,32.85157548318421,0.9061549843239256,30.142185584077254,0.9401300037858952,59.599924087524414,149.18517456054687,-13.456005859375
4079.625,-1.4719147205352785,-13.564455270767215,-4.205656385421753,0.8924244523048401,-0.0565426908433436,0.0918988093733787,-6.51467981338501,-80.39407501220703,-79.31372680664063,-3.0424471378326405,-19.94809036254883,8.260405540466309,-0.9116004824638366,0.1815632969141006,0.0861473605036735,52.38263320922852,68.78497772216797,-93.19298095703124,24.764253089953524,0.8989775975365799,25.27161343372397,0.9337279340698634,58.89731302261352,149.179052734375,-13.879254150390626
4099.897,-6.621649599075317,1.8310311794280991,-2.467941856384277,0.8880258202552795,-0.054195612668991,0.0953845173120498,-6.4995420455932615,-80.39503479003906,-79.5052978515625,5.3579545497894285,-16.10622081756592,4.2525050163269045,-0.9048828125,0.1798532783985137,0.0890896841883659,51.99563369750977,68.57227478027343,-93.72669067382812,22.462284064938128,0.8948241542901701,22.50059205730338,0.9272445832799784,58.49517574310303,148.9673095703125,-14.221392822265624
4109.911999999999,-10.867829942703247,16.777272558212278,-0.6429083824157715,0.8840433239936829,-0.0529591031372546,0.0965933352708816,-6.574975395202637,-80.09317321777344,-79.70259094238281,13.290181112289428,-12.310815715789795,0.2477255821228025,-0.9017274856567384,0.181663167476654,0.094617585837841,51.8032455444336,68.46955718994141,-94.22284088134764,25.82628519075404,0.8909436325571077,22.084991008822293,0.9251347516730922,58.37822093963623,148.56273040771484,-14.520249938964843
4140.355,-14.308052921295166,30.86702589988709,1.0908384323120115,0.8850406765937805,-0.0496249459683894,0.1020836696028709,-6.709586048126221,-79.50684204101563,-79.9108673095703,20.88958854675293,-10.01358995437622,-3.539918231964111,-0.8977508783340454,0.1895643323659896,0.1069876387715339,51.75327606201172,68.4665313720703,-94.73192291259764,34.79747866750947,0.8923244630336121,25.16955449550195,0.9241779259472204,58.46286211013794,147.97337341308594,-14.821055603027345
4150.7,-17.25624656677246,43.59967727661133,2.827635335922241,0.8891029238700867,-0.0468022912740706,0.1018547594547271,-6.913760948181152,-78.67017059326172,-80.11441955566406,28.51415596008301,-9.077637577056883,-8.0493754863739,-0.8953429460525513,0.2047622740268707,0.1227881684899329,51.75947647094726,68.54814453125,-95.3459487915039,47.12856579383758,0.8961939309934823,31.494000275527743,0.9272104125030108,58.67323741912842,147.21831512451172,-15.231529235839844
4172.18,-19.91093502044678,54.87235946655274,4.444868326187134,0.8944994211196899,-0.0473797835409641,0.1109616696834563,-7.188701343536377,-77.60960540771484,-80.2775634765625,35.51061935424805,-9.42571668624878,-12.451780986785888,-0.8993070244789123,0.2242231607437133,0.1415709853172301,51.74281692504883,68.6783462524414,-96.1336669921875,58.5764224733029,0.902743583693362,39.058607602982335,0.9384920999146475,58.93151826858521,146.28795166015624,-15.856103515625
4195.004,-20.66720962524414,65.02218399047851,5.524547481536866,0.8990886449813843,-0.0519584521651267,0.1212132960557937,-7.459946632385254,-76.35026550292969,-80.42829132080078,41.09560127258301,-10.012871837615966,-17.163254165649413,-0.911026120185852,0.2368596076965331,0.1597199380397796,51.645849609375,68.86295471191406,-97.12515106201172,68.55825401526852,0.9089600955070656,45.79727895971399,0.9558515514455428,59.10579624176025,145.21322021484374,-16.696859741210936
4217.747,-21.03163871765137,74.06762237548828,6.787636280059815,0.8990450859069824,-0.0533213071525096,0.1390396028757094,-7.726786041259766,-74.91084136962891,-80.57251434326172,45.82523727416992,-10.624081230163574,-22.21930389404297,-0.9223745465278624,0.2399840831756591,0.1765777081251143,51.42544631958008,69.11044311523438,-98.34659271240234,77.43154473154516,0.9119845075044348,52.18075989309468,0.9701570096219728,59.15223236083985,144.0212844848633,-17.774078369140625
4230.801,-21.98378982543945,82.3300064086914,8.427967357635499,0.8919767260551452,-0.0583843730390071,0.1590049341320991,-8.029443740844727,-73.3051971435547,-80.69436340332031,50.056139373779295,-10.224000930786133,-27.446587371826173,-0.941003668308258,0.240603819489479,0.1902072608470916,51.09719543457031,69.4377426147461,-99.76971435546876,85.74961126341618,0.9090020228029256,58.2123170638345,0.9903484503157736,59.12663917541504,142.7429397583008,-19.07535095214844
4252.3150000000005,-22.00127258300781,90.4756072998047,10.415173625946045,0.8789902448654174,-0.0675305925309657,0.1908347874879836,-8.368227005004883,-71.52789306640625,-80.77176971435547,51.07428665161133,-9.30200548171997,-31.055914306640624,-0.9573256015777588,0.2338237106800079,0.1886944234371184,50.67151947021485,69.83232116699219,-101.3149200439453,93.79947861452207,0.9033422829902864,60.754309659422425,1.0041067846507417,59.03974647521973,141.36021423339844,-20.54315032958984
4274.682000000001,-20.919487762451173,98.96947784423828,12.643916606903076,0.8631716012954712,-0.0649017006158828,0.2277066618204116,-8.704804039001464,-69.57058715820312,-80.83717346191406,51.29874801635742,-7.785956954956054,-33.0583683013916,-0.975235903263092,0.22549369931221,0.186169546842575,50.20584030151368,70.27691040039062,-102.9036148071289,102.01403377170575,0.897450566733092,61.67586109874516,1.018620378773084,58.910644340515134,139.84749755859374,-22.066441345214844
4297.093,-21.40890159606933,107.58262939453124,14.619566726684573,0.8415430784225464,-0.0603917002677917,0.2594971001148223,-9.05558376312256,-67.4355255126953,-80.91511383056641,51.53101119995117,-6.404851913452148,-33.76655387878418,-0.9835621595382692,0.2214058250188827,0.1726344794034957,49.75574264526367,70.74978790283203,-104.47887573242188,110.73355759019742,0.8846131094509557,62.02351797545322,1.0231135609003332,58.81132640838623,138.18531341552733,-23.563761901855468
4319.3060000000005,-22.60716934204102,116.07444763183594,16.501930236816406,0.8179475784301757,-0.0640301898121833,0.2923524141311645,-9.431492042541503,-65.12436370849609,-81.00060119628907,51.62037582397461,-5.122203016281128,-32.61869468688965,-0.986428999900818,0.2224882692098617,0.1665597885847091,49.37692794799805,71.21577911376953,-105.97807464599607,119.4623728365984,0.8731213709968161,61.42227670444876,1.0249960846452626,58.80841999053955,136.34014282226562,-24.97747344970703
4330.727000000001,-21.906781387329104,125.10545959472655,17.975888824462892,0.7944565653800965,-0.066011619567871,0.3224839806556702,-9.762706184387207,-62.63028182983398,-81.121630859375,51.26484909057617,-5.3200794696807865,-29.66948471069336,-0.988964867591858,0.2195000708103179,0.1658359616994857,49.051360321044925,71.62853393554687,-107.40933074951172,128.30474658738802,0.861455305309252,59.72069648396011,1.0266782114940125,58.81406650543213,134.25881576538086,-26.28769989013672
4351.075,-19.911319160461424,133.9872314453125,19.633709335327147,0.764526641368866,-0.0654224842786788,0.3569299042224884,-10.027703094482424,-59.95284729003906,-81.27208862304687,53.40848693847656,-5.361119508743286,-26.446522903442386,-0.993015706539154,0.2128723233938217,0.1764341086149215,48.836962127685545,71.9853759765625,-108.7630142211914,136.96779145200875,0.8484178301549617,60.06721221231137,1.0309702291248022,58.86466522216797,131.93822326660157,-27.49092559814453
4371.98,-18.151063537597658,142.5928924560547,21.672639083862304,0.7287682175636292,-0.068614637851715,0.3721487581729888,-10.26159839630127,-57.10609893798828,-81.42001953125,54.17971267700195,-4.780238652229309,-27.11741371154785,-0.9956793665885926,0.2138603627681732,0.1852578997611999,48.59019393920899,72.35142517089844,-110.16276550292967,145.5410670898645,0.8233936429464576,61.04659878714109,1.035466235838609,58.851792335510254,129.45752410888673,-28.74274597167969
4392.121,-17.945807647705077,150.97767028808593,24.400135803222657,0.6852201223373413,-0.0736302077770232,0.4121099770069122,-10.51667308807373,-54.07472534179688,-81.54006958007812,52.76497192382813,-6.631852078437805,-28.602980422973637,-1.0079339146614077,0.2176070988178253,0.1992850303649901,48.10763854980469,72.70320129394531,-111.77496337890624,154.1427942996826,0.8069262284816812,61.01911867870693,1.0505205902465455,58.62431163787842,126.7779266357422,-30.234893798828125
4414.782999999999,-15.420376205444336,159.81031188964843,26.860487747192384,0.6411067962646484,-0.0760705158114432,0.445603460073471,-10.731084251403807,-50.854871368408205,-81.6500030517578,51.60011596679688,-10.088751006126405,-31.281058502197265,-1.0080422520637513,0.2379361748695373,0.2073123425245284,47.2842399597168,73.02815704345703,-113.71686401367188,162.87134362767836,0.7898223980175242,62.15436048448578,1.0573158387964905,58.01532421112061,123.88302841186524,-32.06686096191406
4434.612999999999,-11.744372367858883,168.16651916503906,28.829245376586915,0.5957113981246949,-0.0733828291296958,0.4785842478275299,-10.873346710205078,-47.45917510986328,-81.76051635742188,49.10892791748047,-9.283923411369324,-33.460187911987305,-0.9812458395957948,0.2706145256757736,0.2098722577095031,46.30102157592773,73.38376159667969,-115.770849609375,171.11792499030253,0.7718682613200668,61.07053149053719,1.0422540600750685,57.17436828613281,120.84293670654296,-34.01033325195313
4457.294,-10.61988410949707,175.92809448242187,29.873165893554688,0.5425422668457032,-0.0752444267272948,0.5157873272895813,-10.986822509765624,-43.89819793701172,-81.88693084716797,42.04032249450684,-7.256810212135315,-35.59871063232422,-0.9584267735481262,0.2964277416467666,0.2159537732601165,45.14747695922851,73.77750549316406,-117.8546142578125,178.8673436577805,0.7590713381710064,56.39703163235029,1.0285839031676978,56.13429946899414,117.6757034301758,-35.96768341064453
4477.169,-9.7091796875,183.07101745605468,29.985264587402344,0.4865147590637207,-0.0755572617053985,0.5642976284027099,-11.058617401123048,-40.176736450195314,-82.05042114257813,34.574059295654294,-3.8575911045074474,-34.869005584716795,-0.9354701280593872,0.3134567618370056,0.2154090464115142,44.01356887817383,74.18950958251953,-119.7630615234375,185.8905650252651,0.7548722436982166,51.24829811060704,1.011505375038373,55.07218627929687,114.36624603271484,-37.712640380859376
4500.688,-7.126951408386231,189.78495178222656,29.579325866699214,0.4353486597537994,-0.0793487772345542,0.5941657900810242,-11.060272216796877,-36.317748641967775,-82.25258331298828,28.545144271850585,4.312263631820679,-32.49562492370605,-0.9092259645462036,0.3227199912071228,0.2150202929973602,43.2490463256836,74.67102355957032,-121.1625732421875,192.25454123700524,0.7476427253876808,47.256286856885005,0.989109412549779,54.30931854248047,110.98877220153808,-38.90998992919922
4516.871,-4.0494303703308105,195.3719604492188,29.31219940185547,0.3781584322452545,-0.0857308238744735,0.6362213611602783,-10.994347190856931,-32.33608703613281,-82.47756652832031,20.79603843688965,15.922351980209353,-29.836264419555665,-0.8879846692085266,0.3110345840454102,0.2103437900543212,43.02292938232422,75.27464294433594,-121.84271697998048,197.64183725633248,0.7533468885461458,43.90203973405069,0.9649073540246348,54.01727657318115,107.61072998046876,-39.36515045166016
4539.872,-0.2050076484680175,199.75379333496093,29.220087814331052,0.3144347906112671,-0.0884796395897864,0.6991216778755188,-10.86364974975586,-28.256377029418942,-82.7049560546875,13.11281123161316,26.266843938827517,-27.07822570800781,-0.9039930820465087,0.284283572435379,0.2323705464601516,43.34553909301759,75.97819061279297,-121.79788360595704,202.0772496449653,0.7788721911789287,43.61778532389006,0.9769268682821408,54.20918884277344,104.23456764221191,-39.09292755126953
4550.781,2.729996490478516,203.3310028076172,28.87264060974121,0.2511203691363334,-0.0880755245685577,0.7270602583885193,-10.688290786743163,-24.10446891784668,-82.9329345703125,6.45856032371521,31.81052856445313,-24.27274971008301,-0.9100505352020264,0.282838499546051,0.2229488462209701,43.999114990234375,76.73023071289063,-121.27379760742188,205.56820259851048,0.7817184206086929,42.97581059873568,0.9801319148453296,54.68740577697754,100.8346996307373,-38.34086303710937
4571.899,5.558808708190918,205.8884185791016,28.20424880981445,0.1749750709161162,-0.1095323637127875,0.7684855699539185,-10.482812309265135,-19.9139684677124,-83.15778503417968,-2.3294630527496336,38.04642143249512,-23.140699005126955,-0.9035055041313172,0.2839431166648865,0.2063852876424789,44.9491325378418,77.56846618652344,-120.26483306884764,208.02934398191653,0.8065296300108636,46.987052091180544,0.97125867118829,55.43194484710693,97.48243465423585,-37.10704803466797
4590.677000000001,11.03826446533203,207.1520050048828,27.11020851135254,0.0962636684998869,-0.1061750173568725,0.8036130189895629,-10.190762901306153,-15.710558700561524,-83.38087158203125,-10.389068460464475,44.01541786193848,-21.513046646118163,-0.9049662232398988,0.2766086757183074,0.2015071123838424,46.396794128417966,78.46414184570312,-118.58721771240236,209.3313563665547,0.826572377432608,52.004206636604295,0.9695391529288034,56.58755702972413,94.17470054626465,-35.206346130371095
4612.111,10.831277704238891,207.4935546875,25.218341064453124,0.0408712560310959,-0.1026072666049003,0.8459975838661193,-9.91557502746582,-11.512922239303588,-83.616064453125,-16.394072580337525,47.59793510437012,-18.004490661621094,-0.921777856349945,0.256014010310173,0.2125249564647674,48.476953125,79.34628295898438,-116.1483917236328,209.4361646400536,0.8596979815090874,54.91046344528477,0.9834861407422604,58.39252815246582,90.85920519828797,-32.532327270507814
4634.795999999999,9.40045895576477,207.53589477539063,23.77810134887695,-0.0112583076581358,-0.1194868713617324,0.8703582525253296,-9.684482192993164,-7.316939282417297,-83.85867004394531,-22.72508563995361,45.587409591674806,-14.678073120117189,-0.9286800384521484,0.2630612283945083,0.2022961616516113,50.86695938110351,80.13842468261718,-113.27398834228516,209.2094219944433,0.8819995040982809,54.04349535022742,0.9888653237252912,60.55144157409668,87.45536396503448,-29.415318298339844
4659.395,11.90872073173523,207.3428924560547,21.88701858520508,-0.085153236053884,-0.1459824085235595,0.9018895268440248,-9.420798683166504,-3.1345790147781374,-84.11877746582032,-32.14194869995117,48.24735794067383,-15.239564514160156,-0.908670139312744,0.2513387531042099,0.1899727284908294,53.63330764770508,80.94985961914062,-109.83367004394532,208.9750229509584,0.9231489770067878,61.584206895857776,0.9645635617101432,63.05410633087158,84.08443863391877,-25.714892578125
4669.442,12.642687559127808,205.38026428222656,20.38082160949707,-0.1463256489485502,-0.1034654259681701,0.9303712725639344,-9.159413719177246,1.0072830915451054,-84.38038330078125,-37.764213180542,47.58123931884766,-13.373818588256835,-0.9285381197929382,0.2457709938287735,0.1910204678773879,56.8876091003418,81.69616394042968,-105.79361267089844,206.9065093675605,0.9582511493171384,63.99338281325876,0.9815941099456732,66.04702281951904,80.68888084888458,-21.413229370117183
4693.136,6.512691831588745,203.8482727050781,17.53151664733887,-0.1884620379656553,-0.1167322114109992,0.9398420691490174,-9.046820449829102,5.123589015007019,-84.68144989013672,-45.74463272094727,45.002418518066406,-11.46423273086548,-0.9630153775215148,0.2492290526628494,0.173851191997528,60.55180892944336,82.3305892944336,-101.18690795898438,205.0020097311632,0.9772326917956976,66.93463349137083,1.0129335199440104,69.59862937927247,77.20700027942658,-16.505458068847656
4714.518,2.8849760055541998,203.51960144042968,15.16797466278076,-0.2506490439176559,-0.1301059156656265,0.9734203338623046,-9.041537857055664,9.221150612831115,-85.02691650390625,-51.43083572387695,42.3368766784668,-8.717024326324463,-0.9820451617240906,0.2563968867063522,0.1780357599258422,64.67900772094727,82.84198608398438,-96.0055694580078,204.6354525259765,1.0217615875448978,68.11222571333023,1.0333310513897709,73.72054557800293,73.62083547115326,-10.978652954101562
4737.121,3.4026466369628907,204.6260284423828,12.550992393493653,-0.3094063937664031,-0.137733793258667,0.9411115765571594,-9.06419105529785,13.32479648590088,-85.43500518798828,-57.49122467041016,42.03848037719727,-1.795323657989502,-0.9821062326431276,0.2191010683774948,0.1548978030681609,69.31917572021484,83.16504974365235,-90.1828842163086,205.55926411873867,1.0060930980430576,73.78240758363108,1.02230437797791,78.3833667755127,69.84025325775147,-4.7478790283203125
4759.339,-2.6937976837158204,206.2855773925781,9.81615047454834,-0.370319640636444,-0.1338015258312225,0.9406937956809998,-9.267921447753904,17.45721855163574,-85.9247039794922,-55.82055282592773,37.82248611450196,8.310705089569092,-1.0213158845901489,0.2320930033922195,0.1610010892152786,74.09276428222657,83.22266845703125,-84.25360870361328,206.92722610076208,1.0291772510357875,71.0929665521085,1.064049305105852,83.36068572998047,65.76544990539551,1.6710952758789066
4769.444,-6.153157711029053,210.33190307617187,6.994976615905761,-0.4171757876873016,-0.1380615971982479,0.9284786105155944,-9.606750297546386,21.65856761932373,-86.52025756835937,-53.39046096801758,25.896272277832036,20.14257307052612,-1.0470485806465148,0.2633851140737533,0.1692645668983459,77.68727569580078,82.9622299194336,-79.55365295410157,210.77448608691037,1.037251714679735,69.1358779667025,1.0996800883913431,87.29402599334716,61.30366230010986,6.966604614257813
4792.299,-9.623870372772217,215.62363891601564,2.166187286376953,-0.506520253419876,-0.1467608653008937,0.9361605405807496,-10.144466972351074,25.937214279174803,-87.3017791748047,-49.74632797241211,9.512902069091798,32.40309677124024,-1.0073508024215698,0.2813754707574843,0.1718884751200675,79.41168060302735,82.37194366455078,-76.8051986694336,216.4098184536761,1.0874608567979125,69.49751635547968,1.0679214484460222,89.55614757537842,56.43472938537597,10.496580505371094
4812.818,-6.275723469257355,220.1594268798828,-3.4153474807739257,-0.6392398715019226,-0.1551742695271968,0.8655582666397095,-10.789569664001466,30.272025299072265,-88.31648559570313,-49.28537292480469,-6.614811706542969,42.26149482727051,-0.9824843049049378,0.271298199892044,0.1261592373251914,79.16417541503907,81.49533386230469,-76.0498031616211,220.9374622731922,1.106530542947557,72.6148430241681,1.0355494097597566,89.95374507904053,51.22330856323242,12.266682434082032
4835.187999999999,-12.081802189350128,222.1823638916016,-10.604653358459473,-0.7875410914421082,-0.1516315214335918,0.8631619572639465,-11.78143825531006,34.60100173950195,-89.63375396728516,-44.31026229858399,-25.30691452026367,45.595721054077146,-1.0007652044296265,0.2683691963553428,0.1070216715335845,76.83756103515626,80.46978302001953,-77.4983627319336,223.29683168082707,1.199442148375604,73.77703114169503,1.0517013641788924,88.6189992904663,45.86878128051758,12.135391235351562
4856.976000000001,-15.3192285656929,221.882373046875,-15.9012845993042,-0.9124489307403564,-0.1403676770627498,0.8397234559059144,-13.0889066696167,38.8695613861084,-91.25170288085936,-38.16674957275391,-45.3763313293457,48.40769500732422,-1.0082240581512452,0.2336019858717918,0.0859756499528884,72.84885940551757,79.27518005371094,-80.76292114257812,223.4884741421094,1.268625754653554,79.68277063558925,1.0495643974612787,85.93776607513428,40.40561866760254,10.48878173828125
4879.41,-18.696618568897247,218.67398376464843,-21.14568881988525,-1.0480953931808472,-0.1793633788824081,0.8033691287040711,-14.773975944519044,43.027410888671874,-93.21790924072266,-33.21389617919922,-54.23319549560547,47.59387130737305,-0.9761815786361696,0.1736646905541419,0.0383075878024101,68.71362380981445,78.0147720336914,-84.29051971435547,220.768010281358,1.3425186946872756,82.06620915552287,0.9994826807453252,83.4875997543335,34.987361145019534,8.927389526367188
4889.5160000000005,-13.653467333316804,209.947509765625,-22.5297550201416,-1.1672325253486633,-0.1951624900102614,0.7372617840766906,-16.647903823852538,46.95691223144532,-95.45527801513671,-29.29361038208008,-51.64244384765625,40.03875312805176,-0.9916460275650026,0.1036392712965607,-0.0234464108943939,65.14747695922851,76.8951171875,-87.33025512695312,211.88582839223204,1.3994915026323944,73.97464613184044,1.0030459838143746,81.79538078308106,29.938204956054687,8.125022888183594
4911.916,-12.775105428695678,194.36050720214843,-21.62385025024414,-1.2257362604141235,-0.2057340741157531,0.6802430272102356,-18.710069465637208,50.54635162353516,-97.85308532714843,-25.16794357299805,-42.97728805541992,29.400646567344666,-1.0077885508537292,0.0388302499428391,-0.0897609114646911,62.24505844116211,76.0328582763672,-89.78158721923828,196.29544103662448,1.4248642637798974,63.24123971223072,1.0283052258022178,80.95512790679932,25.48650665283203,8.071498107910156
4939.0960000000005,-10.99943404197693,172.70465393066405,-17.88914737701416,-1.2538360834121705,-0.2318776309490204,0.6213017284870148,-20.81683349609375,53.70957641601562,-100.25020294189451,-20.466057777404785,-29.44730415344238,18.899378180503845,-1.014730060100555,0.0026323968544602,-0.1315073952078819,60.31371917724609,75.45202026367187,-91.34065856933594,174.30969406638332,1.4260251223182578,50.02016921358439,1.0378289344273344,81.13055267333985,21.74244384765625,8.909544372558594
