Timestamp (ms),Wrist Gyroscope X (deg/s),Wrist Gyroscope Y (deg/s),Wrist Gyroscope Z (deg/s),Wrist Accelerometer X (g),Wrist Accelerometer Y (g),Wrist Accelerometer Z (g),Wrist Roll (deg),Wrist Pitch (deg),Wrist Yaw (deg),Arm Gyroscope X (deg/s),Arm Gyroscope Y (deg/s),Arm Gyroscope Z (deg/s),Arm Accelerometer X (g),Arm Accelerometer Y (g),Arm Accelerometer Z (g),Arm Roll (deg),Arm Pitch (deg),Arm Yaw (deg),Wrist Gyroscope Magnitude (deg/s),Wrist Accelerometer Magnitude (g),Arm Gyroscope Magnitude (deg/s),Arm Accelerometer Magnitude (g),Difference Roll (deg),Difference Pitch (deg),Difference Yaw (deg)
0.0,-0.2269098907709121,0.8367565870285034,0.3085067868232727,-0.9433369040489196,-0.1874761134386062,0.2674508690834045,-36.23344039916992,70.86604309082031,-85.32119750976562,0.8446989059448242,-0.5537881255149841,0.1988858878612518,-0.9841269850730896,-0.1431463658809662,-0.1047449707984924,-125.89346313476562,79.4693603515625,132.3577880859375,0.9202315588922588,0.9982794072924244,1.0294431145314156,0.9999841567352724,-89.6600227355957,8.603317260742188,217.67898559570312
21.095,-0.1276848018169403,0.7914114594459534,0.3230876326560974,-0.9446481466293336,-0.1951429694890976,0.2587012648582458,-36.25618743896485,70.88510131835938,-85.34162902832031,0.5627995133399963,-0.8533177971839905,0.0788679271936416,-0.9860811233520508,-0.147949531674385,-0.1051311269402504,-125.8093719482422,79.48243713378906,132.52243041992188,0.8643038384345673,0.9986827543872548,1.0252388527296925,1.0026453009941447,-89.55318450927734,8.597335815429688,217.8640594482422
43.518,0.489726185798645,0.2525584995746612,0.1459387242794037,-0.9465550780296326,-0.193959504365921,0.269058883190155,-36.2440071105957,70.88943481445312,-85.33959197998047,0.6157492399215698,-0.5701622366905212,0.1465619951486587,-0.9811602234840392,-0.1473917961120605,-0.1110754013061523,-125.76963806152344,79.49108123779297,132.6412353515625,0.57001372264937,1.0029852878786862,0.8518876223034846,0.9983674025546468,-89.52563095092773,8.601646423339844,217.98082733154297
53.099,0.3300223350524902,-0.3727443218231201,-0.0483559556305408,-0.9447622895240784,-0.1914602071046829,0.272601306438446,-36.2158432006836,70.88030242919922,-85.31803894042969,0.2210463881492614,-1.0839877128601074,0.3458138704299927,-0.9886078238487244,-0.148431122303009,-0.1076179593801498,-125.69528198242188,79.5102310180664,132.8022003173828,0.5001913329215318,1.0017705659896852,1.1590850272207351,1.0054644959540784,-89.47943878173828,8.629928588867188,218.1202392578125
75.155,0.063705027103424,-0.3049980401992798,0.0517972931265831,-0.942687213420868,-0.1919804662466049,0.2639690339565277,-36.20042419433594,70.876708984375,-85.30321502685547,0.3795733749866485,-0.2957965135574341,0.4124435782432556,-0.986706018447876,-0.1423478722572326,-0.1024341136217117,-125.68878173828124,79.5252914428711,132.88986206054688,0.3158561295572569,0.9975947737710976,0.6337832671076041,1.0021698614560743,-89.48835754394531,8.648582458496094,218.1930770874024
99.757,0.4067842364311218,0.3362742960453033,0.3508473336696625,-0.9340433478355408,-0.184282973408699,0.2553864121437073,-36.18428421020508,70.89169311523438,-85.29513549804688,0.1430640220642089,-0.44987553358078,0.2844842672348022,-0.9841110110282898,-0.1475405097007751,-0.1020140945911407,-125.6551742553711,79.53746795654297,133.00820922851562,0.6337567898908276,0.9857075679083588,0.5511684029658289,1.000324727038744,-89.47089004516602,8.645774841308594,218.3033447265625
122.241,-0.0212617833167314,0.5402695536613464,0.1714690625667572,-0.9471400380134584,-0.1874756664037704,0.2663999199867248,-36.18521499633789,70.90418243408203,-85.29679870605469,0.9129462838172911,-0.2782014012336731,0.2741260826587677,-0.9816880822181702,-0.1412073224782943,-0.1153076142072677,-125.66618347167967,79.54563903808594,133.06649780273438,0.5672256107235997,1.0015938770133364,0.99298139256384,0.9984722552904762,-89.4809684753418,8.641456604003906,218.36329650878903
133.429,-0.1582245230674743,0.1740923523902893,0.0596990510821342,-0.948983669281006,-0.193076342344284,0.2670084238052368,-36.18885040283203,70.90767669677734,-85.297607421875,1.261681079864502,0.3883499205112457,0.1203216910362243,-0.9852112531661988,-0.1434812694787979,-0.1126748099923133,-125.70746612548828,79.54347229003906,133.07540893554688,0.242707897607024,1.004560588973132,1.3255686015378318,1.0019599297693311,-89.51861572265625,8.635795593261719,218.37301635742188
162.177,0.513934314250946,-0.6309740543365479,0.049510084092617,-0.9439908266067504,-0.1941963136196136,0.2665402293205261,-36.15431213378906,70.89695739746094,-85.27198028564453,0.9730308055877686,0.3873292207717895,0.4626228213310241,-0.9785424470901488,-0.1568972319364547,-0.108381263911724,-125.7402801513672,79.5416259765625,133.0958709716797,0.8152962559937026,0.999937289427383,1.1449160443904784,0.9969496278717402,-89.58596801757812,8.644668579101562,218.36785125732425
172.12,0.6160154342651367,-1.8339245319366453,0.1503189504146576,-0.9498916268348694,-0.1987472176551818,0.2743800282478332,-36.07134628295898,70.86445617675781,-85.1973876953125,1.905303239822388,2.593113422393799,0.2819579243659973,-0.9723308682441713,-0.1479514688253402,-0.1165724694728851,-125.97139739990234,79.51166534423828,132.9021453857422,1.9404509761768456,1.008503326299895,3.230157570179719,0.9904070350654048,-89.90005111694336,8.647209167480469,218.0995330810547
194.72,1.6054978370666504,-5.966733932495117,-0.2552018165588379,-0.9598230123519896,-0.1921340674161911,0.2713288962841034,-35.844017028808594,70.76583862304688,-84.9913558959961,1.1356371641159058,5.662903308868408,0.3711510896682739,-0.9573304653167723,-0.1447100937366485,-0.1375291496515274,-126.5421142578125,79.43930053710938,132.38470458984375,6.184227121733909,1.0157731463575357,5.787564149577603,0.9779247916157816,-90.6980972290039,8.6734619140625,217.37606048583984
217.225,3.738579273223877,-10.926063537597656,-0.8710827231407166,-0.9583129286766052,-0.225607231259346,0.270300030708313,-35.49062728881836,70.57028198242188,-84.69094848632812,2.608456611633301,13.116429328918455,1.3115071058273315,-0.9192920923233032,-0.1704719960689544,-0.167092815041542,-127.77727508544922,79.2630615234375,131.15774536132812,11.580786869654167,1.0209428968684562,13.437440795178274,0.9497782168961328,-92.28664779663086,8.692779541015625,215.84869384765625
233.099,10.392573356628418,-19.03771209716797,-0.8056845664978027,-0.9710586071014404,-0.2316870689392089,0.2716007232666015,-34.76009750366211,70.2441635131836,-84.12950134277344,8.79494571685791,20.583778381347656,2.319803237915039,-0.8912839889526367,-0.2064898908138275,-0.231738805770874,-129.576416015625,78.96051788330078,129.23703002929688,21.70458915732457,1.034601695928618,22.503877214328057,0.9437839255209536,-94.81631851196288,8.716354370117188,213.3665313720703
254.49500000000003,16.653099060058594,-27.717159271240234,-3.4104013442993164,-1.028368353843689,-0.2671885192394256,0.3473151922225952,-33.76480484008789,69.71670532226562,-83.41973876953125,21.02642250061035,21.768949508666992,9.18083381652832,-0.9373117089271544,-0.1403455436229705,-0.2471005916595459,-131.71792602539062,78.7681655883789,126.71957397460938,32.51457309731471,1.1178367585426567,31.627287513344804,0.9794431140731288,-97.95312118530272,9.05146026611328,210.13931274414065
277.05600000000004,22.088319778442383,-40.33171463012695,-8.082862854003906,-1.0241321325302124,-0.2171104848384857,0.372157335281372,-32.48350143432617,68.93030548095703,-82.52632904052734,26.233905792236328,27.86194229125977,8.434440612792969,-1.000530481338501,-0.1415197104215622,-0.1743085086345672,-133.87216186523438,78.5009994506836,124.07086944580078,46.6891180850245,1.1110736562944037,39.187312102364864,1.0254133452943073,-101.3886604309082,9.570693969726562,206.59719848632807
298.31800000000004,16.47104835510254,-47.873512268066406,-12.949380874633787,-1.0152113437652588,-0.2383687943220138,0.4779486060142517,-31.36331558227539,67.91934967041016,-81.68553161621094,20.764514923095703,30.445281982421875,9.973438262939451,-1.004104495048523,-0.0902292057871818,-0.1594896018505096,-136.3511962890625,78.22621154785156,121.20014190673828,52.25758390734461,1.1471306048603007,38.17786984321298,1.0206880422793585,-104.98788070678712,10.306861877441406,202.8856735229492
319.983,19.56161499023437,-56.33678817749024,-16.987316131591797,-1.0343947410583496,-0.2924016714096069,0.4773354530334472,-30.29569435119629,66.7175521850586,-80.9510498046875,16.513582229614258,30.790563583374023,7.195411682128906,-0.984427273273468,-0.1203135401010513,-0.2044490873813629,-138.6072998046875,77.85506439208984,118.63780975341795,62.00854289963766,1.1761463992611414,35.67255461992241,1.012606455454119,-108.3116054534912,11.13751220703125,199.58885955810547
332.361,18.03046226501465,-68.5624771118164,-20.400543212890625,-0.9998379349708556,-0.2529225349426269,0.5270712375640869,-29.1572494506836,65.26154327392578,-80.1295394897461,16.076297760009766,28.76277542114257,7.275585651397705,-0.9481006264686584,-0.1676619052886963,-0.2157510071992874,-140.52169799804688,77.472900390625,116.43412017822266,73.77054290554925,1.1582097367730628,33.74431427909601,0.9866883041279072,-111.36444854736328,12.21135711669922,196.56365966796875
354.462,7.2532196044921875,-81.50778198242188,-26.2633056640625,-1.024791240692139,-0.2962818741798401,0.5659068822860718,-28.326154708862305,63.51448440551758,-79.3977279663086,15.843838691711426,34.31230926513672,7.822211265563965,-0.9630913734436036,-0.1726395487785339,-0.2173351943492889,-142.6168212890625,76.99727630615234,114.03914642333984,85.94119467827396,1.2075722071104458,38.59467295726802,1.0022893764311709,-114.2906665802002,13.482791900634766,193.43687438964844
377.1,5.325410842895508,-92.27350616455078,-30.654747009277344,-0.9909493923187256,-0.3463253974914551,0.5856904983520508,-27.628639221191406,61.5257453918457,-78.75663757324219,21.89555549621582,34.421043395996094,4.472105979919434,-0.991014003753662,-0.1324805319309234,-0.163242369890213,-144.1963653564453,76.50880432128906,112.05322265625,97.3779926613186,1.202062951323407,41.03928984342376,1.0130685654505014,-116.5677261352539,14.98305892944336,190.8098602294922
400.681,0.7392343282699585,-104.154541015625,-36.81292343139648,-0.9829792976379396,-0.2850195467472076,0.6532843708992004,-27.03915023803711,59.27245330810547,-78.07916259765625,15.403644561767578,30.13054656982422,1.1087650060653689,-0.9671786427497864,-0.1317818760871887,-0.184557169675827,-145.37582397460938,76.03271484375,110.61421966552734,110.47129135270151,1.2141931110305002,33.857812425203925,0.9934094517041452,-118.33667373657228,16.76026153564453,188.6933822631836
422.051,-9.438105583190918,-114.51670837402344,-43.512088775634766,-0.972986340522766,-0.3323840796947479,0.6321365833282471,-26.81936836242676,56.79142379760742,-77.57391357421875,16.20619773864746,28.35233688354492,0.3804390132427215,-0.9496430158615112,-0.1436250209808349,-0.2003390341997146,-146.31454467773438,75.5626220703125,109.40518951416016,122.8676369246162,1.2069706936211495,32.65946395372956,0.9811145360508966,-119.49517631530762,18.77119827270508,186.9791030883789
432.334,-10.895263671875,-123.38542938232422,-48.96459579467773,-0.9619022607803344,-0.338550865650177,0.6775221228599548,-26.69217109680176,54.10887145996094,-77.1248779296875,22.51663017272949,29.50429916381836,-0.1956726759672165,-0.9667792916297911,-0.1452856659889221,-0.196198284626007,-147.05398559570312,75.071044921875,108.2819366455078,133.19235186630038,1.2242993403949307,37.1152339515688,0.9971278204704918,-120.36181449890135,20.962173461914062,185.4068145751953
458.176,-11.515528678894045,-133.58502197265625,-55.20741271972656,-1.0098779201507568,-0.3549680411815643,0.7534311413764954,-26.629796981811523,51.20285415649414,-76.76329040527344,23.322229385375977,27.258359909057617,-2.5845887660980225,-1.0008559226989746,-0.1601533889770507,-0.2104346007108688,-147.46771240234375,74.58708953857422,107.4734344482422,145.0014617698584,1.3090126846842178,35.96699414081825,1.0352025923358157,-120.83791542053224,23.38423538208008,184.2367248535156
477.051,-10.290095329284668,-147.00558471679688,-59.447265625,-1.0125242471694946,-0.3424188792705536,0.7603247165679932,-26.5165958404541,48.049346923828125,-76.35638427734375,24.068679809570312,26.152359008789062,-3.6398658752441406,-0.9761018753051758,-0.1475235223770141,-0.2517360150814056,-147.78489685058594,74.09507751464844,106.7569351196289,158.90407606509788,1.3116972648485827,35.72808213562512,1.018778229998005,-121.26830101013184,26.045730590820312,183.11331939697263
499.539,-9.63892650604248,-159.16986083984375,-62.23176574707031,-0.9900760650634766,-0.3802120983600616,0.7511385083198547,-26.395240783691406,44.67616271972656,-75.91915130615234,31.559785842895508,21.294994354248047,-2.1328647136688232,-0.9809772968292236,-0.1742334067821502,-0.2323247790336609,-147.76611328125,73.70751190185547,106.2287368774414,171.1746072639349,1.299623373532469,38.13195482641426,1.0230584244735608,-121.3708724975586,29.031349182128903,182.1478881835937
522.0169999999999,-11.765766143798828,-166.80630493164062,-67.01607513427734,-0.95991188287735,-0.4048843085765838,0.8064359426498413,-26.371538162231445,41.129486083984375,-75.53684997558594,26.75393867492676,8.06252670288086,-2.6292691230773926,-1.032397747039795,-0.1515802443027496,-0.2142820209264755,-147.34902954101562,73.56440734863281,106.2219696044922,180.1497458901931,1.31746007750452,28.06582668616723,1.0652410351878396,-120.97749137878418,32.43492126464844,181.75881958007807
532.104,-16.81026840209961,-173.39181518554688,-69.75257873535156,-0.8881241083145142,-0.3724970817565918,0.8813726305961609,-26.435955047607425,37.43833923339844,-75.13848114013672,14.107211112976074,-6.324357986450195,-6.253885746002197,-1.084825873374939,-0.1352318227291107,-0.1588911712169647,-146.4279022216797,73.65852355957031,107.01045989990234,187.6505500586686,1.3055022871104534,16.676990023709358,1.1047086610111445,-119.99194717407228,36.22018432617188,182.14894104003903
559.43,-12.904314994812012,-179.8435516357422,-68.49056243896484,-0.8308206796646118,-0.4037216305732727,0.8951454162597656,-26.40710830688477,33.653926849365234,-74.6667709350586,1.8866374492645264,-25.050556182861328,-8.70555591583252,-1.0569281578063965,-0.1216370686888694,-0.1475456357002258,-144.8885040283203,74.03533172607422,108.70368194580078,192.876078230684,1.286289031672889,26.58714858233853,1.0740867850678677,-118.48139572143556,40.38140487670898,183.37045288085932
581.977,-12.333383560180664,-187.8606109619141,-67.3985595703125,-0.8097914457321167,-0.4007868468761444,0.8606997132301331,-26.35818099975586,29.76272773742676,-74.11917877197266,-10.43872356414795,-38.73577117919922,-15.996066093444824,-1.027122139930725,-0.1452023088932037,-0.1536117643117904,-142.50634765625,74.51406860351562,111.5284652709961,199.96571539436235,1.247876708078273,43.18913114386343,1.0486468304337595,-116.14816665649414,44.75134086608887,185.64764404296875
591.975,-22.058916091918945,-192.1950836181641,-72.69176483154297,-0.6697620749473572,-0.3799101412296295,0.8649610280990601,-26.560834884643555,25.736284255981445,-73.6458511352539,-21.15038299560547,-41.55812454223633,-23.3907527923584,-1.057818055152893,-0.1765993386507034,-0.1310411244630813,-139.5864715576172,74.90674591064453,115.12701416015624,206.6631041585985,1.15804599760851,52.1684170022634,1.080434237017628,-113.02563667297365,49.170461654663086,188.77286529541016
615.368,-23.40902328491211,-193.96173095703125,-75.17800903320312,-0.5870658159255981,-0.46529021859169,0.9366042613983154,-26.851146697998047,21.65121078491211,-73.20770263671875,-31.77125740051269,-40.53652191162109,-23.8883113861084,-1.0852251052856443,-0.1665211468935012,-0.1084557622671127,-136.76351928710938,75.24226379394531,118.8337173461914,209.33434617663127,1.199320141669844,56.77388331249366,1.103270353935927,-109.91237258911131,53.5910530090332,192.04141998291016
631.928,-17.0252628326416,-198.8382110595703,-75.97496795654297,-0.5424187183380127,-0.4301853477954864,0.9242277145385742,-27.01449012756348,17.501657485961914,-72.72789001464844,-26.56148147583008,-42.17259979248047,-24.85888290405273,-1.0709527730941772,-0.2185675799846649,-0.097786858677864,-133.49822998046875,75.51885986328125,122.86812591552734,213.53849654778523,1.154761606472337,55.695641936196346,1.0973941402014802,-106.48373985290527,58.017202377319336,195.59601593017572
655.453,-27.62908172607422,-200.541244506836,-82.07933807373047,-0.4576946198940277,-0.4040297269821167,0.9034547805786132,-27.44774627685547,13.240151405334473,-72.33556365966797,-26.071054458618164,-35.49188232421875,-28.473142623901367,-1.075151801109314,-0.2042515724897384,-0.0881325751543045,-130.35243225097656,75.6031265258789,126.76737213134766,218.44261178625013,1.0903920973280816,52.44133333908906,1.0979241554390091,-102.9046859741211,62.362975120544434,199.1029357910156
671.793,-26.06941032409668,-203.0023498535156,-88.00819396972656,-0.320514053106308,-0.4726019203662872,0.8337675333023071,-27.92322158813477,8.90066146850586,-72.00556182861328,-19.246456146240234,-37.00064849853516,-32.19518280029297,-1.0403273105621338,-0.2588238418102264,-0.0804642885923385,-126.72786712646484,75.56788635253906,131.00509643554688,222.7891613308607,1.0105692123558632,52.68779611110699,1.0750559036299083,-98.80464553833008,66.6672248840332,203.01065826416016
694.308,-22.532670974731445,-204.29458618164065,-89.78694915771484,-0.2552805244922638,-0.412783533334732,0.814708411693573,-28.32602310180664,4.513820648193359,-71.66030883789062,-14.998363494873049,-37.46525192260742,-25.8745059967041,-1.003022074699402,-0.2639106512069702,-0.0546606443822383,-123.26468658447266,75.57945251464844,134.98895263671875,224.28931192420507,0.948318610837948,47.93835697770895,1.0385999712107934,-94.93866348266602,71.06563186645508,206.64926147460932
716.928,-26.376462936401367,-204.51730346679688,-93.53260803222656,-0.119879312813282,-0.382698118686676,0.9109069108963012,-28.784502029418945,0.0732298865914344,-71.34687805175781,-8.092369079589844,-31.990461349487305,-25.495346069335938,-1.0612688064575195,-0.1660665273666381,-0.035814955830574,-120.16214752197266,75.53984832763672,138.45321655273438,226.43187491975456,0.9952790061111246,41.699984722641645,1.0747801087350513,-91.37764549255373,75.46661844104528,209.8000946044922
743.0210000000001,-21.09360122680664,-200.55776977539065,-89.95780181884766,-0.157025933265686,-0.4593687355518341,0.8111613392829895,-29.21658706665039,-4.294017791748047,-70.97441864013672,-20.53047752380371,-35.3683967590332,-20.716283798217773,-1.0407342910766602,-0.1725130975246429,-0.0263541564345359,-117.27323150634766,75.57098388671875,141.94027709960938,220.8183985497432,0.9453356532300174,45.843084659172966,1.0552645047578173,-88.05664443969727,79.8650016784668,212.9146957397461
762.0780000000001,-6.5914835929870605,-199.85418701171875,-90.79452514648438,-0.0661854669451713,-0.4098595082759857,0.7477870583534241,-29.39204406738281,-8.666028022766113,-70.59832000732422,-30.359060287475582,-30.52057647705078,-29.968067169189453,-1.0571002960205078,-0.1765179336071014,-0.0474611222743988,-114.69062042236328,75.34648132324219,145.31533813476562,219.6105405454102,0.8553074401639742,52.45248497342269,1.072787106027618,-85.29857635498047,84.0125093460083,215.91365814208984
772.959,-0.1648872643709182,-198.3746490478516,-88.07743835449219,0.0327180922031402,-0.3411605060100555,0.743427574634552,-29.47024345397949,-12.954689979553224,-70.17765045166016,-33.08884048461914,-28.80021095275879,-33.03371047973633,-1.028737187385559,-0.2523261904716491,0.0065187364816665,-112.15284729003906,74.98917388916016,148.68186950683594,217.04875885329912,0.8186241647700505,54.91401955419963,1.059250301408125,-82.68260383605957,87.94386386871338,218.8595199584961
794.288,1.0595715045928955,-198.43032836914065,-87.0630111694336,0.0254226010292768,-0.379500538110733,0.7892497181892395,-29.56841278076172,-17.264039993286133,-69.7232437133789,-33.581485748291016,-17.576297760009766,-28.81528091430664,-1.0445343255996704,-0.2692572772502899,-0.0730309411883354,-110.78770446777344,74.58263397216797,150.85430908203125,216.6926067551619,0.8761176203748123,47.61263322041327,1.081149831003572,-81.21929168701172,91.8466739654541,220.57755279541016
816.76,4.380816459655762,-198.1020355224609,-82.6473388671875,0.0396303609013557,-0.3436141908168793,0.6920108199119568,-29.66451644897461,-21.523122787475582,-69.17033386230469,-8.120037078857422,6.903244972229004,-28.93369483947754,-0.8919926881790161,-0.1647347807884216,-0.184725821018219,-110.83723449707033,74.00870513916016,151.05072021484375,214.695576695989,0.7736409066945265,30.834209741334924,0.9256954859547992,-81.1727180480957,95.53182792663574,220.22105407714844
839.346,17.835351943969727,-194.0789794921875,-81.36396789550781,0.1546420007944107,-0.3108502924442291,0.6581069231033325,-29.52794075012207,-25.699996948242188,-68.62260437011719,18.38107681274414,10.287154197692873,-2.862839698791504,-0.8801072835922241,-0.1936092376708984,-0.1437102854251861,-111.21696472167967,73.8935546875,150.35707092285156,211.19859216243705,0.7440744418127107,21.257595758318647,0.9125382258736224,-81.68902397155762,99.5935516357422,218.97967529296875
861.592,24.668825149536133,-194.7096710205078,-80.40196990966797,0.2215000838041305,-0.2919186353683471,0.6126812100410461,-29.2978458404541,-29.853256225585938,-68.04869079589844,21.016162872314453,24.829858779907227,12.756916999816896,-0.9976109266281128,-0.1856599301099777,-0.0936974957585334,-112.77054595947266,73.9908447265625,148.38096618652344,212.0964018754866,0.7139026838007513,34.941950721818635,1.019056618293441,-83.47270011901855,103.84410095214844,216.42965698242188
871.67,20.93905258178711,-188.48861694335932,-77.11155700683594,0.3255577981472015,-0.2100710719823837,0.6259765028953552,-29.16603279113769,-33.87385940551758,-67.47962188720703,24.95130920410156,39.3393669128418,9.325030326843262,-0.9727168679237366,-0.1275557875633239,-0.1494985818862915,-115.18108367919922,73.88780212402344,145.43174743652344,204.72565756216736,0.7361822582726241,47.50904977684169,0.992370097327744,-86.01505088806152,107.76166152954102,212.91136932373047
894.2710000000001,14.387100219726562,-185.47494506835932,-72.71782684326172,0.3147200644016266,-0.2365766167640686,0.5889301300048828,-29.254863739013672,-37.78328704833984,-66.822509765625,19.959716796875,52.09785461425781,8.208213806152344,-0.8925629258155823,-0.1658910363912582,-0.1838003993034362,-118.37303161621094,73.5807113647461,141.76568603515625,199.73939581777543,0.708417894017412,56.39105890039048,0.9262672396665776,-89.11816787719727,111.36399841308594,208.58819580078125
916.743,21.649248123168945,-182.866928100586,-71.53965759277344,0.3962353765964508,-0.3137604892253876,0.5564432740211487,-29.272356033325195,-41.59529876708984,-66.12106323242188,18.814123153686523,57.62656784057617,7.126966953277588,-0.9962289929389954,-0.1839721500873565,-0.1830169558525085,-121.69844818115234,73.14869689941406,137.98483276367188,197.5523372317692,0.7517161934326417,61.037580301644674,1.0294722747648568,-92.42609214782716,114.7439956665039,204.1058959960937
939.098,26.6861629486084,-173.94662475585938,-64.86956787109375,0.4699413776397705,-0.2615426480770111,0.4133609533309936,-29.29922103881836,-45.263702392578125,-65.32380676269531,18.54436492919922,89.5952377319336,-11.661569595336914,-0.979056179523468,-0.1330409497022628,-0.1981868743896484,-125.7081069946289,71.98200988769531,133.46229553222656,187.55703237324337,0.6783190495038516,92.23444205011432,1.0077345553969594,-96.40888595581056,117.24571228027344,198.78610229492188
959.158,20.31774139404297,-163.7117919921875,-60.38164520263672,0.633569598197937,-0.1271835416555404,0.2808389365673065,-29.478330612182617,-48.71403503417969,-64.52233123779297,6.273487567901611,73.75524139404297,-8.989314079284668,-0.825764536857605,-0.2000496238470077,-0.219850018620491,-128.85853576660156,70.93155670166016,130.08274841308594,175.67101220755112,0.7045967622129679,74.56540784421547,0.8776337237255725,-99.38020515441896,119.64559173583984,194.6050796508789
982.696,-6.7049055099487305,-147.6417999267578,-60.42496490478516,0.6729574799537659,-0.1705956608057022,0.3613452911376953,-30.126754760742188,-51.895015716552734,-63.82937240600586,1.8852192163467407,51.82490539550781,-0.4706339836120605,-0.8242215514183044,-0.244595855474472,-0.2697057723999023,-131.12538146972656,70.22246551513672,127.74364471435548,159.66913673986792,0.7826525849563414,51.86131860156998,0.9010602099768436,-100.99862670898438,122.11748123168944,191.57301712036133
992.026,-5.394188404083252,-136.9223175048828,-54.54428863525391,0.6655576825141907,-0.3065026104450226,0.2197135090827942,-30.839563369750977,-54.80797576904297,-63.016632080078125,3.749991416931152,22.62339210510254,0.4750052690505981,-0.8799022436141968,-0.2777746915817261,-0.2568587958812713,-132.01170349121094,69.89151763916016,126.81155395507812,147.48524577791696,0.7649737936927961,22.936999280069287,0.9577907801927292,-101.17214012145996,124.69949340820312,189.82818603515625
1015.449,6.530977725982666,-118.77091979980467,-48.56618881225586,0.8092427849769592,-0.2210798412561416,0.1511680632829666,-31.29401588439941,-57.344032287597656,-62.36954116821289,4.412415504455566,-9.221834182739258,-8.523946762084961,-0.8966706395149231,-0.2899999320507049,-0.2187203466892242,-131.18882751464844,69.86599731445312,127.69618225097656,128.4829162024921,0.8524095052284605,13.310496034361634,0.9674485962640956,-99.89481163024902,127.21002960205078,190.06572341918945
1041.3380000000002,-1.7600606679916382,-96.345458984375,-41.08050537109375,0.8835058212280273,-0.1673275232315063,0.0661774799227714,-31.827795028686523,-59.4163932800293,-61.82135772705078,1.369532823562622,-24.67960357666016,-10.229087829589844,-0.8906978964805603,-0.3297387957572937,-0.2139858603477478,-129.7003936767578,70.00533294677734,129.35707092285156,104.75281954205032,0.9016432193631416,26.750564305849235,0.9735812059870153,-97.87259864807127,129.42172622680664,191.1784286499024
1061.4920000000002,-4.084076404571533,-73.90104675292969,-34.91637420654297,0.8694825768470764,-0.2476998269557953,0.0851810500025749,-32.24512481689453,-61.04010772705078,-61.438961029052734,-3.151363134384156,-31.06397819519043,-5.183505058288574,-0.8503708243370056,-0.3158121109008789,-0.238142192363739,-128.22323608398438,70.26541137695312,131.1006317138672,81.8364074174106,0.9080809253552814,31.65075916317529,0.9378590150225542,-95.97811126708984,131.3055191040039,192.53959274291992
1072.362,0.125106394290924,-55.50555038452149,-25.32500267028809,0.8475839495658875,-0.233168751001358,0.1230022832751274,-32.55192184448242,-62.24922561645508,-61.08924102783203,-2.610557556152344,-32.58390426635742,-6.442330837249756,-0.8577110171318054,-0.338917464017868,-0.2300405502319336,-126.55872344970705,70.51362609863281,133.01531982421875,61.010142889102006,0.8876349360498024,33.31710453520397,0.9505008632697762,-94.0068016052246,132.7628517150879,194.1045608520508
1094.091,-6.560702323913574,-33.61140823364258,-14.083887100219728,0.8881299495697021,-0.2290840446949005,0.0500137880444526,-32.926422119140625,-62.96738815307617,-60.816287994384766,-2.594174861907959,-28.34197807312012,-7.631763935089111,-0.8559315800666809,-0.339086651802063,-0.219813734292984,-125.01171875,70.67790985107422,134.80625915527344,37.028711215532695,0.9185617485237518,29.46593431527844,0.9465287660550022,-92.08529663085938,133.6452980041504,195.6225471496582
1116.293,-19.44588279724121,-6.5534491539001465,-4.60844612121582,0.8640593886375427,-0.2554933130741119,0.0890618115663528,-33.303565979003906,-63.12771224975586,-60.8296012878418,3.971612930297852,-15.90325927734375,-6.009758949279785,-0.8427876234054565,-0.3006729185581207,-0.2492621093988418,-124.05754089355467,70.70503234863281,135.8357696533203,21.03159121961401,0.9054321986751692,17.458653084902558,0.9288846975279742,-90.75397491455078,133.83274459838867,196.6653709411621
1132.641,-16.47110366821289,14.105371475219728,2.9251303672790527,0.8133822083473206,-0.2262850105762481,0.2508202493190765,-33.4967155456543,-62.905887603759766,-60.99884414672852,1.961202502250672,-3.158278226852417,-2.9642722606658936,-0.8423886895179749,-0.2554655075073242,-0.2765883505344391,-123.9383773803711,70.64965057373047,136.033935546875,21.88184517284904,0.8807419147150546,4.754781451170771,0.9227038774195908,-90.4416618347168,133.55553817749023,197.03277969360352
1154.085,-12.670093536376951,27.372045516967773,11.070100784301758,0.7695016860961914,-0.2316215187311172,0.2814593613147735,-33.57756042480469,-62.34832000732422,-61.20537567138672,-2.929982900619507,2.0433883666992188,-0.035145491361618,-0.8102517127990723,-0.2610800862312317,-0.27434042096138,-124.24864959716795,70.57515716552734,135.8577880859375,32.129539015959985,0.8514697557258925,3.5723201173253565,0.8943899127861432,-90.67108917236328,132.92347717285156,197.06316375732425
1176.8719999999998,-11.456068992614746,37.946922302246094,17.35332489013672,0.7815932631492615,-0.2353104054927826,0.2387917041778564,-33.64036560058594,-61.56417465209961,-61.41249465942383,-5.926837921142578,7.407356262207031,3.835727691650391,-0.8341888189315796,-0.2756444215774536,-0.233987957239151,-124.90406036376952,70.51583862304688,135.3457489013672,43.270640320185805,0.8504589901445297,10.232748480405691,0.9091761088536056,-91.2636947631836,132.08001327514648,196.75824356079104
1191.5500000000002,-15.688228607177734,51.261966705322266,25.121801376342773,0.8058834671974182,-0.2041750997304916,0.2270417511463165,-33.72121047973633,-60.49238586425781,-61.68741607666016,-8.753037452697754,10.98098373413086,5.0763840675354,-0.8228731155395508,-0.2648719549179077,-0.2129160165786743,-125.78900146484376,70.44317626953125,134.64260864257812,59.20316420362222,0.8617909205925033,14.932091066515213,0.8902867778954887,-92.06779098510742,130.93556213378906,196.33002471923828
1214.243,-17.587858200073242,63.66315841674805,32.69465637207031,0.7697085738182068,-0.2287475168704986,0.2799592018127441,-33.83631134033203,-59.12085723876953,-61.97285079956055,-11.719402313232422,12.97750473022461,4.385416030883789,-0.8774939179420471,-0.2582663595676422,-0.2258167266845703,-126.80860137939452,70.34371948242188,133.90444946289062,73.69715768569097,0.8503845422885494,18.02753153835356,0.9421731701551156,-92.9722900390625,129.4645767211914,195.8773002624512
1236.311,-7.697253227233887,73.22483825683594,39.61751556396485,0.7798944711685181,-0.249236911535263,0.2985472679138183,-33.78687286376953,-57.51441192626953,-62.22650146484375,-13.261847496032717,13.490200996398926,4.215284824371338,-0.8637420535087585,-0.2239309847354889,-0.2281341403722763,-127.89860534667967,70.24327087402344,133.12075805664062,83.61023971048608,0.8714843058883299,19.38119573405746,0.9209997866055836,-94.11173248291016,127.75768280029295,195.3472595214844
1258.766,-1.1742806434631348,82.4274673461914,41.98116302490234,0.7585724592208862,-0.2229742407798767,0.3281719088554382,-33.48701095581055,-55.72176361083984,-62.612449645996094,-12.961671829223633,10.971755981445312,7.722420692443848,-0.8801292181015015,-0.2116822749376297,-0.2229941189289093,-128.9820098876953,70.23538208007812,132.32577514648438,92.50991491218925,0.8560645359443455,18.655298102039417,0.9322892272013076,-95.49499893188477,125.95714569091795,194.93822479248047
1280.739,-2.8485677242279053,93.55756378173828,42.449554443359375,0.7748537659645081,-0.2442698776721954,0.2960379421710968,-33.1260871887207,-53.74150085449219,-63.13524627685547,-11.59612274169922,7.218371391296387,9.672765731811523,-0.937128245830536,-0.240260362625122,-0.1902344077825546,-129.85812377929688,70.30957794189453,131.70359802246094,102.77692713490354,0.8646991355218691,16.737303996932937,0.9859632452006272,-96.73203659057616,124.05107879638672,194.8388442993164
1291.302,-6.057234764099121,107.32432556152344,41.95219802856445,0.7711099982261658,-0.2572202086448669,0.3221839368343353,-32.65456008911133,-51.50522232055664,-63.88400650024414,-1.8805310726165767,6.244884490966797,8.656111717224121,-0.9445840716362,-0.2653696835041046,-0.1472266018390655,-130.37803649902344,70.38287353515625,131.23977661132812,115.39145492475242,0.8743999967141681,10.83804638676449,0.9921369913479536,-97.72347640991212,121.88809585571288,195.1237831115723
1314.528,-2.5305535793304443,112.34230041503906,43.75614547729492,0.6942411065101624,-0.3354827165603637,0.3937359750270843,-32.199607849121094,-49.16552734375,-64.63027954101562,3.556330680847168,3.743147134780884,4.355949401855469,-0.9255508184432985,-0.2706780433654785,-0.1889743208885193,-130.5709991455078,70.4012451171875,131.0110321044922,120.58937113606218,0.8657640470184153,6.755215287145054,0.9826607830968428,-98.37139129638672,119.5667724609375,195.6413116455078
1336.298,5.448079586029053,116.0744857788086,46.92654800415039,0.6825968623161316,-0.357964426279068,0.4062434434890747,-31.687599182128903,-46.7269287109375,-65.22904205322266,3.312299966812134,-2.3372511863708496,2.3855514526367188,-0.9303022623062134,-0.2760976254940033,-0.1852941364049911,-130.42630004882812,70.46847534179688,131.1450653076172,125.31986565415866,0.8712696151611115,4.703714480228659,0.9879403398189373,-98.73870086669922,117.19540405273438,196.37410736083984
1356.327,3.154287338256836,123.57655334472656,46.95380401611328,0.722629189491272,-0.3206036686897278,0.3442422449588775,-31.13289451599121,-44.12847518920898,-65.92395782470703,5.631351947784424,-7.491846084594727,5.63189172744751,-0.9209166169166564,-0.2646811306476593,-0.1558898240327835,-130.10487365722656,70.66443634033203,131.43563842773438,132.23378455129352,0.8622542438842811,10.93426206676813,0.970796144136922,-98.97197914123537,114.79291152954102,197.3595962524414
1379.269,-17.457557678222656,133.7010955810547,43.51753234863281,0.6844967603683472,-0.2541810870170593,0.5495665073394775,-30.843950271606445,-41.445587158203125,-66.87397003173828,12.201860427856444,-22.122875213623047,-1.188346266746521,-0.9725959300994872,-0.3094277083873749,-0.1428339332342147,-128.69178771972656,70.93256378173828,132.75347900390625,141.6845965564962,0.913874819623152,25.292670330910425,1.030577450969652,-97.84783744812012,112.3781509399414,199.62744903564453
1401.856,-10.147995948791504,130.7534942626953,48.71696090698242,0.6087759137153625,-0.4549517631530761,0.5816510319709778,-30.6635799407959,-38.6928939819336,-67.52529907226562,-1.4241414070129397,-32.9006233215332,-7.651886463165283,-0.969385266304016,-0.3375845551490783,-0.1767065972089767,-126.82107543945312,71.19309997558594,134.78286743164062,139.90282471663622,0.9570303772132684,33.80873496801907,1.0415835770113144,-96.15749549865724,109.88599395751952,202.30816650390625
1411.381,1.3534345626831057,129.38246154785156,54.76227569580078,0.5377917885780334,-0.4216884076595306,0.5560005307197571,-30.401487350463867,-35.91155242919922,-67.92681884765625,-6.369594573974609,-30.699750900268555,-18.19032859802246,-0.9550746083259584,-0.3204997777938843,-0.1432469189167022,-124.7391357421875,71.24674987792969,137.18740844726562,140.50110312976068,0.8810094841583955,36.248234369130046,1.0175496522598,-94.33764839172365,107.1583023071289,205.11422729492188
1438.828,-4.468626022338867,137.0400390625,54.78318405151367,0.5410968661308289,-0.3619341552257538,0.4308091700077057,-30.20214462280273,-33.011192321777344,-68.47211456298828,-1.328182816505432,-20.9775390625,-11.469526290893556,-0.8694639801979065,-0.1714612543582916,-0.1262515038251876,-123.37996673583984,71.34229278564453,138.7397918701172,147.65208491450798,0.7806271147086248,23.945171706427,0.8951569788734408,-93.17782211303712,104.35348510742188,207.21190643310547
1458.808,-28.80010986328125,147.8844451904297,45.44650650024414,0.4870611131191253,-0.1873863339424133,0.8215869069099426,-30.326942443847656,-30.00726318359375,-69.33577728271484,-7.754204273223877,-40.69919204711914,-1.817036271095276,-1.016247272491455,-0.2697489261627197,-0.1280270218849182,-121.3615264892578,71.77165222167969,141.1005401611328,157.36785062551692,0.9733176314374798,41.47111691297505,1.059204380818444,-91.03458404541016,101.77891540527344,210.43631744384768
1481.5,-17.374731063842773,140.40211486816406,49.03043746948242,0.3776321113109588,-0.5101111531257629,0.6670769453048706,-30.36871719360352,-27.069469451904297,-69.92965698242188,-19.98018455505371,-28.033803939819336,-10.852073669433594,-1.065968036651611,-0.271243691444397,-0.1923936903476715,-120.01119995117188,71.88160705566406,143.0186004638672,149.728484055115,0.9207665561876938,36.09528280976686,1.116636166079565,-89.64248275756836,98.95107650756836,212.94825744628903
1491.2,0.1073218584060669,142.04458618164062,62.09511566162109,0.2790344357490539,-0.4636668264865875,0.678193211555481,-30.220542907714844,-23.929828643798828,-70.35142517089844,-13.803354263305664,-10.642082214355469,0.883350670337677,-0.8790233135223389,-0.2492444813251495,-0.1457328349351883,-119.75535583496094,72.00249481201172,143.65139770507812,155.0241251242042,0.8676365451719248,17.451842629997717,0.9252258407356994,-89.5348129272461,95.93232345581056,214.00282287597656
1514.529,5.714226722717285,146.81820678710938,63.8095588684082,0.2645322680473327,-0.366921067237854,0.5802286267280579,-29.97223472595215,-20.73700904846192,-70.75061798095703,1.035145878791809,-19.534826278686523,0.3617716133594513,-0.976530134677887,-0.277182012796402,-0.1136084645986557,-118.63196563720705,72.21011352539062,144.884033203125,160.18707199459598,0.7357130212902037,19.565578024404847,1.0214440050146365,-88.65973091125488,92.94712257385254,215.63465118408203
1531.215,-23.037336349487305,151.8505859375,60.904422760009766,0.2317336648702621,-0.2335609048604965,0.8265751004219055,-30.2588119506836,-17.50078010559082,-71.19713592529297,-1.9997652769088743,-11.445804595947266,-9.447924613952637,-0.9546643495559692,-0.266308456659317,-0.0828178450465202,-117.67096710205078,72.1698989868164,146.0075225830078,165.2230856368791,0.88965025956886,14.97560628229355,0.9945667447987282,-87.41215515136719,89.67067909240723,217.2046585083008
1553.738,-23.96125221252441,149.94839477539062,65.70349884033203,0.1288275569677353,-0.4720978736877441,0.709741473197937,-30.625856399536133,-14.226576805114746,-71.61011505126953,-14.529470443725586,2.516775131225586,7.307205200195312,-0.9334757328033448,-0.2112596333026886,-0.1915955543518066,-118.45059204101562,72.28765106201172,145.5774383544922,165.45577192461468,0.8620939047180082,16.45706280822955,0.9760719404036282,-87.82473564147949,86.51422786712646,217.1875534057617
1581.191,-9.59908390045166,152.35043334960938,72.45442199707031,0.0114465672522783,-0.5000710487365723,0.736884593963623,-30.747846603393555,-10.86848258972168,-71.90090942382812,-1.3087663650512695,13.05339813232422,11.06436252593994,-1.0221397876739502,-0.201858103275299,-0.1681163311004638,-119.61837768554688,72.3899917602539,144.4529266357422,168.97467331073975,0.8906183147158437,17.16170709179827,1.0553575413985206,-88.87053108215332,83.25847434997559,216.3538360595703
1591.14,3.855038642883301,156.23941040039062,76.57906341552734,0.0225855559110641,-0.3999768495559692,0.7731021642684937,-30.6238956451416,-7.382207870483398,-72.2000961303711,-2.3472156524658203,3.785091400146485,4.307009696960449,-0.9995508193969728,-0.2637989521026611,-0.0961218550801277,-119.92139434814452,72.4488754272461,144.23741149902344,174.0401322649439,0.870734485312922,6.195697761863046,1.0382346260415642,-89.29749870300293,79.83108329772949,216.43750762939453
1614.6560000000002,-13.736836433410645,158.8130645751953,75.03491973876953,-0.0443105921149253,-0.385302186012268,0.8860734701156616,-30.85689163208008,-3.8526806831359854,-72.53367614746094,5.735982418060303,14.2054443359375,6.655115127563477,-0.9103205800056458,-0.2605145871639251,-0.0987337008118629,-120.7011260986328,72.42918395996094,143.34971618652344,176.18322659994345,0.96723699141535,16.702894971915494,0.9519977690010688,-89.84423446655273,76.28186464309692,215.8833923339844
1637.184,-8.756836891174316,150.94764709472656,75.65670776367188,-0.1506104171276092,-0.5197271108627319,0.7394452691078186,-31.02140235900879,-0.4872980117797851,-72.76255798339844,-9.663188934326172,25.565391540527344,7.743949890136719,-0.947422206401825,-0.2672680914402008,-0.2097724825143814,-122.58592987060548,72.27299499511719,141.63604736328125,169.07339171321544,0.9162854759947956,28.406605304082,1.0065016464495409,-91.56452751159668,72.76029300689697,214.3986053466797
1656.9910000000002,15.919451713562012,158.86891174316406,82.59528350830078,-0.1037879809737205,-0.4790361523628235,0.6514807343482971,-30.73618125915528,3.127281665802002,-72.9871826171875,9.630682945251465,10.139481544494627,23.101247787475582,-1.0855098962783811,-0.2149487286806106,-0.091894619166851,-123.65567779541016,72.6067123413086,140.35728454589844,179.763013212213,0.8152758597506589,27.00419947566397,1.110396015803161,-92.91949653625488,69.47943067550659,213.344467163086
1670.972,7.953662872314453,166.74407958984375,79.22132110595703,-0.1450508832931518,-0.3843132853507995,0.883524477481842,-30.579423904418945,6.821887016296387,-73.2987289428711,16.209144592285156,13.91294002532959,11.293855667114258,-1.0100706815719604,-0.2515385448932647,-0.0172442123293876,-124.23957824707033,72.69050598144531,139.43893432617188,184.7778843615321,0.9743469414694186,24.1631422706492,1.0410628147221122,-93.66015434265135,65.86861896514893,212.73766326904297
1693.377,-27.276012420654297,164.57652282714844,80.55329132080078,-0.2541911005973816,-0.3371778428554535,0.8472463488578796,-31.16183853149414,10.479694366455078,-73.627197265625,-5.716205596923828,12.330034255981444,-6.973841667175293,-1.0280746221542358,-0.2689174115657806,-0.137147307395935,-124.68108367919922,72.4476547241211,139.15155029296875,185.25184334321852,0.9466405806791576,15.27544496172892,1.071477198491302,-93.51924514770508,61.967960357666016,212.7787475585937
1715.918,-12.447277069091797,160.9821319580078,83.71758270263672,-0.3495748937129974,-0.5871211886405945,0.7758323550224304,-31.458641052246094,14.128090858459473,-73.87753295898438,-25.41556167602539,30.096115112304688,7.8726911544799805,-0.8780570030212402,-0.2551804482936859,-0.1468701213598251,-126.95053100585938,72.21575164794922,137.36106872558594,181.8758234888656,1.0338422217944323,40.17096197721399,0.926105822405981,-95.49188995361328,58.08766078948975,211.2386016845703
1736.948,24.18830108642578,166.56765747070312,90.4885711669922,-0.4038134813308716,-0.5362893342971802,0.616122841835022,-31.027666091918945,17.912918090820312,-74.0717544555664,-19.363014221191406,15.69616413116455,5.863091468811035,-1.0518414974212646,-0.2255598455667495,-0.0846042037010192,-128.20909118652344,72.17214965820312,136.49087524414062,191.0969385850252,0.9111964299844104,25.60608774752914,1.0790762952235526,-97.18142509460448,54.25923156738281,210.56262969970703
1758.534,28.29397773742676,177.69683837890625,85.83369445800781,-0.3985249400138855,-0.3323050439357757,0.7307982444763184,-30.580251693725582,21.87052154541016,-74.43145751953125,2.6870229244232178,23.1782341003418,-6.645162105560303,-1.0708073377609253,-0.1740000247955322,-0.0857764258980751,-128.9459991455078,71.8575210571289,135.73370361328125,199.35932045022568,0.8962783296319831,24.261261459697387,1.0882380063530837,-98.36574745178224,49.98699951171875,210.1651611328125
1781.218,-20.00352478027344,181.11827087402344,77.52204132080078,-0.5134380459785461,-0.2627626657485962,1.0331803560256958,-31.211688995361328,25.77388381958008,-74.98995208740234,-20.26488494873047,32.87602615356445,-13.97950839996338,-1.0693390369415283,-0.2013040333986282,-0.0702611058950424,-130.25350952148438,71.27565002441406,134.84722900390625,198.02433168319263,1.18326856361815,41.07219634667452,1.0903879643462622,-99.04182052612305,45.501766204833984,209.8371810913086
1790.984,-17.8831844329834,175.02723693847656,79.90911865234375,-0.6313142776489258,-0.5198537111282349,0.7017041444778442,-31.81013870239257,29.621374130249023,-75.52873229980469,-44.34895324707031,31.523983001708984,-9.900876998901367,-0.9155436754226683,-0.1955105364322662,-0.1155391186475753,-132.06451416015625,70.76370239257812,133.91815185546875,193.2351137851919,1.0775872607425194,55.30477848929728,0.9432888631804892,-100.25437545776369,41.1423282623291,209.44688415527344
1813.443,15.864891052246094,177.30203247070312,83.91290283203125,-0.6891421675682068,-0.4877051413059234,0.460861325263977,-31.766788482666016,33.51763916015625,-76.02572631835938,-22.26430892944336,9.549464225769045,-5.959753513336182,-0.9337751865386964,-0.2904815077781677,-0.15327949821949,-132.54002380371094,70.55216217041016,133.91293334960938,196.7970547239969,0.961855702847837,24.948153860449413,0.9898536305590204,-100.77323532104492,37.03452301025391,209.93865966796875
1836.207,11.758575439453123,190.31141662597656,75.95389556884766,-0.6532567739486694,-0.3454725444316864,0.6465396285057068,-32.007022857666016,37.602684020996094,-76.90213012695312,6.919528484344482,-8.002303123474121,-17.21941566467285,-1.0974514484405518,-0.3203287720680237,-0.0809839144349098,-131.297607421875,70.42102813720703,135.11553955078125,205.2454473225527,0.9818906165628756,20.209527593647486,1.1461102033818884,-99.29058456420898,32.81834411621094,212.0176696777344
1858.254,-16.120929718017578,195.18299865722656,76.62650299072266,-0.818371057510376,-0.3178896903991699,0.9405335783958436,-32.9631462097168,41.71870803833008,-77.90386962890625,-0.2212508618831634,-16.885555267333984,-15.021446228027344,-1.0474592447280884,-0.3410332500934601,-0.093262530863285,-129.80035400390625,70.43742370605469,136.75997924804688,210.30432306633023,1.286619001539625,22.601211812900463,1.1055190847283782,-96.83720779418944,28.71871566772461,214.66384887695312
1880.909,-2.787522077560425,186.8099822998047,74.50250244140625,-0.9507401585578918,-0.4522664248943329,0.6780021786689758,-33.804840087890625,45.71775436401367,-79.05152130126953,6.778397083282471,-13.651220321655272,2.246116876602173,-0.9278349876403807,-0.2341598123311996,-0.1367795765399933,-129.07264709472656,70.68080139160156,137.46035766601562,201.13767085311983,1.252253457755763,15.406087248629465,0.9666525924855672,-95.26780700683594,24.96304702758789,216.5118789672852
1891.081,17.848506927490234,185.86866760253903,68.54420471191406,-0.977317988872528,-0.3817320466041565,0.4220121502876282,-34.50992202758789,49.58317184448242,-80.47752380371094,27.23778533935547,-32.625328063964844,19.190017700195312,-0.9187365770339966,-0.1661096513271331,-0.1578885912895202,-127.77191925048828,71.4399185180664,138.33692932128906,198.90711097261607,1.1309129328860064,46.6322395002422,0.9468886531707704,-93.2619972229004,21.856746673583984,218.814453125
1913.453,15.228678703308104,194.1437530517578,58.78382110595703,-0.9795122146606444,-0.3039256632328033,0.4179874658584595,-35.792240142822266,53.468788146972656,-82.52188873291016,40.46430969238281,-51.24264144897461,17.837966918945312,-1.0359936952590942,-0.2407977133989334,-0.1336610317230224,-125.02848815917967,72.37207794189453,140.4497528076172,203.4188957001971,1.1074874758008222,67.68575718236904,1.071975627892729,-89.23624801635742,18.903289794921875,222.9716415405273
1941.479,-10.785009384155272,200.3762359619141,58.32648086547852,-1.206672191619873,-0.3169500827789306,0.6891946792602539,-38.03263473510742,57.40848159790039,-85.0239486694336,33.52949905395508,-64.10824584960938,10.612027168273926,-1.086741328239441,-0.2757347524166107,-0.1774172037839889,-121.2619400024414,73.25794219970703,143.74371337890625,208.9711241675079,1.4253085416578837,73.1211981120613,1.1351269675205515,-83.22930526733398,15.84946060180664,228.76766204833984
1961.015,6.231139183044434,184.5491943359375,61.08221054077149,-1.269465088844299,-0.404868483543396,0.4916002154350281,-40.24033737182617,61.08684539794922,-87.73617553710938,27.45443344116211,-73.77702331542969,18.345094680786133,-0.9524279236793518,-0.3129210174083709,-0.2414078414440155,-116.90542602539062,74.28501892089844,147.78414916992188,194.49490654027224,1.4202573261831677,80.8290639789158,1.0311722740894027,-76.66508865356445,13.19817352294922,235.52032470703125
1970.825,24.147912979125977,167.820068359375,57.81123352050781,-1.2347989082336426,-0.2961459159851074,0.3340456187725067,-42.37910842895508,64.40797424316406,-90.68286895751952,52.5898323059082,-54.52304458618164,24.07608795166016,-0.8218936324119568,-0.2491916418075561,-0.3726275265216827,-112.98692321777344,75.18582153320312,150.83900451660156,179.1335696248903,1.313018363447656,79.486545175686,0.9361927637339084,-70.60781478881836,10.777847290039062,241.5218734741211
1990.806,13.646966934204102,148.08560180664062,55.52428436279297,-1.207415223121643,-0.2068012654781341,0.170305922627449,-44.86320877075195,67.3226318359375,-93.70301055908205,63.36742782592773,-34.904930114746094,22.26053810119629,-0.7683999538421631,-0.17508365213871,-0.4408822953701019,-109.83943939208984,75.85830688476562,152.8202667236328,158.74045269854335,1.236779039162304,75.692249353182,0.9030337605436892,-64.97623062133789,8.535675048828125,246.52327728271484
2013.439,-7.143294334411621,128.15830993652344,48.15729522705078,-1.2515323162078855,-0.1928436607122421,0.2053955942392349,-48.02430725097656,69.82485961914062,-96.94750213623048,32.69961166381836,-12.864925384521484,15.313277244567873,-0.8503541946411133,-0.1156174167990684,-0.4837867319583893,-108.61488342285156,76.23408508300781,153.46791076660156,137.0937786455657,1.282851965786568,38.3310235720732,0.9851493518396104,-60.590576171875,6.409225463867188,250.41541290283203
2030.943,-3.3803040981292725,100.82220458984376,42.75312423706055,-1.2822306156158447,-0.2755762934684753,0.2300647348165512,-50.90476989746094,71.82559967041016,-99.92423248291016,6.236973285675049,-0.1526550650596618,11.61209201812744,-0.9343055486679076,-0.1657367497682571,-0.428875207901001,-108.78245544433594,76.45634460449219,153.2186279296875,109.56446972527944,1.3315357401702073,13.181950552652353,1.0413114195318869,-57.877685546875,4.630744934082031,253.14286041259768
2053.442,7.302434921264648,77.62146759033203,36.268043518066406,-1.1751446723937988,-0.299765944480896,0.2823922336101532,-53.1756477355957,73.33882904052734,-102.46206665039062,11.16129207611084,18.642396926879883,17.144620895385742,-0.9298293590545654,-0.2869775295257568,-0.3383664786815643,-110.5011749267578,76.65553283691406,151.25173950195312,85.98714303478532,1.245218854711646,27.67763410470795,1.0302575470764057,-57.32552719116211,3.3167037963867188,253.7138061523437
2076.068,14.036155700683594,59.53810501098633,34.44888687133789,-1.0687235593795776,-0.3367540240287781,0.2539906501770019,-54.81697082519531,74.5459976196289,-104.4626693725586,20.139131546020508,25.816347122192383,26.822084426879883,-0.957448422908783,-0.301981657743454,-0.2064797282218933,-113.09209442138672,76.91354370117188,148.21319580078125,70.20345733528588,1.14894933284713,42.3260275854482,1.024955746513276,-58.275123596191406,2.3675460815429688,252.67586517333984
2101.752,16.478116989135742,48.04894256591797,30.4836540222168,-1.0307766199111938,-0.4194195568561554,0.2967561185359955,-56.14739990234375,75.55296325683594,-106.1805419921875,27.469444274902344,34.801509857177734,26.588014602661133,-0.9441090822219848,-0.3192560970783233,-0.1572146713733673,-116.24642181396484,77.0322036743164,144.43212890625,59.24088439377608,1.151728005528002,51.69756258879645,1.008951370260608,-60.09902191162109,1.4792404174804688,250.6126708984375
2110.753,53.38642120361328,39.10361099243164,16.145254135131836,-1.066428542137146,-0.555598258972168,0.4704923331737518,-56.96715545654297,76.25540161132812,-108.12538146972656,42.56044387817383,43.48638153076172,27.33018112182617,-0.9902033805847168,-0.3188543319702148,-0.101488821208477,-119.6858367919922,77.0538558959961,140.03976440429688,68.11660291489163,1.291248348085272,66.70378971166467,1.0452132800380312,-62.71868133544922,0.7984542846679688,248.16514587402344
2133.076,50.5579719543457,17.59535026550293,11.544642448425291,-1.0882614850997925,-0.310274988412857,0.6201491355895996,-56.6511344909668,76.64263153076172,-108.8399658203125,42.83878326416016,50.04024887084961,28.51089096069336,-1.0406734943389893,-0.1929679214954376,-0.106589026749134,-123.78569793701172,77.02459716796875,134.98666381835938,54.76297698595397,1.290414111345165,71.77784311319755,1.063766497483973,-67.13456344604492,0.3819656372070312,243.82662963867188
2156.188,7.104619026184082,-6.852043151855469,1.9136285781860352,-1.039063811302185,-0.4654424786567688,0.5344282388687134,-55.94361877441406,76.59800720214844,-108.2591552734375,26.366817474365234,38.220497131347656,16.551040649414062,-1.004181742668152,-0.1830534487962722,-0.1332705467939376,-126.76814270019533,76.85610961914062,131.43191528320312,10.054256869473576,1.2577375908337534,49.29454748014635,1.0293933048485455,-70.82452392578125,0.2581024169921875,239.69107055664065
2178.7670000000003,6.035121917724609,-36.22104644775391,-1.6566028594970703,-1.1023037433624268,-0.517545223236084,0.4592559933662414,-53.47245788574219,76.1503677368164,-105.8421630859375,13.56705379486084,37.72975540161133,11.261106491088867,-0.887436032295227,-0.2166972756385803,-0.3154040575027466,-129.63526916503906,76.54290771484375,128.2522735595703,36.757737081684446,1.3014771101206968,41.64627127056768,0.96642647944594,-76.16281127929688,0.3925399780273437,234.0944366455078
2200.199,16.1968994140625,-66.19209289550781,-12.939258575439451,-1.1016974449157717,-0.3807574808597564,0.4331252574920654,-49.73830032348633,75.12088775634766,-102.32395935058594,17.60906219482422,37.23933410644531,15.291647911071776,-0.8846206665039062,-0.1578593403100967,-0.3368748426437378,-132.46316528320312,76.27769470214844,125.05406188964844,69.36250518110543,1.243507542414671,43.93952175330126,0.959665543059246,-82.7248649597168,1.1568069458007812,227.3780212402344
2211.558,23.762075424194336,-91.95501708984376,-26.638845443725582,-1.1974453926086426,-0.3570100367069244,0.5383935570716858,-45.70814895629883,73.48384094238281,-98.63263702392578,9.442737579345703,48.57544708251953,12.63223361968994,-0.9714504480361938,-0.1437811106443405,-0.297168493270874,-135.97972106933594,75.7494125366211,121.31177520751952,98.64070905581151,1.3605878350497804,51.07164260606337,1.0260107670783594,-90.27157211303712,2.265571594238281,219.9444122314453
2233.137,28.15996551513672,-118.83441162109376,-34.351593017578125,-1.1943409442901611,-0.3709665834903717,0.5500447154045105,-41.55643081665039,71.28347778320312,-94.86872863769533,5.5062031745910645,44.84360885620117,5.300027847290039,-0.9830284714698792,-0.2024302184581756,-0.2617256641387939,-138.5647430419922,75.12014770507812,118.58114624023438,126.86462464371442,1.3662414450670357,45.49019480975972,1.0372190184981784,-97.0083122253418,3.836669921875,213.4498748779297
2255.7,23.936443328857425,-140.9390106201172,-43.789588928222656,-1.1787272691726685,-0.3432590067386627,0.6110325455665588,-37.99451446533203,68.55122375488281,-91.58656311035156,14.664349555969238,49.57379913330078,8.031968116760254,-0.9644960165023804,-0.2500099539756775,-0.2527220845222473,-141.0044403076172,74.41465759277344,115.783203125,149.51349816092133,1.3713444106204753,52.31746572835081,1.0279231464176446,-103.00992584228516,5.863433837890625,207.3697662353516
2278.735,8.98342227935791,-161.4558563232422,-51.28629684448242,-1.1814355850219729,-0.3403998017311096,0.708562433719635,-35.231082916259766,65.34295654296875,-88.79539489746094,21.01355743408203,51.08758544921875,1.2122725248336792,-0.9963642954826356,-0.1995688825845718,-0.2039087861776352,-142.7841339111328,73.62369537353516,113.51727294921876,169.6436844121851,1.419057006978043,55.2537834699232,1.0364112799893197,-107.55305099487305,8.280738830566406,202.3126678466797
2300.62,4.362865447998047,-180.676986694336,-55.243934631347656,-1.1736931800842283,-0.337134838104248,0.7267629504203796,-32.87613296508789,61.69441223144531,-86.25884246826172,16.430339813232422,50.23699188232422,-3.656586170196533,-0.9805475473403932,-0.1107137128710746,-0.2084109187126159,-144.30467224121094,72.80360412597656,111.63612365722656,188.9843920259427,1.4210559335028097,52.981902968684246,1.0085465432252474,-111.42853927612305,11.10919189453125,197.89496612548828
2314.096,6.106260776519775,-196.6576538085937,-62.04911804199219,-1.1917970180511477,-0.3700740337371826,0.7460974454879761,-30.939239501953125,57.65074920654297,-84.16374206542969,10.943382263183594,48.03887176513672,-6.100758075714111,-0.9839271306991576,-0.0635072737932205,-0.2109836786985397,-145.63702392578125,72.00029754638672,110.10781860351562,206.30465887119624,1.4539588442751052,49.64584640152489,1.0082955345669706,-114.69778442382812,14.34954833984375,194.2715606689453
2338.937,3.970975399017334,-210.92349243164065,-69.69548034667969,-1.2068519592285156,-0.4033371806144714,0.779157817363739,-29.49637794494629,53.28620910644531,-82.52063751220703,1.5988686084747314,38.826419830322266,-10.67660140991211,-1.0303891897201538,-0.1440145969390869,-0.1679789870977401,-146.33680725097656,71.29839324951172,109.36092376708984,222.17548984065365,1.492065493575521,40.29934336107407,1.0538780890264612,-116.84042930603027,18.012184143066406,191.88156127929688
2361.461,3.2784035205841064,-223.621826171875,-76.19667053222656,-1.1463216543197632,-0.4125350415706634,0.8362436294555664,-28.380565643310547,48.631622314453125,-81.18302154541016,-7.071845054626465,15.911961555480955,-12.830556869506836,-1.0817642211914062,-0.1964157074689865,-0.1692352890968322,-146.26060485839844,70.94940948486328,109.5778350830078,236.2697646130049,1.477681259098567,21.62925571075893,1.1123999026726317,-117.88003921508788,22.31778717041016,190.760856628418
2371.162,0.4385481476783752,-232.6392059326172,-80.91197204589844,-1.0994739532470703,-0.4344697296619415,0.8655275702476501,-27.573354721069336,43.78571701049805,-80.08609771728516,-16.963394165039062,-21.953088760375977,-14.344823837280272,-1.1040595769882202,-0.2131239622831344,-0.1440163701772689,-145.04104614257812,71.21790313720703,111.2110366821289,246.30862689275168,1.4651774277267795,31.232496196142115,1.1336269614461836,-117.4676914215088,27.432186126708984,191.2971343994141
2398.635,-0.8702452182769775,-240.9215240478516,-86.91243743896484,-1.0460176467895508,-0.4479594826698303,0.8710496425628662,-27.0064697265625,38.76094055175781,-79.20234680175781,-28.06428909301757,-54.88128280639648,-20.375560760498047,-1.1299604177474976,-0.1974342614412307,-0.1349057853221893,-142.5686798095703,71.92435455322266,114.40154266357422,256.120498706881,1.4330206192926425,64.92089803042533,1.1549850233575931,-115.5622100830078,33.163414001464844,193.60388946533203
2420.3990000000003,-4.451729774475098,-245.67803955078125,-93.36063385009766,-0.9180225133895874,-0.398971825838089,0.8831306099891663,-26.669198989868164,33.60486602783203,-78.50611114501953,-39.39458465576172,-78.75579833984375,-22.54216957092285,-1.1548411846160889,-0.1810660809278488,-0.0439525544643402,-139.13211059570312,72.86371612548828,118.83946228027344,262.85685261828763,1.3348646100644628,90.89861649832936,1.1697755829183658,-112.46291160583496,39.25885009765625,197.34557342529297
2440.515,-6.079525470733643,-248.7401428222656,-95.54624938964844,-0.8025943040847778,-0.4244428277015686,0.857587456703186,-26.476083755493164,28.364049911499023,-77.9024429321289,-50.01276016235352,-96.02313232421876,-17.089405059814453,-1.0512062311172483,-0.2054948508739471,-0.0846439898014068,-134.73487854003906,74.08489990234375,124.53614044189452,266.5289947709616,1.2489057517808424,109.6073258761016,1.0744427760867197,-108.2587947845459,45.72084999084473,202.43858337402344
2450.633,-14.447064399719238,-251.0198974609375,-99.67218017578124,-0.7425209283828735,-0.4033926725387573,0.9182265996932985,-26.5323543548584,23.022537231445312,-77.3919448852539,-50.56385803222656,-82.60704040527344,-41.78258895874024,-1.0519742965698242,-0.2029991298913955,-0.0388253033161163,-129.2272491455078,74.61117553710938,131.29678344726562,270.4704236918754,1.2478794275605485,105.48180697976632,1.0720848714340805,-102.6948947906494,51.58863830566406,208.6887283325196
2472.824,-19.97128868103028,-251.08604431152344,-101.17933654785156,-0.6050090193748474,-0.3674834966659546,0.798990786075592,-26.76710319519043,17.632137298583984,-76.9212417602539,-54.08441925048828,-67.27391815185547,-34.72303771972656,-1.1456512212753296,-0.1897958070039749,-0.0270629562437534,-124.66837310791016,74.93415832519531,137.15476989746094,271.44117624975905,1.0674578727427344,93.04081801903232,1.1615814963947195,-97.90126991271973,57.30202102661133,214.07601165771484
2498.663,-28.65789794921875,-244.97760009765625,-109.14239501953124,-0.4294793605804443,-0.3718870878219604,0.7820908427238464,-27.266143798828125,12.302124977111816,-76.6317138671875,-60.17984008789063,-74.23225402832031,-39.965118408203125,-1.0826129913330078,-0.2138285189867019,-0.0274200327694416,-119.42076873779295,75.09171295166016,143.87985229492188,269.7171890241229,0.966653305754334,103.58209971086151,1.1038683720136775,-92.15462493896484,62.78958797454834,220.51156616210932
2510.456,-25.730573654174805,-238.0412139892578,-113.49069213867188,-0.3374692797660827,-0.454230934381485,0.8590041995048523,-27.75447654724121,7.112010955810547,-76.44379425048828,-63.60350799560547,-75.33380126953125,-40.48330307006836,-1.0755021572113037,-0.2924702167510986,0.051235593855381,-114.1673583984375,75.05010986328125,150.68145751953125,264.9638073023698,1.0286396216857912,106.5808879233387,1.1157368883075955,-86.41288185119629,67.9380989074707,227.1252517700196
2532.733,-13.016469955444336,-237.72390747070312,-106.53375244140624,-0.3435022234916687,-0.4146771430969238,0.7531564235687256,-27.989749908447266,1.9158869981765747,-76.10169219970703,-57.139896392822266,-63.192649841308594,-46.62818145751953,-0.9744017720222472,-0.3293227851390838,-0.0337550193071365,-109.51927947998048,74.62319946289062,156.7020721435547,260.8285357902529,0.9258485345420062,97.1208837469268,1.029102381427759,-81.5295295715332,72.70731246471405,232.8037643432617
2555.447,-13.92255401611328,-235.62353515625,-98.10848236083984,-0.2706323564052582,-0.3454467952251434,0.7565828561782837,-28.273311614990234,-3.162764072418213,-75.61353302001953,-36.59262466430664,-64.33271026611328,-40.67867660522461,-1.0076903104782104,-0.2977297902107239,-0.0143435839563608,-104.87315368652344,74.21039581298828,162.30850219726562,255.6121322257756,0.8746387705376857,84.45396687165706,1.0508513349714634,-76.5998420715332,77.3731598854065,237.9220352172852
2578.658,-22.289283752441406,-229.19688415527344,-101.5063247680664,-0.1555242091417312,-0.3721218705177307,0.618121862411499,-28.758813858032227,-8.15726089477539,-75.20677947998047,-18.90347480773925,-59.937408447265625,-54.81429290771485,-1.013761043548584,-0.317104309797287,-0.0581896230578422,-100.38206481933594,73.38451385498047,167.4017791748047,251.6576202792255,0.7380630751757168,83.39329108599767,1.0637916285346212,-71.62325096130371,81.54177474975586,242.6085586547852
2600.389,-15.87006378173828,-221.31222534179688,-99.10833740234376,-0.0981138721108436,-0.2980239987373352,0.695080041885376,-29.152708053588867,-12.987356185913086,-74.79222106933594,-7.810672760009766,-51.10102462768555,-43.318016052246094,-0.9270369410514832,-0.2722235023975372,-0.119232028722763,-96.9639892578125,72.67733001708984,171.17185974121094,243.0090997325646,0.7626145162212362,67.44458348648863,0.9735088094131552,-67.81128120422363,85.66468620300293,245.96408081054688
2610.542,-10.842187881469728,-215.6626892089844,-95.5360336303711,-0.0346616543829441,-0.3396294713020324,0.6972269415855408,-29.49180221557617,-17.68143081665039,-74.3305435180664,10.119919776916504,-39.68733215332031,-22.18381118774414,-0.9376460313796996,-0.238990843296051,-0.053988292813301,-94.18273162841795,72.34173583984375,173.9100341796875,236.1251411364988,0.7763214644296446,46.57916474726313,0.9691292169274194,-64.6909294128418,90.02316665649414,248.2405776977539
2632.879,-4.677546501159668,-211.51010131835932,-92.2935562133789,0.0063597089610993,-0.3709390163421631,0.7438199520111084,-29.76309394836425,-22.268836975097656,-73.81280517578125,9.60555648803711,-34.01472091674805,-19.2393856048584,-1.0657997131347656,-0.3189982771873474,0.0244387909770011,-91.75324249267578,72.00322723388672,176.24732971191406,230.81703342579652,0.8312065451816227,40.24204161000733,1.1127830803310508,-61.99014854431152,94.27206420898438,250.0601348876953
2655.426,13.03449249267578,-210.9945678710937,-86.85646057128906,-0.0490900948643684,-0.4033513367176056,0.6985518932342529,-29.772998809814453,-26.79205703735352,-73.1656494140625,4.543215274810791,6.272979736328125,-28.648212432861328,-1.0559110641479492,-0.3000094890594482,-0.1028864979743957,-92.03063201904295,71.43244934082031,175.86289978027344,228.5446354842377,0.8081317255168435,29.676778049579568,1.1025150794348353,-62.25763320922852,98.22450637817384,249.028549194336
2679.056,28.10161018371582,-211.76806640625,-74.67813873291016,0.0374925434589386,-0.2488678842782974,0.4541148245334625,-29.657485961914062,-31.208967208862305,-72.24893188476562,25.66537475585937,38.02458190917969,-21.37433624267578,-0.7589213848114014,-0.0620969459414482,-0.1852533668279647,-93.67806243896484,70.96636199951172,173.57398986816406,226.30121265466343,0.5191928240078381,50.61069591046523,0.7836686218934676,-64.02057647705078,102.17532920837402,245.8229217529297
2700.298,14.788142204284668,-201.9068603515625,-76.98229217529297,0.2425135672092437,-0.1173625141382217,0.5852339863777161,-29.79510307312012,-35.477962493896484,-71.45928955078125,24.97816467285156,24.51984214782715,13.5939302444458,-0.7482544779777527,-0.1811563372611999,-0.1403033584356308,-94.74270629882812,71.21895599365234,171.9221954345703,216.590264590636,0.6442713782381998,37.548985457257146,0.7825518607299902,-64.94760322570801,106.69691848754884,243.3814849853516
2710.472,-3.576521873474121,-194.1765899658203,-83.00381469726562,0.3293564915657043,-0.2319239675998687,0.5789172649383545,-30.240800857543945,-39.65023422241211,-70.83267974853516,29.311336517333984,40.64147567749024,33.9620361328125,-0.956984519958496,-0.1926126331090927,-0.1612979173660278,-96.83464050292967,71.84187316894531,169.10377502441406,211.2036288839843,0.7052727308831951,60.53349396790911,0.9894119546579316,-66.59383964538574,111.49210739135742,239.9364547729492
2735.098,12.468728065490724,-189.91897583007807,-77.15554809570312,0.3546922206878662,-0.2966808676719665,0.4620753228664398,-30.53969955444336,-43.6508674621582,-70.02790069580078,20.762523651123047,60.91372680664063,41.60758209228516,-0.9149922728538512,-0.1917056441307068,-0.1201608628034591,-100.6797866821289,72.52960205078125,164.65008544921875,205.37201650143408,0.6537122552478312,76.63390495990492,0.9425500232473064,-70.14008712768555,116.18046951293944,234.6779861450196
2755.29,30.230154037475582,-184.656982421875,-70.5564956665039,0.4385184943675995,-0.20064777135849,0.3821330666542053,-30.584369659423828,-47.54821014404297,-69.05400085449219,19.13689613342285,78.0673828125,39.79834747314453,-0.9110608100891112,-0.2162628173828125,-0.1509104371070861,-105.97561645507812,72.96852111816406,158.72708129882812,199.97570465188892,0.6152915395843686,89.6919478794389,0.948459469819576,-75.3912467956543,120.51673126220705,227.7810821533203
2778.605,28.40773582458496,-171.5041046142578,-65.45578002929688,0.5993137359619141,-0.1745624840259552,0.2834041118621826,-30.73454475402832,-51.192718505859375,-68.10680389404297,23.08134078979492,81.13021850585938,24.48090171813965,-0.9332017302513124,-0.217766985297203,-0.1546788215637207,-111.18657684326172,72.93364715576172,152.8212890625,185.75552883685964,0.6855413230158567,87.8303774123529,0.97067680876274,-80.4520320892334,124.1263656616211,220.92809295654297
2800.096,14.417468070983888,-154.5826873779297,-58.66691589355469,0.6686441898345947,-0.1320451498031616,0.2556252777576446,-31.214717864990234,-54.44754409790039,-67.15140533447266,17.16757583618164,60.29268646240234,13.682538032531738,-0.8664152026176453,-0.2547966539859772,-0.1229389533400535,-114.80326080322266,72.70559692382812,148.6943817138672,165.96830312750083,0.7279184410459553,64.16498693178609,0.9114332803106177,-83.58854293823242,127.15314102172852,215.84578704833984
2810.082,5.577597141265869,-144.7971954345703,-53.39564514160156,0.6970462203025818,-0.224603533744812,0.1094100922346115,-32.002777099609375,-57.473777770996094,-66.0420150756836,17.75373649597168,44.62923431396485,11.427190780639648,-0.9515470862388612,-0.2959747612476349,-0.1106524616479873,-117.26458740234376,72.50920867919922,145.75344848632812,154.42937646599253,0.7404665751345961,49.37149384165229,1.0026399572598432,-85.26181030273438,129.9829864501953,211.7954635620117
2838.843,7.92468786239624,-128.20089721679688,-46.58993911743164,0.8343249559402466,-0.191588670015335,0.0434880442917346,-32.81532287597656,-60.13834381103516,-64.84280395507812,14.68471622467041,14.619693756103516,-3.524387121200561,-0.9519261121749878,-0.2833032310009002,-0.1217527836561203,-117.64292907714844,72.30748748779297,145.093994140625,136.6341580713773,0.8571438389087676,21.01898286552979,1.0006236975327694,-84.82760620117188,132.44583129882812,209.93679809570312
2860.144,4.4333367347717285,-106.71931457519533,-39.627437591552734,0.9028573036193848,-0.167864590883255,0.0349557101726532,-33.64796829223633,-62.35898208618164,-63.79482269287109,6.375443935394287,-11.258338928222656,-13.54157543182373,-0.9121925830841064,-0.3228631913661957,-0.1369864344596862,-116.46146392822266,72.13406372070312,146.24761962890625,113.92541590038536,0.9189949582260738,18.72887465844816,0.9772928078108408,-82.81349563598633,134.49304580688477,210.0424423217773
2880.301,1.1100624799728394,-87.40263366699219,-34.94854736328125,0.9348490238189696,-0.2032599747180938,0.0255788937211036,-34.41718292236328,-64.19976043701172,-62.98441696166992,-2.404052972793579,-18.30142593383789,-14.208191871643066,-0.8973513841629028,-0.3282507658004761,-0.1448406279087066,-115.0814437866211,71.99623107910156,147.79893493652344,94.13741856158684,0.957032702921732,23.29365532004747,0.966419618696074,-80.66426086425781,136.19599151611328,210.78335189819336
2891.231,-0.2735393941402435,-64.6556167602539,-26.54922866821289,0.943988561630249,-0.2083359509706497,0.0069776698946952,-35.06194305419922,-65.56591796875,-62.3166618347168,-3.010675430297852,-24.443798065185547,-15.198769569396973,-0.9104065895080566,-0.3515228927135467,-0.1738748103380203,-113.40087890625,71.88070678710938,149.68539428710938,69.89481486724198,0.9667300351353272,28.94073300422426,0.9912824784043514,-78.33893585205078,137.44662475585938,212.00205612182617
2910.589,-5.701798915863037,-44.57378387451172,-18.963769912719727,0.9646058082580566,-0.2039166986942291,0.0274196024984121,-35.63970184326172,-66.51322937011719,-61.81116485595703,0.2062150985002517,-21.157588958740234,-15.646384239196776,-0.859372079372406,-0.3610680699348449,-0.1333847641944885,-111.84983825683594,71.70699310302734,151.36569213867188,48.77455575472924,0.9863053380838526,26.315307996951915,0.941637943824773,-76.21013641357422,138.22022247314453,213.1768569946289
2932.471,0.569063663482666,-24.274599075317383,-9.232328414916992,0.9445735216140748,-0.245586022734642,0.0551622845232486,-35.940555572509766,-67.01541137695312,-61.47238159179688,-4.906782150268555,-25.59527969360352,-10.662308692932127,-0.8751892447471619,-0.3243973553180694,-0.1548667252063751,-110.33111572265624,71.6523666381836,153.11158752441406,25.977218513177647,0.9775349149421,28.15811926118935,0.9461361217259452,-74.39056015014648,138.66777801513672,214.5839691162109
2955.008,5.048463344573975,-7.593473434448242,-1.1385146379470823,0.9152124524116516,-0.1985944062471389,0.1285261064767837,-36.03956985473633,-67.17124938964844,-61.26105499267578,-8.889376640319824,-23.684194564819336,-7.496336936950684,-0.8704009056091309,-0.3098783195018768,-0.1621022671461105,-109.10871124267578,71.63768005371094,154.6352081298828,9.189343639346502,0.9452896547027716,26.384790253287456,0.9380295594470418,-73.06914138793945,138.80892944335938,215.8962631225586
2970.027,-5.311390399932861,7.329412937164307,5.509113311767578,0.8859507441520691,-0.2091218829154968,0.1565977782011032,-36.27400588989258,-67.05896759033203,-61.141746520996094,-7.304732322692871,-16.80260467529297,-5.47838020324707,-0.8679964542388916,-0.2933970689773559,-0.180976390838623,-108.34355926513672,71.61412048339844,155.64260864257812,10.596296120148075,0.9236685266453816,19.123265616303627,0.9339443980755844,-72.06955337524414,138.67308807373047,216.78435516357425
2992.59,-7.643433094024658,20.876956939697266,10.945691108703612,0.8527329564094543,-0.230138897895813,0.1956330388784408,-36.37318801879883,-66.63348388671875,-61.21805191040039,-8.16851806640625,-11.857919692993164,-2.6228013038635254,-0.8567793369293213,-0.2853862047195434,-0.1749609261751175,-107.93476104736328,71.61421966552734,156.2916259765625,24.780588257181435,0.9046489336600808,14.636052525398664,0.9198518596607432,-71.56157302856445,138.2477035522461,217.5096778869629
3015.16,-2.7089061737060547,30.39661407470703,15.721033096313477,0.8298949003219604,-0.234314277768135,0.1994245648384094,-36.297664642333984,-65.99510192871094,-61.3784408569336,-12.239623069763184,-7.018699645996094,1.2220032215118408,-0.84645676612854,-0.2819484770298004,-0.166497990489006,-107.94457244873048,71.6580810546875,156.57882690429688,34.32846051718609,0.8850982337613088,14.162055270474344,0.9075822725577484,-71.64690780639648,137.65318298339844,217.95726776123047
3038.897,-5.7124223709106445,41.25347518920898,21.3659896850586,0.8221139907836914,-0.1901413202285766,0.2253913730382919,-36.13101196289063,-65.12335968017578,-61.69132232666016,-13.24781608581543,-1.1202741861343384,2.658195972442627,-0.8412891030311584,-0.2762854397296905,-0.1669905483722686,-108.34310150146484,71.69447326660156,156.46896362304688,46.8079747452546,0.8733993396726609,13.558231858307307,0.9011031252477546,-72.21208953857422,136.81783294677734,218.16028594970703
3050.099,-8.869743347167969,51.362770080566406,26.430551528930664,0.7951779961585999,-0.2076610028743744,0.2639963626861572,-35.95635223388672,-64.00607299804688,-62.08306121826172,-13.665825843811035,7.311579704284668,4.468129634857178,-0.8348212838172913,-0.2422470152378082,-0.1914443224668502,-109.3335189819336,71.72330474853516,155.7467803955078,58.44125727187273,0.8632063584109644,16.13003955975837,0.8900905127630384,-73.37716674804688,135.72937774658203,217.8298416137696
3072.374,-4.792092800140381,62.92088317871094,31.35819625854492,0.8086920976638794,-0.2238394916057586,0.2387749850749969,-35.660484313964844,-62.66514587402344,-62.53307723999024,-15.176618576049805,7.849542140960693,6.876960277557373,-0.8966665863990784,-0.2550278604030609,-0.1611785441637039,-110.3539810180664,71.80104064941406,155.02015686035156,70.46515568693201,0.8724107520680239,18.41840508525968,0.9460595646390718,-74.69349670410156,134.4661865234375,217.5532341003418
3094.918,-1.455341935157776,74.4760971069336,35.93489074707031,0.802598774433136,-0.2033340781927108,0.2487899959087371,-35.18779373168945,-61.08555603027344,-63.1040267944336,-19.40934181213379,7.753871917724609,6.883412837982178,-0.9069682955741882,-0.2478965520858764,-0.1503774523735046,-111.43462371826172,71.88186645507812,154.31272888183594,82.7050387427121,0.8645264612146472,22.005146025301016,0.9521856793163608,-76.24682998657227,132.96742248535156,217.4167556762696
3117.629,-0.4296915829181671,87.90503692626953,40.81829071044922,0.7885218262672424,-0.2158285677433014,0.2244460731744766,-34.649139404296875,-59.23789978027344,-63.74369430541992,-18.86480712890625,6.862127780914307,7.148386478424072,-0.8238246440887451,-0.2535317540168762,-0.1610920578241348,-112.4798583984375,71.94757080078125,153.63043212890625,96.9206531570438,0.8477763153788827,21.308898961169817,0.8768785808747046,-77.83071899414062,131.1854705810547,217.37412643432617
3139.942,-7.106276988983154,100.35389709472656,44.06032943725586,0.7477408051490784,-0.2057994753122329,0.2798874974250793,-34.152099609375,-57.15126419067383,-64.49837493896484,-12.15394401550293,5.152157306671143,10.163012504577637,-0.8680535554885864,-0.2742313146591186,-0.1500561833381652,-113.3231964111328,72.07868957519531,153.01388549804688,109.83039863745664,0.8245039399170001,16.65982902711987,0.9226248681311716,-79.17109680175781,129.22995376586914,217.5122604370117
3149.994,-11.70710277557373,109.86322021484376,48.21969604492188,0.6999766826629639,-0.2700960040092468,0.312367707490921,-33.79781723022461,-54.81702423095703,-65.22267150878906,-8.702977180480957,8.641509056091309,13.620919227600098,-0.9489123821258544,-0.2958828806877136,-0.1578613519668579,-114.37630462646484,72.24334716796875,152.09979248046875,120.54925341136608,0.8127070765883266,18.32885515178966,1.006430123993031,-80.57848739624023,127.06037139892578,217.3224639892578
3172.303,-6.83143424987793,120.90865325927734,55.51435089111328,0.7178572416305542,-0.3139537572860718,0.254686027765274,-33.37654113769531,-52.18843460083008,-65.91421508789062,-6.517379283905029,7.304337978363037,11.719244003295898,-0.9679036140441896,-0.2674047946929931,-0.1244197562336921,-115.23141479492188,72.4032974243164,151.34207153320312,133.21942081297385,0.8238634315311752,15.26991375356187,1.0118413937203086,-81.85487365722656,124.59173202514648,217.2562866210937
3192.326,-7.572912216186523,133.41415405273438,57.16982269287109,0.710053563117981,-0.2611328363418579,0.3358025848865509,-32.940406799316406,-49.37351989746094,-66.72643280029297,-4.070449352264404,6.125706672668457,6.061615467071533,-0.9258339405059814,-0.2699700891971588,-0.1327332705259323,-115.83386993408205,72.45623779296875,150.7967071533203,145.3446735445614,0.8277256772197981,9.530793368842144,0.9734836698981988,-82.89346313476562,121.82975769042967,217.52313995361328
3225.6200000000003,-21.80879783630371,144.99131774902344,59.943504333496094,0.6579464077949524,-0.2925605773925781,0.3808704316616058,-32.79376220703125,-46.34666061401367,-67.53553771972656,-2.467420816421509,3.215167284011841,-0.0079874098300933,-0.9647795557975768,-0.31495401263237,-0.1165637895464897,-116.00482940673828,72.41275024414062,150.67344665527344,158.40242926622972,0.8145842207461782,4.052842206181491,1.021558974504967,-83.21106719970703,118.7594108581543,218.208984375
3237.33,-29.59873962402344,149.9338836669922,62.93182373046875,0.6194944381713867,-0.3213860094547272,0.4229680597782135,-32.862361907958984,-43.19048690795898,-68.30459594726562,-5.081055641174316,-2.5655717849731445,-5.528670787811279,-0.952234387397766,-0.3606746196746826,-0.1434674561023712,-115.75916290283205,72.29033660888672,151.0482635498047,165.2775523077489,0.816066361021616,7.9350794383268415,1.0283090103566932,-82.89680099487305,115.4808235168457,219.3528594970703
3257.441,-25.28517341613769,153.8335418701172,70.63470458984375,0.588517427444458,-0.3963155150413513,0.4321000576019287,-32.99900436401367,-39.86222457885742,-68.9229736328125,-6.025020122528076,-10.671996116638184,-3.936249017715454,-0.9363704919815063,-0.4095531105995178,-0.1061660051345825,-115.02838134765624,72.24909973144531,151.94390869140625,171.15303120740734,0.8307401577195631,12.871923901261791,1.0275186953538438,-82.02937698364258,112.11132431030272,220.86688232421875
3280.166,-28.334699630737305,156.00836181640625,77.15032958984375,0.5358176231384277,-0.3365458250045776,0.4138506948947906,-33.27140426635742,-36.4427604675293,-69.46466064453125,8.971954345703125,-0.6456796526908875,-7.451197624206543,-0.9294739961624146,-0.3028243482112884,-0.0936037823557853,-114.54021453857422,72.11013793945312,152.28550720214844,176.33388079329606,0.7560661447642177,11.680462877397517,0.9820316509578644,-81.2688102722168,108.55289840698242,221.7501678466797
3289.784,-38.87897491455078,161.163330078125,81.005615234375,0.5060529708862305,-0.3277453184127807,0.5437020659446716,-33.73214340209961,-32.89989471435547,-69.97064971923828,-2.452565670013428,-6.87806510925293,-11.561722755432127,-0.9889556169509888,-0.2538460493087768,-0.1107300296425819,-113.90729522705078,71.97867584228516,153.02908325195312,184.5185718343185,0.8118611578322855,13.674658719190326,1.0270015426050887,-80.17515182495117,104.87857055664062,222.9997329711914
3320.165,-41.91081237792969,163.992431640625,86.77703857421875,0.4258353114128113,-0.3583843410015106,0.6640297174453735,-34.276588439941406,-29.19635963439941,-70.48160552978516,-22.862422943115234,-12.67344093322754,-11.137514114379885,-1.039720892906189,-0.3064492046833038,-0.06863983720541,-113.28189086914062,71.89066314697266,154.18995666503906,190.21116753044373,0.8664355221086654,28.413917515293456,1.0861132894170191,-79.00530242919922,101.08702278137208,224.67156219482425
3329.69,-33.947052001953125,162.82382202148438,93.9750518798828,0.3364633917808532,-0.4593800008296966,0.5369964838027954,-34.82366943359375,-25.44080924987793,-70.82870483398438,-14.908857345581056,0.2381064146757125,-9.2855863571167,-0.896219789981842,-0.2403975427150726,-0.0680708214640617,-113.30775451660156,71.74613189697266,154.50167846679688,191.0374563616622,0.7826894804375065,17.565672091072052,0.9303948233053182,-78.48408508300781,97.1869411468506,225.33038330078125
3352.288,-35.84012222290039,157.197998046875,95.48714447021484,0.2329806387424469,-0.412149578332901,0.5661930441856384,-35.442237854003906,-21.75271797180176,-71.06385040283203,-7.394242286682129,11.626296997070312,-7.490735530853271,-0.8715798854827881,-0.2518250644207001,-0.0824776664376258,-113.8664093017578,71.53118133544922,154.09359741210938,187.3860179148205,0.738052719142086,15.683007353547724,0.9109719673566667,-78.4241714477539,93.28389930725098,225.1574478149414
3369.63,-40.69799423217773,161.95974731445312,98.10719299316406,0.1965722292661667,-0.4261211156845093,0.7566009163856506,-36.15333557128906,-17.961668014526367,-71.38522338867188,-15.882713317871094,-5.282840728759766,-5.724485397338867,-1.0201361179351809,-0.2845378816127777,-0.0717949792742729,-113.67801666259766,71.49546813964844,154.65359497070312,193.6809433105948,0.8903172430243546,17.69007409728599,1.0615055460229783,-77.5246810913086,89.4571361541748,226.038818359375
3392.443,-31.77806854248047,165.81631469726562,100.63441467285156,0.1199460923671722,-0.5326184630393982,0.7408256530761719,-36.711612701416016,-14.066009521484377,-71.75341796875,-13.660042762756348,18.09476089477539,9.163440704345703,-0.9819239377975464,-0.2141060829162597,-0.1050688549876213,-115.17749786376952,71.56233978271484,153.39215087890625,196.55070917353785,0.9202674287946636,24.45374788578398,1.010472908419614,-78.46588516235352,85.62834930419922,225.14556884765625
3409.8860000000004,-11.665263175964355,162.5836181640625,104.65525817871094,0.0269285272806882,-0.5198590159416199,0.5859479904174805,-36.88484191894531,-10.210575103759766,-71.99327850341797,3.9144821166992174,11.06120491027832,13.780851364135742,-0.985956847667694,-0.2353143990039825,-0.1179847419261932,-116.06658935546876,71.750244140625,152.38323974609375,193.70656758286444,0.7837815955427762,18.099317352583363,1.020492122051323,-79.18174743652344,81.96081924438477,224.3765182495117
3432.246,-13.866509437561035,163.69033813476562,106.75859832763672,0.0087873516604304,-0.4516381025314331,0.7801833152770996,-37.12406539916992,-6.312925338745117,-72.29251861572266,2.726972341537476,15.074228286743164,10.547587394714355,-0.9977041482925416,-0.3088560700416565,-0.0384493954479694,-116.93730926513672,71.82340240478516,151.39508056640625,195.91887402580068,0.9015210472552284,18.59893374474718,1.045123913960463,-79.8132438659668,78.13632774353027,223.6875991821289
3454.643,-16.61135482788086,161.96328735351562,110.17585754394533,-0.0811774730682373,-0.5296247601509094,0.8641562461853027,-37.43826675415039,-2.3909595012664795,-72.50079345703125,-9.5448637008667,21.40955352783203,1.559623122215271,-1.0038893222808838,-0.322741687297821,-0.1112686395645141,-118.23600769042967,71.6498031616211,150.2279052734375,196.5878000922717,1.0167881719019582,23.49267608452848,1.060347432806792,-80.7977409362793,74.04076266288757,222.72869873046875
3469.5550000000003,-2.549269914627075,162.65684509277344,115.66040802001952,-0.1364755034446716,-0.5905449390411377,0.7314727306365967,-37.480281829833984,1.6481674909591677,-72.63616943359375,3.727194786071777,15.641311645507812,6.803799152374268,-1.0505766868591309,-0.1795558482408523,-0.0596791356801986,-119.15248107910156,71.677978515625,149.19735717773438,199.6022996260051,0.9499585484285812,17.459504399354174,1.067479871868756,-81.67219924926758,70.02981102466583,221.83352661132807
3492.001,7.127949237823486,166.62460327148438,112.85633850097656,-0.1785259544849395,-0.499578982591629,0.6746656894683838,-37.34198760986328,5.692027568817139,-72.87846374511719,7.319666385650635,17.914138793945312,17.33274269104004,-1.0007175207138062,-0.196854680776596,-0.0389840900897979,-120.41932678222656,71.8534164428711,147.72109985351562,201.3730846353692,0.8582682965238175,25.979181163380847,1.0206405248114403,-83.07733917236328,66.16138887405396,220.5995635986328
3514.619,-14.198143005371094,164.930419921875,106.48502349853516,-0.3009245991706848,-0.4705471992492676,0.826957106590271,-37.66820907592773,9.60348892211914,-73.1700439453125,-10.650729179382324,28.92955207824707,4.548878192901611,-1.0002106428146362,-0.2405343204736709,-0.1133622005581855,-122.22360229492188,71.66468048095703,146.08056640625,196.8316308673242,0.9979119887282244,31.161664081278,1.034953659755253,-84.55539321899414,62.06119155883789,219.2506103515625
3537.945,2.6811084747314453,162.4601593017578,107.29141998291016,-0.4287983775138855,-0.6700323820114136,0.9035259485244752,-37.650691986083984,13.531671524047852,-73.48320770263672,-23.8239688873291,32.0782356262207,1.849273443222046,-0.9199094772338868,-0.2550830245018005,-0.2185226678848266,-124.4412841796875,71.32760620117188,144.28732299804688,194.70988805131344,1.203815011187135,40.00018133338356,0.9793124894910772,-86.79059219360352,57.79593467712402,217.7705307006836
3559.687,30.7136173248291,155.55186462402344,110.37290954589844,-0.5611294507980347,-0.5927083492279053,0.6594325304031372,-37.07283401489258,17.34181785583496,-73.61201477050781,-17.06015396118164,27.329736709594727,0.4077137112617492,-1.0038645267486572,-0.2165611684322357,-0.1108173429965972,-126.08847045898438,71.04864501953125,142.93609619140625,193.1887368321809,1.0492953397167344,32.220018501939784,1.0329197506320935,-89.0156364440918,53.70682716369629,216.5481109619141
3569.53,18.602310180664062,159.5159454345703,102.34799194335938,-0.4710313677787781,-0.4130081832408905,0.7615744471549988,-36.78937911987305,21.127092361450195,-73.90992736816406,-3.018017768859864,34.115699768066406,-5.777207851409912,-1.028206467628479,-0.3065822124481201,-0.1799788326025009,-127.4539031982422,70.54906463623047,141.5818328857422,190.43763873452224,0.9861247118975012,34.732773175725434,1.087930867862282,-90.66452407836914,49.42197227478027,215.49176025390625
3592.104,-5.01607608795166,162.82643127441406,96.76779174804688,-0.5201230049133301,-0.4991449415683746,0.7515835762023926,-37.06619644165039,24.89786529541016,-74.35783386230469,4.971011638641357,46.38798522949219,-0.6930260062217712,-1.0157945156097412,-0.2567676305770874,-0.1809973120689392,-129.3253631591797,69.98775482177734,139.51150512695312,189.4772103992324,1.0414180164326647,46.65872282230186,1.0632629688986546,-92.2591667175293,45.08988952636719,213.8693389892578
3614.542,20.61899375915528,157.61131286621094,102.5661392211914,-0.6875752210617065,-0.6609017848968506,0.9028964042663574,-36.75509262084961,28.66496658325196,-74.62648010253906,-17.69649887084961,42.71450805664063,7.859750747680664,-0.9063776731491088,-0.2201743125915527,-0.2107503116130828,-131.74935913085938,69.56802368164062,137.32691955566406,189.1726242398501,1.3133060461046446,46.89851759514863,0.9562493964198708,-94.99426651000977,40.90305709838867,211.95339965820312
3637.738,56.40343475341797,149.2911834716797,99.65066528320312,-0.7597874402999878,-0.5349647998809814,0.677431583404541,-35.69896697998047,32.2734260559082,-74.80936431884766,-19.0154972076416,27.84021377563477,8.841002464294434,-0.9046059846878052,-0.1995467543601989,-0.1653574705123901,-133.51803588867188,69.3659439086914,135.84776306152344,188.14744219824723,1.1499468864879323,34.85441093607134,0.9409962740430692,-97.8190689086914,37.0925178527832,210.6571273803711
3659.611,29.627769470214844,151.23533630371094,87.02747344970703,-0.7088788747787476,-0.3679198026657104,0.5849735736846924,-35.32719039916992,35.7625846862793,-75.19659423828125,-5.137320518493652,22.55768775939941,-2.347893238067627,-1.04240882396698,-0.2464790940284729,-0.1698745787143707,-134.31973266601562,69.06793212890625,135.10997009277344,176.98506379272857,0.9899840009871872,23.2541166638868,1.0845392904688629,-98.9925422668457,33.30534744262695,210.3065643310547
3669.392,-3.99263858795166,160.66427612304688,79.98575592041016,-0.692420482635498,-0.3990249633789062,0.774383008480072,-35.759883880615234,39.3224983215332,-75.87696838378906,-15.674193382263184,-4.493373870849609,-4.421570301055908,-1.1545660495758057,-0.3036139607429504,-0.1949987709522247,-134.20889282226562,69.10591125488281,135.5894775390625,179.51788750761324,1.11280550411802,16.894408271821675,1.2096399136371043,-98.4490089416504,29.78341293334961,211.4664459228516
3692.146,2.527679443359375,159.27642822265625,79.00483703613281,-0.8477203845977783,-0.5698402523994446,0.7174520492553711,-36.21348571777344,42.81803131103516,-76.63654327392578,-32.081626892089844,-3.170552492141724,2.647112846374512,-0.9977381229400636,-0.2416009455919265,-0.1904093474149704,-134.7806396484375,69.22718811035156,135.69252014160156,177.81207502821977,1.2482328335282642,32.34641237556538,1.0440824193816642,-98.56715393066406,26.409156799316406,212.3290634155273
3717.987,32.57191467285156,161.57496643066406,81.39775085449219,-0.8060194253921509,-0.5101099610328674,0.612352728843689,-36.1702995300293,46.388465881347656,-77.50885009765625,-20.9785099029541,-22.59966087341309,10.959644317626951,-0.9951523542404176,-0.2633793950080871,-0.117820456624031,-134.59397888183594,69.75523376464844,136.37237548828125,183.8287062639993,1.1335146011308188,32.725469483423986,1.0361363683725064,-98.42367935180664,23.36676788330078,213.8812255859375
3739.573,28.13363647460937,168.5795135498047,71.6379623413086,-0.8455617427825928,-0.4119844734668731,0.5720715522766113,-36.54689025878906,49.97612380981445,-78.76890563964844,-3.613436222076416,-41.1472282409668,6.58242130279541,-1.0325562953948977,-0.3650699853897095,-0.1113824471831321,-133.1348876953125,70.42439270019531,138.0387725830078,185.31743452354667,1.1008958752577302,41.82678069673453,1.100842698541704,-96.58799743652344,20.44826889038086,216.80767822265625
3750.931,6.469746112823486,169.6527862548828,68.87568664550781,-0.9470049142837524,-0.376882791519165,0.5816808938980103,-37.57768249511719,53.538570404052734,-80.28131866455078,12.693513870239258,-48.52151107788086,3.84645414352417,-0.9231394529342652,-0.3209128677845001,-0.2324179708957672,-130.8970947265625,71.09535217285156,140.16981506347656,183.21513504538737,1.1735465941098564,50.301665391248285,1.0045843077953946,-93.31941223144533,17.556781768798828,220.4511337280273
3780.154,0.6025772094726562,161.47645568847656,62.56551742553711,-1.0974574089050293,-0.394734263420105,0.5181326866149902,-39.013031005859375,56.86839294433594,-82.05160522460938,25.66392707824707,-40.64960479736328,12.849864959716797,-0.8425423502922058,-0.1943238228559494,-0.3066185116767883,-129.24069213867188,71.78056335449219,141.4329376220703,173.17463097039098,1.276201153430454,49.76089380972131,0.9174171743913198,-90.2276611328125,14.91217041015625,223.4845428466797
3789.413,10.63070297241211,151.66445922851562,57.20277404785156,-1.1575193405151367,-0.3886983692646026,0.4777025580406189,-40.52239990234375,59.97101211547852,-84.0918197631836,19.948251724243164,-40.40097427368164,12.124896049499512,-0.893519401550293,-0.1789010465145111,-0.3130905032157898,-127.60901641845705,72.44889068603516,142.79803466796875,162.4416122720262,1.3111587165153231,46.660310471830606,0.9635393964933128,-87.08661651611328,12.47787857055664,226.8898544311524
3809.419,11.758262634277344,138.18887329101562,51.68342208862305,-1.157749891281128,-0.3267162442207336,0.3333684206008911,-42.23676681518555,62.79852294921875,-86.30632019042969,12.852110862731934,-38.05118942260742,8.405167579650879,-0.9314248561859132,-0.1978140324354171,-0.3578901886940002,-125.82174682617188,73.0214614868164,144.43650817871094,148.00539706513334,1.2483039769435562,41.03311604235191,1.0172354896053992,-83.58498001098633,10.222938537597656,230.74282836914065
3832.851,-6.097986698150635,125.95242309570312,47.53442001342773,-1.1734299659729004,-0.2745223939418793,0.4020812511444092,-44.4084587097168,65.32417297363281,-88.60209655761719,7.340976715087891,-34.382652282714844,0.7338519096374512,-0.9299416542053224,-0.2557978630065918,-0.3502994477748871,-123.87189483642578,73.4120864868164,146.35755920410156,134.76171344808137,1.2704210964639229,35.16525637260188,1.0261255917558345,-79.46343612670898,8.087913513183594,234.95965576171875
3849.791,-9.33791446685791,107.73004150390624,47.24658584594727,-1.1862040758132937,-0.3326142728328705,0.3938552737236023,-46.54352951049805,67.51434326171875,-90.73712158203124,3.634737491607666,-22.75139617919922,6.6917724609375,-0.9255396723747252,-0.2616236507892608,-0.3489282727241516,-122.76028442382812,73.77501678466797,147.4654998779297,118.00507770058957,1.2933809727254002,23.99202291189179,1.0231429808673247,-76.21675491333008,6.260673522949219,238.2026214599609
3872.688,3.3920111656188965,90.01438903808594,42.506309509277344,-1.1583309173583984,-0.3391424417495727,0.3221452832221985,-48.36644744873047,69.357421875,-92.7712860107422,7.748079299926758,-15.845847129821776,14.398168563842772,-0.9296215176582336,-0.1633648127317428,-0.3469201624393463,-122.21395111083984,74.18970489501953,147.8976593017578,99.60362604717788,1.24921002774014,22.769076882747463,1.00560321560694,-73.84750366210938,4.832283020019531,240.6689453125
3894.297,5.793067932128906,72.41343688964844,35.503684997558594,-1.0960735082626345,-0.2999699413776397,0.2822872698307037,-49.96691131591797,70.838623046875,-94.59955596923828,8.941109657287598,-2.72289514541626,13.283278465270996,-0.86690753698349,-0.2611749172210693,-0.3929175734519958,-122.3753433227539,74.44451904296875,147.56417846679688,80.8565218559593,1.1709163949461705,16.24201608983642,0.9869778288247504,-72.40843200683594,3.60589599609375,242.1637344360352
3909.405,3.8261547088623047,51.75086975097656,28.372255325317383,-1.1185601949691772,-0.3629260659217834,0.3208097219467163,-51.16536712646485,71.889404296875,-95.9477081298828,17.634258270263672,18.785978317260746,16.56182289123535,-0.8273704051971436,-0.3239591121673584,-0.4157775938510895,-123.80146026611328,74.51768493652344,145.7141571044922,59.14200581721667,1.2189385205130223,30.62962656578759,0.981000663252044,-72.63609313964844,2.628280639648437,241.661865234375
3933.125,18.68666648864746,30.817138671875,20.26171493530273,-1.0744922161102295,-0.4542356133460998,0.3262895941734314,-51.52164840698242,72.55448913574219,-96.71240997314452,37.164825439453125,34.46159362792969,24.561641693115234,-0.9006004333496094,-0.3120218217372894,-0.3018973469734192,-126.10777282714844,74.49769592285156,142.54800415039062,41.34518874668471,1.2113333208408172,56.32139849100484,0.9997903609754148,-74.58612442016602,1.943206787109375,239.2604141235352
3954.23,34.02932357788086,15.29999542236328,11.793299674987791,-1.0334168672561646,-0.5173110961914062,0.4023690223693847,-51.13629531860352,72.93045043945312,-97.02149963378906,36.698951721191406,41.223270416259766,22.37649917602539,-0.9812132120132446,-0.3245152533054352,-0.1913592517375946,-128.59353637695312,74.300537109375,139.20742797851562,39.13012446078498,1.2237083075368878,59.555678122418186,1.0510508457171857,-77.45724105834961,1.370086669921875,236.2289276123047
3976.689,31.75784111022949,-0.0100229382514953,3.908069133758545,-1.0088834762573242,-0.4663962125778198,0.529619574546814,-50.3408317565918,72.99077606201172,-96.85379791259766,36.66621017456055,36.84717178344727,18.69622611999512,-1.0096766948699951,-0.2267448604106903,-0.1404652893543243,-130.63148498535156,74.13062286376953,136.3345489501953,31.997399531776168,1.2312059898794945,55.24195785934734,1.0443135340498344,-80.29065322875977,1.1398468017578125,233.18834686279297
3997.825,12.23422622680664,-17.04630470275879,-3.4219114780426025,-1.025172233581543,-0.3769357204437256,0.5723139643669128,-49.39740753173828,72.71781921386719,-96.12276458740234,21.566207885742188,31.883338928222656,15.673126220703123,-0.9946105480194092,-0.1126505881547927,-0.1678030341863632,-132.6963653564453,73.989501953125,133.76763916015625,21.259404355520864,1.233126887089229,41.56074481181802,1.0149375131136102,-83.29895782470703,1.2716827392578125,229.8904037475586
4010.746,-3.981095790863037,-36.98177337646485,-11.668950080871582,-1.0338762998580933,-0.4367344677448272,0.4866264760494232,-48.21173858642578,72.05354309082031,-94.7955322265625,7.596470832824707,25.83502578735352,7.876517295837402,-0.9366669058799744,-0.1636093407869339,-0.2562608420848846,-134.36317443847656,73.73362731933594,131.91563415527344,38.98288190673061,1.2232916765501591,28.05698578355849,0.9847753693861124,-86.15143585205078,1.680084228515625,226.711166381836
4032.006,3.325880527496338,-56.90864944458008,-22.82081794738769,-1.0737779140472412,-0.4575024545192718,0.4535098671913147,-46.56808853149414,70.94500732421875,-93.13259887695312,1.772549748420715,29.329973220825195,4.5150909423828125,-0.8880058526992798,-0.236704409122467,-0.3477731645107269,-136.01580810546875,73.34477233886719,130.18475341796875,61.40395422671976,1.2521895640144454,29.728358648989296,0.9826136299075016,-89.44771957397461,2.399765014648437,223.31735229492188
4054.8780000000006,9.246895790100098,-80.12104797363281,-32.174537658691406,-1.104259967803955,-0.388734757900238,0.4906825423240661,-44.4176025390625,69.31685638427734,-91.04956817626952,8.535298347473145,34.452659606933594,5.137960910797119,-0.9154285192489624,-0.2667836546897888,-0.3302774131298065,-137.69801330566406,72.83206176757812,128.28921508789062,86.8336817352385,1.2693597385437108,35.86412851572572,1.009091701426439,-93.28041076660156,3.515205383300781,219.33878326416016
4076.567,4.316701889038086,-100.99169158935548,-39.239532470703125,-1.139012575149536,-0.3840008378028869,0.598639726638794,-42.28444290161133,67.3064193725586,-88.85753631591797,13.639135360717772,41.63026428222656,3.829033613204956,-0.9277114868164062,-0.2455269247293472,-0.353299081325531,-139.44398498535156,72.1844253540039,126.21287536621094,108.43291287149712,1.3428238201984155,43.97461103872397,1.022620317812834,-97.15954208374023,4.8780059814453125,215.0704116821289
4099.178,6.4758381843566895,-126.39860534667967,-44.5844612121582,-1.2053412199020386,-0.399436742067337,0.6472122669219971,-39.84421920776367,64.75357818603516,-86.3753433227539,11.02348518371582,44.28240585327149,-0.8995532989501953,-0.9560985565185548,-0.21097993850708,-0.3161213099956512,-140.97579956054688,71.4566421508789,124.41828155517578,134.18762273531078,1.4252301167750467,45.64272000973548,1.0288681484343278,-101.1315803527832,6.70306396484375,210.7936248779297
4109.363,10.7935791015625,-149.8485870361328,-50.18406677246094,-1.1659331321716309,-0.4244839251041412,0.6354919075965881,-37.41558837890625,61.71772766113281,-83.88169860839844,10.873924255371094,44.632442474365234,-2.014641523361206,-0.9086555242538452,-0.2303917706012725,-0.3417569100856781,-142.33323669433594,70.6755599975586,122.81163024902344,158.39678325133366,1.3940719622702833,45.982126205806544,0.9977640078240596,-104.91764831542967,8.957832336425781,206.69332885742188
4134.191000000001,13.89194393157959,-169.93801879882812,-57.43523406982422,-1.173641562461853,-0.429054856300354,0.6522491574287415,-35.22262191772461,58.25940704345703,-81.67400360107422,19.807514190673828,49.38372039794922,-0.2529497146606445,-0.9237560629844666,-0.2059382498264312,-0.2946993112564087,-143.60372924804688,69.8666000366211,121.08783721923828,179.9186550975871,1.4095926894742752,53.20858429158511,0.9912535047590688,-108.38110733032228,11.607192993164062,202.7618408203125
4157.62,12.400837898254396,-187.52749633789065,-62.65342330932617,-1.1574941873550415,-0.4426112174987793,0.7652212977409363,-33.31516647338867,54.41456604003906,-79.67866516113281,17.960323333740234,46.98262023925781,-0.1145158037543296,-0.9829862713813782,-0.2042065262794494,-0.272976815700531,-144.69967651367188,69.11552429199219,119.6048812866211,198.1055125828506,1.4564549832153353,50.29863748321739,1.0404223454969552,-111.3845100402832,14.700958251953123,199.2835464477539
4176.618,5.229496955871582,-202.52667236328125,-70.49046325683594,-1.1777170896530151,-0.4755933284759521,0.8662639856338501,-31.88373756408692,50.21744155883789,-78.02194213867188,9.43224811553955,24.517662048339844,-4.848678588867188,-1.0743945837020874,-0.1580635756254196,-0.2175244092941284,-145.0308380126953,68.72847747802734,119.11502075195312,214.50712358128968,1.5374068590187329,26.713156700170096,1.1075308953102094,-113.1471004486084,18.511035919189453,197.136962890625
4200.36,11.598814964294434,-215.6676177978516,-78.96353149414062,-1.1152461767196655,-0.4991178512573242,0.8547173738479614,-30.653982162475582,45.71348571777344,-76.68563842773438,-6.172666549682617,-10.782328605651855,-7.038114070892334,-1.1089589595794678,-0.133834883570671,-0.1550119519233703,-144.54359436035156,68.83546447753906,119.84822845458984,229.9615036939928,1.491118524225729,14.279197182220072,1.1277102710053872,-113.88961219787598,23.121978759765625,196.53386688232425
4210.426,19.1915340423584,-225.72984313964844,-89.81643676757812,-1.0198075771331787,-0.499711275100708,0.8417778611183167,-29.60282325744629,40.9338493347168,-75.7114028930664,-15.526449203491213,-42.484317779541016,-9.837285041809082,-1.0816419124603271,-0.1948888748884201,-0.156793013215065,-143.06192016601562,69.46500396728516,121.84461212158205,243.6991370037524,1.4136155136068462,46.2899563518418,1.1101868983820553,-113.45909690856934,28.53115463256836,197.55601501464844
4234.109,12.251606941223145,-234.26475524902344,-100.42137145996094,-0.9438406229019164,-0.4526978135108948,0.8932854533195496,-28.90984344482422,35.91226577758789,-75.01358032226562,-20.01274871826172,-69.1554183959961,-10.952832221984863,-1.0622227191925049,-0.2419758439064026,-0.1455100625753402,-140.51560974121094,70.46990966796875,125.0562744140625,255.17548720523007,1.3761283853295578,72.82133299019259,1.0991099092054508,-111.60576629638672,34.55764389038086,200.06985473632807
4259.46,8.070978164672852,-240.77528381347656,-107.03526306152344,-0.8382090330123901,-0.5146965384483337,0.939321517944336,-28.463455200195312,30.706588745117188,-74.49539184570312,-15.571052551269531,-95.2417449951172,-10.369020462036133,-1.074877142906189,-0.2621370255947113,-0.0719140768051147,-136.64089965820312,71.77881622314453,129.55690002441406,263.61795371833904,1.3600852266632095,97.06165181270846,1.1087147184792605,-108.1774444580078,41.072227478027344,204.0522918701172
4270.468,7.357351303100586,-244.18795776367188,-112.37783813476562,-0.7462111115455627,-0.5111314654350281,0.9565619826316832,-28.13522720336914,25.40459442138672,-74.11479187011719,-19.352161407470703,-83.35205078125,-32.77374649047852,-1.152873396873474,-0.2212558388710022,-0.0541090443730354,-131.81944274902344,72.49382781982422,135.11485290527344,268.90642952304734,1.3164715054144092,91.63072071965291,1.17515913991938,-103.6842155456543,47.0892333984375,209.22964477539065
4291.908,0.6849418878555298,-245.49664306640625,-118.38914489746094,-0.6129837036132812,-0.4840399026870727,0.8452502489089966,-28.027238845825195,19.997228622436523,-73.87472534179688,-37.12236022949219,-69.21451568603516,-25.02851104736328,-1.1716153621673584,-0.2414247542619705,-0.0101019153371453,-128.03929138183594,73.02503967285156,139.91893005371094,272.55285823453806,1.1508656010019096,82.43267056154723,1.196273596436234,-100.01205253601074,53.02781105041504,213.7936553955078
4310.519,-4.529124736785889,-243.58578491210932,-123.99435424804688,-0.48881796002388,-0.475800096988678,0.8905531167984009,-28.083005905151367,14.603947639465332,-73.76836395263672,-44.94047927856445,-78.06790161132812,-29.06371307373047,-1.04887056350708,-0.2665868401527405,0.0148788075894117,-123.5078582763672,73.48226165771484,145.64315795898438,273.36632467719926,1.1217903476923348,94.65169495268016,1.0823212929853894,-95.42485237121582,58.87831401824951,219.4115219116211
4332.038,-13.290935516357422,-244.7921142578125,-127.30206298828124,-0.4522348940372467,-0.4934663772583008,0.8537832498550415,-28.33493995666504,9.088896751403809,-73.698486328125,-43.63908767700195,-77.99944305419922,-45.430206298828125,-1.102262258529663,-0.3017559945583343,-0.001693548518233,-118.11544036865234,73.51946258544922,152.2070770263672,276.2347614091721,1.0848830824574358,100.2605941255108,1.1428217861667611,-89.7805004119873,64.43056583404541,225.9055633544922
4354.057,-22.83916473388672,-242.4262084960937,-127.97697448730467,-0.3316560089588165,-0.4306497871875763,0.829622745513916,-28.78299903869629,3.60945463180542,-73.63009643554688,-55.06972122192383,-74.51679229736328,-51.28403472900391,-1.0247215032577517,-0.3175272047519684,-0.0440566539764404,-113.06464385986328,73.23486328125,158.6073455810547,275.08216956112835,0.991831057870867,105.90315740257448,1.0736939385858637,-84.28164482116699,69.62540864944458,232.2374420166016
4369.084,-14.26881504058838,-235.74237060546875,-130.068115234375,-0.2172242105007171,-0.5200286507606506,0.7665322422981262,-29.06877899169922,-1.7726322412490845,-73.62380981445312,-32.51735305786133,-77.24484252929688,-35.53068161010742,-1.0355743169784546,-0.4023703336715698,-0.0188959147781133,-108.02010345458984,73.09506225585938,164.54507446289062,269.6215476959721,0.951413597612624,91.0306172831114,1.1111584526968532,-78.95132446289062,74.86769449710846,238.1688842773437
4392.128,3.614732265472412,-235.4661102294922,-120.99523162841795,-0.1718239039182663,-0.4423756599426269,0.6716089248657227,-29.01166343688965,-7.061827659606934,-73.45148468017578,-5.746291637420654,-71.4243392944336,-31.39412307739257,-0.993358314037323,-0.4773356914520263,-0.0454692356288433,-103.03230285644533,72.83827209472656,169.85423278808594,264.7587608234578,0.8223613721635278,78.23072973600038,1.1030310756228623,-74.02063941955566,79.9000997543335,243.3057174682617
4414.001,-4.688209533691406,-233.86618041992188,-115.38888549804688,-0.1292700320482254,-0.3430327475070953,0.7364173531532288,-29.14810371398925,-12.268757820129396,-73.1962661743164,26.370460510253903,-64.09742736816406,-55.40464019775391,-0.9872072339057922,-0.3974672555923462,-0.0497524738311767,-97.86627960205078,71.93292236328125,174.7005157470703,260.825544280687,0.8226133508965333,88.73305775291696,1.0653795805234672,-68.71817588806152,84.20168018341064,247.89678192138672
4436.479,-16.481414794921875,-228.5965576171875,-114.32830810546876,-0.031366117298603,-0.3317240178585052,0.6780839562416077,-29.542898178100582,-17.372154235839844,-72.94215393066406,28.89529800415039,-68.69280242919922,-42.90534210205078,-0.9891590476036072,-0.3086369335651397,-0.0151086002588272,-92.9218521118164,71.21475219726562,179.28863525390625,256.122988469074,0.7555279670871556,85.99132359267223,1.036301427200768,-63.37895393371582,88.58690643310547,252.2307891845703
4459.278,-11.231714248657228,-221.79396057128903,-108.63162994384766,0.037303302437067,-0.3743274211883545,0.5968435406684875,-29.88182640075684,-22.299156188964844,-72.60990142822266,28.73638153076172,-53.90911102294922,-25.63067626953125,-0.9155728816986084,-0.2781542539596557,-0.0448307283222675,-89.26721954345703,70.74234008789062,-177.46604919433594,247.22367074193983,0.7055032010302515,66.24879954232892,0.9579422137580386,-59.3853931427002,93.04149627685548,-104.85614776611328
4468.927,2.7373287677764893,-214.9747314453125,-100.96485900878906,0.0553191527724266,-0.2745901942253113,0.6353417038917542,-30.009077072143555,-27.03046417236328,-72.17485046386719,46.37200546264648,-47.87152862548828,-23.08015251159668,-0.9590532183647156,-0.2575396597385406,-0.0075065018609166,-85.72984313964844,70.282958984375,-174.69638061523438,237.51953789832064,0.6943479416922258,70.53183383074072,0.9930589607692738,-55.72076606750488,97.31342315673828,-102.5215301513672
4491.872,-8.952544212341309,-210.709716796875,-99.47823333740234,0.0642047524452209,-0.2654674351215362,0.6306632161140442,-30.412866592407227,-31.67158508300781,-71.71856689453125,37.88938522338867,-27.36994361877441,-33.80744934082031,-1.001692533493042,-0.2567928433418274,-0.0744506642222404,-83.71475219726562,69.59236907958984,-173.3990478515625,233.1837295104953,0.6872636331902545,57.68589911957138,1.0367610126979223,-53.3018856048584,101.26395416259766,-101.68048095703124
4513.732,0.3825595378875732,-204.0757751464844,-93.6047821044922,0.1624600887298584,-0.298175573348999,0.5056746602058411,-30.71884536743164,-36.13603210449219,-71.15916442871094,29.143972396850582,-7.459659099578857,-19.23509407043457,-0.883937656879425,-0.1939513534307479,-0.095968373119831,-82.90550994873047,69.21593475341797,-173.1962127685547,224.5193167330329,0.609104929340102,35.707232948644815,0.9100400196619784,-52.18666458129883,105.35196685791016,-102.03704833984376
4536.2660000000005,14.6731595993042,-195.80133056640625,-86.5348129272461,0.2112666666507721,-0.2192278802394867,0.5139455199241638,-30.83361053466797,-40.38466644287109,-70.50225067138672,37.10258865356445,-4.819921016693115,-14.106783866882324,-0.8263674378395081,-0.199796050786972,-0.1329255402088165,-82.00921630859375,68.92295837402344,-173.0701141357422,214.5733825817061,0.5973562298680296,39.98543577941475,0.8605061321520662,-51.17560577392578,109.30762481689452,-102.56786346435548
4558.973,14.015886306762695,-186.2335357666016,-83.02403259277344,0.2890259325504303,-0.1639770120382309,0.4539706110954284,-30.99874687194824,-44.432254791259766,-69.84403228759766,40.17065048217773,1.1551320552825928,1.7512929439544678,-0.8724052906036377,-0.221799612045288,-0.0758265331387519,-81.3003921508789,68.98988342285156,-173.19703674316406,204.38288798492908,0.5625955615733106,40.22539642069388,0.9033469555516862,-50.30164527893066,113.42213821411131,-103.3530044555664
4568.991,5.898284912109375,-175.71759033203125,-80.74444580078125,0.3988308906555176,-0.1466163098812103,0.4560832381248474,-31.323392868041992,-48.27061462402344,-69.22571563720703,25.62817573547364,19.33510971069336,8.281662940979004,-0.8899960517883301,-0.2207705676555633,-0.1044299826025962,-81.783203125,69.24003601074219,-174.2779083251953,193.47125586162736,0.6233573146781088,33.154725155260344,0.9228966556490245,-50.45981025695801,117.51065063476562,-105.05219268798828
4592.089,3.1857028007507324,-163.67523193359375,-71.36962127685547,0.4492234587669372,-0.1703690886497497,0.3959508538246155,-31.789566040039062,-51.80084228515625,-68.44987487792969,23.442007064819336,39.38050079345703,11.82558822631836,-0.8560860753059387,-0.244082361459732,-0.0963277816772461,-83.38485717773438,69.60545349121094,-176.5209197998047,178.5871022556002,0.6225788471497554,47.33070963834104,0.8953985755133542,-51.59529113769531,121.4062957763672,-108.071044921875
4616.475,6.22255802154541,-150.48020935058594,-63.68131637573242,0.4714187979698181,-0.1992420107126236,0.3199447393417358,-32.3646240234375,-55.00510787963867,-67.55894470214844,24.885910034179688,65.2328109741211,19.278675079345703,-0.8235474824905396,-0.2232923209667205,-0.1479648798704147,-86.3294906616211,70.10868072509766,179.77154541015625,163.51857292024596,0.6035707896714094,72.4313154556072,0.8660158902666144,-53.9648666381836,125.11378860473631,247.3304901123047
4638.819,17.7020206451416,-137.71511840820312,-57.65627670288086,0.5330803990364075,-0.1734866350889206,0.2798248827457428,-32.77588653564453,-57.96696472167969,-66.66122436523438,25.09103202819824,61.624977111816406,18.77489471435547,-0.8486924767494202,-0.1945500671863556,-0.1045182794332504,-89.2811279296875,70.56219482421875,176.07867431640625,150.34314622338323,0.6265574908936613,69.13533368551207,0.8769565094512769,-56.50524139404297,128.52915954589844,242.73989868164065
4649.169,19.19980812072754,-124.91708374023438,-53.08516311645508,0.6284564733505249,-0.1434498429298401,0.2770058512687683,-33.13481140136719,-60.6736946105957,-65.78410339355469,14.743622779846191,60.59942626953125,18.76482391357422,-0.8624681234359741,-0.1949508190155029,-0.1258418560028076,-92.54043579101562,70.94956970214844,172.29818725585938,137.08006778936945,0.7016178717577751,65.1289758354774,0.8931367524070529,-59.40562438964844,131.62326431274414,238.0822906494141
4678.688,12.818238258361816,-110.21825408935548,-47.85838317871094,0.7305781245231628,-0.143794983625412,0.1797664612531662,-33.67201614379883,-63.064083099365234,-64.84183502197266,7.033860683441162,51.19994354248047,19.266223907470703,-0.8551823496818542,-0.2418667376041412,-0.0941747277975082,-95.61615753173828,71.29070281982422,168.8865203857422,120.8420274864427,0.7659878419003141,55.15520644979984,0.8937031102790135,-61.94414138793945,134.35478591918945,233.72835540771484
4698.802,10.417724609375,-96.91632843017578,-43.98890686035156,0.7845606803894043,-0.165880486369133,0.0856283083558082,-34.187862396240234,-65.1646957397461,-64.0406494140625,10.75384521484375,40.8036994934082,18.17645263671875,-0.8399040699005127,-0.2954510450363159,-0.0915608406066894,-98.0487060546875,71.54307556152344,166.06797790527344,106.940766918847,0.8064638889392521,45.94529910347803,0.8950494702423437,-63.86084365844727,136.70777130126953,230.108627319336
4708.964,6.661130905151367,-80.21135711669922,-37.20194625854492,0.8734489679336548,-0.1694294959306717,0.0729251727461814,-34.7142448425293,-66.90978240966797,-63.39535903930664,9.00612735748291,21.196008682250977,10.95822811126709,-0.8904683589935303,-0.3665962517261505,-0.0632868409156799,-99.21334075927734,71.66381072998047,164.6104736328125,88.66914503287985,0.8927135792042981,25.504193329251272,0.9650554048247076,-64.49909591674805,138.57359313964844,228.0058326721192
4731.586,7.413329124450684,-64.23660278320312,-29.626089096069336,0.9282662272453308,-0.2148162871599197,0.0158185623586177,-35.1721305847168,-68.30364227294922,-62.774147033691406,6.944697856903076,17.667430877685547,7.890263080596924,-0.9079313278198242,-0.3674856424331665,-0.0615339130163192,-100.20579528808594,71.73097229003906,163.39642333984375,71.12667390622653,0.952929405983752,20.55780128375848,0.9814129690819692,-65.03366470336914,140.03461456298828,226.1705703735352
4748.794,7.426418781280518,-44.3890495300293,-23.448823928833008,1.025136113166809,-0.1914737522602081,-0.0334951914846897,-35.35734558105469,-69.30036926269531,-62.41865158081055,0.1701573431491851,9.24870491027832,5.99773645401001,-0.9052523374557496,-0.3643790483474731,-0.0550022609531879,-100.7970962524414,71.77674102783203,162.7547607421875,50.74826851962303,1.0434022120812052,11.024533487209084,0.9773838212563531,-65.43975067138672,141.07711029052734,225.17341232299805
4772.070000000001,5.096436023712158,-22.666622161865234,-15.767669677734377,1.0393190383911133,-0.2115807086229324,-0.0444186627864837,-35.2679328918457,-69.85322570800781,-62.40674591064453,-4.725654125213623,-0.3388557136058807,4.024843692779541,-0.9061092734336852,-0.4301568865776062,-0.0344507731497287,-100.86096954345705,71.7957992553711,162.76783752441406,28.07790639343851,1.0615665204909912,6.216590452740082,1.003621352026388,-65.59303665161133,141.6490249633789,225.1745834350586
4788.673,-2.4773452281951904,-5.639354705810547,-8.796082496643066,1.019207000732422,-0.1821196228265762,0.0029611433856189,-35.101829528808594,-70.0470199584961,-62.63685989379883,-0.6385945677757263,-0.3683140873908996,1.4854592084884644,-0.9263527989387512,-0.4224104583263397,-0.0512167438864707,-100.81700134277344,71.76254272460938,162.81491088867188,10.738278640702127,1.035354642492428,1.6583266713909033,1.019403383484408,-65.71517181396484,141.80956268310547,225.4517707824707
4812.071000000001,-9.816854476928713,8.206398963928223,-0.5226421356201172,0.9996788501739502,-0.2153424769639969,0.0583143979310989,-35.01622009277344,-69.91842651367188,-62.93642807006836,1.1097429990768433,-0.1705899685621261,-0.0907816290855407,-0.9094189405441284,-0.4011750817298889,-0.0751547738909721,-100.781494140625,71.70271301269531,162.82154846191406,12.805810032101954,1.0242708405866914,1.1264420826449617,0.9968111634908544,-65.76527404785156,141.6211395263672,225.7579765319824
4836.67,-4.116058826446533,20.535215377807617,7.725212097167969,0.9581004977226256,-0.2488629668951034,0.0634990036487579,-34.805816650390625,-69.4926528930664,-63.24728012084961,-2.844287633895874,-2.2986836433410645,-0.287167340517044,-0.9113258719444276,-0.3736472427845001,-0.07119981944561,-100.70003509521484,71.66255950927734,162.9539794921875,22.322990678265874,0.9919281544005903,3.6682943881259535,0.9875203902729388,-65.89421844482422,141.15521240234375,226.2012596130371
4858.951,-2.772113800048828,31.77353286743164,14.354358673095703,0.944517195224762,-0.1781939566135406,0.1000329330563545,-34.533111572265625,-68.80587768554688,-63.59658432006836,-5.911769390106201,-0.8079631328582764,-1.902527093887329,-0.906066596508026,-0.3488817811012268,-0.0658033564686775,-100.7492904663086,71.59809875488281,163.01040649414062,34.97555744679501,0.9663707393876828,6.262701580694244,0.9731419507012048,-66.21617889404297,140.4039764404297,226.60699081420896
4878.466,-12.475780487060549,42.11935806274414,19.311996459960938,0.920823872089386,-0.1823496371507644,0.147143542766571,-34.44890594482422,-67.93431091308594,-63.96284484863281,-7.504060745239258,1.912247657775879,-3.964443445205689,-0.8845940232276917,-0.3219926357269287,-0.0909717082977294,-101.02246856689452,71.49103546142578,162.87075805664062,47.98581696343738,0.9501679934393724,8.699679913832718,0.9457598506508592,-66.57356262207031,139.42534637451172,226.83360290527344
4888.596,-16.466167449951172,51.49536895751953,25.07355308532715,0.8584731221199036,-0.1983499825000763,0.21684630215168,-34.44016647338867,-66.83870697021484,-64.33722686767578,-7.557456016540527,5.166820049285889,-6.168713569641113,-0.8805316090583801,-0.3025118112564087,-0.1089718490839004,-101.49518585205078,71.33712768554688,162.52992248535156,59.59522429594184,0.9073814719934132,11.03921183635506,0.9374028879800496,-67.05501937866211,138.17583465576172,226.8671493530273
4911.258,-8.195233345031738,58.21608352661133,29.99957847595215,0.842560887336731,-0.2097864896059036,0.253855437040329,-34.283790588378906,-65.5627670288086,-64.69288635253906,-9.72169589996338,6.4884114265441895,-4.722221374511719,-0.8827526569366455,-0.2699156105518341,-0.1192367374897003,-102.12564086914062,71.2245101928711,162.0675506591797,66.00188587829683,0.9046335186172154,12.605960047587384,0.9307653247277016,-67.84185028076172,136.7872772216797,226.76043701171875
