Timestamp (ms),Wrist Gyroscope X (deg/s),Wrist Gyroscope Y (deg/s),Wrist Gyroscope Z (deg/s),Wrist Accelerometer X (g),Wrist Accelerometer Y (g),Wrist Accelerometer Z (g),Wrist Roll (deg),Wrist Pitch (deg),Wrist Yaw (deg),Arm Gyroscope X (deg/s),Arm Gyroscope Y (deg/s),Arm Gyroscope Z (deg/s),Arm Accelerometer X (g),Arm Accelerometer Y (g),Arm Accelerometer Z (g),Arm Roll (deg),Arm Pitch (deg),Arm Yaw (deg),Wrist Gyroscope Magnitude (deg/s),Wrist Accelerometer Magnitude (g),Arm Gyroscope Magnitude (deg/s),Arm Accelerometer Magnitude (g),Difference Roll (deg),Difference Pitch (deg),Difference Yaw (deg)
0.0,7.355570793151855,-2.8289175033569336,-5.571882724761963,-0.8652536869049072,0.4195838570594787,0.1945340633392334,64.29853820800781,61.31976318359375,-62.46646118164063,9.402236938476562,1.2364554405212402,-3.156803846359253,-0.961496353149414,0.1243375614285469,0.2674303650856018,24.185585021972656,72.73051452636719,-98.7791519165039,9.651583964944232,0.98110043196745,9.994813256286296,1.0057107270340904,-40.11295318603516,11.410751342773438,-36.31269073486328
0.066,12.138165473937988,-3.322077989578247,-4.785466194152832,-0.8648746013641357,0.4116075038909912,0.1893678456544876,64.36589813232422,61.3875846862793,-62.66901016235352,4.923521041870117,0.8714633584022522,-3.900133609771729,-0.941910445690155,0.1048679426312446,0.2571172416210174,24.059890747070312,72.78724670410156,-99.0905532836914,13.463727193348804,0.976365195155976,6.341257762372272,0.9819887214376432,-40.30600738525391,11.399662017822266,-36.42154312133789
0.115,16.020353317260742,-4.001451015472412,-4.3257012367248535,-0.8647937774658203,0.4362953901290893,0.1912783235311508,64.5051040649414,61.42892074584961,-62.88039016723633,1.16094708442688,1.5268855094909668,-4.169373989105225,-0.949743390083313,0.1196412444114685,0.2520495653152466,23.8908748626709,72.8578872680664,-99.37300872802734,17.069710654504235,0.9873243347777794,4.589428826440168,0.9898765164134734,-40.61422920227051,11.428966522216797,-36.492618560791016
0.173,15.659018516540527,-3.889052152633667,-4.906827449798584,-0.8778101801872253,0.445906400680542,0.208942025899887,64.61582946777344,61.477012634277344,-63.111907958984375,0.440746396780014,0.56853187084198,-3.5587995052337646,-0.9534318447113036,0.1378671824932098,0.2533468306064605,23.750368118286133,72.9011001586914,-99.61604309082033,16.864357182216004,1.0064988826597645,3.630776747872242,0.9961045422527468,-40.865461349487305,11.424087524414062,-36.50413513183594
0.218,17.04344940185547,-4.668074131011963,-4.19472074508667,-0.8846787214279175,0.4456087052822113,0.2054856121540069,64.74179077148438,61.50810241699219,-63.35804748535156,0.7917400002479553,0.3712835311889648,-3.650699138641357,-0.9628689289093018,0.1307397484779358,0.2513460516929626,23.59549140930176,72.94502258300781,-99.88462829589844,18.1622070722556,1.0116560162292965,3.753972281384285,1.0036853559720105,-41.14629936218262,11.436920166015623,-36.52658081054688
0.261,21.889205932617188,-6.04445743560791,-3.3383350372314453,-0.8807036280632019,0.4634459614753723,0.205449566245079,64.93960571289062,61.50308227539063,-63.6344108581543,1.1272960901260376,0.3498531877994537,-3.674527645111084,-0.9693425893783568,0.0947135239839553,0.2542652785778045,23.379777908325195,72.99552917480469,-100.2174835205078,22.95250057994131,1.0161843159396873,3.859449072408198,1.0066014797815697,-41.55982780456543,11.492446899414062,-36.58307266235352
0.304,20.291637420654297,-4.016473770141602,-3.4990804195404053,-0.8709455728530884,0.4651776552200317,0.2405742555856704,65.13192749023438,61.50786590576172,-63.89545822143555,7.292267799377441,-1.5396175384521484,-2.0611894130706787,-0.9921789765357972,0.0802333354949951,0.3080151081085205,23.27209854125977,72.97803497314453,-100.55426025390624,20.979184315409984,1.016273789015047,7.732793390431508,1.0419835970049518,-41.85982894897461,11.470169067382812,-36.6588020324707
0.362,23.98359489440918,-2.960710048675537,-3.7696475982666016,-0.8462352752685547,0.4613855481147766,0.2272564023733139,65.43881225585938,61.523868560791016,-64.1126480102539,26.17769432067871,-6.546059608459473,-2.9960336685180664,-0.9416284561157228,0.0882403999567031,0.3141795694828033,23.36545181274414,72.86264038085938,-101.07099151611328,24.45789997253598,0.9902707900052796,27.149563423511857,0.9965737902593054,-42.073360443115234,11.33877182006836,-36.958343505859375
0.407,37.79684448242188,-3.983488082885742,0.0391212701797485,-0.8608443737030029,0.4481894969940185,0.2306476086378097,66.03081512451172,61.47233963012695,-64.38607025146484,49.89863204956055,-2.0204732418060303,-4.013402938842773,-0.912334144115448,-0.0018632276915013,0.3227685987949371,23.90171432495117,72.84835815429688,-101.60372924804688,38.00619897607044,0.9975596124153218,50.10053089227495,0.9677482268153969,-42.12910079956055,11.376018524169922,-37.21765899658203
12.266,45.4216423034668,-6.001399040222168,4.680995464324951,-0.8882701992988586,0.4986853301525116,0.2338338494300842,66.79000854492188,61.30683135986328,-64.57384490966797,57.8400764465332,2.3761563301086426,-0.4577492475509643,-0.9346615076065063,-0.0320180915296077,0.3345178961753845,24.957788467407227,72.89242553710938,-101.7500228881836,46.05490308882535,1.045174279539563,57.89067365836706,0.9932368875792276,-41.83222007751465,11.585594177246094,-37.176177978515625
12.317,51.644317626953125,-9.040701866149902,5.910853385925293,-0.899297833442688,0.5826625823974609,0.2648175954818725,67.58426666259766,61.061920166015625,-64.84026336669922,60.78107833862305,3.6929407119750977,4.028975963592529,-0.9713041186332704,0.1638625860214233,0.2902251183986664,26.554399490356445,72.90628051757812,-101.39656066894533,52.76180456671409,1.103793747507926,61.02630533157976,1.026894959244178,-41.02986717224121,11.8443603515625,-36.556297302246094
12.361,43.95310974121094,-9.770153045654297,3.549095630645752,-0.9076245427131652,0.6000067591667175,0.2695614099502563,68.16139221191406,60.85422134399414,-65.17839813232422,65.40139770507812,0.041793555021286,9.935750961303713,-1.0201551914215088,0.3575700521469116,0.2979530692100525,28.50263023376465,72.80425262451172,-100.79106903076172,45.16556017867938,1.1209164890014778,66.151823222373,1.12131573975767,-39.65876197814941,11.950031280517578,-35.6126708984375
12.404,39.208534240722656,-12.704203605651855,2.8392255306243896,-0.9195351004600524,0.5079869627952576,0.2123230546712875,68.55076599121094,60.69137191772461,-65.62732696533203,56.68673324584961,-2.955466985702514,10.954758644104004,-1.0021060705184937,0.3012250363826751,0.2824593186378479,30.30289459228516,72.61796569824219,-100.14855194091795,41.31303847665441,1.0717633297015603,57.81113429210899,1.0838525572231297,-38.24787139892578,11.926593780517578,-34.52122497558594
14.714,54.41521453857422,-21.49748992919922,7.756427764892578,-0.8625797033309937,0.5022832751274109,0.1864828765392303,69.03886413574219,60.36699295043945,-66.40857696533203,42.75661087036133,1.0154510736465454,8.29439926147461,-0.9719871878623962,0.1453416496515274,0.2329709529876709,31.65534019470215,72.56705474853516,-99.67337799072266,59.019656202040665,1.0154349296304757,43.56553652959207,1.0100290854366818,-37.38352394104004,12.200061798095703,-33.264801025390625
37.32,53.50436401367188,-22.95813369750977,12.31187629699707,-0.8371517658233643,0.6268962621688843,0.2293519377708435,69.52149200439453,59.8875732421875,-67.15312194824219,54.20678329467773,3.13142991065979,8.14000129699707,-0.9608653783798218,0.0965777188539505,0.1943646073341369,33.24198532104492,72.5809097290039,-99.19371795654295,59.50945445332866,1.0707120592865929,54.90392362624589,0.9850721454452888,-36.27950668334961,12.693336486816406,-32.04059600830078
57.307,32.60860824584961,-19.81757545471192,10.107280731201172,-0.81709885597229,0.5798515677452087,0.229761928319931,69.64543914794922,59.489784240722656,-67.8031997680664,91.85842895507812,-3.808170795440674,6.99455451965332,-0.9660764932632446,0.1336233168840408,0.2267487645149231,35.28043365478516,72.46232604980469,-99.01966857910156,39.47422896541238,1.027944028025405,92.20302016653676,1.0012861648200002,-34.36500549316406,12.972541809082031,-31.21646881103516
79.747,39.18903350830078,-21.430837631225582,11.846234321594238,-0.7967468500137329,0.4965024888515472,0.2116560339927673,69.86043548583984,59.085182189941406,-68.4944839477539,122.80127716064452,-12.207952499389648,5.698749542236328,-0.9265181422233582,0.2042447328567505,0.2297238111495971,37.62936782836914,72.1915054321289,-99.18064880371094,46.21032802840501,0.9623505292605882,123.53810554989876,0.9761786763589154,-32.2310676574707,13.1063232421875,-30.68616485595703
102.243,44.85481643676758,-24.55283546447754,15.890769004821776,-0.7756247520446777,0.560981035232544,0.2034703493118286,70.17510986328125,58.55470275878906,-69.24116516113281,129.2866668701172,-16.581968307495117,5.615392684936523,-0.8976422548294067,0.2609593570232391,0.2581293880939483,39.926795959472656,71.82078552246094,-99.49909973144533,53.54729523035151,0.9786182406454634,130.46661081802296,0.9697897631295972,-30.2483139038086,13.266082763671877,-30.2579345703125
112.372,29.97625732421875,-21.64815139770508,16.107370376586914,-0.7804274559020996,0.5744755864143372,0.2279285639524459,70.26988220214844,58.03873062133789,-69.86587524414062,93.39747619628906,-1.956200361251831,10.03627586364746,-0.8641727566719055,0.4116455912590027,0.278386652469635,42.19269943237305,71.64662170410156,-99.11542510986328,40.33194568272511,0.9955102428289448,93.95553263592824,0.9968679824581306,-28.07718276977539,13.607891082763672,-29.249549865722656
134.875,27.07854080200196,-24.558481216430664,17.46046257019043,-0.7835782170295715,0.4861651062965393,0.1674598157405853,70.27372741699219,57.53335189819336,-70.54702758789062,8.195920944213867,-41.57364654541016,49.25615692138672,-0.8672924041748047,0.2808120250701904,0.2745726108551025,42.86674118041992,70.34893035888672,-98.62596130371094,40.512147866886586,0.937226825625173,64.97468893246639,0.9520722800266384,-27.406986236572266,12.81557846069336,-28.078933715820312
162.674,52.34794616699219,-32.74050521850586,20.57938575744629,-0.8168340921401978,0.4967356920242309,0.0870674550533294,70.66973876953125,56.93975830078125,-71.37867736816406,106.93136596679688,-30.827617645263672,31.204233169555664,-0.653234601020813,-0.0448095761239528,-0.1531255841255188,45.07682037353516,69.4676742553711,-98.58738708496094,65.08271097625777,0.9599713660014846,115.57838554378417,0.672436455434274,-25.592918395996094,12.527915954589844,-27.208709716796875
182.177,84.32642364501953,-44.89320755004883,21.32106590270996,-0.9088948369026184,0.4959634244441986,0.0581991113722324,71.38512420654297,56.295658111572266,-72.59538269042969,203.78749084472656,-5.780869483947754,11.014198303222656,-1.2182576656341553,-0.0460635460913181,-0.0577237606048584,49.33054733276367,69.23575592041016,-98.4457550048828,97.88224384493222,1.0370422746923922,204.1667760460616,1.220494007643321,-22.054576873779297,12.94009780883789,-25.850372314453125
192.433,49.10702896118164,-46.40331268310547,24.931629180908203,-0.8383526802062988,0.4965313673019409,0.1167225539684295,71.35237121582031,55.555694580078125,-73.84988403320312,270.23809814453125,-35.09959411621094,-12.442580223083496,-0.9475807547569276,0.3632559180259704,0.0870196372270584,52.964752197265625,68.99141693115234,-100.34439849853516,72.01634435997639,0.98132704524472,272.79191520003656,1.0185463003858626,-18.387619018554688,13.43572235107422,-26.49451446533203
212.453,12.715350151062012,-34.191341400146484,22.4475212097168,-0.8519296646118164,0.4852505922317505,0.2642273306846618,70.79371643066406,54.930572509765625,-74.78028106689453,205.18878173828125,-20.53815269470215,0.1983404159545898,-0.8867385983467102,0.8066151738166809,0.4346714317798614,56.19993209838867,68.74797821044922,-101.30897521972656,42.83245457204349,1.0154153696825787,206.21418769394,1.275097107688178,-14.59378433227539,13.817405700683594,-26.52869415283203
235.223,22.04383087158203,-24.36191177368164,17.911392211914062,-0.8641566038131714,0.4751564860343933,0.2959714233875274,70.63623809814453,54.46101379394531,-75.50882720947266,45.42101287841797,-16.41037940979004,8.128355026245117,-0.9573422074317932,0.4429916143417358,0.4567420482635498,56.6414680480957,68.4306869506836,-101.8394775390625,37.419930461354106,1.0296307132154257,48.97386158663983,1.1495037934515304,-13.994770050048828,13.96967315673828,-26.330650329589844
257.75100000000003,30.442113876342773,-17.466238021850586,15.040592193603516,-0.8659288287162781,0.5310604572296143,0.1880154460668563,70.92227935791016,54.08851623535156,-75.94020080566406,1.699338436126709,0.4940117597579956,-8.023155212402344,-1.0239241123199463,0.166937306523323,0.358085423707962,56.43910217285156,68.57180786132812,-102.13809204101562,38.18391259981679,1.0330574783595496,8.216009877159086,1.097503450004401,-14.483177185058594,14.483291625976562,-26.19789123535156
543.2320000000001,18.725830078125,-7.0591888427734375,12.383129119873049,-0.8357946276664734,0.463397741317749,0.188861072063446,71.19562530517578,53.859989166259766,-76.09701538085938,10.252464294433594,-3.04599928855896,-27.328792572021484,-0.980337381362915,0.4081748127937317,0.3918341398239136,55.640411376953125,68.96529388427734,-103.32968139648438,23.533608861205195,0.974145076893316,29.34712999969697,1.1319019622865938,-15.555213928222656,15.105304718017578,-27.232666015625
543.2869999999999,14.538884162902832,-4.872132778167725,12.542888641357422,-0.7820225358009338,0.4388536810874939,0.1947356611490249,71.42443084716797,53.63930130004883,-76.22652435302734,-18.33261680603028,-9.723518371582031,-31.7085018157959,-0.8764976859092712,0.3672881126403808,0.2489791214466095,53.946998596191406,69.3484878540039,-104.88783264160156,19.81012079670127,0.9176457800413592,37.89539201382628,0.9824150619812207,-17.477432250976562,15.709186553955078,-28.66130828857422
543.338,10.412229537963867,-5.079198360443115,10.109756469726562,-0.8359699845314026,0.480112224817276,0.1855973750352859,71.56609344482422,53.46390914916992,-76.36204528808594,-30.894287109375,-11.425641059875488,11.641319274902344,-0.9095306396484376,0.3549438118934631,0.1990208476781845,53.26911544799805,69.00482177734375,-105.07305908203124,15.375953817996248,0.981733135366438,34.93597807541418,0.9964137653963344,-18.29697799682617,15.540912628173828,-28.711013793945312
543.381,10.34257698059082,-5.686357498168945,5.187490940093994,-0.8462779521942139,0.4385225772857666,0.1730492264032364,71.64615631103516,53.40454864501953,-76.5887451171875,-57.22488784790039,-2.686028003692627,10.342391967773438,-0.9064081311225892,0.1742738783359527,0.1728429943323135,52.28243637084961,68.8683090209961,-105.01036834716795,12.892386220168344,0.9687282683591626,58.21398120088045,0.9390536648803196,-19.363719940185547,15.463760375976562,-28.42162322998047
543.423,4.562462329864502,-5.682551860809326,5.818292617797852,-0.8109408020973206,0.4357006251811981,0.1399631798267364,71.64641571044922,53.33035659790039,-76.79739379882812,-69.86078643798828,-1.1386725902557373,27.5858154296875,-0.9041941165924072,0.3310580253601074,0.3380603790283203,51.66624069213867,68.40579986572266,-104.28184509277344,9.325233892430855,0.9311550413313262,75.11859470146385,1.0205151819078582,-19.980175018310547,15.075443267822266,-27.484451293945312
543.4639999999999,-12.44853401184082,1.029435157775879,4.820323944091797,-0.8815498352050781,0.4818871617317199,0.1969519406557083,71.43283081054688,53.30734634399414,-76.79537200927734,-119.25656127929688,-21.80124282836914,32.313602447509766,-1.0009347200393677,0.4049939215183258,0.3118361830711365,49.50634002685547,67.60616302490234,-104.15878295898438,13.388848296773231,1.0237848482567042,125.46549525730138,1.123891540727776,-21.926490783691406,14.298816680908203,-27.36341094970703
543.5060000000001,-22.419097900390625,3.8244059085845934,0.7078409194946289,-0.9156522750854492,0.4583794474601745,0.2226041108369827,71.03028869628906,53.39596939086914,-76.71299743652344,-126.58016204833984,-11.62848663330078,-3.4580342769622803,-1.13783597946167,0.1573217213153839,0.1392323076725006,46.43793487548828,67.52961730957031,-104.87543487548828,22.75396822508608,1.0478947451364464,127.16020260531782,1.1570680514364498,-24.59235382080078,14.133647918701172,-28.162437438964844
543.55,-14.61988353729248,0.5951003432273865,-2.746978759765625,-0.897685706615448,0.4596827328205108,0.1554874926805496,70.7323226928711,53.53351974487305,-76.72152709960938,-115.77513122558594,-14.341360092163086,-6.030841827392578,-0.8525288105010986,0.1351147592067718,0.1923207938671112,43.42133331298828,67.43862915039062,-105.76551055908205,14.887613353694691,1.020452940166813,116.81578092339134,0.884335150632156,-27.31098937988281,13.905109405517578,-29.043983459472656
543.593,-11.582763671875,-0.9222994446754456,-6.953545093536377,-0.8819676041603088,0.458345353603363,0.1241411864757537,70.44915008544922,53.73964309692383,-76.80131530761719,-67.60124206542969,-5.70761775970459,-8.408743858337402,-1.0062183141708374,0.0943590477108955,0.171774223446846,41.582820892333984,67.46707916259766,-106.44701385498048,13.541153566517131,1.0016777686150746,68.36089381038579,1.025126972378776,-28.866329193115234,13.727436065673828,-29.64569854736328
544.6999999999999,-4.6134867668151855,-2.78879189491272,-8.24696159362793,-0.8313795328140259,0.4875518083572387,0.1342765539884567,70.24708557128906,53.92560577392578,-76.95390319824219,-13.616748809814451,-6.230600357055664,-30.818681716918945,-1.068812131881714,0.1818825304508209,0.2431114017963409,39.962135314941406,67.80659484863281,-108.03598022460938,9.852613658694011,0.973102711107875,34.26408282338343,1.1111002573233928,-30.284950256347656,13.880989074707031,-31.082077026367188
544.741,-8.070859909057617,-2.344573497772217,-9.17119026184082,-0.7977527379989624,0.5225881934165955,0.1942842751741409,69.9346694946289,54.09285736083984,-77.13888549804688,-12.140748977661133,-12.742074966430664,-27.47661590576172,-0.8041782379150391,0.1900682151317596,0.2719506621360779,38.23443222045898,67.95435333251953,-109.7373046875,12.439716048888464,0.9732698651777952,32.630088596592515,0.8699343235990641,-31.70023727416992,13.861495971679688,-32.598419189453125
544.775,-21.18552017211914,-0.3642833828926086,-10.085657119750977,-0.7866660952568054,0.515924334526062,0.1999960392713546,69.39640045166016,54.28689193725586,-77.27718353271484,-2.6293201446533203,-7.005812644958496,-12.20069980621338,-0.8129916191101074,0.1370209008455276,0.2059068232774734,37.4614143371582,68.04454040527344,-110.61920928955078,23.46656018430273,0.9617795382035212,14.312645143392444,0.8497809834798697,-31.93498611450196,13.757648468017578,-33.34202575683594
544.808,-20.351993560791016,0.4452966749668121,-10.66163444519043,-0.7847048044204712,0.4693459272384643,0.1642321199178695,68.90986633300781,54.52211380004883,-77.38166809082031,19.35702896118164,-6.916054248809815,-6.105955123901367,-0.8602784276008606,0.1110064834356308,0.2925648391246795,37.25201797485352,68.03675842285156,-111.3392562866211,22.97982550129758,0.9289883845929514,21.44315892194064,0.915420994653391,-31.657848358154297,13.514644622802734,-33.95758819580078
544.84,-10.988712310791016,1.5269248485565186,-11.963844299316406,-0.7697912454605103,0.475604385137558,0.1739936023950576,68.61937713623047,54.77675247192383,-77.47340393066406,12.21988296508789,-12.207001686096191,-4.815785884857178,-0.8860429525375366,0.285429835319519,0.3358204960823059,36.9813346862793,67.85659790039062,-111.9940948486328,16.3161535957699,0.9214401046319438,17.931208089071692,0.9896048252817532,-31.63804244995117,13.079845428466797,-34.52069091796875
559.412,-21.138473510742188,3.915313005447388,-11.058881759643556,-0.8007226586341858,0.5471469759941101,0.1824754476547241,68.216796875,55.00566482543945,-77.46224975585938,-3.8916049003601074,-9.994001388549805,4.65529203414917,-0.8817917704582214,0.3199910819530487,0.3136888742446899,36.89504623413086,67.59669494628906,-112.10504150390624,24.17568208073459,0.9868251508684251,11.691723413511584,0.9891166406456968,-31.32175064086914,12.59103012084961,-34.642791748046875
579.395,-43.13175201416016,11.26422882080078,-13.092251777648926,-0.840971052646637,0.5163768529891968,0.2216608226299286,67.50154113769531,55.34473419189453,-77.27938842773438,-23.725833892822266,-11.66676425933838,13.43865966796875,-0.9143009781837464,0.2765220701694488,0.3754437267780304,36.59788131713867,67.20396423339844,-111.99436950683594,46.46114440419778,1.0114400061207762,29.6584921374007,1.0263375302382396,-30.90365982055664,11.859230041503906,-34.71498107910156
603.1220000000001,-29.63688087463379,12.04789924621582,-14.179803848266602,-0.8338145017623901,0.4679579734802246,0.2122610807418823,67.05786895751953,55.72832489013672,-77.09365844726562,-32.559364318847656,-14.53958511352539,26.602415084838867,-0.921359121799469,0.2399553060531616,0.3739043772220611,36.49950408935547,66.6265640258789,-111.46868133544922,34.99376260706354,0.9794314956599536,44.48820325060298,1.0228810603056313,-30.558364868164062,10.898239135742188,-34.375022888183594
618.697,-2.3531932830810547,9.530065536499023,-12.695115089416504,-0.8701597452163696,0.5445513725280762,0.2389349639415741,67.11640930175781,56.03468704223633,-76.96369934082031,-53.7305793762207,-11.923866271972656,33.23735809326172,-0.892958402633667,0.3206775486469269,0.3991676568984985,36.34503936767578,65.99827575683594,-110.5594253540039,16.047604646520764,1.0539469135165158,64.29522315068166,1.0293413512310237,-30.77136993408203,9.96358871459961,-33.595726013183594
634.5,1.2263858318328855,4.889404296875,-11.935410499572754,-0.8568106889724731,0.5671948790550232,0.1992624104022979,67.17378234863281,56.28150177001953,-76.93820190429688,-82.22667694091797,-9.376728057861328,52.31407165527344,-1.0199918746948242,0.3317143619060516,0.3302600383758545,36.39489364624024,65.24276733398438,-108.80895233154295,12.95624638466449,1.046680512746397,97.90766835631548,1.122269813942361,-30.77888870239257,8.961265563964844,-31.870750427246094
652.618,-11.483501434326172,4.879620552062988,-9.014302253723145,-0.8435910940170288,0.5830481648445129,0.1706368774175644,67.04375457763672,56.46642303466797,-76.84465026855469,-74.94898986816406,-9.25508975982666,30.58003234863281,-1.0290147066116333,0.1921537369489669,0.2220264375209808,35.75849914550781,64.76679992675781,-107.97877502441406,15.392827779383648,1.0395710848076811,81.47481909868863,1.070088811269764,-31.285255432128903,8.300376892089844,-31.13412475585937
674.164,-31.70425033569336,10.615713119506836,-7.798250198364258,-0.8872238397598267,0.5306577086448669,0.2326366007328033,66.60762023925781,56.6966667175293,-76.60636138916016,-45.463775634765625,-6.086273670196533,21.444242477416992,-1.0286219120025637,0.0550980307161808,0.2175753116607666,35.43352127075195,64.41793823242188,-107.45552825927734,34.33169906282342,1.0596619902510918,50.63450560227769,1.0528237492975214,-31.17409896850586,7.721271514892578,-30.849166870117188
692.538,-12.55196475982666,4.439987659454346,-3.5739662647247314,-0.8499050140380859,0.4534946978092193,0.188833862543106,66.44638061523438,56.83004379272461,-76.50255584716797,-23.97732734680176,0.768084704875946,10.96408462524414,-0.9681046605110168,0.0510081499814987,0.2142193466424942,35.34413146972656,64.3032455444336,-107.1466293334961,13.785446841122983,0.9816589028125314,26.37637830482166,0.9928335175363608,-31.10224914550781,7.473201751708984,-30.644073486328125
714.095,8.884848594665527,-2.3378119468688965,0.1360601037740707,-0.7965288758277893,0.5158905386924744,0.1475125402212143,66.6368179321289,56.80366134643555,-76.51463317871094,-11.213491439819336,2.9192757606506348,0.2310066223144531,-0.9104047417640686,0.2602519392967224,0.2840751707553863,35.26115036010742,64.37814331054688,-107.11865234375,9.18827576865714,0.9603964012127536,11.589561048511587,0.9885679381680892,-31.375667572021484,7.574481964111328,-30.604019165039062
736.8,-0.0271031856536865,-1.0645995140075684,1.25498366355896,-0.7537685036659241,0.6312441229820251,0.2263133227825164,66.66818237304688,56.71527099609375,-76.49311065673828,-1.2823922634124756,8.20651626586914,-20.381250381469727,-0.7672678232192993,0.4114701449871063,0.3141079246997833,34.756622314453125,64.74433898925781,-107.77227020263672,1.6459315610612726,1.0088874169038762,22.008789295447283,0.9255654385955632,-31.91156005859375,8.029067993164062,-31.27915954589844
753.051,-22.14493560791016,1.8273497819900515,-1.6223735809326172,-0.7129639983177185,0.596074640750885,0.2750597298145294,66.25193786621094,56.71822738647461,-76.45980072021484,0.6519124507904053,13.230623245239258,-19.99270439147949,-0.7209916114807129,0.2276144027709961,0.3557516932487488,34.33967971801758,65.16349792480469,-108.34891510009766,22.279350895848253,0.9691648441875748,23.98296499989199,0.8355815264973875,-31.91225814819336,8.445270538330078,-31.88911437988281
774.119,-23.81917953491211,1.951606035232544,-1.1641570329666138,-0.7595639228820801,0.5132983326911926,0.2131446748971939,65.83114624023438,56.72666931152344,-76.399169921875,-2.2481045722961426,10.04838752746582,-33.845123291015625,-0.9150965809822084,0.1876581609249115,0.3070752322673797,33.28544616699219,65.73970794677734,-109.56643676757812,23.92733460773551,0.9411924265125614,35.37677821190276,0.9833171086476186,-32.54570007324219,9.013038635253906,-33.167266845703125
796.884,-16.545818328857422,-0.1927697658538818,0.2683183550834656,-0.7857081890106201,0.4607759416103363,0.1610644608736038,65.54728698730469,56.73562240600586,-76.3607406616211,-14.987810134887695,9.16954231262207,-46.36376190185547,-0.9663659930229188,0.2964510321617126,0.3095069527626037,31.55580711364746,66.3978500366211,-111.26427459716795,16.5491165653595,0.9249830199532016,49.58138134980059,1.0571381181043984,-33.99147987365723,9.662227630615234,-34.903533935546875
819.2230000000001,-8.882079124450684,-2.320206642150879,2.05411958694458,-0.8019368052482605,0.5053645372390747,0.1877405643463134,65.37422943115234,56.673919677734375,-76.37068939208984,-23.549091339111328,6.909327983856201,-33.45210266113281,-0.8431842923164368,0.3177194893360138,0.3532918691635132,30.05710220336914,66.8051986694336,-112.51890563964844,9.407130046552618,0.9663035106071606,41.48905504512335,0.9678432566950892,-35.3171272277832,10.13127899169922,-36.148216247558594
840.253,-13.196456909179688,-0.2125040292739868,-0.3835431933403015,-0.8160268068313599,0.6000815629959106,0.289312332868576,65.08895874023438,56.62100982666016,-76.39250946044922,-16.633134841918945,-0.8105374574661255,-14.795705795288086,-0.7838925123214722,0.153785765171051,0.3627713024616241,29.027677536010746,66.90365600585938,-113.38273620605467,13.203739557392506,1.0534226396204225,22.27624419914935,0.8773485911156512,-36.06128120422363,10.28264617919922,-36.99022674560547
862.939,-31.279491424560547,5.9750075340271,-4.115233421325684,-0.8614391088485718,0.5746133327484131,0.3296306431293487,64.52298736572266,56.7058219909668,-76.30294799804688,7.256669044494629,-8.327856063842773,-10.471433639526367,-0.8907217979431152,0.1068368777632713,0.4244579374790191,28.393695831298828,66.83521270751953,-114.28746032714844,32.10984965587402,1.0866987537104882,15.220491276841686,0.9924535155210862,-36.12929153442383,10.129390716552734,-37.98451232910156
872.6859999999999,-35.13042449951172,7.005157947540283,-4.280640125274658,-0.8601822853088379,0.4672994017601013,0.2457850277423858,63.938133239746094,56.861427307128906,-76.15628051757812,21.58451461791992,-20.747350692749023,-2.1946232318878174,-0.9913060069084167,0.1899889558553695,0.4602530598640442,28.21485710144043,66.45772552490234,-115.01546478271484,36.07690179696687,1.0093030143157251,30.01933049201887,1.1093314571371078,-35.723276138305664,9.596298217773438,-38.85918426513672
894.248,-22.544208526611328,6.462646484375,-3.3055386543273926,-0.8391687870025635,0.4804138243198395,0.207628458738327,63.64833831787109,56.9898567199707,-75.974365234375,28.691139221191406,-30.58125686645508,1.6343175172805786,-0.9488736987113952,0.2837378680706024,0.440946877002716,28.255077362060547,65.85203552246094,-115.6778564453125,23.68403942465457,0.9889950821692798,41.96505373628376,1.08411374966926,-35.39326095581055,8.862178802490234,-39.7034912109375
914.184,-17.34511947631836,5.763058662414551,-4.597249031066895,-0.836737871170044,0.5321251749992371,0.2320586144924163,63.42815399169922,57.10622787475586,-75.83454895019531,27.211069107055664,-29.2418155670166,2.433762788772583,-0.9135814905166626,0.2878710627555847,0.3976155817508697,28.371524810791016,65.27722930908203,-116.2262191772461,18.84676931062285,1.0184000527682064,40.01811166105152,1.0371109099020024,-35.0566291809082,8.171001434326172,-40.39167022705078
937.571,-19.09538650512696,5.446722507476807,-2.796480417251587,-0.8417246341705322,0.5237089991569519,0.2473568171262741,63.17323684692383,57.188743591308594,-75.68902587890625,7.444448947906494,-26.869861602783203,2.5787572860717773,-0.8911041021347046,0.2462133467197418,0.3608578145503998,28.134063720703125,64.76873016357422,-116.7151107788086,20.05295176720152,1.021742076331563,28.00105840555277,0.9924242516516436,-35.0391731262207,7.579986572265625,-41.02608489990234
958.96,-23.233747482299805,6.083259582519531,0.2683813571929931,-0.8460651636123657,0.5093972682952881,0.2785329818725586,62.86320495605469,57.222957611083984,-75.49925994873047,-16.5776309967041,-13.484891891479492,3.776477336883545,-0.895244300365448,0.1769693344831466,0.3307235240936279,27.679086685180664,64.5212631225586,-116.93706512451172,24.018432458686327,1.0261054819149638,21.700735929082427,0.9706485213882196,-35.18411827087402,7.298305511474609,-41.43780517578125
982.719,-26.607572555541992,6.97885274887085,0.9636619091033936,-0.8792639970779419,0.4652475714683532,0.2370029836893081,62.54074478149414,57.29063415527344,-75.25140380859375,-26.957181930541992,-0.2314823865890503,-6.873605251312256,-1.0041720867156982,0.1028890460729599,0.3397724628448486,26.79606056213379,64.64300537109375,-117.39009857177734,27.52446088961436,1.022609844267262,27.82067020908209,1.0650788994475562,-35.74468421936035,7.352371215820312,-42.1386947631836
992.683,-20.680131912231445,4.373269557952881,2.747499942779541,-0.9024016261100768,0.4147765040397644,0.1944164484739303,62.3088493347168,57.340576171875,-75.04320526123047,-20.70353507995605,3.399725437164306,-13.407742500305176,-0.9809956550598145,0.1082304343581199,0.3230856955051422,25.87571144104004,64.88611602783203,-118.02304077148438,21.31530197931487,1.0120108687888565,24.89903726672103,1.0384847946925475,-36.43313789367676,7.545539855957031,-42.97983551025391
1018.867,-20.98981666564941,3.589518547058105,4.448591709136963,-0.866707980632782,0.4477061629295349,0.2166248708963394,62.07147216796875,57.32405853271485,-74.8331527709961,-8.878023147583008,5.005224704742432,-4.535794258117676,-0.8951724171638489,0.1334843784570694,0.35811248421669,25.567642211914062,65.03650665283203,-118.23638916015624,21.75424131639277,0.999274670302664,11.155491871986504,0.973342841497736,-36.50382995605469,7.7124481201171875,-43.40323638916016
1039.562,-28.40654563903809,6.867465019226074,2.264247417449951,-0.8526332974433899,0.4602128267288208,0.2999886870384216,61.67596435546875,57.34886932373047,-74.61127471923828,-4.296551704406738,2.933260917663574,6.709120273590088,-0.8786678910255432,0.2065764218568802,0.4219494462013244,25.801063537597656,64.99999237060547,-117.9633560180664,29.31246709679136,1.0142842787630872,8.489798054443376,0.996379654517329,-35.874900817871094,7.651123046875,-43.352081298828125
1059.922,-20.964216232299805,7.325171947479248,0.5526220798492432,-0.8432468175888062,0.4858655035495758,0.2973484396934509,61.43507385253906,57.39561462402344,-74.38906860351562,-6.613680839538574,3.041532039642334,20.575454711914062,-0.9169250726699828,0.2449513673782348,0.4420551657676697,26.547840118408203,64.83527374267578,-117.05943298339844,22.214002283647503,1.0176180901994922,21.82523832624691,1.046979240889332,-34.88723373413086,7.439659118652344,-42.67036437988281
1082.049,-12.602401733398438,8.067432403564453,-1.5297049283981323,-0.8512836694717407,0.4820177853107452,0.2714904546737671,61.37429428100586,57.49557876586914,-74.15979766845703,-19.69851493835449,7.889880180358887,20.368803024291992,-1.0262680053710938,0.2635726630687713,0.4275200366973877,27.12651634216309,64.7842788696289,-116.0541000366211,15.041409249269538,1.0152497713588102,29.41376950816406,1.1425716386044522,-34.24777793884277,7.288700103759766,-41.89430236816406
1102.7800000000002,-7.342574596405029,8.626848220825195,-0.862869143486023,-0.8650420308113098,0.4503365457057953,0.2436988055706024,61.45470428466797,57.61195373535156,-73.89147186279297,-25.94907569885254,7.894925117492676,14.730473518371582,-1.0361415147781372,0.2168864607810974,0.3699771165847778,27.344606399536133,64.81815338134766,-115.31217956542967,11.361357977271362,1.0052312307648033,30.865372544504343,1.1213884439895343,-34.11009788513184,7.206199645996094,-41.42070770263672
1113.064,-12.291176795959473,10.658974647521973,-0.7050375938415527,-0.8730834126472473,0.45082488656044,0.2593723833560943,61.48107147216797,57.7420539855957,-73.5758285522461,-21.452468872070312,3.984612226486206,22.19306945800781,-0.9009886384010316,0.13394396007061,0.3909685611724853,27.744178771972656,64.69196319580078,-114.45244598388672,16.284466389009456,1.0162636257535826,31.12262661265222,0.991250688167441,-33.73689270019531,6.949909210205078,-40.87661743164063
1134.346,-24.408567428588867,11.613808631896973,-2.214719533920288,-0.8771318197250366,0.4006646275520324,0.2827898561954498,61.22320938110352,57.92390060424805,-73.37507629394531,-24.299259185791016,0.7412186861038208,26.06809425354004,-0.8432552814483643,0.1429496705532074,0.4136091470718384,28.145750045776367,64.44343566894531,-113.52482604980467,27.121277578097644,1.0049191388925809,35.6447603460919,0.9500455802451396,-33.07745933532715,6.519535064697266,-40.149749755859375
1152.4589999999998,-20.86150932312012,6.958950996398926,-0.3714136183261871,-0.8423365354537964,0.389319896697998,0.2653327584266662,60.94618988037109,58.027099609375,-73.21831512451172,-31.82659912109375,-2.092433452606201,15.340476036071776,-0.862769603729248,0.2177412211894989,0.3936514258384704,28.03954696655273,64.24320983886719,-113.0151596069336,21.99471569001944,0.9651436647564694,35.39266724028698,0.9730077459038436,-32.90664291381836,6.216110229492188,-39.79684448242188
1174.273,-10.059307098388672,4.72617244720459,-0.2812643051147461,-0.8444031476974487,0.4819280505180359,0.2734932899475097,60.86841583251953,58.06527328491211,-73.07148742675781,-31.34699440002441,-0.0690862908959388,9.798542022705078,-0.9291589260101318,0.2103094607591629,0.3641088008880615,27.789270401000977,64.16498565673828,-112.68304443359376,11.117799913190568,1.0099850995751307,32.84281133827415,1.019873324464001,-33.079145431518555,6.099712371826172,-39.61155700683594
1196.494,-8.290034294128418,4.237236022949219,-0.186184749007225,-0.8423596620559692,0.514889121055603,0.2826928198337555,60.82291412353516,58.08053588867188,-72.93135833740234,-31.221614837646484,-2.502053022384644,6.865962505340576,-0.947206437587738,0.2086552083492279,0.3681443631649017,27.38529396057129,64.0750503540039,-112.52141571044922,9.312008509057897,1.0269351671970428,32.06541662791728,1.0374330356745944,-33.43762016296387,5.994514465332031,-39.59005737304688
1218.69,-11.770769119262695,4.118985176086426,0.0502614937722682,-0.8155456185340881,0.4685666561126709,0.2689458131790161,60.697601318359375,58.104122161865234,-72.82257080078125,-38.3380126953125,-0.098162904381752,3.950297355651856,-0.9001361131668091,0.2271385043859481,0.3478211164474487,26.818666458129883,64.05021667480469,-112.3960189819336,12.470748604537109,0.9782643904166608,38.541117038557786,0.9913709958680884,-33.87893486022949,5.946094512939453,-39.57344818115234
1231.228,-8.05244255065918,2.4476840496063232,-0.6454445123672485,-0.7983430624008179,0.4393602311611175,0.2515376508235931,60.59092712402344,58.13471603393555,-72.8494644165039,-44.91960525512695,1.816936731338501,-1.2648649215698242,-0.8459669351577759,0.215786725282669,0.412247896194458,25.91936683654785,64.06544494628906,-112.49028778076172,8.440947035546943,0.9453360501913162,44.97412676897611,0.9654907012008016,-34.671560287475586,5.930728912353516,-39.64082336425781
1254.158,-3.263036727905273,1.1832029819488523,-1.819267988204956,-0.82918381690979,0.4580296874046325,0.2372802644968032,60.55097579956055,58.17809295654297,-72.92047882080078,-39.97258758544922,-2.7050576210021973,3.6711175441741934,-0.8772337436676025,0.1660647988319397,0.4311819672584533,25.16095924377441,63.96742248535156,-112.52745819091795,3.918815381854409,0.9765443772244796,40.23185552559681,0.991480936442572,-35.39001655578613,5.789329528808594,-39.60697937011719
1277.006,-1.6980485916137695,0.924040675163269,0.140292227268219,-0.8523296117782593,0.5102784633636475,0.2593763172626495,60.571895599365234,58.16472625732422,-72.88829040527344,-24.88251495361328,-16.324033737182617,8.753594398498535,-0.9093165397644044,0.1901736259460449,0.4097092449665069,24.707120895385746,63.59489059448242,-112.57624053955078,1.9382729678426551,1.0267063607690263,31.019978123185226,1.0153246982643538,-35.86477470397949,5.430164337158203,-39.687950134277344
1298.9440000000002,-7.073757171630859,3.007964372634888,0.2403351068496704,-0.8613231778144836,0.5066812634468079,0.2584971785545349,60.544036865234375,58.174591064453125,-72.76299285888672,-10.515377044677734,-14.507560729980469,9.40169906616211,-0.8869909048080444,0.1984705030918121,0.3421505689620971,24.64745712280273,63.2780876159668,-112.492919921875,7.690490956618066,1.0321939307558194,20.23448586093752,0.9711902067313062,-35.89657974243164,5.103496551513672,-39.72992706298828
1321.424,-4.365511894226074,1.0687942504882812,1.5750162601470947,-0.8136323690414429,0.4608103632926941,0.2452775239944458,60.526947021484375,58.14956283569336,-72.68535614013672,-19.422039031982425,-3.3910157680511475,4.211441516876221,-0.8693339824676514,0.1514273732900619,0.3900018632411957,24.322694778442383,63.19256591796875,-112.48444366455078,4.762424956703661,0.9666979293692428,20.16062567851228,0.964765917612246,-36.20425224304199,5.043003082275391,-39.79908752441406
1331.54,5.276772499084473,-0.5053787231445312,1.59575617313385,-0.8085984587669373,0.4630839824676513,0.2418397665023803,60.66289520263672,58.10723114013672,-72.65580749511719,-17.413423538208008,0.8585565090179443,-7.642302513122559,-0.84037846326828,0.1747117936611175,0.4312966167926788,23.690731048583984,63.24898910522461,-112.87586212158205,5.535898610433195,0.9626861975744184,19.035998169317867,0.9606127960974972,-36.972164154052734,5.141757965087891,-40.22005462646485
1356.116,9.855805397033691,-0.5873160362243652,2.973455905914306,-0.8263559341430664,0.496435284614563,0.2523371279239654,60.91449737548828,58.02962493896485,-72.5994873046875,-13.740336418151855,1.7292250394821167,-1.268535852432251,-0.904522180557251,0.1556194126605987,0.3966578245162964,23.378437042236328,63.30545425415039,-113.00221252441406,10.311318061965764,0.9964869029910618,13.906697930496229,0.999857593093574,-37.53606033325195,5.275829315185547,-40.40272521972656
1377.049,4.295472145080566,1.983281135559082,2.92960786819458,-0.8509110808372498,0.4962579905986786,0.2668112218379974,61.10927581787109,57.98274230957031,-72.4736328125,-4.226480007171631,1.0428341627120972,-14.22465705871582,-0.9278134107589722,0.1620411872863769,0.402358204126358,22.78313636779785,63.45117568969727,-113.66403198242188,5.564807927791862,1.0205439181256923,14.875869883136742,1.0242007596116904,-38.32613945007324,5.468433380126953,-41.19039916992188
1400.257,8.185967445373535,1.4564744234085083,3.5859017372131348,-0.8475958704948425,0.4660969078540802,0.2585486769676208,61.36682891845703,57.93288803100586,-72.36210632324219,13.018152236938477,-3.7762136459350586,-19.774003982543945,-0.9445844888687134,0.1440068632364273,0.4230464398860931,22.22031211853028,63.54396438598633,-114.64537811279295,9.054836941199254,1.0012554646805938,23.97380467646961,1.0449622594002432,-39.14651679992676,5.611076354980469,-42.28327178955078
1421.346,12.651148796081545,-0.0735178291797638,4.460453033447266,-0.8114591240882874,0.4789822995662689,0.2536975443363189,61.69194412231445,57.83775329589844,-72.29940795898438,15.490918159484863,-9.32758331298828,-16.459331512451172,-0.8934065699577332,0.1983668953180313,0.4267172217369079,21.8089599609375,63.48167419433594,-115.52316284179688,13.41464170208775,0.9758342058803842,24.45162468469864,1.0097585413001575,-39.88298416137695,5.6439208984375,-43.2237548828125
1432.074,15.886297225952148,-0.6651089191436768,3.591121196746826,-0.8149739503860474,0.4932886660099029,0.2570874989032745,62.05164337158203,57.74733352661133,-72.33013916015625,8.72441291809082,-10.680116653442385,-15.570430755615234,-0.8779852390289307,0.268031358718872,0.4735846519470215,21.341928482055664,63.347938537597656,-116.32540893554688,16.300704306113396,0.9867168945112932,20.7994852439164,1.0329478746621994,-40.70971488952637,5.600605010986328,-43.99526977539063
1458.904,13.603174209594728,-1.563836932182312,3.7682344913482666,-0.8192328214645386,0.5252699255943298,0.2602025270462036,62.35152816772461,57.63364028930664,-72.37470245361328,0.6944375038146973,-16.067115783691406,-5.576519012451172,-0.9265506863594056,0.1413659304380417,0.4309337735176086,20.893009185791016,63.09404754638672,-116.90084075927734,14.201814169634355,1.0073511133561384,17.02151630582538,1.0315931454986624,-41.4585189819336,5.460407257080078,-44.52613830566406
1482.0169999999998,2.198503494262696,0.7169615626335144,0.6214964985847473,-0.8204028010368347,0.516567587852478,0.2651534378528595,62.42961120605469,57.6005744934082,-72.3531494140625,-8.362447738647461,-14.642251014709473,-25.70371437072754,-0.7909957766532898,0.1884796023368835,0.4123806655406952,19.58153533935547,62.9868049621582,-118.24710083007812,2.3945165262182413,1.0050916248651174,30.74096581780273,0.911732796652724,-42.84807586669922,5.38623046875,-45.893951416015625
1501.984,2.265683650970459,0.1165170669555664,1.5922476053237915,-0.8405902981758118,0.4752850234508514,0.2412572056055069,62.50804901123047,57.573978424072266,-72.31608581542969,-7.275618076324463,-16.57937240600586,-17.026611328125,-0.9233211278915404,0.1520430594682693,0.4216597080230713,18.602914810180664,62.7967643737793,-119.24728393554688,2.771669365170764,0.9953355927326996,24.853887041841208,1.0263702580031633,-43.905134201049805,5.222785949707031,-46.93119812011719
1512.543,7.267023086547852,-1.6015644073486328,2.933271884918213,-0.8586209416389465,0.4835405945777893,0.2312386929988861,62.66999435424805,57.5123405456543,-72.31510162353516,-0.5736576318740845,-21.23656845092773,-18.65015411376953,-0.970592439174652,0.1265108287334442,0.4524121880531311,17.62702751159668,62.52364349365234,-120.3890609741211,7.998669704529441,1.012182177854079,28.269226574437816,1.0783002646150308,-45.04296684265137,5.011302947998047,-48.07395935058594
1542.022,9.978890419006348,-2.855769634246826,3.766200304031372,-0.8644929528236389,0.4951905608177185,0.242940291762352,62.85557556152344,57.419395446777344,-72.33541107177734,1.7787141799926758,-26.076698303222656,-14.365142822265623,-0.9478762149810792,0.1164944320917129,0.4394943714141845,16.826900482177734,62.12912368774414,-121.39026641845705,11.041645662151495,1.0254665973917814,29.82474386873242,1.0512828230975606,-46.0286750793457,4.709728240966797,-49.05485534667969
1551.971,9.252813339233398,-3.352412223815918,4.620952606201172,-0.8586621880531311,0.5088986158370972,0.2563989758491516,63.01678466796875,57.2974853515625,-72.36481475830078,6.206105709075928,-19.817602157592773,-13.39486598968506,-0.7820802330970764,0.1577545255422592,0.4283539354801178,16.297273635864258,61.80228042602539,-122.20111083984376,10.87227783851403,1.0305430554856008,24.71185015798032,0.9055512549665788,-46.71951103210449,4.504795074462891,-49.83629608154297
1573.532,-0.5008570551872253,-1.3163663148880005,2.3801074028015137,-0.839950442314148,0.4988198280334472,0.2607064545154571,62.99795913696289,57.2325325012207,-72.45654296875,-0.9835708737373352,-10.395201683044434,2.7802553176879883,-0.7623634934425354,0.1234800219535827,0.4533058404922485,16.25708770751953,61.55421447753906,-122.27734375,2.7656083080532574,1.0110914013129926,10.80543610070258,0.895506335533115,-46.74087142944336,4.321681976318359,-49.82080078125
1592.1129999999998,-2.5217342376708984,-0.2050763815641403,1.0200377702713013,-0.8274602293968201,0.4827289879322052,0.2774327099323272,62.92734146118164,57.201507568359375,-72.5633773803711,-7.378551959991455,-8.080605506896973,-1.116194725036621,-0.8223277926445007,0.1449159681797027,0.5229507088661194,15.98034381866455,61.35613250732422,-122.47301483154295,2.727943720185062,0.9973397693684356,10.999322935916874,0.9852416354847244,-46.94699764251709,4.154624938964844,-49.90963745117188
1613.725,2.447568893432617,-0.4224928319454193,2.6681137084960938,-0.8455758690834045,0.4975631237030029,0.2598341107368469,62.99724960327149,57.142826080322266,-72.62791442871094,-8.08552360534668,-17.683103561401367,-7.077674388885498,-0.9611655473709106,0.1593543291091919,0.5343581438064575,15.406047821044922,61.03999710083008,-122.99603271484376,3.645260545229792,1.0149292475575096,20.69205930522503,1.1112027886533338,-47.59120178222656,3.897171020507813,-50.36811828613281
1638.193,3.368903160095215,-1.69040846824646,3.513435840606689,-0.8372063040733337,0.5026310682296753,0.2405235320329666,63.08183288574219,57.05770492553711,-72.70040893554688,-7.990675449371338,-23.728487014770508,-23.651500701904297,-1.0034072399139404,0.1222181543707847,0.4671086370944977,14.20252513885498,60.73551940917969,-124.23030090332033,5.15278766277813,1.0056858136572522,34.44249519996334,1.1135321482641587,-48.87930774688721,3.677814483642578,-51.52989196777344
1651.875,-3.5323805809021,-0.1301744878292083,3.079869508743286,-0.8484692573547363,0.4786668121814728,0.2406519502401352,63.05335235595703,57.00882339477539,-72.7351303100586,-12.51105499267578,-10.46169662475586,-4.858407497406006,-0.9710445404052734,0.1082624644041061,0.4261080920696258,13.692124366760254,60.60579681396485,-124.56716918945312,4.688310373311739,1.0034616878159583,17.016983184719805,1.065934503980876,-49.36122798919678,3.596973419189453,-51.83203887939453
1673.455,-4.147282123565674,-0.0479799136519432,3.561182737350464,-0.8560584187507629,0.4642852544784546,0.2403172999620437,63.01535034179688,56.96119689941406,-72.76276397705078,-13.533388137817385,-8.496770858764648,0.8616948127746582,-0.830686628818512,0.131122812628746,0.4007548093795776,13.423450469970703,60.4620246887207,-124.62228393554688,5.466651038191883,1.0030698971164609,16.002819359898155,0.9315781687708226,-49.59189987182617,3.5008277893066406,-51.859519958496094
1695.94,-1.7065269947052002,-0.9931942224502563,2.167917490005493,-0.8390887975692749,0.4700866341590881,0.2239308208227157,62.99944305419922,56.92627334594727,-72.82669067382812,-11.485074996948242,-8.675739288330078,4.215638637542725,-0.8286612629890442,0.1217394992709159,0.4619732201099396,13.281962394714355,60.27044677734375,-124.58306884765624,2.932325935266721,0.9875203624916334,14.998233529550832,0.9565141141457756,-49.71748065948486,3.3441734313964844,-51.756378173828125
1719.686,0.7086591124534607,-0.4989185333251953,0.8318117260932922,-0.8417253494262695,0.4778687953948974,0.2277034819126129,63.026668548583984,56.916412353515625,-72.86569213867188,-13.28862762451172,-9.841760635375977,0.1345853209495544,-0.96894770860672,0.0400203131139278,0.5663765072822571,12.85195255279541,60.074981689453125,-124.80484008789062,1.2012610824566794,0.9943384862078272,16.536807120952556,1.1230510386786516,-50.174715995788574,3.1585693359375,-51.93914794921875
1732.13,-0.7193431854248047,0.0991036295890808,1.9538072347640991,-0.8276161551475525,0.4560729265213012,0.224010944366455,63.05037307739258,56.898216247558594,-72.89735412597656,-25.88105773925781,-1.7046171426773071,-9.909282684326172,-1.053945541381836,0.1180941015481948,0.5039241909980774,11.991950035095217,60.12265396118164,-125.265625,2.084379729903208,0.9711497916196414,27.76560376840008,1.1741750343505832,-51.05842304229736,3.224437713623047,-52.36827087402344
1753.581,-2.791998624801636,1.5321494340896606,2.517540454864502,-0.8224880695343018,0.4729229211807251,0.2460796535015106,63.06627655029297,56.869178771972656,-72.90766143798828,-29.61612892150879,8.217094421386719,17.624584197998047,-0.9522414207458496,0.0943739265203476,0.4923198521137237,12.050670623779297,60.23119354248047,-124.58341979980467,4.059648771895772,0.9801519829964108,35.429672608955,1.0761268504113355,-51.01560592651367,3.3620147705078125,-51.675758361816406
1775.9689999999998,-0.5454524755477905,1.7513290643692017,0.8726831078529358,-0.8323529362678528,0.4490807354450226,0.232540488243103,63.111366271972656,56.88813018798828,-72.85144805908203,-27.64734268188477,2.332391262054444,27.21466636657715,-0.8556468486785889,0.131264254450798,0.4799337089061737,12.474617004394531,60.15825271606445,-123.53758239746094,2.0313167408155173,0.9739404479401702,38.86455546912869,0.9897970494472892,-50.636749267578125,3.270122528076172,-50.686134338378906
1798.664,8.15463638305664,0.1424314975738525,-0.0924168676137924,-0.8268718123435974,0.4716372489929199,0.238564133644104,63.27738952636719,56.896602630615234,-72.84803009033203,-21.04581642150879,2.200826644897461,35.02908706665039,-0.8384594321250916,0.0947798565030098,0.4670214056968689,13.245677947998049,60.04817962646485,-122.2212142944336,8.156403750967197,0.9813620812663169,40.9244055239867,0.9644202579256316,-50.03171157836914,3.1515769958496094,-49.37318420410156
1821.084,10.977993965148926,-0.5268300771713257,-1.0571966171264648,-0.8211419582366943,0.5012816190719604,0.2403793632984161,63.47872924804688,56.90114212036133,-72.90158081054688,-2.834816694259644,-11.064967155456545,25.202709197998047,-0.7560263872146606,0.1086103469133377,0.4265810549259186,13.951485633850098,59.71306991577149,-121.40431213378906,11.041357077656814,0.991634819626636,27.67031323928662,0.874839129236454,-49.52724361419678,2.811927795410156,-48.50273132324219
1831.259,5.807321548461914,1.1080825328826904,-1.275622844696045,-0.8169637322425842,0.480436623096466,0.2311665713787078,63.61579895019531,56.93378829956055,-72.95374298095703,10.18867301940918,1.8883739709854128,13.133538246154783,-0.7870603799819946,0.0924328714609146,0.4779641032218933,14.575173377990724,59.67195892333984,-120.98153686523438,6.04814385649186,0.9755445004381174,16.72916139601571,0.9254499237844372,-49.04062557220459,2.738170623779297,-48.027793884277344
1854.815,7.773759841918945,1.6025738716125488,-0.9646812081336976,-0.8359130024909973,0.4332591593265533,0.2180472612380981,63.79897689819336,56.994625091552734,-72.99520111083984,3.2714827060699463,9.576995849609377,29.727434158325195,-0.7088680863380432,0.0940127521753311,0.4669336676597595,15.666321754455566,59.666351318359375,-119.8545150756836,7.99563599266082,0.9664412320505068,31.402894615578187,0.8540254161290134,-48.13265514373779,2.6717262268066406,-46.85931396484375
1875.723,15.347610473632812,-1.53827965259552,0.7106543183326721,-0.8256480693817139,0.4744088351726532,0.2154587656259536,64.08941650390625,56.976318359375,-73.11420440673828,-0.6956828832626343,-8.929659843444824,16.59058952331543,-0.7153327465057373,0.1585340648889541,0.4746077060699463,16.1414737701416,59.35844421386719,-119.36458587646484,15.440870477408904,0.9763098673314148,18.85392426856646,0.8729756368963759,-47.94794273376465,2.3821258544921875,-46.25038146972656
1898.388,17.937305450439453,-2.954549789428711,-0.0612370818853378,-0.8429929614067078,0.5171771049499512,0.2148732095956802,64.39836883544922,56.94682312011719,-73.27710723876953,-1.3277782201766968,-9.911324501037598,7.278954029083252,-0.9412056803703308,0.1395792961120605,0.5094003081321716,16.24849510192871,59.14131546020508,-119.27159881591795,18.179110023892147,1.0120670862485417,12.368529424484992,1.079277159301385,-48.14987373352051,2.19449234008789,-45.99449157714844
1918.291,8.555438995361328,-0.1981425285339355,0.6632546782493591,-0.8558289408683777,0.5311586260795593,0.2443322241306305,64.58155822753906,56.92069625854492,-73.35518646240234,6.94398832321167,-10.756155967712402,3.445018529891968,-1.0108671188354492,0.1280132234096527,0.4760691821575165,16.38697624206543,58.96511459350586,-119.33102416992188,8.583396975159818,1.0364704037430277,13.25828109922075,1.1246695441375385,-48.19458198547363,2.044418334960937,-45.97583770751953
1940.96,4.956648826599121,1.5873703956604004,0.9411786794662476,-0.8396027684211731,0.4802317917346954,0.2445703446865081,64.72135925292969,56.92158508300781,-73.3897705078125,22.38699722290039,-6.096704483032227,-2.7111403942108154,-0.910336971282959,0.1295071244239807,0.4666581153869629,16.682865142822266,58.89393997192383,-119.55125427246094,5.289038633809298,0.9976823322246872,23.3601740671746,1.0311427123428218,-48.03849411010742,1.972354888916016,-46.16148376464844
1950.969,17.68711280822754,-1.4616655111312866,0.7927985191345215,-0.835677981376648,0.4437515139579773,0.2167978137731552,65.0369873046875,56.92014694213867,-73.51960754394531,24.478933334350582,3.826902866363525,-4.127860069274902,-0.7942901849746704,0.1455970108509063,0.4806715250015259,17.079296112060547,58.97861862182617,-119.69982147216795,17.765104982784067,0.9707081882597705,25.117774413503994,0.93975555463275,-47.95769119262695,2.0584716796875,-46.180213928222656
1974.651,32.51681137084961,-7.07061243057251,0.3484910726547241,-0.8226205110549927,0.5018634796142578,0.1944679170846939,65.53076934814453,56.854793548583984,-73.78060150146484,16.61036491394043,11.586382865905762,1.9630168676376345,-0.824815034866333,0.164223775267601,0.537626326084137,17.58706283569336,59.15719223022461,-119.54850769042967,33.2784919715197,0.983050979427907,20.34703727111757,0.9981639928405656,-47.94370651245117,2.302398681640625,-45.76790618896485
1990.903,21.00883674621582,-4.330704212188721,-0.4653407633304596,-0.8446211218833923,0.5699557662010193,0.2369561493396759,65.84329986572266,56.79809188842773,-73.970458984375,19.633054733276367,6.877153396606445,12.769248962402344,-0.9003109335899353,0.1912739276885986,0.453977108001709,18.50487899780273,59.230934143066406,-119.0194854736328,21.455599791863992,1.046127445231812,24.40913345582129,1.0262751615159549,-47.33842086791992,2.432842254638672,-45.04902648925781
2014.661,8.41351318359375,-0.4358283877372741,-0.3654772937297821,-0.8451139330863953,0.4894463419914245,0.2358795255422592,65.97909545898438,56.80639266967773,-74.07244110107422,4.187405586242676,27.04500198364257,6.381497383117676,-0.8683735132217407,0.1542146801948547,0.4639710783958435,19.0593318939209,59.69261932373047,-118.53076934814452,8.432717481707517,1.0046961889823132,28.10142357051801,0.9965560132980344,-46.91976356506348,2.8862266540527344,-44.45832824707031
2031.042,11.59368896484375,0.002303559333086,0.3538977205753326,-0.84879469871521,0.4785346984863281,0.2169323712587356,66.21133422851562,56.81459045410156,-74.15583801269531,18.186737060546875,8.196661949157715,-1.086751937866211,-0.777123749256134,0.0881195962429046,0.4759297966957092,19.390764236450195,59.84164810180664,-118.59503936767578,11.599089305482297,0.99825224864379,19.978080533241805,0.9155302050084106,-46.82056999206543,3.027057647705078,-44.43920135498047
2054.572,14.121027946472168,1.523610234260559,-2.470425844192505,-0.8467172384262085,0.5245683789253235,0.2378858178853988,66.4989242553711,56.86183547973633,-74.23094177246094,24.60152053833008,8.158989906311035,1.258936882019043,-0.7539526224136353,0.1004222333431243,0.5193649530410767,19.927654266357425,59.95447540283203,-118.56658935546876,14.416234677010696,1.024056506432849,25.949737015277627,0.921015274705788,-46.57126998901367,3.092639923095703,-44.33564758300781
2077.477,13.377008438110352,2.3871312141418457,-4.565962314605713,-0.8362061977386475,0.5044498443603516,0.2411472201347351,66.7563705444336,56.95838928222656,-74.33328247070312,39.30062103271485,-2.536362648010254,3.327064037322998,-0.706942081451416,0.1445971131324768,0.4588195979595184,20.760574340820312,59.8431282043457,-118.55209350585938,14.334948972535807,1.005913730093401,39.52266823163307,0.8550969858003482,-45.99579620361328,2.8847389221191406,-44.21881103515625
2090.738,9.444904327392578,2.166330337524414,-6.212518692016602,-0.8096481561660767,0.5192949771881104,0.2421676814556121,66.91230010986328,57.067195892333984,-74.40309143066406,52.4443359375,-2.4760167598724365,4.080294609069824,-0.726700484752655,0.0518930815160274,0.4069895148277282,21.861560821533203,59.7573356628418,-118.5192413330078,11.510629582413523,0.9918883989933114,52.66106564642732,0.8345219899012144,-45.05073928833008,2.6901397705078125,-44.11614990234375
2113.935,-1.5812151432037354,3.8992919921875,-10.057464599609377,-0.8259467482566833,0.5239116549491882,0.268987625837326,66.8263931274414,57.257423400878906,-74.47750091552734,82.69743347167969,-1.4575544595718384,-11.715107917785645,-0.7647632360458374,-0.0476463735103607,0.2443200200796127,23.12657356262207,59.82020568847656,-119.00411224365234,10.902170129925056,1.0144090871048956,83.53582298230424,0.804254472370339,-43.699819564819336,2.562782287597656,-44.526611328125
2136.822,-8.045573234558105,1.7796235084533691,-12.969650268554688,-0.8271164298057556,0.5203503966331482,0.2565292418003082,66.5254898071289,57.48625564575195,-74.63347625732422,136.9882049560547,16.136573791503906,-19.01095199584961,-0.6871994733810425,-0.0034480481408536,0.1371780335903167,25.50235939025879,60.27039337158203,-119.46139526367188,15.365875718392958,1.0102937076066223,139.23926747365198,0.7007658796993971,-41.02313041687012,2.784137725830078,-44.827919006347656
2158.201,-5.69272518157959,-2.4248476028442383,-13.513191223144531,-0.8271963596343994,0.5348918437957764,0.2322273254394531,66.17346954345703,57.68694686889648,-74.91667175292969,154.81320190429688,40.69189453125,-24.08053970336914,-0.7902253866195679,0.2468202710151672,0.3658539354801178,28.552703857421875,61.21010971069336,-119.53997039794922,14.86248104871055,1.012073432430873,161.87288270988597,0.9051107721977107,-37.62076568603516,3.523162841796875,-44.62329864501953
2179.656,-10.585156440734863,-5.010836124420166,-8.730454444885254,-0.8204309940338135,0.4844822287559509,0.1858168095350265,65.73541259765625,57.80569839477539,-75.1950912475586,158.21531677246094,16.461116790771484,-38.46990585327149,-0.9601395726203918,0.4357040524482727,0.463221788406372,30.943883895874023,61.83871078491211,-120.47187042236328,14.607356035739032,0.9707512207859544,163.6550900026307,1.1516424989925969,-34.79152870178223,4.033012390136719,-45.27677917480469
2190.788,-11.66880702972412,-3.338252544403076,-0.9316781163215636,-0.8584622144699097,0.4901710450649261,0.2267624139785766,65.39029693603516,57.79560852050781,-75.32618713378906,150.59652709960938,13.39553165435791,-33.74504852294922,-0.8923542499542236,0.3321059644222259,0.4163291156291961,33.21831512451172,62.39627456665039,-121.3167724609375,12.172633719108829,1.0142219774221095,154.91120857634053,1.0391921918186118,-32.17198181152344,4.600666046142578,-45.99058532714844
2213.451,-7.062768936157227,-3.851988077163696,2.568148136138916,-0.8710329532623291,0.5672929883003235,0.2645802795886993,65.16963195800781,57.68257141113281,-75.41910552978516,152.0807342529297,1.871891021728516,-18.11481475830078,-0.9236093759536744,0.3110013902187347,0.3916136026382446,35.76990509033203,62.623966217041016,-121.85769653320312,8.444874305832654,1.0726241021862413,153.16722959117266,1.0503034598813936,-29.39972686767578,4.941394805908203,-46.43859100341797
2235.808,-13.812263488769531,-2.4605748653411865,0.4597049951553345,-0.8845056295394897,0.560501217842102,0.2558482587337494,64.83450317382812,57.62855529785156,-75.4906997680664,156.10476684570312,2.4802358150482178,-7.440796852111816,-0.842799723148346,0.3565436601638794,0.3159010410308838,38.83015060424805,62.74606323242188,-121.94456481933594,14.037249731828362,1.077947195082681,156.3016802834953,0.968105481167409,-26.00435256958008,5.1175079345703125,-46.45386505126953
2259.441,-17.031862258911133,-2.699423313140869,1.0507153272628784,-0.8584875464439392,0.5619583129882812,0.2212132960557937,64.47290802001953,57.560096740722656,-75.52974700927734,142.23712158203125,-0.6832631826400757,5.436481952667236,-0.8970113396644592,0.4639932811260223,0.5117658376693726,41.79567337036133,62.63627243041992,-121.75978088378906,17.27643542311304,1.049634858075816,142.3426181455855,1.1321763913022362,-22.677234649658203,5.076175689697266,-46.23003387451172
2280.594,-25.01986312866211,3.420374155044556,1.5525728464126587,-0.8334939479827881,0.4782710969448089,0.280069887638092,64.04278564453125,57.551490783691406,-75.430419921875,122.3653335571289,-15.88748550415039,-12.788262367248535,-1.1657745838165283,0.4017307758331299,0.4483832418918609,43.459903717041016,62.57637786865234,-122.63906860351562,25.300256773023083,1.0009468244908613,124.05332202954337,1.3120463132578604,-20.582881927490234,5.0248870849609375,-47.20864868164063
2290.854,-17.244592666625977,4.142543315887451,3.959223747253418,-0.8168773055076599,0.4614441394805908,0.2920239567756653,63.80550003051758,57.50593948364258,-75.2811279296875,108.0877914428711,-17.920440673828125,19.249961853027344,-1.0882911682128906,0.5197376608848572,0.4587017893791199,45.67537307739258,62.02426910400391,-122.5592803955078,18.17173888329539,0.982597179644514,111.2415115156424,1.2903147811800992,-18.130126953125,4.518329620361328,-47.27815246582031
2313.554,-13.574579238891602,3.256955623626709,4.564912796020508,-0.8227986693382263,0.5274564623832703,0.3128510117530823,63.63994216918945,57.4124641418457,-75.13870239257812,9.89503288269043,-14.04671573638916,-70.26919555664062,-0.8583375811576843,0.4604032635688782,0.35967618227005,43.6660270690918,62.81263732910156,-125.06510162353516,14.68725264583177,1.0261986774156149,72.33935127512446,1.0383070472768912,-19.973915100097656,5.400173187255859,-49.92639923095703
2338.242,-29.106807708740234,2.5768725872039795,2.151092052459717,-0.8443253040313721,0.4951292276382446,0.2609809935092926,63.14824295043945,57.387943267822266,-75.02754974365234,-1.39752459526062,5.482663631439209,-22.478206634521484,-0.8695664405822754,0.2847359180450439,0.2215651124715805,43.21727752685547,63.248348236083984,-125.61442565917967,29.299722257086646,1.0129902517114422,23.179353938238016,0.9414411488119828,-19.930965423583984,5.860404968261719,-50.586875915527344
2358.683,-23.536508560180664,-3.207174062728882,2.831752061843872,-0.8236960768699646,0.4845144748687744,0.2344876825809478,62.642032623291016,57.30343246459961,-75.08618927001953,-12.856141090393066,10.066975593566896,8.797964096069336,-0.8046015501022339,0.4596506655216217,0.3124501705169678,43.5212287902832,63.26155853271485,-125.05480194091795,23.922207682650352,0.9839786464606426,18.548006188625497,0.9778995335909868,-19.12080383300781,5.958126068115234,-49.96861267089844
2380.671,-24.518354415893555,-5.845163345336914,3.458810329437256,-0.802518367767334,0.467273086309433,0.2340988516807556,62.05172729492188,57.18478775024414,-75.30154418945312,-62.24738311767578,17.405832290649414,29.77220916748047,-0.8254708647727966,0.6353399753570557,0.3796972930431366,43.601863861083984,63.10285186767578,-123.6200942993164,25.441678535270803,0.9576962671699922,71.16237869437144,1.108706032823732,-18.44986343383789,5.918064117431641,-48.31855010986328
2390.9060000000004,-26.465744018554688,-4.653249740600586,6.06775426864624,-0.8238530158996582,0.5048332214355469,0.2405658215284347,61.51294708251953,57.02167892456055,-75.41043090820312,-129.26593017578125,17.99429702758789,18.95446014404297,-0.9246245622634888,0.456705093383789,0.5245102047920227,41.98257064819336,63.08231735229492,-122.59147644042967,27.548248246825736,0.9957219932087495,131.8815642501981,1.156987933556186,-19.53037643432617,6.060638427734375,-47.18104553222656
2413.231,-41.30698394775391,1.2428191900253296,4.375040531158447,-0.8504188656806946,0.4630716145038605,0.2875672578811645,60.75555419921875,56.96133804321289,-75.40225982666016,-167.48023986816406,8.703744888305664,13.821189880371094,-0.8649532198905945,0.2184309512376785,0.3247807323932647,39.21484756469727,63.06563186645508,-121.98796081542967,41.55661802948326,1.0101200399309695,168.274808605114,0.9493885807147724,-21.540706634521484,6.104293823242188,-46.58570098876953
2430.804,-38.66328811645508,1.5413219928741455,4.431798934936523,-0.8396844863891602,0.4181411266326904,0.265844851732254,60.06487274169922,56.92513275146485,-75.38115692138672,-125.72795867919922,6.832381725311279,35.44977951049805,-0.92350572347641,0.1937160491943359,0.2226132750511169,37.9678840637207,62.772003173828125,-120.59080505371094,38.94696860169529,0.974979755511276,130.80859261157778,0.96950781288143,-22.09698867797852,5.846870422363281,-45.20964813232422
2460.582,-26.03022003173828,-1.3172078132629397,4.685129642486572,-0.8384069800376892,0.4599384665489197,0.2243655025959015,59.621543884277344,56.848854064941406,-75.38746643066406,-56.26622772216797,-3.520056962966919,31.352516174316406,-0.8874642848968506,0.4128130376338959,0.218649685382843,37.754180908203125,62.34158706665039,-119.57207489013672,26.481273215065325,0.9822471867826352,64.50782474681786,1.002903358218537,-21.86736297607422,5.492733001708984,-44.184608459472656
2470.466,-27.249454498291016,-1.4677406549453735,3.1181557178497314,-0.7978259921073914,0.4359807670116424,0.2236811965703964,59.11968994140625,56.7971305847168,-75.41078186035156,-54.8437728881836,9.70328140258789,57.21109771728516,-0.768409013748169,0.3057305812835693,0.4050301015377044,38.51445007324219,61.77640914916992,-117.50700378417967,27.46652377286524,0.9362899233599428,79.84424084807382,0.9208544857321737,-20.605239868164062,4.979278564453125,-42.096221923828125
2493.0530000000003,-24.037710189819336,-1.7531542778015137,3.755800724029541,-0.8149421215057373,0.4120975136756897,0.2480914294719696,58.65353012084961,56.74168014526367,-75.45655822753906,-63.34943771362305,18.009689331054688,53.58614349365234,-0.792850136756897,0.3924703598022461,0.3103743195533752,39.249267578125,61.39402770996094,-115.30352020263672,24.39243940589253,0.946310931755204,84.90568263052603,0.9375374877395332,-19.40426254272461,4.652347564697266,-39.846961975097656
2515.9060000000004,-18.379228591918945,-1.6125402450561523,3.239112615585327,-0.8408372402191162,0.4441491365432739,0.2544930279254913,58.31202697753906,56.68953323364258,-75.45443725585938,-46.361358642578125,16.267318725585938,26.47501945495605,-1.137418508529663,-0.1151365041732788,0.3381245136260986,39.46232604980469,61.30650329589844,-114.0749053955078,18.732009508122204,0.984399523209007,55.81153902953989,1.192185163828997,-18.84970092773437,4.616970062255859,-38.62046813964844
2530.98,-13.29197120666504,1.022308111190796,0.8109856247901917,-0.8957077264785767,0.4554882347583771,0.2341166138648986,58.12749481201172,56.72295379638672,-75.37247467041016,-15.796648025512695,1.4474667310714722,-34.00079345703125,-0.8587648272514343,0.0949239432811737,0.2708890438079834,38.200157165527344,61.76786804199219,-115.22897338867188,13.355871746787452,1.031781203630057,37.51910452672334,0.9054658787538252,-19.92733764648437,5.044914245605469,-39.85649871826172
2553.059,-3.8442537784576416,0.2467043250799179,0.3613582849502563,-0.8905490040779114,0.3716072738170624,0.2389081418514251,58.05595016479492,56.78840637207031,-75.374755859375,46.70974349975586,3.397469043731689,28.448118209838867,-0.832219123840332,0.0978390276432037,0.2393741905689239,40.03136444091797,61.461875915527344,-114.28504180908205,3.86907352570369,0.9941059273844058,54.7963353099189,0.8714706813922457,-18.02458572387696,4.673469543457031,-38.91028594970703
2576.219,1.9471125602722168,-2.686769485473633,2.222718954086304,-0.8508602976799011,0.3622141778469085,0.1938427239656448,58.09139251708984,56.79721832275391,-75.47822570800781,98.04039001464844,-12.738518714904783,26.512250900268555,-1.072179913520813,0.220919519662857,0.2892291843891144,42.42995071411133,60.95173645019531,-113.82707977294922,3.99380234104,0.9448477964390154,102.35764446817416,1.132267071952531,-15.661441802978516,4.154518127441406,-38.348854064941406
2598.539,8.844409942626953,-2.3657567501068115,2.6440021991729736,-0.8884092569351196,0.4977989792823791,0.2190676033496856,58.32618713378906,56.74787521362305,-75.52237701416016,93.1351318359375,-13.03045654296875,-2.9640023708343506,-0.8978886008262634,0.4386553168296814,0.3131799697875976,44.01720428466797,60.7887077331543,-114.1844253540039,9.529487911905129,1.0416647476131489,94.08895200750176,1.0472364202761733,-14.308982849121094,4.04083251953125,-38.66204833984375
2619.3,-4.880711555480957,2.817038059234619,-0.1152332797646522,-0.8797863125801086,0.4676679968833923,0.3041900992393493,58.28599166870117,56.78815841674805,-75.46976470947266,61.92605972290039,5.524750709533691,-5.565575122833252,-0.8756828308105469,0.4214012920856476,0.4027274847030639,45.275421142578125,60.901344299316406,-114.19442749023438,5.636517313354676,1.0417624141748802,62.42063256371742,1.0519452913926095,-13.010570526123049,4.113185882568359,-38.72466278076172
2630.485,-20.84829902648925,4.072257518768311,-0.455148309469223,-0.7611485123634338,0.4196928739547729,0.3046582639217376,57.92549133300781,56.82918548583984,-75.38754272460938,28.115951538085938,-3.477282762527466,-0.5793706178665161,-0.9019448161125184,0.4324021935462951,0.532278299331665,45.65229415893555,60.80964279174805,-114.41178131103516,21.247164836295,0.9210351915628916,28.33608823771225,1.1330473495116176,-12.273197174072266,3.980457305908203,-39.02423858642578
2652.772,-24.305858612060547,7.570390701293945,-1.6597927808761597,-0.8494433760643005,0.4630185663700104,0.2900432050228119,57.609745025634766,56.941856384277344,-75.18498992919922,-20.4160213470459,-16.60845184326172,1.0247817039489746,-0.8696044683456421,0.6011863946914673,0.4915153682231903,44.84831237792969,60.561134338378906,-114.8985824584961,25.51157561412396,1.0099828229840155,26.33827590814793,1.1658577828056087,-12.761432647705078,3.6192779541015625,-39.71359252929688
2675.265,-1.0988540649414062,7.898919105529785,-3.5102124214172363,-0.902362048625946,0.4718894958496094,0.2637076079845428,57.76540756225586,57.10664367675781,-74.98404693603516,-61.36481094360352,-2.057974338531494,-2.1383724212646484,-0.7943735718727112,0.3460254669189453,0.1670170575380325,43.513370513916016,60.56237411499024,-115.09810638427734,8.713322818260183,1.0518928964502716,61.43653568630218,0.8824158276883671,-14.252037048339844,3.455730438232422,-40.11405944824219
2699.036,8.02719497680664,2.8595356941223145,-1.552931785583496,-0.792853832244873,0.4410039484500885,0.2378982454538345,58.01290512084961,57.16999053955078,-74.89376068115234,-23.08178329467773,11.266136169433594,-9.792780876159668,-0.9347823858261108,0.0404628477990627,0.2201375663280487,43.07167434692383,60.86093521118164,-115.1652374267578,8.661662699061011,0.9379217755463204,27.48805379686169,0.9612054405857272,-14.94123077392578,3.6909446716308594,-40.27147674560547
2721.022,-6.325186729431152,1.95175039768219,0.1696444153785705,-0.759478747844696,0.439988225698471,0.2409753650426864,57.97385787963867,57.182125091552734,-74.8684310913086,30.186145782470703,1.9716721773147583,-4.758402824401856,-0.8329346776008606,0.218507170677185,0.3122528195381164,43.571659088134766,60.954925537109375,-115.3335189819336,6.621638468286658,0.9102014797496718,30.622431089230105,0.9159843798323756,-14.402198791503906,3.7728004455566406,-40.465087890625
2730.393,-33.88234329223633,6.53378438949585,-0.3107696175575256,-0.7829144597053528,0.4512355625629425,0.3354751467704773,57.416481018066406,57.22920608520508,-74.80137634277344,23.301288604736328,1.854748606681824,11.421688079833984,-0.753197193145752,0.5211564302444458,0.4690080285072326,44.39226913452149,60.81745529174805,-114.9746322631836,34.50797158884551,0.9639046416725532,26.01624687821487,1.0290182541393589,-13.024211883544922,3.5882492065429688,-40.17325592041016
2755.6020000000003,-30.30160903930664,10.16371250152588,-0.4203809797763824,-0.911465585231781,0.4236401319503784,0.3338297307491302,57.018287658691406,57.36872100830078,-74.57341003417969,-16.802858352661133,3.6401848793029785,-21.18854141235352,-0.9851112365722656,0.3651004731655121,0.4545530974864959,43.61334609985352,61.15556335449219,-115.53809356689452,31.963499219466275,1.05909525709111,27.28628376965467,1.1447100167121746,-13.40494155883789,3.7868423461914062,-40.96468353271485
2777.655,-10.64223575592041,8.364067077636719,-1.0364025831222534,-0.9179700613021852,0.50028395652771,0.3242042660713196,57.00815200805664,57.47334671020508,-74.33343505859375,-36.764347076416016,-2.861073732376098,-26.18091583251953,-0.9210000038146972,0.4019963443279266,0.3659263253211975,42.05712890625,61.47684860229492,-116.54542541503906,13.575305899982505,1.0945599466201017,45.22436636025698,1.0694597437223918,-14.95102310180664,4.003501892089844,-42.21199035644531
2797.82,-10.507172584533691,5.817509651184082,-3.970337867736816,-0.9008750915527344,0.4950129687786102,0.2699465453624725,56.927345275878906,57.60901641845703,-74.19549560546875,14.264869689941406,-7.288599967956543,5.547597885131836,-0.934045672416687,0.1127744689583778,0.1992674469947815,42.32947540283203,61.293212890625,-116.6565933227539,12.64941409895262,1.0627722743806851,16.952464099918465,0.9617000127071867,-14.597869873046877,3.6841964721679688,-42.46109771728516
2820.149,-7.671147346496582,1.266404628753662,-2.5542068481445312,-0.8422278761863708,0.4409500658512115,0.2366444319486618,56.81060409545898,57.68302154541016,-74.1683349609375,18.469316482543945,-8.22293472290039,-27.924928665161133,-1.0228824615478516,0.4029644131660461,0.361974686384201,41.761322021484375,61.5603141784668,-117.7842025756836,8.18377998961963,0.9796863493853006,34.47512070673268,1.1574517363602634,-15.04928207397461,3.8772926330566406,-43.615867614746094
2830.365,-6.511615753173828,1.830039501190185,0.9136667251586914,-0.8244606256484985,0.477839708328247,0.2945107817649841,56.761566162109375,57.6690673828125,-74.07801818847656,-18.74380874633789,-15.378131866455078,-26.51815795898437,-0.8268045783042908,0.5391154885292053,0.3813875317573547,40.27228546142578,61.67689895629883,-119.1013641357422,6.825318393859747,0.9973979700579704,35.93090602196138,1.058162449748141,-16.489280700683594,4.007831573486328,-45.023345947265625
2852.772,-17.690519332885742,5.714333534240723,0.8446878790855408,-0.7856881618499756,0.5312734842300415,0.3557657897472381,56.567657470703125,57.65010452270508,-73.90386962890625,-32.29617691040039,-8.75611686706543,-6.123324871063232,-0.7173101902008057,0.4503710567951202,0.4132108986377716,39.244361877441406,61.62091064453125,-119.59466552734376,18.609717343926164,1.0129791211429768,34.01775614431629,0.9423965431376032,-17.32329559326172,3.970806121826172,-45.6907958984375
2880.163,-33.18443298339844,6.655862808227539,-2.3537867069244385,-0.7717831134796143,0.5341684222221375,0.3063626587390899,56.08245468139648,57.70166015625,-73.77793884277344,-37.8957405090332,-3.5023388862609863,34.971168518066406,-0.6263219714164734,0.2797432243824005,0.3679655492305755,39.36659622192383,61.072509765625,-118.64871215820312,33.92708967791524,0.987341458777691,51.684970290416096,0.7784177084878265,-16.715858459472656,3.370849609375,-44.87077331542969
2890.369,-35.984806060791016,5.305985927581787,-2.1871187686920166,-0.8109083771705627,0.4793056547641754,0.2727647721767425,55.511173248291016,57.77903366088867,-73.69589233398438,-44.90934371948242,2.14777946472168,73.22514343261719,-0.7903411388397217,0.3436686098575592,0.398175835609436,40.51504135131836,60.121341705322266,-116.36591339111328,36.43958345542389,0.9806665732015856,85.92661834769861,0.9493635895731244,-14.996131896972656,2.3423080444335938,-42.670021057128906
2912.727,-21.85353660583496,1.8944213390350344,3.231539249420166,-0.8503267765045166,0.4453532695770263,0.2798072397708893,55.20718765258789,57.75284576416016,-73.56744384765625,-67.60005950927734,2.8553545475006104,73.57933044433594,-0.9472548961639404,0.4921308755874634,0.3690358698368072,41.25392150878906,59.17829132080078,-114.01439666748048,22.17225158419648,0.999843614267608,99.95918649072006,1.1294565552686169,-13.953266143798828,1.425445556640625,-40.44695281982422
2930.347,-16.603235244750977,1.9231821298599243,6.286156177520752,-0.8596509695053101,0.4853190779685974,0.3137542307376861,55.05965423583984,57.65596008300781,-73.3562240600586,-101.5621566772461,8.604806900024414,48.84748077392578,-0.9522473812103271,0.4407525062561035,0.3945070505142212,40.70032501220703,58.66029739379883,-112.35298919677734,17.857262096562728,1.035845603416603,113.0265046291322,1.1210145671214058,-14.359329223632812,1.0043373107910156,-38.99676513671875
2952.831,-24.82400894165039,4.469219207763672,6.0031561851501465,-0.8653602600097656,0.4733520448207855,0.3173292875289917,54.80011367797852,57.59954833984375,-73.1170883178711,-123.62771606445312,27.574522018432617,8.310087203979492,-0.8363787531852722,0.3914386630058288,0.3506020307540893,39.03084945678711,58.99434280395508,-111.47299194335938,25.92765366255668,1.036150768307318,126.93787454182385,0.987762840789444,-15.769264221191406,1.394794464111328,-38.35590362548828
2975.187,-21.068161010742188,4.026289939880371,7.182899951934815,-0.8408052921295166,0.4107385873794555,0.3150191307067871,54.59214782714844,57.53738784790039,-72.95618438720703,-157.9024658203125,25.588212966918945,76.23309326171875,-0.817825436592102,0.2868006825447082,0.5744428038597107,38.33697891235352,58.43925857543945,-108.58069610595705,22.620178398369102,0.9873686136123287,177.1988427254119,1.0397488211829715,-16.255168914794922,0.9018707275390624,-35.62451171875
2991.324,-3.8681387901306152,2.6545333862304688,8.582789421081543,-0.7956540584564209,0.4156764447689056,0.3038319647312164,54.73067855834961,57.4245719909668,-72.79408264160156,-116.90045928955078,13.243492126464844,11.835655212402344,-1.0969748497009275,0.1015768870711326,0.26900514960289,36.55760955810547,58.50066375732422,-107.93477630615234,9.78127391728473,0.9477162815243398,118.24208303357364,1.1340350326935706,-18.17306900024414,1.076091766357422,-35.14069366455078
3012.5,-1.6201255321502686,2.823840379714966,10.18049430847168,-0.844649612903595,0.4884283244609833,0.2930962741374969,54.99655532836914,57.27811813354492,-72.53279113769531,-61.39839172363281,14.73756980895996,-47.091590881347656,-0.9507840871810912,0.0860537067055702,0.34931480884552,34.33777618408203,59.28649139404297,-109.0924072265625,10.68837431955198,1.0187740783055088,78.76913356041729,1.01657093040935,-20.65877914428711,2.008373260498047,-36.55961608886719
3034.947,-14.852654457092283,8.771315574645996,8.696245193481445,-0.8495434522628784,0.4643088281154632,0.3601716160774231,55.04779815673828,57.217750549316406,-72.18079376220703,-9.077570915222168,11.85079574584961,-71.4270248413086,-0.9697747826576232,0.0623709112405777,0.4166046380996704,32.31073760986328,60.27558135986328,-111.22278594970705,19.31740152807721,1.0329716153779382,72.97029211406276,1.057313900473165,-22.737060546875,3.057830810546875,-39.0419921875
3057.714,-10.05600643157959,8.750384330749512,9.443496704101562,-0.8996021151542664,0.3593344092369079,0.3190717995166778,55.17942810058594,57.2116584777832,-71.81153106689453,28.244808197021484,0.2260307669639587,-69.51532745361328,-0.850681483745575,0.2350993752479553,0.395299881696701,30.76569366455078,61.01543426513672,-113.67040252685548,16.336221144688686,1.0199078372571115,75.0346655285224,0.9670536176960292,-24.41373443603516,3.803775787353516,-41.85887145996094
3080.049,3.8276891708374015,4.48062801361084,10.805390357971191,-0.8862448930740356,0.389682799577713,0.3112109899520874,55.52500534057617,57.12025451660156,-71.47879791259766,40.11732864379883,-4.069668769836426,-33.182891845703125,-0.780756413936615,0.364439308643341,0.4188330471515655,30.545387268066406,61.24263381958008,-114.90435028076172,12.307871163326212,1.0169242720347915,52.221322969208416,0.958028031413416,-24.97961807250977,4.122379302978516,-43.42555236816406
3090.708,0.5164784789085388,1.533251404762268,7.28261137008667,-0.8373742699623108,0.4420012831687927,0.3207038640975952,55.6857795715332,57.01594543457031,-71.39131164550781,48.73329544067383,-8.860145568847656,5.08009672164917,-0.7327911257743835,0.2766596376895904,0.2667099833488464,31.532474517822266,61.030120849609375,-114.93516540527344,7.460163420267467,0.9997058421180208,49.79200384309193,0.8274403932357701,-24.153305053710938,4.014175415039063,-43.543853759765625
3110.757,-10.04786205291748,1.9733786582946773,3.808946371078491,-0.8064278364181519,0.4517451822757721,0.3162000775337219,55.59474563598633,56.96212005615234,-71.26991271972656,104.8560791015625,3.8412177562713614,14.89069366455078,-0.9390172958374025,-0.0160144548863172,0.3158228397369385,34.1638069152832,60.93446350097656,-114.35874938964844,10.925283869136948,0.9769247944912464,105.97775727111666,0.9908350068233346,-21.430938720703125,3.9723434448242174,-43.08883666992188
3132.5150000000003,-11.679061889648438,5.442311763763428,5.106937885284424,-0.8767404556274414,0.3646391034126282,0.3230173885822296,55.52542495727539,56.98134613037109,-71.05191040039062,118.45684814453124,18.91577911376953,-32.0391845703125,-0.9695874452590942,0.1122255399823188,0.3326462209224701,35.93296432495117,61.6353759765625,-115.04735565185548,13.860016541129728,1.0029834174092125,124.16255844556365,1.031187613444993,-19.59246063232422,4.654029846191406,-43.99544525146485
3152.541,-0.5357816219329834,2.414980173110962,8.984636306762695,-0.8594443798065186,0.3372812569141388,0.2865174114704132,55.68270492553711,56.91976547241211,-70.85943603515625,137.0200653076172,4.24437427520752,-33.52815246582031,-0.9223251938819884,0.2300387918949127,0.4607598781585693,37.65901565551758,62.099700927734375,-116.20127868652344,9.318952770978004,0.9666930822770476,141.1263618806317,1.0563622836728972,-18.02368927001953,5.179935455322266,-45.34184265136719
3174.77,7.399073123931885,0.1017753630876541,7.094766616821289,-0.863416314125061,0.4341470599174499,0.3257877826690674,55.92934036254883,56.814002990722656,-70.7974853515625,129.4100341796875,-12.11182975769043,-6.490384578704834,-0.7495339512825012,0.4590070247650146,0.3988826274871826,39.77765274047852,61.97042465209961,-116.74866485595705,10.251456221678191,1.0198573824161392,130.137536700395,0.96519217952689,-16.151687622070312,5.156421661376953,-45.95117950439453
3195.026,-0.4736815989017486,-0.6403759121894836,0.5221450328826904,-0.8497495651245117,0.4633013308048248,0.3330003023147583,55.89633560180664,56.79182434082031,-70.8814697265625,90.7037353515625,-12.362542152404783,31.37542152404785,-0.8350282907485962,0.5168533325195312,0.3947383165359497,42.20122909545898,61.35527801513672,-116.0538558959961,0.9524132513854984,1.0235290166363331,96.7699185233095,1.0584082162515098,-13.695106506347656,4.563453674316406,-45.1723861694336
3217.797,-2.248372793197632,-0.0459029302000999,-0.5883210897445679,-0.8552807569503784,0.4356469810009002,0.3203935027122497,55.819217681884766,56.810394287109375,-70.98812866210938,49.77820587158203,-11.571057319641112,21.02543067932129,-0.9599124193191528,0.5108502507209778,0.3725521266460418,43.59552383422852,60.86006927490234,-115.6103744506836,2.324523392188281,1.0119019032717724,55.26145023919449,1.149432433200544,-12.22369384765625,4.049674987792969,-44.62224578857422
3240.024,-1.8173274993896484,2.257641553878784,1.1983717679977417,-0.8587030172348022,0.451410710811615,0.3242188394069671,55.84594345092773,56.81903839111328,-70.98519897460938,58.60988235473633,-7.622050762176514,5.834799289703369,-0.9001528024673462,0.2782667279243469,0.2594636678695678,44.76079940795898,60.72106170654297,-115.59075164794922,3.1361950704910044,1.022868690238391,59.39073033907186,0.9772557672400144,-11.08514404296875,3.902023315429688,-44.60555267333984
3251.627,6.0309906005859375,1.9278779029846191,2.561704635620117,-0.8460447192192078,0.45173180103302,0.3200845718383789,56.04705429077149,56.79841613769531,-70.9633560180664,109.39347839355467,-4.334414005279541,-4.319309711456299,-0.8969188332557678,0.1289332509040832,0.3215832114219665,46.73308181762695,60.72270584106445,-115.86363220214844,6.830218991608534,1.011092191697771,109.56448647346348,0.9615107583932944,-9.313972473144531,3.9242897033691406,-44.90027618408203
3280.377,15.592527389526367,-0.5526888966560364,2.8125576972961426,-0.8124017119407654,0.4123696684837341,0.307139128446579,56.36492919921875,56.75514602661133,-71.02413177490234,136.30953979492188,-4.862149715423584,-4.55109167098999,-0.8352897763252258,0.2525762915611267,0.3337269425392151,49.14870834350586,60.74622344970703,-116.20872497558594,15.853796271247989,0.9614466856111136,136.4721347907929,0.9342791155049918,-7.216220855712891,3.991077423095703,-45.1845932006836
3299.8050000000003,18.881637573242188,-3.298786163330078,2.675553798675537,-0.8045862913131714,0.3969747424125671,0.2996229827404022,56.669918060302734,56.6903076171875,-71.1728515625,151.79568481445312,-5.816011428833008,4.684163570404053,-0.8262340426445007,0.3862084150314331,0.2909642159938812,52.15847396850586,60.58982467651367,-116.25060272216795,19.3534703794502,0.9458974458517492,151.9792660384416,0.9573295190553252,-4.511444091796875,3.899517059326172,-45.07775115966797
3310.571,6.470855236053467,-1.2834422588348389,3.824336051940918,-0.8381839990615845,0.5018962025642395,0.3457003533840179,56.8172721862793,56.586612701416016,-71.24259948730469,140.19393920898438,-3.249178886413574,10.58987045288086,-0.8348284959793091,0.5036836862564087,0.3639697730541229,55.104923248291016,60.3363037109375,-116.10485076904295,7.625269684142239,1.0363208715263383,140.63087538153604,1.040725645497885,-1.7123489379882812,3.749691009521485,-44.86225128173828
3330.321,-15.675600051879885,3.1159324645996094,0.4358026087284088,-0.8546947836875916,0.5159486532211304,0.3994685113430023,56.54119110107422,56.57538986206055,-71.27346801757812,114.642578125,-7.806101322174072,20.51119613647461,-0.8555581569671631,0.5303729772567749,0.2657841444015503,57.65028381347656,59.8621940612793,-115.81836700439452,15.988226794245096,1.07530520206036,116.72431239440954,1.0411130900975785,1.1090927124023438,3.28680419921875,-44.544898986816406
3352.385,-12.99717140197754,0.8231308460235596,-1.2208645343780518,-0.855273425579071,0.4716125428676605,0.3350869417190552,56.26382827758789,56.598541259765625,-71.37076568603516,126.49888610839844,-8.154746055603027,23.65869903564453,-0.9314526915550232,0.4277927279472351,0.2423358857631683,60.37659454345703,59.399173736572266,-115.63837432861328,13.080310357684958,1.0325668412274769,128.9503862342263,1.0532508799988034,4.112766265869141,2.8006324768066406,-44.267608642578125
3373.643,-3.909794807434082,-3.94219183921814,0.7359933853149414,-0.8411933183670044,0.4477209150791168,0.3042416870594024,56.0954475402832,56.54923248291016,-71.54747772216797,93.21286010742188,-7.700157165527344,7.830050945281982,-0.916589856147766,0.545680046081543,0.2535158991813659,62.18436813354492,59.16270446777344,-115.72730255126952,5.600808709165486,1.0003115618692635,93.85754848484662,1.0964369513210843,6.088920593261719,2.613471984863281,-44.17982482910156
3392.286,-5.422904968261719,-5.415729522705078,2.250156879425049,-0.8100975751876831,0.442520260810852,0.3163841366767883,55.87413787841797,56.4477767944336,-71.74259185791016,51.11303329467773,-6.541103839874268,4.4924798011779785,-0.8031519055366516,0.6212106347084045,0.3389101922512054,63.084571838378906,58.97067642211914,-115.90352630615234,7.987567247912275,0.9757977169955796,51.72533795724146,1.0704278371070712,7.2104339599609375,2.522899627685547,-44.16093444824219
3415.357,-17.385892868041992,-4.283118724822998,2.6935200691223145,-0.8098164796829224,0.4950738549232483,0.3576507568359375,55.44919204711914,56.3212776184082,-71.89724731445312,-61.21571731567383,-0.9203828573226928,4.322444915771484,-0.7698978185653687,0.77012038230896,0.3742216229438782,61.89795684814453,58.88556289672852,-115.932373046875,18.10716507885007,1.014305139718776,61.375033043790864,1.1514642319056907,6.448764801025391,2.5642852783203125,-44.03512573242188
3429.8320000000003,-49.74708938598633,0.9170968532562256,-2.7098684310913086,-0.813705325126648,0.4740343987941742,0.366584450006485,54.40143966674805,56.34987258911133,-72.0168228149414,-69.75499725341797,-1.5819275379180908,9.17586898803711,-0.8383593559265137,0.2883156538009643,0.1142755150794982,60.60333633422852,58.709449768066406,-115.90554809570312,49.8292821133256,1.0105489232917797,70.37370750674711,0.8938854620379957,6.201896667480469,2.359577178955078,-43.88872528076172
3452.135,-41.98055648803711,-0.5691545009613037,0.0660400986671447,-0.8770704865455627,0.4117268025875091,0.320116251707077,53.53293991088867,56.37086868286133,-72.12906646728516,-51.94554138183594,0.1512981057167053,19.41614532470703,-0.8721945881843567,0.5812983512878418,0.5565208792686462,59.88058090209961,58.37257766723633,-115.62676239013672,41.98446642730941,1.0204146279553192,55.455828006071336,1.186737823586149,6.3476409912109375,2.001708984375,-43.49769592285156
3479.0950000000003,-32.504032135009766,-3.553163290023804,-0.1206497699022293,-0.8137988448143005,0.3926343321800232,0.3612387776374817,52.73895263671875,56.335426330566406,-72.37638092041016,-114.22030639648438,-5.532199859619141,6.429832458496094,-0.846230149269104,0.4193210899829864,0.0729456469416618,57.57978057861328,58.20785140991211,-115.65394592285156,32.697884194031545,0.9731000632496972,114.53482603137732,0.9472363535276016,4.840827941894531,1.8724250793457031,-43.277565002441406
3498.844,-16.328432083129883,-5.675856590270996,0.3109226822853088,-0.86295485496521,0.4176797270774841,0.3276830315589905,52.27762985229492,56.28243255615234,-72.63165283203125,-38.1020393371582,1.2509607076644895,6.97425651550293,-0.8950310349464417,0.2985534965991974,0.2722332179546356,56.91107940673828,58.13725662231445,-115.5232162475586,17.289584010064193,1.0131750121727432,38.75526491054482,0.9820008496976168,4.633449554443359,1.8548240661621087,-42.891563415527344
3518.869,-7.615952491760254,-9.529980659484863,0.8513985872268677,-0.8646609783172607,0.4907351434230804,0.3375102877616882,51.95059967041016,56.14493560791016,-72.88416290283203,-40.54697799682617,-5.368317127227783,3.365779161453247,-0.879981279373169,0.4342579245567322,0.3018931448459625,56.003517150878906,58.03166961669922,-115.63221740722656,12.228987827340276,1.0499394186142414,41.03906337646201,1.026687132476367,4.05291748046875,1.8867340087890625,-42.74805450439453
3530.296,-18.31758499145508,-7.764508247375488,-2.109499931335449,-0.8286333680152893,0.3996026813983917,0.3192608952522278,51.3613510131836,56.10395050048828,-73.17537689208984,-58.98663330078125,-2.514214515686035,6.03173303604126,-0.8658101558685303,0.5326367020606995,0.2695855796337127,54.94697570800781,57.88130187988281,-115.52316284179688,20.00678630372821,0.9737777368611384,59.347501937400814,1.0516679452819848,3.5856246948242188,1.7773513793945312,-42.34778594970703
3552.641,-13.12490940093994,-9.175392150878906,1.0097450017929075,-0.8049240708351135,0.3989878594875335,0.3271373510360718,50.90138626098633,55.98613739013672,-73.44379425048828,-76.74617767333984,-2.331972122192383,0.5523227453231812,-0.8411181569099426,0.4964218139648437,0.3172306418418884,53.3952751159668,57.81886672973633,-115.6328582763672,16.045892087195952,0.9560925259989812,76.78358510685426,1.026912679533728,2.4938888549804688,1.8327293395996087,-42.189064025878906
3574.501,-7.449807167053223,-9.415424346923828,0.6075376868247986,-0.8278629779815674,0.4371813833713531,0.3012824356555938,50.59390258789063,55.87262344360352,-73.69049835205078,-68.25678253173828,-0.0634317249059677,-2.164083480834961,-0.8390142917633057,0.3544878661632538,0.2355260998010635,52.01690673828125,57.90572738647461,-115.65790557861328,12.021603241657743,0.983491625949894,68.29110954202427,0.9407864650001928,1.423004150390625,2.0331039428710938,-41.9674072265625
3597.281,2.000051498413086,-12.560330390930176,-0.389174610376358,-0.8375583291053772,0.4362737536430359,0.2401481419801712,50.4382438659668,55.75752258300781,-73.99478149414062,-33.48775863647461,-2.4378998279571533,-4.4974870681762695,-0.845379114151001,0.2629000842571258,0.1999009847640991,51.20259475708008,57.984130859375,-115.89643096923828,12.724526018794972,0.9744279721293432,33.87625605043075,0.9076027240234528,0.7643508911132812,2.2266082763671875,-41.901649475097656
3620.229,5.44276237487793,-14.536055564880373,0.0238561332225799,-0.8021081686019897,0.4925142824649811,0.2790615260601043,50.32255935668945,55.56730270385742,-74.35869598388672,-21.996522903442383,-0.4338563978672027,-1.647966742515564,-0.8089067935943604,0.512187659740448,0.3213148415088653,50.76579666137695,57.983985900878906,-116.0000457763672,15.521634668093718,0.9817449607189372,22.062435169311502,1.0099057514874217,0.4432373046875,2.4166831970214844,-41.64134979248047
3630.366,-9.092897415161133,-9.56997013092041,-3.38075852394104,-0.7949241399765015,0.4498327970504761,0.3083448708057403,49.91789245605469,55.49818801879883,-74.69367980957031,-84.99596405029297,1.243533968925476,6.013207912445068,-0.8174286484718323,0.6605719327926636,0.3957780301570892,49.217960357666016,57.90771484375,-115.87876892089844,13.62698205423904,0.9640178903795532,85.2174803134243,1.1230249876520768,-0.6999320983886719,2.409526824951172,-41.185089111328125
3652.067,-10.353103637695312,-6.593969821929932,-1.2583246231079102,-0.790711522102356,0.4092486202716827,0.3163051307201385,49.56631851196289,55.44601058959961,-74.92481994628906,-162.82827758789062,9.35020637512207,2.995524644851685,-0.8437449932098389,0.6252268552780151,0.4226849675178528,46.2651252746582,57.96867370605469,-115.53734588623048,12.33898593088193,0.9448587619848716,163.1240249300956,1.132023328334304,-3.3011932373046875,2.522663116455078,-40.612525939941406
3677.492,-8.736387252807617,-3.816153287887573,-1.3522342443466189,-0.830764889717102,0.4397825300693512,0.3412532210350036,49.30921173095703,55.42490005493164,-75.08209991455078,-225.5326995849609,15.415328025817873,-0.3799546957015991,-0.8723834753036499,0.4957146048545837,0.3964211344718933,42.16154479980469,58.15705490112305,-115.07865142822266,9.62891611757306,1.0000163681698584,226.05922959656965,1.0788584769583975,-7.147666931152344,2.7321548461914062,-39.99655151367188
3697.38,-11.97793960571289,-1.772110939025879,-2.630467414855957,-0.8274133801460266,0.4190506935119629,0.3331230878829956,49.00360870361328,55.45858383178711,-75.21692657470703,-264.4896850585937,19.206748962402344,0.4860000908374786,-0.8242128491401672,0.4110620319843292,0.3960841298103332,37.34247589111328,58.420501708984375,-114.55369567871094,12.390753536364915,0.9854883951920652,265.1865926177022,1.0025873790919406,-11.6611328125,2.9619178771972656,-39.33676910400391
3720.368,-10.432250022888184,-1.6222904920578003,-2.785454273223877,-0.8423678278923035,0.3873630166053772,0.3364230394363403,48.70811080932617,55.51117706298828,-75.36687469482422,-266.0367736816406,18.81179428100586,2.790076732635498,-0.8046224117279053,0.2675620913505554,0.3917876183986664,32.436397552490234,58.7076530456543,-114.06070709228516,10.91890207341804,0.9863134012904826,266.7156408671628,0.9340793521501332,-16.271713256835938,3.196475982666016,-38.69383239746094
3730.567,-4.089334011077881,-1.714253067970276,-2.169909715652466,-0.84305340051651,0.3508411049842834,0.3261080980300903,48.534122467041016,55.5699348449707,-75.5191421508789,-272.70513916015625,20.55353736877441,9.96271800994873,-0.790550947189331,0.2411602437496185,0.4347885549068451,27.59158706665039,58.95603942871094,-113.3633041381836,4.936580234260027,0.9696262211129848,273.660001777526,0.9339005036647676,-20.942535400390625,3.3861045837402344,-37.84416198730469
3752.074,6.237373352050781,-2.1113455295562744,-0.4447244107723236,-0.8121635317802429,0.3389290869235992,0.3379839956760406,48.57349395751953,55.5882682800293,-75.64493560791016,-295.22784423828125,25.02728843688965,15.226468086242676,-0.8128578662872314,0.260600209236145,0.4644510447978973,22.536977767944336,59.2591552734375,-112.3803253173828,6.600029248388772,0.9427171949475432,296.6777553347529,0.9717845197639298,-26.036516189575195,3.670886993408203,-36.735389709472656
3770.308,15.337575912475586,-0.488863468170166,-0.8222311735153198,-0.7869375348091125,0.3901473581790924,0.3612464368343353,48.83917236328125,55.59817123413086,-75.7148208618164,-302.9770202636719,31.048460006713867,8.211520195007324,-0.8604193329811096,0.2273148596286773,0.4361858069896698,17.160398483276367,59.79702377319336,-111.60357666015624,15.367377345017692,0.949728715429344,304.6744340120368,0.9910860367268284,-31.678773880004883,4.1988525390625,-35.888755798339844
3792.092,14.627179145812988,0.8707098960876465,-2.1010613441467285,-0.8020790219306946,0.4100933074951172,0.367781788110733,49.10243225097656,55.6406135559082,-75.77965545654297,-296.9594116210937,32.90791320800781,-3.894735336303711,-0.9172462821006776,0.1493430286645889,0.381570965051651,11.413195610046388,60.48542785644531,-111.39009857177734,14.802937690158632,0.9730214396093811,298.802596818354,1.0046096175175092,-37.689236640930176,4.844814300537109,-35.610443115234375
3810.478,19.28985595703125,0.3515371680259704,-3.912253856658936,-0.8528505563735962,0.3947080075740814,0.3442093431949615,49.418418884277344,55.73244857788086,-75.94581604003906,-296.1900939941406,31.67205238342285,-13.961585998535156,-0.9041582345962524,0.0803764462471008,0.3463244438171386,5.178484916687012,61.18684768676758,-111.74756622314452,19.68572710017236,1.0008139460921597,298.2056615257843,0.971546759906478,-44.23993396759033,5.454399108886719,-35.80175018310547
3832.014,22.22516822814941,-2.190713882446289,-4.607938289642334,-0.8455526828765869,0.3802340924739837,0.2949848175048828,49.7495346069336,55.82052230834961,-76.17432403564453,-256.7342529296875,28.47275733947754,-22.40802764892578,-0.9076528549194336,-0.0925536304712295,0.2255725115537643,-0.7632506489753723,61.77904510498047,-112.67831420898438,22.80329856326573,0.9729097322761744,259.2784106727603,0.9398312814146358,-50.512785255908966,5.958522796630859,-36.50399017333984
3854.477,11.700695037841797,1.732155203819275,-6.317906379699707,-0.8222490549087524,0.379764050245285,0.3271188735961914,49.897403717041016,55.96724319458008,-76.3075180053711,-192.97412109375,28.92681121826172,-35.854949951171875,-0.9849755764007568,-0.3453028202056885,0.243615373969078,-6.06343412399292,62.310848236083984,-114.29863739013672,13.409793698686943,0.9629750773617566,198.39694870426632,1.0718019286146574,-55.960837841033936,6.343605041503906,-37.991119384765625
3870.432,12.130566596984863,2.5800743103027344,-5.353303909301758,-0.8259609937667847,0.3674711585044861,0.3599144518375397,50.055572509765625,56.1039924621582,-76.39399719238281,-110.07550048828124,22.173076629638672,-69.1832275390625,-0.9248412251472472,-0.4051539003849029,0.3900642693042755,-11.013336181640623,62.54252243041992,-117.39482879638672,13.50797143008211,0.9730287910428758,131.88851393389467,1.0824191004028152,-61.06890869140625,6.438529968261719,-41.00083160400391
3891.985,19.880733489990234,2.180006980895996,-5.330035209655762,-0.8674267530441284,0.3955490291118622,0.389260470867157,50.35601425170898,56.22734451293945,-76.50505065917969,-81.14056396484375,15.17673110961914,-54.50676345825195,-0.8082529902458191,-0.2481314837932586,0.4163833558559418,-14.911226272583008,62.591407775878906,-120.00196075439452,20.697953277388194,1.0297630409505565,98.91972275739764,0.9424527725698556,-65.26724052429199,6.364063262939453,-43.49691009521485
3914.475,16.26605796813965,1.6397197246551514,-7.614346027374268,-0.8742107152938843,0.4333558082580566,0.3930774331092834,50.54761505126953,56.36537170410156,-76.7452621459961,-73.05723571777344,12.323280334472656,-18.99075698852539,-0.8523582220077515,0.0356852076947689,0.5326615571975708,-17.13784408569336,62.72260665893555,-120.96892547607422,18.03473282371804,1.0519275163743087,76.4844544984243,1.0057416702059108,-67.68545913696289,6.357234954833984,-44.223663330078125
3936.971,4.700520515441895,4.773208141326904,-10.58030128479004,-0.8620661497116089,0.4519210457801819,0.4326311349868774,50.50476837158203,56.566349029541016,-76.98612213134766,-117.46853637695312,12.987907409667969,-25.043262481689453,-1.102178692817688,0.0448971427977085,0.5614987015724182,-20.52594757080078,62.81327819824219,-122.17658996582033,12.522826532115236,1.0651574423800854,120.80855836054192,1.2377780157201923,-71.03071594238281,6.246929168701172,-45.190467834472656
3960.323,-3.3245625495910645,6.344080448150635,-11.733415603637695,-0.8478195667266846,0.4074547588825226,0.4337508976459503,50.28472518920898,56.81306457519531,-77.21160125732422,-175.38162231445312,11.963582992553713,-66.2689208984375,-1.009549856185913,-0.1308881640434265,0.4166098535060882,-26.529970169067383,62.54110336303711,-125.06060791015624,13.74674923778124,1.0358364926325512,187.8654056517925,1.0999483595378563,-76.81469535827637,5.728038787841797,-47.84900665283203
3970.394,3.1941795349121094,4.212312698364258,-10.348793029785156,-0.8421889543533325,0.4072049856185913,0.3942349255084991,50.20103073120117,57.0185432434082,-77.4499282836914,-174.330322265625,7.131640434265137,-54.386478424072266,-0.7989138960838318,-0.3164233863353729,0.3064161539077759,-32.03329086303711,62.13109970092773,-127.3226547241211,11.620838108474876,1.015144970749542,182.75615062670911,0.9122927338039178,-82.23432159423828,5.112556457519531,-49.87272644042969
3993.038,5.022480010986328,0.1526565551757812,-9.108760833740234,-0.8543269038200378,0.4510250985622406,0.361223816871643,50.13703536987305,57.149173736572266,-77.73149871826172,-111.91696166992188,8.197737693786621,-33.0650749206543,-0.7793546319007874,-0.401559978723526,0.1990470886230468,-35.500850677490234,61.89651107788086,-128.77818298339844,10.402794500079075,1.031397471394578,116.9867872549348,0.8990349282797424,-85.63788604736328,4.747337341308594,-51.04668426513672
4014.375000000001,3.354637861251831,-3.799901008605957,-10.549431800842283,-0.8139525055885315,0.4404255747795105,0.3200163841247558,49.94443893432617,57.253196716308594,-78.13226318359375,-65.43328857421875,7.81539249420166,-20.76925277709961,-0.8351743221282959,-0.3262960910797119,0.3087938725948334,-37.7090950012207,61.77664566040039,-129.85215759277344,11.703988814757611,0.9792363628777242,69.09383094310569,0.9483348264977262,-87.65353393554688,4.523448944091797,-51.71989440917969
4036.647,7.875386238098144,-4.885715484619141,-7.570306777954102,-0.7981278300285339,0.40836963057518,0.3423150479793548,49.836055755615234,57.296199798583984,-78.52701568603516,-89.58460998535156,5.702324867248535,-21.263431549072266,-0.8738090395927429,-0.1346120983362198,0.425690084695816,-40.14875793457031,61.61538696289063,-130.64186096191406,11.966681616396864,0.959663159819774,92.24994512931308,0.9812617912161886,-89.98481369018555,4.319187164306641,-52.114845275878906
4060.478,9.978666305541992,-3.115161657333374,-3.824105024337769,-0.7965689897537231,0.4579542577266693,0.4011566638946533,49.87306594848633,57.26815414428711,-78.79759216308594,-117.6062469482422,1.046377420425415,-6.706638813018799,-0.834778904914856,-0.2570750713348388,0.3184792101383209,-42.69382095336914,61.566162109375,-130.93434143066406,11.131118210936602,1.0025821296005328,117.80196615984468,0.929716311399874,-92.56688690185548,4.298007965087891,-52.136749267578125
4070.423,3.868218898773194,-0.4416535496711731,-5.606851100921631,-0.8290151357650757,0.5205934047698975,0.4027293920516968,49.85540390014648,57.29156112670898,-79.00054168701172,-81.66706848144531,-2.9189469814300537,10.847795486450195,-0.8029631972312927,-0.5222266912460327,0.2605274617671966,-43.98258590698242,61.66954803466797,-130.60763549804688,6.826049704966215,1.0585247052571944,82.43606609215003,0.9926455417179576,-93.8379898071289,4.377986907958984,-51.60709381103516
4094.959,0.9835236072540284,-1.680782437324524,-8.470203399658203,-0.8561265468597412,0.4732222855091095,0.3494650721549988,49.70436477661133,57.38199234008789,-79.29835510253906,-36.59105682373047,-1.55887770652771,11.957019805908203,-0.8667237758636475,-0.5199394226074219,0.2939125001430511,-44.41774368286133,61.8076286315918,-130.31663513183594,8.691184839780243,1.038757831449057,38.52669025260621,1.0525833290381414,-94.12210845947266,4.425636291503906,-51.01828002929688
4116.741,5.523638725280762,-4.596001625061035,-6.918435096740723,-0.8415870666503906,0.4086402654647827,0.3299099504947662,49.57976913452149,57.43441390991211,-79.66533660888672,-6.467958450317383,-1.0976802110671997,6.81300687789917,-0.9082568883895874,-0.2960574030876159,0.2311244010925293,-44.39746475219727,61.94666290283203,-130.19981384277344,9.974896485317467,0.9920162462116214,9.458142052173988,0.9828525067427456,-93.97723388671876,4.512248992919922,-50.53447723388672
4136.873,10.695927619934082,-5.335903167724609,-3.043158054351806,-0.8132630586624146,0.3936664462089538,0.3528376221656799,49.59061050415039,57.40730667114258,-79.98184967041016,-1.097001075744629,1.6961652040481567,9.203614234924316,-0.9219822883605956,-0.3491878509521484,0.260138988494873,-44.21376037597656,62.123416900634766,-130.0128631591797,12.334323702983012,0.9699816807915828,9.422680231489876,1.0196351252474367,-93.80437088012695,4.716110229492188,-50.03101348876953
4160.593000000001,12.049278259277344,-4.208632469177246,-0.1841057240962982,-0.8381780982017517,0.4335734248161316,0.3842191994190216,49.71534729003906,57.33561706542969,-80.16988372802734,70.49661254882812,2.398001194000244,20.58859634399414,-0.771225094795227,-0.6011719107627869,0.2299607694149017,-42.29432678222656,62.44113540649414,-129.4708709716797,12.764465862218898,1.0188978517074658,73.4806987582586,1.0045286300558989,-92.00967407226562,5.105518341064453,-49.30098724365234
4170.479,14.88886833190918,-6.598124980926514,-0.1673882603645324,-0.8766623139381409,0.4595551788806915,0.3554348349571228,49.87874221801758,57.24517822265625,-80.37904357910156,81.7668685913086,10.746304512023926,14.524341583251951,-0.8926059007644653,-0.4719597697257995,0.2613006234169006,-40.5180549621582,62.80097579956055,-129.35107421875,16.286241810146453,1.0516946786099266,83.73924025401983,1.0429618085611922,-90.39679718017578,5.555797576904297,-48.97203063964844
4199.248,17.869266510009766,-8.39361572265625,-0.6834444999694824,-0.870862603187561,0.4643858075141907,0.3586273491382599,50.04807662963867,57.13640213012695,-80.64764404296875,83.53089904785156,8.844520568847656,7.170810222625732,-0.9933108687400818,-0.1101511791348457,0.5135667324066162,-38.81530380249024,63.03205490112305,-129.38096618652344,19.75425439974684,1.0500806766154482,84.30336386576785,1.1236327482130368,-88.8633804321289,5.895652770996094,-48.73332214355469
4210.799,19.846284866333008,-9.475769996643066,-0.4367895424365997,-0.872477114200592,0.4958479404449463,0.3798449635505676,50.2380485534668,56.99535369873047,-80.94087219238281,40.50761795043945,3.7840540409088135,12.720253944396973,-1.014682650566101,-0.0585326850414276,0.3291016817092895,-37.68951797485352,63.25978088378906,-129.07444763183594,21.99672760047052,1.0730161653870924,42.62617784194625,1.0683233936790348,-87.92756652832031,6.264427185058594,-48.133575439453125
4229.933,16.50535011291504,-9.85968780517578,0.2084540724754333,-0.872148334980011,0.4737479090690613,0.3544568717479706,50.36940002441406,56.855899810791016,-81.21556854248047,49.36330795288086,-3.90129017829895,7.627325057983398,-0.9932731986045836,-0.2332365661859512,0.2217868864536285,-36.33710479736328,63.31564712524414,-128.70521545410156,19.22715473141484,1.0539067669794469,50.101220789980594,1.0441170269060789,-86.70650482177734,6.459747314453125,-47.48964691162109
4251.687000000001,9.997438430786133,-10.244630813598633,2.890725612640381,-0.866486132144928,0.4213046729564667,0.3478356301784515,50.385772705078125,56.69074630737305,-81.46875762939453,113.865966796875,-10.534340858459473,16.785512924194336,-0.8499793410301208,-0.4373787045478821,0.1739391982555389,-33.268985748291016,63.33452987670898,-127.8358383178711,14.603339695147447,1.0243463624556264,115.5776110500539,0.9716068423286044,-83.65475845336914,6.6437835693359375,-46.36708068847656
4269.188,6.840334892272949,-12.759685516357422,4.343100547790527,-0.8436415195465088,0.4042681753635406,0.3439980745315552,50.302242279052734,56.473426818847656,-81.75833892822266,222.2222900390625,-4.805962085723877,25.16766166687012,-0.8158980011940002,-0.5770760774612427,0.0567206442356109,-27.855487823486328,63.51070785522461,-126.76245880126952,15.114968682832476,0.9967439221765668,223.69455660688905,1.000961327431246,-78.15773010253906,7.037281036376953,-45.00411987304688
4291.769,14.996230125427246,-20.613006591796875,6.162644863128662,-0.8442667722702026,0.39724862575531,0.3202870488166809,50.25343322753906,56.14044570922852,-82.20889282226562,385.1884765625,5.200344562530518,7.762998580932617,-0.9500611424446106,-0.6340016722679138,0.1770931482315063,-19.94969749450684,63.67795181274414,-126.53044891357422,26.22520067487148,0.986497160190402,385.3017910769118,1.1558270969190054,-70.2031307220459,7.537506103515625,-44.321556091308594
4314.320000000001,13.642010688781738,-27.0146541595459,6.938110828399658,-0.826476514339447,0.4509038627147674,0.3143205642700195,50.09357070922852,55.69343185424805,-82.80184173583984,444.7095947265625,5.419530868530273,-16.524648666381836,-0.8453093767166138,-0.2258295714855194,-0.0915316343307495,-11.74794101715088,63.685977935791016,-127.2713851928711,31.048886886003856,0.9925598920411824,445.04950170767046,0.8797300596237584,-61.8415117263794,7.992546081542969,-44.46954345703125
4330.8330000000005,1.709587812423706,-27.93926429748535,6.560678958892822,-0.8052841424942017,0.4602442979812622,0.3629742860794067,49.6495246887207,55.21800994873047,-83.41549682617188,618.9550170898438,19.34674072265625,39.76760482788086,-0.800248384475708,-0.1431752294301986,-0.0618646815419197,2.218597173690796,64.12550354003906,-125.48477172851562,28.75009023246338,0.9960209316734971,620.5328935286387,0.8153059928644298,-47.43092751502991,8.907493591308594,-42.06927490234375
4352.12,-4.169848918914795,-27.585344314575195,7.282193183898926,-0.7925111055374146,0.373403251171112,0.3187370896339416,49.10532379150391,54.7807502746582,-84.0120849609375,540.8513793945312,19.13869285583496,-21.517473220825195,-1.0396902561187744,0.030653778463602,0.3132235407829284,12.253153800964355,64.57715606689453,-126.36299896240234,28.83347357721343,0.9322538134508256,541.617490311203,1.0862801062815304,-36.85216999053955,9.796405792236328,-42.35091400146485
4374.102,3.0636448860168457,-29.181596755981445,8.592350006103516,-0.7803503274917603,0.3305509686470032,0.2811287641525268,48.71428680419922,54.3309211730957,-84.58440399169922,419.7957153320313,16.658782958984375,-16.64842987060547,-0.8736127018928528,0.8718467354774475,0.1905541568994522,20.181655883789062,64.9885025024414,-126.85797119140624,30.57417190773465,0.8928851877615042,420.4558572287498,1.2488501790778883,-28.53263092041016,10.657581329345703,-42.27356719970703
4396.617,8.457756996154785,-34.03078079223633,7.983986854553223,-0.788701593875885,0.3903264105319977,0.2970020473003387,48.36386489868164,53.801700592041016,-85.23963165283203,270.849853515625,34.002037048339844,-15.394960403442385,-0.7778966426849365,1.028165578842163,0.5653244853019714,25.574190139770508,65.73470306396484,-126.8918228149414,35.963477874489904,0.9287707612978284,273.4095581333904,1.4077781849063704,-22.789674758911133,11.933002471923828,-41.652191162109375
4419.251,4.910447120666504,-36.05537414550781,6.346890926361084,-0.7647547125816345,0.4513648450374603,0.305779218673706,47.92617416381836,53.23822784423828,-85.92323303222656,65.66568756103516,36.74028015136719,-14.444255828857422,-0.8385657072067261,0.7120809555053711,0.6202507615089417,27.04918098449707,66.52252197265625,-126.71403503417967,36.9375895278582,0.9391916334402746,76.61897437915698,1.2629183424311252,-20.87699317932129,13.284294128417969,-40.790802001953125
4429.366,-2.061328887939453,-27.56046485900879,2.41148328781128,-0.7620712518692017,0.4409464597702026,0.3545901775360107,47.42187881469727,52.83580017089844,-86.47483825683594,-82.35474395751953,32.35657501220703,-9.650824546813965,-0.8835893273353577,0.4505249261856079,0.5298196077346802,25.67430877685547,67.18927001953125,-126.39852905273438,27.742450354579443,0.9491683556221134,89.0078098442073,1.1244605930114349,-21.7475700378418,14.353469848632812,-39.92369079589844
4452.246999999999,-8.13217830657959,-19.967288970947266,-0.0505903661251068,-0.7826300859451294,0.3528566360473633,0.3604011535644531,46.8493766784668,52.61040496826172,-86.98249816894531,-148.63851928710938,28.68046188354492,4.051704406738281,-0.8750902414321899,0.2376587688922882,0.4069799780845642,23.497543334960938,67.63533020019531,-125.5564956665039,21.55985881782301,0.9310782182608132,151.43445650946632,0.9939302408333086,-23.35183334350586,15.024925231933594,-38.573997497558594
4474.189,-5.634612560272217,-15.824731826782228,-1.6691770553588867,-0.7911717891693115,0.2792341709136963,0.3198042511940002,46.37793350219727,52.47206115722656,-87.42436218261719,-159.5905303955078,29.87373161315918,9.426237106323242,-0.8880336284637451,0.0355514176189899,0.3116282224655151,21.174421310424805,68.14247131347656,-124.61653137207033,16.880673805748643,0.8978860068321503,162.63588527259043,0.9417960382238936,-25.20351219177246,15.67041015625,-37.192169189453125
4494.018999999999,4.515920162200928,-15.70762825012207,-2.891059398651123,-0.8487446308135986,0.2972770929336548,0.3196356892585754,46.12225341796875,52.29641342163086,-87.87060546875,-138.72967529296875,32.61745071411133,4.961763858795166,-0.9106696248054504,-0.0905541330575943,0.2066405862569809,19.19848823547364,68.72175598144531,-123.79143524169922,16.597630692419166,0.9544150523570976,142.59887797093802,0.9382001643816426,-26.92376518249512,16.425342559814453,-35.92082977294922
4516.6050000000005,10.954263687133787,-16.847084045410156,-6.387200355529785,-0.8245340585708618,0.3559203743934631,0.2891358137130737,45.94766998291016,52.21631240844727,-88.41143798828125,-89.22538757324219,38.15820693969727,-0.8144581913948059,-0.9566484689712524,-0.1151889264583587,0.1405325829982757,18.004030227661133,69.45209503173828,-123.21813201904295,21.085930431025595,0.9434697904136844,97.0457721211675,0.9737526322674758,-27.943639755249023,17.235782623291016,-34.80669403076172
4539.124,8.87939167022705,-12.529765129089355,-8.057999610900879,-0.8154810667037964,0.3804178237915039,0.3513671159744262,45.76191711425781,52.21148681640625,-88.89866638183594,-26.63825416564941,41.85439300537109,-7.116507053375244,-0.9724228978157043,-0.086040049791336,0.1727352738380432,17.798397064208984,70.29460144042969,-122.87696838378906,17.34272090396198,0.9660154972870836,50.12017030580138,0.9913862300800284,-27.963520050048828,18.08311462402344,-33.978302001953125
4548.93,13.01828956604004,-8.88545036315918,-10.762426376342772,-0.8250171542167664,0.3802613615989685,0.3713190853595733,45.66424179077149,52.29139709472656,-89.37113189697266,27.137149810791016,42.056190490722656,-12.133027076721191,-1.0053328275680542,-0.0509725473821163,0.1934464126825332,18.42613410949707,71.1718978881836,-122.80426788330078,19.085515787833224,0.981391803017176,51.50105246001984,1.0250433207198328,-27.23810768127441,18.88050079345703,-33.433135986328125
4576.259,22.537145614624023,-5.759225368499756,-16.563312530517578,-0.8345276713371277,0.3332532048225403,0.338976114988327,45.69857406616211,52.52721786499024,-89.91535186767578,78.79716491699219,37.631309509277344,-16.688474655151367,-1.0188544988632202,-0.0097466399893164,0.2221574336290359,19.69191169738769,72.04141998291016,-123.08528900146484,28.55582132041624,0.9604160240668844,88.90227129075117,1.0428391113501374,-26.00666236877441,19.51420211791992,-33.16993713378906
4596.392,45.90522384643555,-5.03685474395752,-21.02191162109375,-0.78876793384552,0.3696651458740234,0.3344387710094452,46.15678787231445,52.80963516235352,-90.510498046875,106.20051574707033,35.15879821777344,-14.051739692687988,-1.011884689331055,0.0588766932487487,0.2587204575538635,21.70781517028809,72.83177947998047,-123.12987518310548,50.74032174029013,0.9330897411778256,112.7481353524434,1.046094338321068,-24.448972702026367,20.02214431762696,-32.61937713623047
4618.906,46.362823486328125,5.997963905334473,-23.886199951171875,-0.7769516706466675,0.4644593596458435,0.3736636638641357,46.81250381469727,53.23493576049805,-90.85633850097656,115.84683227539062,32.90929412841797,-13.91334342956543,-1.0176416635513306,0.1595330834388733,0.3542379736900329,24.04298591613769,73.50928497314453,-123.03887176513672,52.49797634901251,0.9792859281004932,121.23156071610332,1.0892795335041665,-22.76951789855957,20.274349212646484,-32.18253326416016
4638.879,36.93788146972656,16.25998306274414,-27.028812408447266,-0.8110729455947876,0.3678988218307495,0.4580653011798858,47.294036865234375,53.86104965209961,-91.14120483398438,90.35025787353516,26.56311798095703,-13.7295560836792,-1.0100969076156616,0.1934627592563629,0.3999003767967224,25.78045082092285,74.03446960449219,-123.03517150878906,48.57314934079659,1.001505210333565,95.1696855355708,1.1034690359751689,-21.513586044311523,20.17341995239257,-31.893966674804688
4649.15,51.3239631652832,16.094161987304688,-28.55952453613281,-0.8246346712112427,0.387044608592987,0.3917466700077057,48.08838653564453,54.521820068359375,-91.42696380615234,47.27708435058594,21.528215408325195,-13.8236665725708,-0.987351417541504,0.2315483391284942,0.3412927985191345,26.63749122619629,74.47821807861328,-123.04785919189452,60.90006310994203,0.9916104696233794,53.75574872392049,1.0700272096518872,-21.45089530944824,19.956398010253903,-31.620895385742188
4669.0,58.37785339355469,14.892621994018556,-27.93851852416992,-0.9067158102989196,0.5010497570037842,0.3933876156806946,49.08201217651367,55.13981628417969,-91.68150329589844,-0.5762603282928467,21.706073760986328,-7.514830589294434,-0.9882686138153076,0.2628597617149353,0.2869221568107605,27.06890296936035,74.88150787353516,-122.52874755859376,66.41027611764218,1.1081237457118764,22.977345209339106,1.0621178990348483,-22.01310920715332,19.74169158935547,-30.847244262695312
4691.907999999999,47.17457962036133,12.35462474822998,-29.43056869506836,-0.9068843722343444,0.4321451783180237,0.3819238543510437,49.73403549194336,55.76957702636719,-92.06062316894533,-47.92950439453125,24.608543395996094,-0.2784804105758667,-0.9871398210525512,0.2297110557556152,0.2346402108669281,27.14129447937012,75.29788970947266,-121.41160583496094,56.95819597514062,1.074734641792454,53.87852402318653,1.040321211933939,-22.59274101257324,19.52831268310547,-29.350982666015625
