Timestamp (ms),Wrist Gyroscope X (deg/s),Wrist Gyroscope Y (deg/s),Wrist Gyroscope Z (deg/s),Wrist Accelerometer X (g),Wrist Accelerometer Y (g),Wrist Accelerometer Z (g),Wrist Roll (deg),Wrist Pitch (deg),Wrist Yaw (deg),Arm Gyroscope X (deg/s),Arm Gyroscope Y (deg/s),Arm Gyroscope Z (deg/s),Arm Accelerometer X (g),Arm Accelerometer Y (g),Arm Accelerometer Z (g),Arm Roll (deg),Arm Pitch (deg),Arm Yaw (deg),Wrist Gyroscope Magnitude (deg/s),Wrist Accelerometer Magnitude (g),Arm Gyroscope Magnitude (deg/s),Arm Accelerometer Magnitude (g),Difference Roll (deg),Difference Pitch (deg),Difference Yaw (deg)
0.0,31.075974,142.7314,1.949511,0.243932,0.248801,0.863993,16.425356,-19.715677,-135.528381,11.348916,21.417028,-16.075783,-1.012722,0.204285,-0.248263,151.786743,72.316177,-148.983246,146.0882243685226,0.931605421986154,29.084665750029327,1.062531283152642,135.361387,92.031854,-13.454865000000012
19.985,29.410328,143.6055225,-1.5601545,0.233488,0.2455195,0.804299,16.592184,-18.3052805,-135.1487045,10.011606,19.2847915,-21.647564000000003,-1.0022425,0.162439,-0.2269385,152.8642655,72.3085325,-147.9418335,146.59450046856963,0.8727504525494387,30.671688330312115,1.04037375029818,136.2720815,90.613813,-12.793129000000008
39.971,32.65605566666667,146.240194,-3.01723,0.2237749999999999,0.257155,0.7831286666666667,16.841829999999998,-16.854014666666668,-134.75562033333333,10.64297,18.377282,-20.908752333333336,-0.9686573333333331,0.1628116666666666,-0.2427256666666666,153.79374199999998,72.25576766666667,-147.07696533333333,149.8723323023131,0.8541044744087875,29.802235289741205,1.01179069845596,136.951912,89.10978233333333,-12.321345000000008
59.957,30.12326125,148.15383925,-4.44775575,0.197347,0.273918,0.82738975,17.0411555,-15.366814,-134.3653565,13.96659925,21.699011,-19.8586135,-0.9751845,0.1758195,-0.238474,154.757374,72.12088575,-146.2404975,151.2506313509542,0.8936166446178487,32.56190263376211,1.019199271142057,137.7162185,87.48769975,-11.875141000000006
79.943,26.165975000000003,148.44711,-6.4128588,0.1688438,0.2757104,0.837712,17.1818174,-13.8747772,-134.0023072,12.7738984,24.3146928,-21.565929,-0.98536,0.1792966,-0.2293025999999999,155.7963656,71.9607588,-145.2820952,150.87189093082074,0.8979342116272216,34.920854226735855,1.027453786181315,138.6145482,85.835536,-11.279788000000009
99.928,22.8422468,150.0174712,-10.24238,0.1257037999999999,0.283732,0.8333862,17.4927758,-10.9094026,-133.2871462,8.1393158,22.8611948,-23.1431328,-0.9629104,0.1560046,-0.2351595999999999,157.7072298,71.74138780000001,-143.4321958,152.0918020544807,0.8892906451261476,33.53337569011078,1.003411137630772,140.214454,82.65079039999999,-10.145049600000004
119.914,20.696813400000003,152.2393278,-12.558937,0.0823074,0.2986738,0.8753482,17.7977506,-7.890058000000001,-132.59323439999997,6.445855399999999,23.5919406,-19.5991716,-0.9478764,0.1555804,-0.263851,159.3675814,71.451773,-141.8085966,154.15219074823506,0.9285553393010242,31.340967447063345,0.9961386854962114,141.5698308,79.341831,-9.215362200000005
139.9,12.4683574,152.184509,-14.8065624,0.0190098,0.309034,0.9331674,17.9766442,-4.8509112000000005,-131.9346712,3.7647038,24.2912438,-17.1897608,-0.967963,0.1499715999999999,-0.2587274,160.81014720000002,71.13203419999999,-140.3551726,153.41062220697205,0.9831911218449848,29.995422924406142,1.0131059755456582,142.833503,75.98294539999999,-8.420501400000001
159.885,6.4768384,149.9833524,-17.074831999999997,-0.0361866,0.2973332,0.9223648,18.0677716,-1.8392528,-131.3297518,-2.4933192,19.9659216,-14.1955766,-0.967496,0.125306,-0.2760548,161.8776306,70.865341,-139.1683776,151.09104977009898,0.9697800400713764,24.624562147922607,1.01388182558671,143.80985900000002,72.7045938,-7.8386258
179.871,4.8891542,148.82797520000005,-18.3882462,-0.083145,0.301829,0.9249406,18.1593426,1.1560647999999998,-130.7531496,-4.486007,17.5475192,-8.4493712,-0.9537968,0.1103217999999999,-0.3005702,162.538568,70.59137100000001,-138.3710204,150.0393202771694,0.9764880694582808,19.985784011486945,1.0061022216323348,144.3792254,69.43530619999999,-7.617870799999997
199.856,0.8596851999999998,147.24908420000003,-19.0670686,-0.1355494,0.3060203999999999,0.9664772,18.1930756,4.123122,-130.1953858,-4.3723730000000005,19.507938,-3.3094988,-0.961001,0.1212901999999999,-0.2881438,162.9080658,70.25455,-137.8798064,148.4809245707303,1.0227904492985649,20.26400930147276,1.0105746306411416,144.71499020000002,66.131428,-7.684420599999998
219.842,-5.3742204000000005,143.7258696,-20.4015432,-0.1921128,0.2970758,0.9574406,18.1231892,7.0356328,-129.68501600000002,-8.4716252,21.341837,-2.1911444,-0.9691276,0.1180987999999999,-0.2748388,163.1409698,69.887106,-137.44418620000002,145.2660689979785,1.0207124283547446,23.066069319359453,1.0142445452792144,145.0177806,62.8514732,-7.759170199999994
239.828,-6.7050358,140.70292039999998,-21.119601600000003,-0.2347418,0.291981,0.9569852,18.0481556,9.8889376,-129.2088716,-13.967314399999998,22.5259182,-2.6177750000000004,-0.958401,0.1107008,-0.2930928,163.3036744,69.492297,-136.9664456,142.43702779091797,1.0277048652445313,26.63373064841205,1.0083107325291545,145.25551880000003,59.6033594,-7.757573999999994
259.814,-9.1576796,138.373175,-21.0013528,-0.2860825999999999,0.2907816,0.953918,17.9483386,12.6975596,-128.7447938,-21.025396,22.3102346,-2.7899944000000003,-0.9590398,0.1001528,-0.300168,163.3410066,69.1046262,-136.4735012,140.25710489906368,1.037476141241484,30.78307836484007,1.0098954151573718,145.392668,56.40706659999999,-7.7287073999999905
279.799,-11.5448058,135.42771299999998,-19.9456364,-0.3320106,0.2810454,0.9567386,17.8233416,15.4414022,-128.2788636,-24.2722738,18.7677766,-3.2582572000000005,-0.9475858,0.0959618,-0.3105568,163.2894532,68.7842008,-136.0071652,137.37458426059416,1.0509834937350253,30.854318237663687,1.0017849277400417,145.4661116,53.3427986,-7.728301599999992
299.785,-12.6838024,132.5337556,-18.8638166,-0.3712908,0.2747486,0.9431344,17.6994552,18.1189802,-127.81048760000002,-24.0328856,14.0442252,-3.4374200000000004,-0.9409718,0.1061068,-0.3317664,163.1758362,68.5440108,-135.6117002,134.46902540541154,1.0501648193640654,28.047026722763366,1.0033720773324522,145.476381,50.4250306,-7.801212599999991
319.771,-12.578462,129.4037414,-17.423322399999996,-0.4161616,0.2748772,0.9517128,17.600330000000003,20.724653,-127.3325884,-25.17759,6.4434388,-3.0981966000000005,-0.9379924,0.1111358,-0.3411099999999999,162.903949,68.4433716,-135.3610746,131.1759054020892,1.0744790393852457,26.17303505422512,1.0042593990595257,145.30361899999997,47.7187186,-8.028486199999993
339.757,-12.640904,125.3755112,-16.3778962,-0.4636494,0.2683468,0.9263514,17.5200284,23.250385400000003,-126.8560716,-26.673887,-2.3245238,-1.5591538000000005,-0.9484858,0.1121308,-0.3460984,162.3967682,68.5017488,-135.33173200000002,127.07103031980388,1.0700970458199388,26.82033965403104,1.0158655086146196,144.87673980000002,45.2513634,-8.475660399999992
359.742,-10.6801876,121.3369782,-15.7570176,-0.499234,0.2650078,0.926669,17.488640600000004,25.6893864,-126.3899522,-23.964449,-10.8927912,0.1827395999999996,-0.9663602,0.1279668,-0.3323886,161.68928839999998,68.7170762,-135.57201519999998,122.82105800523452,1.0854396143396647,26.32453436932564,1.0299076266618477,144.2006478,43.027689800000005,-9.182063
379.728,-9.4817242,117.8068864,-15.8776174,-0.523938,0.2731414,0.8980878000000001,17.4987732,28.057908,-125.9374498,-23.7802426,-20.0964992,-0.0566292000000004,-0.962847,0.1436218,-0.3115371999999999,160.79378060000002,69.11161200000001,-136.01344279999998,119.24958830691264,1.0750250921475275,31.134746266458446,1.0221335498984856,143.29500739999995,41.053704,-10.075992999999997
399.713,-6.550963399999999,115.1009826,-15.7440652,-0.5415184,0.267439,0.9020589999999998,17.5860076,30.3666158,-125.48760380000002,-27.0225746,-27.1568792,-0.2953748000000004,-0.9590106,0.1447194,-0.2917826,159.68558660000002,69.642842,-136.61114479999998,116.35732424723204,1.0855764531992025,38.3119155377075,1.012809025093813,142.099579,39.2762262,-11.123540999999994
419.699,-4.322692399999999,112.4521256,-15.5785348,-0.5672866,0.2771256,0.8675118000000002,17.7440348,32.6188104,-125.0310746,-32.356078600000004,-33.0954076,1.1748779999999996,-0.9846782,0.1661254,-0.2757766,158.2076142,70.27164739999999,-137.48384679999998,113.60834902443573,1.072934950429969,46.29905144702643,1.035973715490871,140.4635794,37.652837,-12.452772199999998
439.685,-3.5050805999999994,110.3788712,-15.3774434,-0.5789284,0.2755462,0.8280376,17.944296400000002,34.8240812,-124.5621248,-35.605186,-42.4293886,2.7295852,-1.0073752,0.175403,-0.2414133999999999,156.25360719999998,71.0604016,-138.78591899999998,111.49998458707915,1.047248808867673,55.45658592474357,1.0506433437107,138.3093108,36.2363204,-14.223794200000004
459.671,-1.143849,110.3248978,-14.9739066,-0.5856226,0.281688,0.7909172,18.2355066,37.016125,-124.0543902,-37.3349402,-49.6245508,1.3269845999999998,-0.963449,0.1609894,-0.2297358,154.0240112,71.96859559999999,-140.3386626,111.3423070713948,1.0236464117216453,62.11485080049693,1.0034590675832271,135.78850459999998,34.9524706,-16.2842724
499.642,-0.2355469999999999,109.92326520000002,-14.5352224,-0.6333952,0.2861744,0.7990655999999999,18.7190878,39.6525172,-123.3590548,-38.9457602,-51.6979722,2.5640872,-0.9410948,0.1616466,-0.2343584,151.486679,72.875778,-142.1772064,110.88035175285208,1.0590519815862487,64.77674822277729,0.9832155946328152,132.76759120000003,33.223260800000006,-18.8181516
519.628,-1.9358818,106.2189562,-14.482343599999998,-0.6951248,0.2761182,0.7161468,19.1962172,42.2332514,-122.6506106,-39.6930552,-52.20620280000001,4.0373514,-0.9623488,0.1568466,-0.2425242,148.7102112,73.7493514,-144.24790339999998,107.21918005053736,1.0355220843113488,65.70636535551223,1.00475571975413,129.513994,31.516100000000005,-21.5972928
539.614,0.0900801999999998,103.42718220000002,-13.4089902,-0.7487516,0.2644562,0.6868634,19.7658396,44.75693,-121.891527,-34.6952652,-56.1105194,5.0732956,-0.9996226,0.1295052,-0.2235976,145.6235626,74.6550644,-146.7399872,104.29281447184236,1.0499273167608127,66.16562659630064,1.0324789712064648,125.857723,29.898134400000004,-24.8484602
559.599,3.3902406,101.7364136,-12.4456892,-0.7895912,0.2518984,0.7095302,20.4562526,47.2326914,-121.0736574,-26.1545028,-57.2622894,3.8529078,-0.9793842,0.1102348,-0.2168993999999999,142.3819182,75.5463562,-149.560257,102.55089840259396,1.0910271177894892,63.07037896318573,1.0091533441757203,121.9256656,28.313664800000005,-28.4865996
579.585,2.679442,98.6210984,-11.757179,-0.8389208,0.2610748,0.7211646,21.1938858,49.6342798,-120.1988114,-21.482565,-53.7817184,3.0421986,-0.9629878,0.151893,-0.2196547999999999,139.0241668,76.3445724,-152.58350840000003,99.35558221404516,1.136673453618426,57.99335138925812,0.999332385926164,117.830281,26.7102926,-32.384697
599.57,-1.3464842,93.1633316,-11.5383784,-0.8678307999999999,0.2448843999999999,0.6598924,21.7344154,51.4690232,-119.4654374,-23.5813954,-50.358194,1.880598,-0.9782164,0.1742924,-0.2097357999999999,135.576172,77.0767012,-155.6479004,93.88478870729804,1.117388314942375,55.637815923977286,1.015516751082108,113.8417566,25.607678000000003,-36.182463
619.556,-1.7531228,88.7526672,-10.904767799999998,-0.8867382000000001,0.2562091999999999,0.6223776,22.2994548,53.203740800000006,-118.7092042,-24.4421136,-50.9672708,2.2347448,-1.0236278,0.1689016,-0.1694654,131.7508684,77.781729,-159.072406,89.43725921246555,1.1132392674019544,56.569193863417965,1.0512184098523771,109.4514136,24.5779882,-40.3632018
639.542,-3.663322200000001,85.653949,-10.8171158,-0.8825774000000001,0.2538044,0.611209,22.8550826,54.862153,-117.9329392,-22.2999828,-54.00107820000001,1.1654854,-1.0232674,0.1687224,-0.1127956,127.2983294,78.45221699999999,-163.1688264,86.41197198922278,1.1031482140361375,58.43598237268221,1.0432000132016297,104.4432468,23.590064,-45.23588720000001
659.528,-8.5748598,84.6232056,-10.3230402,-0.8783388000000001,0.2628376,0.5808954,23.396696,56.4880524,-117.0776612,-27.4967496,-56.182509800000005,0.6212857999999999,-1.0224856,0.2048954,-0.0539191999999999,121.8701328,79.0421844,-96.138852,85.6806880550124,1.0853580594902128,62.553430297925935,1.0442060176407528,98.4734368,22.554132,20.9388092
679.513,-15.1867024,85.41302019999999,-9.9005994,-0.8680814,0.2443976,0.5476034000000001,23.897246000000003,58.1143066,-116.1294496,-41.6345864,-61.1921808,-0.3112872000000003,-1.0338214,0.2318773999999999,-0.0137745999999999,115.0501132,79.5809204,-30.225354,87.31575927603821,1.0550663427497249,74.0136384423833,1.0595959396552443,91.1528672,21.4666138,85.9040956
699.499,-18.4347492,88.97849719999999,-10.0417008,-0.8504112000000001,0.247405,0.4994861999999999,24.4637828,59.8020492,-115.0387178,-52.789132,-66.70970539999999,0.5205741999999998,-1.0268176,0.2535346,0.0231564,106.9749498,80.034015,34.648465,91.42127048446672,1.0168062288857598,85.07143027694971,1.0579085007352385,82.511167,20.2319658,149.6871828
719.484,-20.4711322,94.2570678,-10.351539399999998,-0.8561126,0.2403486,0.4827727999999999,25.1649242,61.5874938,-113.7589968,-66.0341262,-68.3823768,-0.6335864000000004,-0.9748474,0.2548068,0.019595,98.287581,80.38121340000001,99.1754914,97.00833186769796,1.0118131298913648,95.06343519745629,1.0077886299408223,73.12265679999999,18.793719600000003,212.9344882
759.456,-25.6236432,96.8246794,-10.2148602,-0.8919112,0.2252652,0.4227847999999999,26.2126618,63.7946494,-111.8919238,-76.2355988,-64.3710564,-0.8682408000000006,-0.9307642000000002,0.2257415999999999,-0.022061,89.56501920000001,80.53439180000001,163.8817598,100.6773708469745,1.0124213481192108,99.78102659590812,0.958002063511974,63.3523574,16.7397424,275.7736836
779.442,-29.6892116,96.4100676,-10.3266638,-0.9472392,0.218866,0.3403106,27.4062382,65.9947624,-109.7947542,-75.4005066,-58.5279778,1.1521351999999996,-0.9323882,0.19838,-0.0583365999999999,81.4924346,80.4620804,157.232477,101.40508076671688,1.0300367626667506,95.45725743186328,0.9550421659794924,54.08619639999999,14.467318,267.0272312
799.427,-31.0045634,93.3012954,-10.1430916,-1.0002706,0.2036768,0.2628865999999999,28.7844488,68.1449342,-107.4934418,-62.9374546,-52.3896034,4.230776399999999,-0.9671494,0.1729056,-0.0569615999999999,74.6237242,80.1802322,151.546457,98.83975405750802,1.054103826262935,81.99812927672893,0.9841335947452864,45.8392754,12.035298000000004,259.0398988
819.413,-31.2194164,89.17653179999999,-9.14031,-1.0457556,0.178731,0.2446688,30.391520000000003,70.2060656,-104.9720336,-52.21456860000001,-47.304696,3.998692,-1.0049509999999997,0.1305874,-0.0537018,68.8863242,79.82519219999999,146.78292539999998,94.92444917474684,1.0887664428084658,70.56971712744345,1.0148218881966429,38.4948042,9.619126600000005,251.754959
839.399,-34.7664962,83.6464262,-8.2912946,-1.0673096000000002,0.1643462,0.2210992,32.1329114,72.1410066,-102.2586486,-36.9165454,-43.5768994,3.4121573999999995,-1.0031122,0.1120203999999999,-0.0547654,64.0527106,79.43775939999999,142.6226134,90.96251667692934,1.1022904843766186,57.213812175997816,1.0108322832409735,31.919799200000007,7.296752800000002,244.881262
859.384,-36.921488,78.0318846,-8.2259232,-1.0548404000000002,0.1515868,0.186673,33.7381734,73.5927964,-99.7901702,-24.5634398,-37.5399922,2.8229114,-0.9801036,0.136071,-0.0503925999999999,60.3118996,79.0634506,139.3156706,86.71699431399914,1.0819027850668472,44.95088895624351,0.9907864542416392,26.5737262,5.470654200000001,239.1058408
879.37,-34.930641,71.6986174,-8.3100876,-1.0306454,0.1258866,0.1568386,35.4555184,74.92482,-97.2706344,-18.9751964,-29.386585200000003,1.1029015999999996,-0.9548774,0.1498742,-0.0521833999999999,57.5338716,78.75938719999999,136.8701536,80.18665084452735,1.0500836743091857,34.99779793179443,0.9679753261793196,22.0783532,3.834567200000001,234.140788
899.356,-30.8519878,65.2813544,-8.1281468,-1.0162868,0.1231222,0.1540308,37.3136544,76.1178498,-94.7086624,-15.329383800000002,-19.391784,-0.4100510000000003,-0.9392648,0.1186369999999999,-0.0474213999999999,55.677415,78.5844116,135.2876646,72.66063001317906,1.0352407562184365,24.72244802225216,0.9479144958623644,18.3637606,2.4665618,229.996327
919.342,-29.4585822,57.9167916,-7.751043,-1.0063272,0.1139726,0.1529424,39.164004,77.16133119999999,-92.1984666,-10.451521199999998,-10.005368,-1.1448698000000004,-0.926708,0.1011528,-0.0342506,54.6591586,78.52256159999999,134.46005540000002,65.43883771935315,1.024243899043758,14.513869610425246,0.9328412028915748,15.4951546,1.3612303999999966,226.658522
939.327,-26.8287216,50.771436400000006,-7.178479,-0.9965058,0.105218,0.1473584,41.0010096,78.06295639999999,-89.7706024,-8.8812332,-0.5606799999999993,-1.9902772,-0.930043,0.1235126,-0.0155361999999999,54.47756819999999,78.583995,134.4497648,57.870973877782575,1.0128223610328713,9.11876463935889,0.9383372089596576,13.4765586,0.5210385999999974,224.2203672
959.313,-22.763522400000003,44.1377796,-7.03378,-1.0041108,0.1082754,0.1660274,42.758243,78.8304186,-87.51555479999999,-10.1727364,9.2377508,-3.0801462,-0.9411826,0.150948,-0.0008877999999999,55.0853974,78.77116699999999,135.2671262,50.15770729570759,1.0234877422190063,14.08218400391644,0.9532107707299576,12.327154399999998,-0.0592516000000017,222.782681
979.299,-22.8034062,36.85959820000001,-6.7757892,-1.0207178,0.1116932,0.1883734,44.2133982,79.4591616,-85.572435,-12.7158466,17.8320234,-3.8956634,-0.966665,0.144867,0.0185282,56.3516952,79.0678314,136.8058256,43.86954106291151,1.0439467112791916,22.24522435533026,0.9776353942596596,12.138296999999998,-0.3913302000000015,222.3782606
999.284,-23.9851582,29.447894,-6.6580662,-1.0229942,0.1064064,0.196616,45.2252062,79.9645128,-84.0590622,-17.5141312,22.8991038,-5.1114180000000005,-0.9821912,0.1432756,0.0320506,57.936167,79.43015439999999,138.76531359999998,38.558995324539325,1.0471376732075872,29.27866698647177,0.993103565532397,12.7109608,-0.5343584000000021,222.8243758
1039.256,-24.168076,21.4685654,-6.345807599999999,-1.0249444,0.1107416,0.211049,45.5621056,80.36116799999999,-83.0944564,-20.0489592,26.3884042,-5.7042778,-0.9956672,0.1530843999999999,0.0417646,59.83861,79.8202606,141.0978118,32.943352470142905,1.052291026980141,33.62807497382827,1.0082322592004087,14.276504400000002,-0.5409074000000004,224.1922682
1059.241,-24.782494,13.3143026,-5.8513412,-1.0292476000000002,0.1179338,0.2317952,45.2819336,80.618831,-82.7442566,-22.2727324,29.4817024,-6.162573,-1.0021232,0.1597116,0.0554208,62.0785714,80.2243088,143.8163726,28.73466297737317,1.061596918812051,37.45961413234932,1.0162825238217177,16.796637800000003,-0.3945222000000001,226.5606292
1079.227,-27.1497022,4.1278058,-4.9361142000000005,-1.0259652,0.1140476,0.2344669999999999,44.2766456,80.7278734,-83.0788742,-25.6599142,30.9309554,-6.2854966,-1.0041964,0.148904,0.0544828,64.5715402,80.62387240000001,146.85711980000002,27.901798036446326,1.0585774514723996,40.67754498758206,1.016637195111806,20.294894600000003,-0.1040010000000023,229.935994
1099.213,-25.9022432,-4.788517000000001,-3.634394,-1.0194572000000002,0.1174499999999999,0.237033,42.7098328,80.6820176,-84.012053,-27.4348494,31.7728876,-6.4113354000000005,-0.996341,0.14301,0.0417796,67.3852174,81.00721279999999,150.253537,26.59069231137977,1.053219885978631,42.46519244810045,1.0074188718488253,24.6753846,0.3251951999999988,234.26559
1119.224,-22.518498,-13.9563646,-2.1907248,-1.0235128,0.115756,0.2566203999999999,40.6827332,80.47567899999999,-85.480176,-27.0898286,32.236164200000005,-6.454088799999999,-0.9934822,0.1360914,0.0211553999999999,70.5548036,81.3727174,153.99782100000002,26.583117578144822,1.0615234020011053,42.59911217554921,1.0029832011653834,29.872070400000005,0.8970383999999996,239.477997
1139.184,-18.203834800000003,-23.4776846,-0.9313808,-1.0294212,0.1130384,0.2582294,38.4222048,80.0726136,-87.4018024,-24.1863684,32.90697960000001,-6.2506646,-0.9892372,0.1218018,-0.0057044,74.1887178,81.7156282,158.147354,29.72286570634428,1.06731818587915,41.31489478041821,0.9967238617222124,35.766513,1.6430146000000008,245.5491564
1159.17,-12.2933728,-33.542134399999995,0.1531627999999999,-1.0316785999999998,0.1129244,0.2646978,35.918064,79.48358160000001,-89.6832766,-17.653404799999997,32.5193256,-6.162338800000001,-0.9886382,0.1043898,-0.0350138,78.2418,82.0250794,162.5833374,35.724295007050124,1.0710637605381668,37.51164696460906,0.9947505652341796,42.323736,2.541497800000002,252.26661400000003
1179.156,-4.657391,-43.8825398,1.2083084,-1.0427782,0.1089509999999999,0.2910548,33.32248439999999,78.689833,-92.2078738,-10.0209312,31.8413318,-6.362430000000001,-0.9901256,0.1008562,-0.0449775999999999,82.619812,82.2891236,167.19007259999998,44.14553883933206,1.088103667579188,33.981906780192965,0.9962648550237834,49.2973276,3.599290600000004,259.3979464
1199.142,2.6042596,-55.1064774,2.0121996,-1.0574076,0.1025492,0.3132812,30.7134046,77.678151,-94.8868472,-2.0214444,30.6026242,-6.236749400000001,-0.9947078,0.0995803999999999,-0.0499193999999999,87.2172456,82.4943636,99.8547576,55.204664356656885,1.1075975267360612,31.29702683110837,1.0009254767171032,56.503841,4.816212600000003,194.7416048
1219.127,10.2781732,-66.9463616,2.4238838,-1.0676580000000002,0.1117205999999999,0.3261696,28.193778,76.4294512,-97.6293962,8.0849108,30.6521504,-5.578208400000001,-0.99474,0.0946204,-0.0631998,92.260347,82.6325272,32.7630858,67.77412034459064,1.1219455001881866,32.18752111831552,1.0012266988131109,64.066569,6.203076000000005,130.39248199999997
1239.113,17.916414800000002,-78.59479300000001,2.4944212,-1.076974,0.1160112,0.3634625999999999,25.87607,74.9446352,-100.3247758,19.305355400000003,30.8583324,-4.6504678,-0.9977718,0.1001476,-0.0731376,97.633255,82.68555599999999,-34.2217866,80.64962208914261,1.14255706938437,36.69550757774085,1.0054487630877869,71.757185,7.7409208,66.1029892
1259.099,24.1157428,-90.973604,2.2055144,-1.0884522,0.1128074,0.385954,23.7579032,73.22212240000002,-102.9684098,29.3360064,31.2247134,-3.1622644000000006,-0.9970332,0.1080219999999999,-0.076766,103.1488984,82.64047400000001,-101.261899,94.14154220806654,1.160350891452926,42.96025971230258,1.0058016569593828,79.39099519999999,9.4183516,1.7065108000000009
1279.084,30.764782200000003,-103.5352496,1.8715392,-1.1010868,0.130255,0.4167318,21.9333104,71.2518786,-105.4712478,37.6818886,32.1554218,-1.4978948000000003,-0.9877856,0.1107359999999999,-0.0950874,108.7710726,82.488861,-168.3593508,108.02556360660596,1.1844930980341253,49.5594548843164,0.9985111250767914,86.8377622,11.2369824,-62.888103
1299.07,32.999546599999995,-116.0188722,1.6799596,-1.1034312,0.1416912,0.4688915999999999,20.3218656,69.0275652,-107.8373304,44.7603818,34.3379672,1.095818,-0.9802462,0.1224073999999999,-0.1176069999999999,114.4167116,82.1980802,-163.5707398,120.63237976025816,1.207268048877895,56.42507055732559,0.9948354590776308,94.094846,13.170515,-55.73340939999999
1319.056,31.3258562,-127.6909654,2.202714,-1.0946132,0.1348687999999999,0.5155722,18.8773212,66.56505059999999,-110.0329756,51.006667,37.1116286,3.8446534,-0.98438,0.1400378,-0.1092763999999999,119.8521532,81.7644438,-159.111563,131.49579407879506,1.217449113614413,63.1959999965137,1.0002779120953338,100.974832,15.199393199999998,-49.07858739999999
1339.041,29.3702418,-137.983632,2.9906106,-1.0891348,0.145509,0.5520238,17.642306,63.8935112,-112.0137418,52.694513400000005,39.690425000000005,4.9596302,-0.9937052,0.1307886,-0.1004896,124.9967546,81.2366606,-154.9722014,141.1064759501233,1.2296819740967502,66.15617515292247,1.007300274051963,107.3544486,17.343149399999998,-42.95845959999999
1359.027,26.4980612,-147.184787,3.197234,-1.0792492,0.1622801999999999,0.5994578,16.5728124,61.0342124,-113.794354,54.542613800000005,42.4516464,5.7810176,-0.998802,0.1277346,-0.1090988,129.8642288,80.61663180000001,-151.14295339999998,149.5851967169381,1.2451760329341068,69.35747376237181,1.0128297544022886,113.2914164,19.5824194,-37.3485994
1379.013,20.8759824,-155.4542968,3.0477638,-1.0566178000000002,0.1582336,0.6438244,15.5813374,58.01029960000001,-115.4141402,58.127159000000006,45.856938,6.7626694,-0.9985796,0.1493202,-0.121029,134.3979002,79.8820218,-147.7143676,156.8793609718251,1.2473928432860115,74.3462108890616,1.016909906778963,118.8165628,21.8717222,-32.300227400000004
1398.998,16.9040352,-162.6585204,2.3827034,-1.0373468,0.1619312,0.6662123999999999,14.684377800000002,54.8550422,-116.8863082,59.7676726,50.7540334,6.795836400000001,-0.9911792,0.1587181999999999,-0.120836,138.64495219999998,79.0335538,-144.59872439999998,163.55188149407644,1.2434424228396908,78.7040658845823,1.0110534171941066,123.9605744,24.1785116,-27.7124162
1418.984,14.887439,-169.085864,1.1688538000000002,-1.0124026000000002,0.1730046,0.7006564,13.884453000000002,51.5819298,-118.2501112,58.4502418,58.45336520000001,6.0367326,-0.9786054,0.1583089999999999,-0.1525696,142.7769408,78.02227,-141.5628298,169.74401746103155,1.243305677204476,82.88346523985916,1.0029993774845127,128.8924878,26.4403402,-23.312718600000004
1438.97,11.40147,-175.1117002,-0.2373805999999999,-0.9775216,0.1770908,0.7491403999999999,13.121199999999998,48.194323,-119.5376402,59.43718260000001,68.6857818,6.883708799999999,-0.972936,0.1750392,-0.1931198,146.7494018,76.77516,-138.6965426,175.4826413484959,1.2442350938722797,91.09281389739893,1.0072429889478904,133.6282018,28.580836999999995,-19.15890240000001
1458.955,7.392462,-180.2155576,-1.0347456000000002,-0.9300342,0.1688468,0.793643,12.3877212,44.7061868,-120.739421,58.8490882,80.92146220000001,7.538820599999999,-0.9745312,0.1726688,-0.2189494,150.5674438,75.27372260000001,-135.96161820000003,180.37008175957865,1.2342374433182943,100.34107854012927,1.0136391932178035,138.17972260000002,30.5675358,-15.222197200000004
1478.941,3.9367538,-184.294934,-1.3930508,-0.8811532,0.1715607999999999,0.8315762000000001,11.708260200000002,41.1371378,-121.8401458,57.8445074,92.9903916,8.508063799999999,-0.991465,0.1571179999999999,-0.2435232,154.1672912,73.52818740000001,-133.4166292,184.3422396497275,1.2236760381626013,109.8434664233375,1.032953271492588,142.459031,32.3910496,-11.576483400000006
1498.927,-0.3225079999999998,-187.9095978,-1.9454654,-0.8178544000000001,0.1662528,0.8561086,11.0487214,37.4965192,-122.8580352,57.8833412,100.6419938,9.1069452,-1.0061432,0.143971,-0.2658904,157.4477966,71.62194819999999,-131.1895494,187.91994516918743,1.1955951438932662,116.45698156568656,1.050594827970993,146.3990752,34.125429000000004,-8.331514200000012
1518.912,-3.186177,-190.8478212,-2.584974,-0.7542234,0.1614488,0.8900698,10.4248742,33.795618000000005,-123.8045716,58.06783299999999,99.8858932,10.7868636,-1.0270731999999998,0.1428496,-0.2822656,160.17102359999998,69.70660380000001,-129.5349014,190.89191882120932,1.1777703091014988,116.04060201499604,1.0746902973981665,149.7461494,35.910985800000006,-5.730329800000009
1538.898,-4.8487594000000005,-193.2951814,-3.873407,-0.6835707999999999,0.1505824,0.8906037999999998,9.8457894,30.052622199999995,-124.7030366,61.0932656,84.8841076,13.046612599999998,-1.0489312,0.1392474,-0.2881166,162.3023834,68.0601118,-128.5652816,193.3947799242928,1.1327485274220574,105.39408391866688,1.0966575016548057,152.456594,38.00748960000001,-3.86224500000001
1558.884,-5.197784199999999,-195.2778414,-4.9872268,-0.612662,0.1420266,0.907599,9.3305874,26.2708288,-125.55910199999998,65.8590898,61.855327,16.853443199999997,-1.0462962,0.1311436,-0.3064257999999999,163.831134,66.8315856,-128.3416488,195.4106566530801,1.104202076683684,91.9104985040176,1.0981034345001568,154.5005466,40.5607568,-2.7825468000000084
1598.855,-5.3806894,-197.4647676,-6.777441400000001,-0.5287458,0.130096,0.9164698,8.7971002,21.674856,-126.5473724,73.63754300000001,34.8889688,20.155325,-1.0286614,0.1263922,-0.3015234,164.90983899999998,66.1067184,-128.7728134,197.65429409368195,1.066027196907133,83.94024665713015,1.0793681599984133,156.1127388,44.4318624,-2.225441000000006
1618.841,-3.5716482,-199.4412904,-9.0455744,-0.4507628,0.120863,0.9319216,8.3650672,17.0438498,-127.52857980000002,79.4054582,9.220727,23.445278,-1.0141366,0.1367124,-0.2956321999999999,165.59069219999998,65.854573,-129.76176460000002,199.6782597167444,1.0422441341544697,83.30624021559106,1.0651580734567805,157.225625,48.8107232,-2.233184800000004
1638.827,-2.526302,-201.5579316,-11.7080858,-0.3712901999999999,0.1089728,0.9206858,8.0135578,12.3822612,-128.52275079999998,81.4691864,-9.442757599999998,25.6375324,-0.9863116000000002,0.1472912,-0.3028516,165.9607666,65.9451218,-131.132123,201.9134994639181,0.9986960629127962,85.928325197989,1.042220879427466,157.9472088,53.5628606,-2.609372200000001
1658.818,-1.0894388,-203.206302,-13.610836999999998,-0.2856976,0.1033376,0.9218202,7.757369800000001,7.686416999999999,-129.5231934,77.00976720000001,-15.9747222,27.5973038,-0.9489417999999998,0.1665106,-0.2945352,166.0612548,66.1457154,-132.6967898,203.6645352859813,0.9705947966827144,83.35050792043721,1.007455856967758,158.303885,58.4592984,-3.1735964000000023
1678.798,-0.5599602000000001,-204.6034058,-15.536745200000002,-0.1949208,0.1000486,0.8994126,7.578358,2.962466,-130.5398804,65.2238914,-15.7133074,27.5825436,-0.9330464,0.1936664,-0.2802306,165.89394539999998,66.3358246,-134.2902254,205.19322033584533,0.9257142462300988,72.53868450869363,0.993283166180863,158.3155874,63.3733586,-3.7503449999999994
1698.784,1.3281928,-204.6195648,-16.7345938,-0.1096378,0.0986014,0.8750114,7.580449799999999,-0.9942792,-131.4150728,45.2030314,-11.9008428,25.752554799999995,-0.9303244,0.2020795999999999,-0.2665066,165.43975519999998,66.45543660000001,-135.7578492,205.30703111366245,0.8873486538000495,53.36795092400214,0.9886179352080762,157.85930539999998,67.44971579999999,-4.342776399999996
1718.77,3.1898144000000004,-203.5520936,-17.315286,-0.0246052,0.1026104,0.8388488000000001,7.6858166,-4.9437258,-132.3038392,22.909466,-8.2868648,25.605211200000003,-0.9342484,0.192481,-0.2757273999999999,164.5789368,66.50591419999999,-137.18153079999996,204.31213584638436,0.8454594131693373,35.343211529447075,0.9929222564603536,156.89312019999997,71.44964,-4.877691599999997
1738.755,6.0622406,-201.0878694,-16.944343600000003,0.0580028,0.1037034,0.8064031999999999,7.9104758,-8.8587634,-133.19362199999998,6.911149800000001,-9.8932666,25.3930278,-0.9398708,0.1927698,-0.2589962,163.3755586,66.5865202,-138.6295806,201.89153712069907,0.8151103244037826,28.11488176088045,0.993778822524972,155.4650828,75.44528360000001,-5.4359585999999975
1758.741,8.979443,-197.8111024,-16.1287828,0.1285031999999999,0.109547,0.7737352,8.258715200000001,-12.7204338,-134.08778999999998,-7.44092,-14.1112346,25.2565204,-0.9340054,0.1935638,-0.2548078,161.7855104,66.7398238,-140.18066399999998,198.67058228107933,0.7919468273427704,29.87283138737025,0.9872993704244118,153.52679519999998,79.4602576,-6.092873999999995
1778.726,11.8125448,-193.4587648,-14.930498,0.1872796,0.1110617999999999,0.7210268,8.7255,-16.5076552,-134.9862946,-17.439317,-18.4589144,25.5322086,-0.951675,0.1954474,-0.2411168,159.914447,66.95147239999999,-141.82122800000002,194.39328605464164,0.7531852483377778,36.010484226776654,1.001010640819567,151.188947,83.4591276,-6.834933399999994
1798.712,14.975874999999998,-187.64272180000003,-13.524539,0.247768,0.1145945999999999,0.6882138,9.3138,-20.187448,-135.8893798,-23.6088516,-20.2438534,27.17074,-0.970218,0.1755074,-0.2546458,157.8265472,67.1772736,-143.564331,188.7246169202374,0.7403777000177679,41.29698035570051,1.0183173859050036,148.5127472,87.36472160000001,-7.674951199999998
1818.698,17.676116999999998,-180.1070924,-12.2742584,0.2990074,0.1179828,0.6580969999999999,10.013542,-23.7180326,-136.8029418,-23.5172984,-20.0361424,28.2139216,-0.9815588,0.1667027999999999,-0.2683848,155.73071280000002,67.3651108,-145.32167040000002,181.38816737662304,0.7324049615886008,41.83940365682411,1.0311536753832184,145.71717080000002,91.0831434,-8.518728599999998
1838.684,19.0436502,-171.6581788,-11.6989002,0.3436928,0.1318686,0.6187466,10.8152818,-27.081082200000004,-137.7493224,-22.7624208,-15.9591234,30.532908,-0.9957732,0.1643283999999999,-0.2896016,153.65593859999998,67.428151,-147.076413,173.10706290548137,0.7199732102303252,41.29261303561648,1.0499700831963548,142.84065679999998,94.5092332,-9.327090599999996
1858.669,20.242415,-161.75869160000002,-11.647244,0.3891836,0.1358954,0.5861951999999999,11.709037599999998,-30.2468476,-138.7348846,-19.435244,-8.7011322,28.958138,-0.999858,0.1667434,-0.3144212,151.8926696,67.3417634,-148.5702026,163.43588334870552,0.716628388185369,35.9445707628907,1.0613105448533904,140.183632,97.588611,-9.835318
1878.655,21.6259514,-150.34310779999998,-11.7976504,0.4354418,0.1465844,0.575574,12.695926,-33.1782716,-139.75837099999998,-16.686687799999998,0.3035252000000014,25.7746408,-0.9758568,0.1654336,-0.3440856,150.5240082,67.10660099999998,-149.6958924,152.34801079068345,0.73646586953273,30.706184811056037,1.0478834239754726,137.82808219999998,100.2848726,-9.937521400000003
1898.641,22.0340558,-137.8872774,-11.8439416,0.4753214,0.1588208,0.5348928,13.745847,-35.852028399999995,-140.806656,-14.458379000000004,8.2670378,20.0637784,-0.945312,0.1865127999999999,-0.355285,149.6200104,66.7687774,-150.36396499999998,140.13807418544852,0.7329834836491474,26.075732798496315,1.026951426861485,135.8741634,102.6208058,-9.557308999999998
1918.626,22.0429154,-124.05451839999998,-10.7288138,0.518328,0.1715121999999999,0.5174688,14.8243424,-38.2587366,-141.8374696,-15.600858400000002,15.370847,12.0743602,-0.9113306,0.1985234,-0.3536816,149.1797882,66.377864,-150.50123,126.4536322149054,0.752232882361759,25.008796343558878,0.9975097378083484,134.3554458,104.6366006,-8.663760400000001
1938.612,20.3135354,-108.8453418,-8.941511600000002,0.5587951999999999,0.18192,0.5046632,15.854759,-40.3660922,-142.8038606,-19.116897,20.1231566,4.226551799999998,-0.8721998,0.193823,-0.362051,149.1137512,65.9746002,-150.15735479999998,111.08509702790386,0.7746172650911416,28.07598480151348,0.964043968421586,133.25899220000002,106.3406924,-7.353494200000005
1958.598,18.81634,-92.1984904,-6.7594282,0.5922682,0.1878406,0.4903782,16.802733,-42.1478464,-143.65993659999998,-22.7195,21.333495000000003,-0.6150798000000014,-0.8508227999999999,0.1739966,-0.3782828,149.2533324,65.56493359999999,-149.41769119999998,94.34143391228186,0.7915405806241648,31.171653987643857,0.9472444935639582,132.4505994,107.71278,-5.757754600000004
1978.584,16.3997152,-74.8617906,-4.690917600000001,0.6193604,0.2001894,0.4738369999999999,17.6298822,-43.5957078,-144.38279419999998,-23.1392254,16.806188600000002,-2.0363938000000017,-0.8328944,0.1619451999999999,-0.390777,149.3616332,65.24436940000001,-148.7084718,76.78048618242366,0.8051115472588378,28.67086721882429,0.9341552296505116,131.73175099999995,108.8400772,-4.325677600000006
1998.569,13.420146,-56.3223222,-2.8473078000000003,0.6418566,0.2047047999999999,0.4718058,18.2994396,-44.7014894,-144.9442322,-22.0604336,9.6697452,-1.5306648000000016,-0.8196338000000001,0.1549496,-0.4112762,149.3312164,65.0323974,-148.17962040000003,57.969056041735485,0.8224868771112643,24.13523643105431,0.9300306754774492,131.0317768,109.73388679999998,-3.2353882000000054
2018.555,11.7694176,-36.99443479999999,-1.5815254,0.6552362,0.2056582,0.4645696,18.8099156,-45.4390572,-145.3216218,-17.648324,-0.0174503999999984,0.4241739999999984,-0.8171925999999999,0.1524784,-0.4304691999999999,149.1143616,64.958963,-147.95634460000002,38.853682185932975,0.8291288719263369,17.653429358278014,0.936139487528413,130.304446,110.3980202,-2.6347228000000085
2038.541,11.2500588,-17.407168199999997,-0.6863288,0.662512,0.2077588,0.4601406,19.1813684,-45.8135872,-145.51127019999998,-10.224459,-9.383678799999998,2.338322199999998,-0.822076,0.1583496,-0.4395502,148.7650116,65.0220368,-148.04279179999995,20.737511301220746,0.8329557256480082,14.073405429222284,0.945562226358583,129.5836432,110.835624,-2.531521600000008
2058.527,9.504244,1.785847200000002,0.1092341999999999,0.6618814000000001,0.2156664,0.4591016,19.3916842,-45.8356736,-145.514145,-4.0102588,-17.066053399999998,4.073513799999999,-0.8280704,0.1662703999999999,-0.437821,148.2682222,65.2280198,-148.52601320000002,9.67118588094208,0.8338904381736729,17.99794068701804,0.9513325713510076,128.876538,111.0636934,-3.011868200000009
2078.512,9.3846914,21.2221944,1.0475059999999998,0.660688,0.2092006,0.4538384,19.4508928,-45.497847,-145.30942079999997,1.0566898000000002,-22.5112522,3.3030151999999986,-0.829476,0.1669964,-0.4331965999999999,147.7652344,65.53258059999999,-149.1264404,23.22824222029427,0.8283977412444581,22.776807905342224,0.9505669500043225,128.31434159999998,111.0304276,-3.817019600000009
2098.515,10.9062952,40.85981339999999,2.6390988,0.6504158,0.2099369999999999,0.4536991999999999,19.3857278,-44.7950112,-144.8827392,6.829047800000001,-28.0299644,4.015562999999998,-0.8384784,0.1633026,-0.4243918,147.2081452,65.9249406,-149.91170660000003,42.3725910058439,0.8203396985025654,29.12798558649261,0.9538459866983556,127.8224174,110.7199518,-5.028967400000011
2118.484,10.5782102,59.7447754,4.2938388000000005,0.6325921999999999,0.2096985999999999,0.468623,19.1784756,-43.7435762,-144.2521148,12.5310354,-31.738451399999995,5.030710599999998,-0.8541156000000001,0.1685666,-0.406151,146.5959594,66.37208720000001,-150.8763094,60.82576567764861,0.8147109367572034,34.49150902189069,0.960669970177022,127.4174838,110.1156634,-6.62419460000001
2138.469,10.053518400000002,77.62935039999999,5.5372998,0.6059196,0.2035578,0.4719402,18.851550000000003,-42.3582628,-143.44858399999998,16.4503914,-34.456645200000004,4.220661199999999,-0.8612350000000001,0.165396,-0.3834544,145.9862396,66.8780166,-151.91886,78.47324999527035,0.7945450849266139,38.41470755605283,0.9571409712891618,127.1346896,109.2362794,-8.470276000000007
2158.455,11.9000456,94.484195,6.356376599999999,0.5780928000000001,0.1973706,0.488124,18.4798302,-40.6496042,-142.50455319999998,19.3614464,-36.200299,2.2989739999999985,-0.8562580000000001,0.1662134,-0.3618012,145.4171142,67.4337814,-152.9746796,95.44253618571298,0.7819280520177032,41.11705893959525,0.9443012047143644,126.937284,108.0833856,-10.470126400000003
2178.441,13.235786999999998,110.064421,6.306423799999999,0.5414671999999999,0.195543,0.517159,18.0979408,-38.6371822,-141.4707826,19.8703812,-35.6645794,2.064421999999998,-0.8645392000000001,0.177336,-0.3423846,144.8194946,67.98168480000001,-154.06418760000005,111.0366327331652,0.7738715815985492,40.878553191206535,0.9466273287570988,126.7215538,106.618867,-12.593405
2198.426,14.1658138,123.6784942,5.0899704,0.4989144,0.1908628,0.5536976,17.737345400000002,-36.3433874,-140.4008058,20.9654594,-33.2776344,1.8890333999999984,-0.8808773999999999,0.182166,-0.3252562,144.267099,68.493289,-155.1218566,124.5911233068736,0.7693667650717438,39.37664137911494,0.9565150500777287,126.5297536,104.8366764,-14.721050800000006
2218.412,16.194153,135.6027954,2.8004852,0.454663,0.1951838,0.5775644000000001,17.460169200000003,-33.7925096,-139.3420502,21.7476888,-29.5052868,-1.8236992000000012,-0.9014656,0.1809571999999999,-0.3192842,143.9678498,68.9866606,-155.921356,136.59506370669874,0.7605233694626353,36.699452258364566,0.9733078323864656,126.5076806,102.7791702,-16.579305800000004
2238.398,18.1965802,145.8722992,0.1335232000000001,0.4138297999999999,0.2029538,0.6122042,17.2776092,-31.0128606,-138.311258,22.9026154,-22.1347514,-8.690789,-0.9222402,0.192303,-0.31148,144.1827178,69.437799,-156.1916502,147.00292865556892,0.7663154251351854,33.01525140208143,0.992233450708572,126.9051086,100.4506596,-17.8803922
2258.383,19.4965836,154.8276214,-2.7495259999999995,0.3725882,0.201949,0.64989,17.175624399999997,-28.0321152,-137.3159668,22.940232200000004,-10.5137514,-16.8361442,-0.9515048,0.196999,-0.2997001999999999,145.10512680000002,69.79030300000001,-155.7055206,156.0745623529927,0.7758623444144199,30.33560570376192,1.016853086883292,127.9295024,97.8224182,-18.3895538
2278.369,21.4976094,163.034027,-5.935531,0.3302889999999999,0.2147614,0.6842532,17.181270599999998,-24.8668998,-136.3644256,20.8036042,0.9343062000000004,-26.154431800000005,-0.973318,0.1882762,-0.2931006,146.7630798,70.0505112,-154.3900726,164.55233726083523,0.7895667952499016,33.43227749595393,1.0337813203626771,129.5818092,94.917411,-18.025647000000003
2298.355,21.6627108,169.2720366,-9.2463342,0.2770376,0.2333266,0.6999486,17.264476,-21.5555606,-135.4651246,19.1981416,11.525046,-32.407149600000004,-0.9881698,0.1801678,-0.2852416,148.974774,70.1948212,-152.44879139999998,170.90286747171407,0.7881111449048795,39.3905911531237,1.0441756366432997,131.71029800000002,91.7503818,-16.983666799999998
2318.34,22.1612528,173.6379088,-12.1880576,0.2260118,0.2303306,0.7424497999999999,17.4179698,-18.1419126,-134.60970779999997,19.8362354,21.3525398,-36.6028702,-0.987073,0.1709982,-0.2722362,151.6619078,70.1996428,-150.01218260000002,175.4702061495442,0.8095463078512802,46.78864496470106,1.0381069503296276,134.243938,88.34155539999999,-15.402474799999998
2338.326,23.4304678,177.8094206,-15.5921898,0.1824834,0.2458974,0.7636752,17.653593,-14.6305824,-133.7986206,19.2976868,28.6724196,-38.24392160000001,-0.9647674,0.1680912,-0.2576868,154.5658722,70.0572264,-147.3272034,180.0230353543506,0.8227791524445427,51.547123109794455,1.0126367929887004,136.9122792,84.6878088,-13.528582800000004
2358.312,24.5903002,181.4402526,-18.5548094,0.1290336,0.2699209999999999,0.7953044,17.9762112,-11.0321008,-133.02077939999998,18.9157814,30.434078,-35.8511582,-0.9670544,0.1612398,-0.2536114,157.3285218,69.825093,-144.778952,184.03676013054636,0.8497153081057914,50.68871110971453,1.0126752825429086,139.3523106,80.8571938,-11.758172600000004
2378.298,22.9231092,182.3777832,-21.150225,0.0661433999999999,0.290111,0.8290810000000001,18.3184654,-7.3979458,-132.27480759999997,23.0528218,29.7529722,-31.819140800000003,-0.969933,0.1608293999999999,-0.2501696,159.888321,69.54017940000001,-142.528595,185.02555703980988,0.8808601740603103,49.28620160782075,1.014505273104837,141.5698556,76.93812519999999,-10.253787399999998
2398.283,20.8505042,182.8402832,-23.650736,0.0139944,0.2926403999999999,0.8286294,18.6650574,-3.7455470000000006,-131.5580228,25.641752000000004,29.7227598,-32.6331902,-0.946663,0.1630522,-0.237459,162.4394594,69.2321732,-140.33490920000003,185.5388638517335,0.878897564843526,51.04769336990043,0.989516868059782,143.774402,72.9777202,-8.7768864
2418.269,21.3124256,184.5077882,-25.6172254,-0.0301231999999999,0.3213568,0.8564002000000001,19.070424,-0.0587365999999999,-130.8473966,24.8410848,29.532107,-29.599087200000003,-0.9422796,0.1648124,-0.2461128,164.7266664,68.879329,-138.3998566,187.4928948749952,0.9152042955780528,48.63466665839752,0.9877375572963498,145.6562424,68.9380656,-7.552459999999996
2438.255,17.2380594,183.3619812,-27.1498644,-0.1144273999999999,0.3488706,0.9137542,19.4383,3.6110766,-130.1480924,23.59492,26.025324,-25.7653558,-0.9717848,0.1665424,-0.2567248,166.696109,68.5438446,-136.7755158,186.1609034636582,0.9847593936758156,43.56479425650912,1.0188276063416422,147.257809,64.932768,-6.627423399999998
2458.24,11.1810654,179.52331239999998,-29.1817404,-0.1753504,0.328516,0.8882505999999999,19.7190532,7.212029800000001,-129.492172,21.3487516,25.1497594,-23.9286068,-0.9519384,0.1824254,-0.2561284,168.48295280000002,68.185211,-135.2986572,182.2229675186969,0.9631508985805494,40.75362334989856,1.0025305487845644,148.7638996,60.9731812,-5.806485199999997
2478.226,11.565841,178.6207642,-29.7018244,-0.2358337999999999,0.3441248,0.895453,20.051038,10.7893558,-128.8265914,14.3836076,28.4837426,-21.6772686,-0.9351826,0.172723,-0.265339,170.0031432,67.7347746,-133.956729,181.44239982462125,0.9878641275026036,38.5761031475495,0.98732189026313,149.9521052,56.945418800000006,-5.130137599999998
2498.212,8.095875799999998,175.991095,-30.4682278,-0.3005627999999999,0.3525538,0.9501818,20.3493626,14.318926,-128.1677062,1.2658230000000004,28.2062072,-15.4545666,-0.9575962,0.1556098,-0.2906564,170.934268,67.2562208,-132.9678222,178.79239813129848,1.0571081456925395,32.18751405856775,1.0127615884162668,150.5849054,52.9372948,-4.800116
2518.197,2.2978412,170.4535492,-30.832452,-0.3867624,0.3570308,0.941577,20.5632016,17.744517,-127.53064399999998,-8.782450399999998,25.5943938,-10.725405,-0.9677158,0.145086,-0.3026478,171.4102598,66.8114242,-132.254953,173.2349058515331,1.0787137679344785,29.107365759064557,1.0242653502928234,150.84705820000002,49.0669072,-4.7243090000000025
2538.183,-1.8404318,165.7175264,-30.5343882,-0.4370198,0.3169652,0.8891363999999999,20.7245476,21.0801412,-126.9022352,-16.846449999999997,26.6662878,-7.088183400000001,-0.9332442,0.1278848,-0.3080269999999999,171.54556259999998,66.3344346,-131.734317,168.51716413497306,1.040200356377578,32.32856517921827,0.991049893614686,150.82101500000002,45.2542934,-4.8320818
2558.169,-0.8016493999999998,163.74418039999998,-28.765367,-0.5004618,0.3422812,0.9415658,20.9560994,24.3638878,-126.2271894,-25.2236058,25.5841018,-1.5095120000000015,-0.9438494,0.108164,-0.3363686,171.2167906,65.8647508,-131.5305572,166.25355814319568,1.119894900810929,35.9590764751363,1.0078169356794515,150.26069120000002,41.500863,-5.303367800000001
2578.154,-8.994941599999999,157.5499604,-28.7295842,-0.5658118,0.3334894,0.9050508,21.0510972,27.532485,-125.571948,-36.1984472,17.1827294,1.6955955999999983,-0.9598856,0.086838,-0.3499034,170.4894102,65.5562912,-131.5261414,160.4003990167539,1.118246450256937,40.10547112007976,1.0253553494583816,149.438313,38.0238062,-5.954193400000003
2598.14,-11.982692599999998,152.27201559999995,-27.4714258,-0.6242172,0.3293944,0.8833114,21.1216314,30.592022199999995,-124.910452,-39.0994536,6.063532,2.1062715999999986,-0.946336,0.0863462,-0.3658165999999999,169.6131834,65.4571014,-131.6237946,155.19352722429383,1.13065769041614,39.6228478555813,1.0182481406739714,148.491552,34.8650792,-6.713342599999999
2618.126,-15.8315598,146.6914704,-27.2474776,-0.6771483999999999,0.3133578,0.8613272000000001,21.1329568,33.5459804,-124.2707014,-40.4395324,-4.0754524,1.5440233999999986,-0.9245956,0.0922669999999999,-0.3770754,168.6466246,65.54664439999999,-131.79192819999997,150.03816450949256,1.139564658939211,40.67369052907621,1.0027841642714148,147.51366779999998,32.000664,-7.521226799999996
2638.112,-15.648406599999998,141.50897219999996,-26.625087,-0.7118222,0.3088424,0.8333954,21.1662596,36.3958918,-123.6421462,-42.0925246,-17.4493084,3.137156199999999,-0.9345246,0.0969896,-0.4001206,167.45467820000002,65.87813080000001,-132.1725372,144.8397635319005,1.1386932708994817,45.673851817676976,1.0211952335658838,146.2884186,29.482239000000003,-8.530390999999995
2658.097,-17.842109,136.3611328,-25.8939522,-0.7531464,0.3087566,0.8177200000000001,21.187638,39.134691,-123.013359,-43.8137438,-32.4974164,3.2476331999999983,-0.944649,0.0882001999999999,-0.3940682,166.0637604,66.49977240000001,-132.734906,139.9399733907471,1.1537877344973468,54.64680539472339,1.0273415959320833,144.8761224,27.3650814,-9.721546999999996
2678.083,-20.3275448,131.52609859999998,-25.1646214,-0.778422,0.294808,0.8079993999999999,21.182962,41.7739808,-122.3859542,-39.927881,-45.501447,3.802544799999999,-0.9597486,0.0947641999999999,-0.396238,164.5176728,67.3589186,-133.5475892,135.44586321013375,1.160049825373186,60.655393059479685,1.042641923887391,143.33471079999998,25.58493780000001,-11.161634999999997
2698.069,-21.4215024,126.43765559999996,-25.1094136,-0.808849,0.2931732,0.759954,21.163221600000004,44.3123474,-121.7816818,-34.9214326,-53.5904046,3.1346141999999984,-0.962834,0.1103838,-0.3774718,162.8831606,68.368643,-134.5568238,130.67457354065968,1.147918687065961,64.04110965786653,1.040057140090716,141.719939,24.05629560000001,-12.775141999999995
2718.055,-20.451697600000003,123.07167359999998,-24.878846,-0.8149358,0.2822268,0.6969358000000001,21.181983,46.7913162,-121.1791474,-35.6105828,-59.589006000000005,2.6432351999999986,-0.9473538,0.1303588,-0.3724568,161.03878799999998,69.4812774,-135.7692872,127.21582352725818,1.1088245280843674,69.46905739785312,1.02625372446492,139.85680499999998,22.689961200000003,-14.590139799999998
2738.04,-18.3862852,120.8429154,-24.502642,-0.8420372,0.2813647999999999,0.7194157999999999,21.2662816,49.21303340000001,-120.5644058,-36.749678,-62.126419600000006,4.114601199999998,-0.9581218,0.158674,-0.3466964,158.87091999999998,70.62000280000001,-137.2909822,124.66533259413966,1.142695011869974,72.29910641532156,1.0311998912355451,137.6046384,21.4069694,-16.726576399999995
2758.026,-20.0166964,116.85167239999998,-25.196497800000003,-0.861392,0.2594677999999999,0.647311,21.319936,51.5739992,-119.972203,-35.452507,-63.535513,5.092401199999999,-0.9699382,0.1597018,-0.3207354,156.425525,71.75723719999999,-139.1230502,121.20167069323796,1.108301063620278,72.93541125365633,1.0339999872125918,135.105589,20.183238000000003,-19.150847199999998
2778.012,-16.3041362,114.5742554,-24.2891122,-0.8810766000000001,0.2443456,0.6097826,21.5008972,53.884476600000006,-119.3324874,-34.6721054,-62.1177542,5.007416199999999,-0.9505888,0.1635236,-0.282464,153.7609284,72.84745640000001,-141.18939540000002,118.2499295101556,1.0990157262613125,71.315107072207,1.005059672725157,132.2600312,18.9629798,-21.856908
2797.997,-13.8071482,113.9432434,-22.6077778,-0.8843448,0.2239971999999999,0.5755478,21.840740600000004,56.1708078,-118.5700668,-37.8538588,-59.7413724,6.270663999999998,-0.9564568,0.1777772,-0.2598524,150.713974,73.85159780000001,-143.5772676,116.98209980583604,1.0786545976260056,71.00188327985896,1.006944692071933,128.8732334,17.680790000000002,-25.0072008
2817.983,-12.1367994,115.0392808,-20.055382400000003,-0.9015436,0.2205397999999999,0.5667374,22.3947244,58.4433312,-117.6131134,-41.262448,-59.34707540000001,6.293436199999999,-1.0000802,0.1750758,-0.1984532,147.2151184,74.8269624,-146.3510926,117.4033917306792,1.0874787108921995,72.55530520016755,1.0345025929246965,124.820394,16.383631200000004,-28.737979199999995
2837.969,-12.471876,116.8831086,-18.3743658,-0.915319,0.2192642,0.5009602,23.1681242,60.7372848,-116.4106796,-47.4072006,-62.9393118,4.118901399999999,-1.0237159999999998,0.149586,-0.1592546,143.105542,75.8385452,-149.6158174,118.97405635478256,1.0662301736241946,78.90351695158576,1.0467723953530488,119.9374178,15.1012604,-33.2051378
2857.954,-9.4672758,121.68392199999998,-17.1314232,-0.9231134,0.2165302,0.4533596,24.3166998,63.098967,-114.8745514,-51.7548272,-66.7994766,2.7110577999999985,-1.0259218,0.1669128,-0.1189528,138.1088608,76.8457704,-153.6839296,123.24809063524206,1.050979830293503,84.54633077154057,1.0461955797779494,113.792161,13.7468034,-38.8093782
2877.94,-6.0826596,128.1289172,-16.5982774,-0.9538726,0.1967806,0.4431654,25.9260896,65.5470422,-112.92231139999998,-54.1019096,-73.7915886,4.254922999999999,-1.0426213999999998,0.2111212,-0.0633328,131.699585,77.8011186,-159.1306062,129.34264951399936,1.0700425754727143,91.59868743717976,1.0656653266308516,105.7734954,12.254076400000002,-46.2082948
2897.926,-6.2950226,131.070473,-17.2905844,-1.0042134,0.185031,0.40015,27.945635,68.0367234,-110.5635436,-58.4666726,-81.14348299999999,5.226387599999999,-1.0371154,0.2158572,-0.0170088,123.7254838,78.67161719999999,-94.0672274,132.35581026487566,1.0967228666352131,100.1495470066256,1.059477221551478,95.7798488,10.6348938,16.496316200000003
2917.911,-6.133030999999999,128.8665866,-17.5043384,-1.0541334,0.1629782,0.3229773999999999,30.417121200000004,70.4786028,-107.7581312,-63.8115692,-83.4143784,6.353148999999999,-0.9980262,0.2190452,-0.0348452,114.6551454,79.35930040000001,-29.9983828,130.1945201381532,1.114483521449088,105.21519562231006,1.0223753143990322,84.2380242,8.880697600000001,77.7597484
2937.897,-5.2245832,120.9142046,-16.8390722,-1.1070756,0.1401562,0.2561596,33.2888168,72.7565204,-104.5975676,-69.1009978,-79.62200399999999,6.492571399999998,-0.9634182,0.2077028,-0.0837488,105.1437424,79.81998920000001,33.741348,122.19286188735084,1.1449357559208115,105.62558828861366,0.9891051221788916,71.8549256,7.063468800000004,138.3389156
2957.883,-6.524358199999999,105.8545916,-15.802793200000002,-1.147539,0.1215858,0.1944872,36.2802216,74.7467394,-101.3222702,-72.3465544,-69.9938682,6.169438599999999,-0.9332272,0.156835,-0.1742916,96.1155914,80.0529328,98.0454558,107.22634977302296,1.1702367855466174,100.85250364661404,0.962230630293694,59.8353698,5.306193400000003,199.367726
2977.868,-9.089631999999998,85.67471719999999,-13.9994312,-1.1633572,0.1230704,0.1485292,39.0908654,76.350937,-98.2166062,-67.2107192,-54.7154548,3.3287429999999985,-0.9191874,0.0878236,-0.2703162,88.613687,80.12681740000001,163.8002898,87.28552372025348,1.17924010337193,86.73028478744976,0.962127491041681,49.5228216,3.775880400000003,262.016896
2997.854,-12.5184506,64.72424759999998,-12.1093798,-1.1518735999999998,0.1334494,0.161853,41.35977319999999,77.5496584,-95.6148256,-51.299411600000006,-37.4474104,0.9975077999999986,-0.928685,0.0493084,-0.3287136,83.31683480000001,80.1154038,159.4704986,67.02668805745509,1.1708193397558475,63.52112402959589,0.9863770974432244,41.9570616,2.565745400000003,255.0853242
3017.84,-19.7621404,45.74143919999999,-11.2934108,-1.1161477999999998,0.1407082,0.1989154,42.7658378,78.3945406,-93.7592242,-28.649681800000003,-23.261829,-1.4652636000000014,-0.9625466,0.0416926,-0.304752,80.09906600000001,80.108223,156.7884032,51.09170755390902,1.142432512382784,36.93323642850674,1.0104988924141975,37.33322819999999,1.713682400000002,250.5476274
3037.826,-29.861361,30.81418639999999,-10.8452154,-1.0723632,0.1530942,0.2306374,43.2465866,78.970076,-92.6460178,-6.814933400000001,-12.516909,-3.759654800000001,-0.9839076,0.0718714,-0.2180896,78.4794692,80.1354676,155.2841338,44.25871282966398,1.1075171678428466,14.73944817067042,1.010347829761553,35.2328826,1.1653916000000009,247.9301516
3057.811,-39.8901058,20.297210199999988,-10.313152,-1.0384556,0.1616128,0.252862,42.9245086,79.35996700000001,-92.1482302,6.247426399999999,-5.108307999999999,-6.088762600000001,-0.9956848,0.1433996,-0.1038022,77.88418119999999,80.2107042,154.5536864,45.929929096540974,1.0809476959313065,10.109311413021151,1.0112994427745128,34.9596726,0.8507372000000032,246.7019166
3077.797,-48.4264068,12.785732199999988,-10.242898,-1.0039082,0.1567128,0.2316196,41.9517738,79.6405608,-92.1421052,3.8378362,0.5547904000000002,-7.804756000000002,-0.9925712,0.2013319999999999,-0.0148598,77.8345108,80.3316162,154.42489,51.12248803498913,1.0421315726985916,8.714986821877508,1.0128933680054777,35.882737,0.6910554000000048,246.5669952
3097.783,-51.1570708,7.462851599999988,-9.0924618,-0.9870642,0.1450112,0.197743,40.6659012,79.8378386,-92.4018998,-10.5743678,5.3530648,-9.463409600000002,-0.975672,0.220489,0.0216191999999999,78.0631836,80.50660400000001,154.8683166,52.49202709387678,1.017067488958368,15.166696356822342,1.000509190619277,37.3972824,0.6687654000000037,247.27021640000004
3117.768,-50.707885000000005,1.8465355999999888,-7.5844456,-0.9961184,0.1381098,0.1647664,39.163121,79.94174319999999,-92.8967514,-25.8384546,10.5584276,-9.711958,-0.9584496,0.2031587999999999,0.0065101999999999,78.61816400000001,80.7085448,155.95062560000002,51.305195740340494,1.0190555187248436,29.553819680279343,0.9797660519030243,39.455043,0.7668016000000051,248.847377
3137.754,-46.7749374,-5.018773600000012,-5.6836932,-1.0097128,0.1333318,0.1465338,37.4780182,79.9200362,-93.6590866,-34.9448012,17.374734999999998,-9.3731386,-0.94809,0.1676936,-0.0455458,79.908293,80.9324432,157.958957,47.3855170449126,1.028965238439822,40.13572317079333,0.9638828826567052,42.43027480000001,1.0124070000000072,251.6180436
3157.74,-40.6392342,-13.303745200000012,-3.6354804,-1.0314348,0.121299,0.1597438,35.5590354,79.7347336,-94.7836822,-37.888942,24.0036226,-8.832793600000002,-0.9535788,0.1260374,-0.0958788,82.20050799999999,81.17512500000001,161.03510740000002,42.91565810339807,1.050756525409421,45.71393733406472,0.9666388665358124,46.6414726,1.4403914000000069,255.81878960000003
3177.726,-34.22764600000001,-23.22995800000001,-1.6501924000000003,-1.0545988000000002,0.1226744,0.1795392,33.423471,79.3499406,-96.2578186,-32.9452372,30.015497600000003,-8.265897400000002,-0.9612068,0.1049637999999999,-0.1417894,85.6076644,81.4041152,165.1337646,41.39910426977978,1.0767831544528548,45.32817898578319,0.9772615543594456,52.184193400000005,2.0541746000000045,261.3915832
3197.711,-28.614026000000003,-34.38282620000001,-0.3502528,-1.0731262,0.1194828,0.198622,31.0550644,78.74866499999999,-98.0800614,-22.315041,34.7810894,-7.723493400000001,-0.9796238,0.1024141999999999,-0.1531624,90.0692474,81.5850126,98.07997120000002,44.73325271486516,1.097873708359154,42.03971437798213,0.9967999692324634,59.014183,2.8363476000000047,196.1600326
3217.697,-20.4141196,-45.82552920000001,0.864382,-1.0817976000000002,0.1203984,0.22957,28.6294026,77.914519,-100.1274964,-12.356560000000004,40.0839296,-8.303831200000001,-0.985715,0.1056573999999999,-0.1651576,95.6692094,81.70312779999999,31.971798600000007,50.17432173677172,1.1124226746108337,42.75932178846444,1.0050246664821318,67.03980680000001,3.788608800000003,132.09929500000004
3237.683,-12.8084904,-58.3967688,1.3329243999999998,-1.0945226,0.1191072,0.252236,26.179746,76.8360582,-102.35251780000002,-1.3880492000000004,44.3679216,-7.743648600000002,-0.988875,0.1104896,-0.1727524,102.192763,81.7039074,-33.426587,59.79980535138606,1.129508409308492,45.05999602003588,1.0099134166050672,76.013017,4.8678492,68.9259308
3257.668,-5.1546574,-71.50864860000001,1.7691613999999998,-1.1022168,0.1238548,0.2753664,23.8437888,75.4976762,-104.6201356,11.3277544,48.2993646,-6.773013600000001,-0.9777594,0.1087805999999999,-0.1862564,109.2640352,81.5486584,-98.5242768,71.71601808221723,1.1428248071923537,50.070154321074725,1.0012682506529806,85.4202464,6.050982199999998,6.095858799999997
3277.654,3.0109516000000007,-84.58746560000002,1.5714754,-1.1129133999999998,0.1240318,0.3070663999999999,21.6785212,73.901967,-106.8814012,24.8915462,53.144896,-5.208718000000001,-0.9683776,0.0997744,-0.1950302,116.6863848,81.200581,-163.5336212,84.65562415517077,1.1611416353398751,58.91604014426864,0.992847866487691,95.0078636,7.298613999999998,-56.65222
3297.64,11.929861,-96.7011062,1.2646444,-1.1262018,0.1300894,0.356452,19.7925996,72.059337,-109.0533356,37.1973126,58.4609788,-2.7488932000000013,-0.9759302,0.1031888,-0.2081982,124.089226,80.6318494,-156.8000884,97.44241812086489,1.1884072427495551,69.34610674537667,1.003211928856869,104.2966264,8.572512399999997,-47.7467528
3317.625,16.5072412,-108.1385972,0.3724385999999999,-1.1292208,0.1376104,0.4052688,18.1127508,69.9862916,-111.1286454,49.2235774,62.04120399999999,0.6336899999999984,-0.987855,0.1197298,-0.210452,130.9329286,79.84074079999999,-150.8605102,109.39188236304189,1.2076088098362978,79.1989465134449,1.017095261190927,112.82017779999998,9.854449199999996,-39.7318648
3337.611,19.6106234,-118.17273720000004,0.2808193999999999,-1.121368,0.1396686,0.4600138,16.6776244,67.703161,-113.0453446,57.6754104,65.1411514,3.112355999999999,-0.9986442,0.1339738,-0.2090544,137.0199266,78.86822959999999,-145.84284359999998,119.78919495101516,1.2200763113184354,87.060377499738,1.0290495417808805,120.3423022,11.165068599999996,-32.797499
3357.597,20.9405028,-126.94523780000002,0.4755406,-1.1094898,0.1460766,0.5211292000000001,15.4722272,65.23210379999999,-114.780974,63.4723266,68.7719664,3.963534199999999,-1.0094308,0.1344676,-0.2129262,142.45826119999998,77.7453078,-141.5857666,128.66166560587348,1.234456006694544,93.66978813840866,1.0403699544319993,126.986034,12.513203999999998,-26.804792600000003
3377.583,20.9339534,-134.51867680000004,0.8734394,-1.0904956,0.154357,0.5792584000000001,14.4737496,62.5985374,-116.3370134,67.4996644,71.626721,4.243605199999999,-1.0215298000000002,0.1439588,-0.2232852,147.1882416,76.50111079999999,-138.1151246,136.14061741215116,1.2444062966085154,98.51192841690764,1.055511036855854,132.714492,13.9025734,-21.778111200000005
3397.569,19.1487148,-141.3731476,1.216654,-1.0611739999999998,0.160964,0.6272702,13.6272514,59.8217086,-117.7265078,71.4286744,74.8109236,4.100254799999999,-1.0144686,0.1608734,-0.2392748,151.3496582,75.1485108,-135.2896394,142.66926924807194,1.2431683600301449,103.51590170525094,1.0546464910710889,137.7224068,15.3268022,-17.5631316
3417.554,16.961272,-147.6285278,1.8262904,-1.0291924,0.1612822,0.667674,12.9108798,56.9160552,-118.9600726,72.15675959999999,79.463626,3.894026599999999,-1.0044562,0.1679411999999999,-0.2628086,155.0640412,73.6741044,-132.9236482,148.61090910454217,1.2373510070027016,107.4068398948669,1.0517627415961452,142.1531614,16.758049200000002,-13.963575599999997
3437.54,14.8991524,-153.23908980000002,2.4713176,-0.9939638,0.158977,0.7209652,12.2931672,53.89181119999999,-120.0642764,69.8856636,86.78373239999999,2.7866225999999985,-0.9920456,0.1619602,-0.2873474,158.4526458,72.04048320000001,-130.8319444,153.98152744940208,1.2381552979535646,111.45935336077454,1.0454444543590826,146.1594786,18.148672000000005,-10.767667999999995
3457.525,12.7261842,-158.4631804,3.0540156,-0.9432886,0.1569092,0.7533006,11.7511094,50.7613624,-121.0599704,65.2831252,95.5082046,2.464679599999999,-0.9823224,0.1660982,-0.3130464,161.4296508,70.2113436,-129.0537766,159.00271166889047,1.2173231591877975,115.71420927148486,1.0442911270991246,149.6785414,19.449981200000003,-7.993806199999994
3477.511,9.6408552,-163.0392394,4.291383999999999,-0.88469,0.1513808,0.7911872,11.262221,47.53221979999999,-121.9449496,59.5602644,104.1107498,3.1949181999999987,-0.9757994,0.1599701999999999,-0.3341768,163.986319,68.1964434,-127.580864,163.38040166970254,1.1964822306045668,119.98616929305145,1.043766768769077,152.724098,20.664223600000003,-5.635914399999993
3537.468,5.9707246,-168.99639280000002,5.0423232,-0.8198292,0.1417651999999999,0.8314389999999999,10.671379599999998,42.7886274,-122.95857420000002,52.1952644,109.4244446,3.6393855999999984,-0.9786724,0.1334044,-0.3500414,166.1660278,66.0777406,-126.34211580000002,169.17699416561993,1.1762262111620707,121.2901472888456,1.0479147781070175,155.4946482,23.289113200000003,-3.383541599999995
3557.454,3.0011414000000003,-175.27160020000002,5.275587399999999,-0.7532314,0.1298438,0.8635008,10.1206262,37.9281866,-123.8932054,46.6299988,107.4212448,4.297700999999998,-0.9912978,0.1120094,-0.356549,167.9982176,63.9954652,-125.35325,175.37665896232167,1.1531914784393094,117.18426027566557,1.059407675719881,157.87759139999997,26.0672786,-1.4600446000000005
3577.44,0.9104605999999998,-180.9444,4.7815668,-0.6783918,0.12542,0.8910830000000001,9.6089026,32.964747800000005,-124.7741792,46.40631559999999,92.1958516,7.286035799999999,-1.0108236,0.0987015999999999,-0.3809902,169.44285580000002,62.2063714,-124.7829528,181.00985666788156,1.1269314635754208,103.47322116129808,1.084739548765306,159.8339532,29.241623600000004,-0.0087736000000006
3597.425,-0.9003902,-185.79469,3.3199016,-0.6080289999999999,0.11698,0.9200014,9.1214836,27.917445800000003,-125.632222,53.4713996,67.72121680000001,10.2362654,-1.0032422,0.0905273999999999,-0.3828174,170.644632,60.8933548,-124.637854,185.8265300793782,1.1089572404935006,86.89151229777693,1.077608130887272,161.5231484,32.975909,0.994367999999997
3617.411,-1.9904254,-190.2079316,0.8445785999999995,-0.5370978,0.1113072,0.9338522,8.657806,22.8024694,-126.4959534,60.79623019999999,41.38218,14.693272599999997,-0.9905914,0.0933252,-0.401689,171.6105744,60.086071,-124.9240554,190.22022066498303,1.083025055564976,74.99705786083679,1.073002780718671,162.9527684,37.2836016,1.571897999999999
3637.397,-2.3559154,-192.778888,-1.9388702,-0.4700905999999999,0.1070662,0.9211236,8.363626400000001,19.043696,-127.1552658,66.3500348,16.351552599999998,17.371623,-0.97358,0.1068706,-0.3994674,172.4242372,59.7600296,-125.5105988,192.8030321689494,1.0396715971246688,70.50867801941763,1.0577587367670946,164.0606108,40.7163336,1.6446669999999983
3657.382,-0.77072,-193.7945772,-5.2700054000000005,-0.4021839999999999,0.111273,0.9266512,8.1385626,15.2732626,-127.85065319999998,65.5684048,-1.3565861999999995,20.0801006,-0.9567022,0.1108952,-0.4141846,173.010959,59.784701600000005,-126.3366136,193.8677516204312,1.0162756008319986,68.58765540708337,1.04839197237724,164.8723964,44.511439,1.5140395999999952
3677.368,-0.3766055999999999,-194.780411,-9.6551218,-0.3343074,0.1093934,0.9112526,7.954685,11.4978338,-128.61040359999998,60.957916,-7.652106399999999,20.4060958,-0.9313716,0.1296729999999999,-0.4081198,173.43625179999998,59.9300888,-127.2358126,195.0199264641429,0.976785367757462,64.73662797225968,1.0250999538423555,165.48156680000002,48.432255000000005,1.374590999999995
3697.354,2.172523,-195.12305,-13.4476378,-0.2697975999999999,0.1053434,0.889897,7.860958000000001,7.728852000000001,-129.4271212,44.879745,-5.985862399999999,21.410803999999995,-0.9152672,0.1607557999999999,-0.4138297999999999,173.504007,60.031987,-128.174164,195.5979638439215,0.935844350038146,50.08437468775241,1.017256888891651,165.64304899999996,52.303135,1.2529571999999916
3717.339,3.8351738,-194.84227300000003,-16.897723,-0.1987143999999999,0.106653,0.866846,7.848763199999999,3.972217000000001,-130.3019228,23.7498042,-2.541835,21.9638234,-0.8972882,0.1750134,-0.3960048,173.148706,60.0600318,-129.11392080000002,195.6112290960503,0.8957032225532964,32.4487852323003,0.996280886929906,165.2999428,56.0878148,1.188001999999989
3737.325,5.2210962,-193.0167024,-19.2982638,-0.1324099999999999,0.099602,0.871939,7.912025,0.2630116000000001,-131.216678,7.1825458,2.488788800000001,24.5704698,-0.8869292,0.1872265999999999,-0.4050554,172.3921264,59.9739958,-130.133005,194.04929846972965,0.8875418785753155,25.719467724912484,0.9928580375005078,164.48010140000002,59.7109842,1.0836729999999932
3757.311,5.4135534,-190.7060608,-21.544817,-0.0605045999999999,0.0958994,0.8422598000000001,8.0390062,-3.402816,-132.1753418,-7.0470928,6.002264200000001,26.781693999999995,-0.8666637999999999,0.2000458,-0.3995644,171.3025574,59.7987164,-131.2096712,191.99553985921503,0.8498582659700147,28.33633402485313,0.9750775220850084,163.2635512,63.2015324,0.9656705999999986
3777.297,6.1268382,-187.9108856,-22.473449,0.007203,0.10177,0.7955448,8.246497,-7.0180408,-133.15893540000002,-23.1988866,8.617721200000002,29.6619716,-0.861281,0.1823136,-0.4016832000000001,169.8473512,59.5542012,-132.345215,189.3491351531896,0.802060187838818,38.63011800861855,0.9676738101592912,161.6008542,66.572242,0.8137203999999997
3797.282,5.5981296,-183.8760774,-22.596623200000003,0.0740616,0.0955974,0.7843212,8.500938399999999,-10.5618702,-134.1528594,-32.083426,9.450712800000002,31.8336578,-0.8970663999999999,0.1633045999999999,-0.4219777999999999,168.1743684,59.2791318,-133.5323518,185.3438919281452,0.7935891432288877,46.174061606632144,1.0047197530072551,159.67343,69.84100199999999,0.6205076000000076
3817.268,5.4519764,-179.03898640000003,-22.979004600000003,0.1378642,0.0865318,0.7313236,8.8107948,-14.0259556,-135.1674072,-32.571684000000005,9.968629600000002,30.3720232,-0.9154466,0.1459914,-0.4322448,166.57639179999998,58.9945166,-134.6269228,180.5899148629634,0.7492185915804812,45.63713365187598,1.0228350470396288,157.765597,73.0204722,0.5404844000000082
3837.254,8.301552599999999,-172.48796099999998,-22.727283,0.2120376,0.0904462,0.6600344,9.23955,-17.374778,-136.1915618,-36.6392422,13.1289756,32.3091494,-0.9436876,0.119475,-0.4511219999999999,164.9232302,58.6288008,-135.703177,174.1767546432938,0.6991322250415583,50.583447927629216,1.0527732998622068,155.6836802,76.0035788,0.4883848000000057
3857.239,11.9019012,-163.69179720000002,-20.771232,0.2779044,0.1008178,0.6257992,9.7907266,-20.5611688,-137.1916138,-33.5291382,20.348391,29.680749,-0.978108,0.1044643999999999,-0.4698032,163.53813200000002,58.13321900000001,-136.54839499999997,165.4330795262493,0.6921125075136556,49.18543469284968,1.090102342563119,153.7474054,78.6943878,0.6432188000000053
3877.225,13.9688732,-152.7765276,-18.009926,0.3389386,0.1064181999999999,0.5878902,10.414861,-23.5352848,-138.143985,-28.5390094,31.3664558,21.433507,-0.9676728,0.1149487999999999,-0.4816209999999999,162.62526580000002,57.465174000000005,-136.9535402,154.46732417737002,0.6868908902564075,47.51552198288146,1.0869970846889516,152.21040480000002,81.0004588,1.1904448000000003
3897.211,16.6593726,-139.6530274,-14.8978732,0.4011572,0.1215324,0.5320648,11.1119204,-26.255278,-139.030728,-25.995523,41.4983604,10.818236399999998,-0.919264,0.1088571999999999,-0.4748165999999999,162.183179,56.6608832,-136.8602784,141.43001584986854,0.6773405161074008,50.14893190027184,1.0403590703807026,151.0712586,82.9161612,2.170449599999995
3917.197,19.7588924,-124.37770380000002,-10.791023,0.4476282,0.145731,0.5121576,11.8609822,-28.6688442,-139.81471240000002,-27.225904000000003,48.2569204,3.6473247999999976,-0.8941410000000001,0.112621,-0.4851957999999999,161.9866336,55.7642744,-136.4427306,126.39886553613464,0.6956392290792692,55.527319341976586,1.0235167716552769,150.1256514,84.4331186,3.3719817999999977
3937.182,22.153976,-106.95582120000002,-7.0741108000000015,0.4827196000000001,0.1592124,0.5047668,12.632479,-30.7474116,-140.4840972,-25.779412,50.0704786,-7.447103800000002,-0.8352028,0.1223563999999999,-0.4785922,162.1441012,54.8934744,-135.63117979999998,109.45496509882786,0.7163493023100952,56.80748423673396,0.9703531829440456,149.5116222,85.640886,4.852917399999996
3957.168,22.912551,-88.55048740000001,-4.4059604000000006,0.5025926000000001,0.1744818,0.4926529999999999,13.3850554,-32.4663004,-141.0427,-28.7809886,43.42310619999999,-14.156219400000005,-0.7621278,0.1219021999999999,-0.482249,162.3603884,54.1744994,-134.67424300000002,91.57284695340388,0.7250863386625072,53.98434962607907,0.910089571360248,148.975333,86.6407998,6.368456999999995
3977.154,24.929348,-67.8950336,-2.714286200000001,0.5135678,0.187385,0.5188128,14.1337506,-33.787265000000005,-141.4849302,-30.0837874,28.8768852,-12.2272878,-0.7229028,0.1278862,-0.4974462,162.3603304,53.709062800000005,-133.9473692,72.37800307293469,0.7536788074940677,43.45590098164352,0.8867897497675082,148.2265798,87.49632779999999,7.537560999999994
3997.14,24.8659764,-47.23911100000001,-2.509780000000001,0.5113134,0.2027908,0.5179328000000001,14.8382514,-34.7092064,-141.82809740000002,-29.5345858,12.1444832,-5.525444400000001,-0.7045778,0.1429608,-0.524422,162.0400056,53.5015364,-133.62489920000002,53.442954503321374,0.7555262317749398,32.40849836678854,0.8898798237253613,147.2017542,88.2107428,8.203198199999997
4017.125,26.7253038,-25.41490220000001,-2.8214896000000005,0.5106124000000001,0.2031746,0.5486598,15.5226474,-35.208871599999995,-142.059445,-26.578591,-2.8872954000000006,-0.4011056000000021,-0.6848856000000001,0.1532832,-0.5530814000000001,161.5159332,53.5284606,-133.62821660000003,36.98810512314423,0.7765516835697159,26.73796663874225,0.8935676020959803,145.9932858,88.7373322,8.431228399999991
4037.111,25.508748,-5.437358400000011,-3.701262600000001,0.5019264000000001,0.2140904,0.5717582,16.127008,-35.3141062,-142.1891784,-22.2869124,-17.413256,4.463251599999998,-0.6799982,0.1586288,-0.5849608,160.8294678,53.7850448,-133.9421844,26.343128814393204,0.790362100341584,28.63299781182041,0.9109005355851536,144.7024598,89.09915099999999,8.246993999999995
4057.097,25.824733200000004,13.88758499999999,-4.356636400000001,0.4989644,0.2093934,0.5856756,16.666921600000002,-35.0469912,-142.2012848,-15.8477248,-27.6673148,10.429567199999996,-0.6828436,0.170845,-0.6113472,160.0150634,54.1890464,-134.5716492,29.64392252562424,0.7973875951294201,33.547079776906806,0.9323136784547356,143.3481418,89.2360376,7.629635599999995
4077.082,26.934873,31.932736799999983,-4.902148800000001,0.4968002,0.2092378,0.5918722000000001,17.1601828,-34.436532,-142.095099,-8.4103648,-34.7670624,14.734463599999998,-0.6947989999999999,0.172234,-0.6269628,159.1573058,54.683642600000006,-135.43564460000002,42.062074674480144,0.80056454880398,38.68575036850517,0.9515737248058292,141.997123,89.12017460000001,6.659454399999999
4097.068,28.3848974,48.81417839999999,-5.019802400000001,0.490302,0.216329,0.6241228,17.613834599999997,-33.5026968,-141.8650818,-0.4643765999999999,-38.2121308,16.8645334,-0.7074982000000001,0.1724415999999999,-0.6244492,158.351248,55.2211526,-136.4283662,56.68972419592988,0.8226320908673816,41.77074422011956,0.959284426952945,140.7374134,88.72384939999999,5.436715599999997
4117.054,25.9552694,62.99360579999999,-5.288724800000001,0.4766290000000001,0.2225586,0.6230194,17.970305,-32.300831,-141.5350006,6.902223000000001,-39.9994752,18.881884199999995,-0.724191,0.1708858,-0.6123838,157.5987578,55.7732278,-137.5309448,68.33623483425542,0.8153899109329966,44.76744631492122,0.9636744676627476,139.62845280000002,88.0740588,4.004055799999998
4157.025,26.20753,78.7963188,-4.645390600000001,0.4633024,0.237056,0.6390368,18.3188758,-30.43178840000001,-140.94949939999998,13.096855599999998,-40.9118204,20.4785652,-0.743303,0.1709647999999999,-0.5943626,156.8913512,56.32745680000001,-138.723349,83.17015173100684,0.824143611718249,47.58861531605808,0.9669515049508948,138.5724754,86.75924520000001,2.2261503999999945
4177.011,23.1028418,92.409958,-3.3506432000000013,0.4381582,0.2451684,0.6461908000000001,18.5621902,-28.3155636,-140.2394378,17.8350744,-42.88590860000001,20.1032164,-0.769784,0.1680104,-0.5691274,156.24008780000003,56.9189736,-139.9568024,95.31300250569852,0.8183231040307002,50.610575425757794,0.9719572514236005,137.6778976,85.2345372,0.2826353999999981
4196.997,19.4665198,104.2266618,-1.2567884000000007,0.4064688,0.254133,0.6546734000000001,18.7017312,-25.9891354,-139.4073486,21.377691,-42.9855034,17.106033,-0.7845374,0.1704621999999999,-0.5326989999999999,155.7075866,57.541672600000005,-141.12399599999998,106.03641799013084,0.8114171108190905,50.96445369117559,0.963495987655683,137.00585540000003,83.53080800000001,-1.7166473999999994
4216.982,15.8072552,113.790918,1.3913825999999991,0.3727122,0.261021,0.6874442000000001,18.744672,-23.4940376,-138.46162420000002,22.4169002,-42.0650146,13.410163199999996,-0.7960088000000001,0.176228,-0.4979089999999999,155.26864940000002,58.185547,-142.1920928,114.89202880000089,0.8243942470586996,49.51580904040251,0.9553008374027734,136.5239774,81.6795846,-3.730468600000001
4236.968,12.9449422,122.605046,3.720787199999999,0.3418166000000001,0.2702143999999999,0.6809182,18.7219872,-20.8439818,-137.4194916,22.0683026,-41.520607,9.9879158,-0.82506,0.1691737999999999,-0.4674214,154.8976534,58.8613794,-143.1632598,123.34266532960578,0.8083959457432726,48.07004521863387,0.96323753217179,136.1756662,79.7053612,-5.743768199999994
4256.954,9.384026,129.29352559999998,6.249759999999999,0.2995926,0.2815816,0.7378722,18.5924384,-18.445280000000004,-136.421875,23.5552556,-40.7998092,4.606857399999997,-0.8457558000000001,0.1642204,-0.4351919999999999,154.6963808,59.5821162,-143.96235339999998,129.78418704181234,0.844688881758343,47.33600777676197,0.9652270664842548,136.1039424,78.0273962,-7.540478399999995
4276.939,2.6821238000000007,133.8745544,6.699643599999999,0.266575,0.2808556,0.7581418,18.3554718,-15.9579598,-135.4039702,24.3277378,-37.9122566,-3.9001966000000015,-0.8672561999999999,0.1547801999999999,-0.4086178,154.8032962,60.334345600000006,-144.418344,134.06892006816534,0.8513055195307969,45.21492630192428,0.9711121115645298,136.4478244,76.2923054,-9.014373799999998
4296.925,1.1947378,139.08681499999997,6.734669399999999,0.221499,0.2818172,0.7676722,18.1287394,-13.3595866,-134.3740264,25.3252632,-35.6962406,-12.190088200000002,-0.8900306,0.1650776,-0.3856198,155.2077854,61.1224512,-144.5475158,139.25489318936792,0.8472327589686792,45.43334457693096,0.9839246480854924,137.079046,74.4820378,-10.1734894
4356.882,-6.873008400000001,143.2140016,3.0526713999999995,0.1488908,0.2743622,0.7606206,17.742092000000003,-9.4519306,-133.0587188,23.8489062,-32.1389968,-19.461841400000004,-0.91647,0.1594118,-0.3791178,155.8897098,61.907838600000005,-144.3268218,143.41132208242013,0.822184154710999,44.50223267349137,1.0045196310456457,138.14761779999998,71.3597692,-11.268103000000002
4376.868,-8.956445800000001,146.81846019999998,0.0140197999999994,0.0733524,0.2682377999999999,0.8019324000000001,17.3776042,-5.440388,-131.8058044,21.8719082,-26.617859,-25.020397800000005,-0.9345682,0.1617772,-0.3713242,156.8030154,62.6360948,-143.79455860000002,147.0913946273612,0.8487801046822199,42.57829367322454,1.018563323704874,139.4254112,68.0764828,-11.988754200000006
4396.868,-10.950939,148.27272039999997,-4.0895376,-0.0035403999999999,0.2458266,0.827618,17.033916400000003,-1.3697126000000002,-130.6469116,18.9865982,-19.584160200000003,-30.6281842,-0.9451872,0.1796057999999999,-0.3748408,157.96471580000002,63.2649102,-142.9129638,148.73280403992962,0.8633624995468125,41.01360639271603,1.0325418692634794,140.9307994,64.6346228,-12.2660522
4416.839,-11.8029074,149.8210204,-7.9406102,-0.0929821999999999,0.2634675999999999,0.85322,16.7327838,2.7711944,-129.57037959999997,16.088611,-13.9658068,-32.008743800000005,-0.935135,0.1924128,-0.3754965999999999,159.2192476,63.779586,-141.8604522,150.49485063329757,0.8978002195180173,38.45057662946404,1.025913178802378,142.4864638,61.0083916,-12.290072600000002
4436.825,-16.618765,148.695886,-12.0136548,-0.1709479999999999,0.2466406,0.8775676000000001,16.382932399999998,6.923244199999999,-128.594496,14.4197432,-9.917757,-29.2326876,-0.9330436,0.1806598,-0.3869112,160.439435,64.1831628,-140.8137938,150.1032236999052,0.9274587305331274,34.07111565804955,1.0261133463328698,144.05650260000002,57.25991859999999,-12.219297800000003
4456.811,-9.9921972,149.37689179999998,-13.127783400000002,-0.2148605999999999,0.2417568,0.8922722000000001,16.256007200000003,9.9000028,-128.00228099999998,18.9941516,-9.1768758,-25.6759516,-0.9291352,0.1838757999999999,-0.3780324,161.63565999999997,64.5415672,-139.89361879999998,150.285190573489,0.9490843517156102,33.23021719787506,1.019809308230926,145.3796528,54.64156439999999,-11.891337800000002
4476.796,-10.3870476,149.56169719999997,-14.272500400000002,-0.2702755999999999,0.2571198,0.9480348,16.1526308,12.8830464,-127.4301482,24.9230214,-8.0049208,-24.0737734,-0.9013244,0.1986417999999999,-0.378638,162.89155899999997,64.84959860000001,-139.03425,150.5997884953931,1.0187882378190474,35.563778179963926,0.9976026131614733,146.7389282,51.9665522,-11.604101800000004
4496.782,-15.987079599999998,147.63284579999998,-15.2714222,-0.3221504,0.2529818,0.9033716,15.962585,15.834292599999998,-126.891104,26.608004600000005,-6.316502399999999,-19.956662600000005,-0.8888209999999999,0.1947292,-0.3688793999999999,164.0413514,65.09122299999999,-138.329535,149.2791352103634,0.9918976353626217,33.85487399907237,0.9818320849911149,148.0787664,49.2569304,-11.438431
4516.768,-14.7883158,147.075421,-14.717684000000002,-0.3712482,0.2211816,0.872386,15.820665,18.7667324,-126.3462676,26.186580600000003,-5.2013792,-15.297793000000002,-0.8998298,0.1869922,-0.361515,165.0181274,65.2833832,-137.8078126,148.5479180899269,0.9735521861604544,30.770339935940555,0.9875995377954974,149.1974624,46.5166508,-11.461544999999996
4536.753,-9.4059386,148.96669599999998,-13.979288399999998,-0.3968727999999999,0.2224758,0.8814244,15.8269126,21.7274244,-125.7685592,24.6521498,-4.0131434,-12.214691200000004,-0.8974802000000001,0.1875589999999999,-0.3593784,165.8492094,65.4321456,-137.41146859999998,149.9165391218519,0.9919236230077596,27.803461849596378,0.9847852163084092,150.0222968,43.7047212,-11.642909399999994
4556.739,-9.237497,149.28505239999998,-13.0963978,-0.4535167999999999,0.249223,0.9473814,15.8892324,24.677471,-125.1510468,18.7349908,1.5382008000000005,-11.535612400000002,-0.8968157999999999,0.188546,-0.3578956,166.58984660000002,65.46650380000001,-136.9829926,150.14284483861226,1.0795003977197972,22.05530084628725,0.9838279492599302,150.7006142,40.7890328,-11.831945799999994
4576.725,-14.6082022,146.41627799999998,-13.441502,-0.5121709999999999,0.2187964,0.8784538,15.8630488,27.5772576,-124.5460006,4.3355538,4.1171766000000005,-8.774823000000003,-0.922757,0.1663074,-0.3532474,166.9764464,65.4469206,-136.6316742,147.75587978454655,1.0401307978463092,10.618177272470597,1.0019592596261189,151.11339759999998,37.869663,-12.085673599999996
4596.711,-10.0890158,146.5997986,-12.9292146,-0.5543942,0.2252164,0.8019344,15.9739714,30.4711624,-123.90885,-2.7192416,3.0677598,-5.891909400000003,-0.9386754,0.1402759999999999,-0.3526638,167.121524,65.4405714,-136.39710699999998,147.5142494118655,1.0005868966391476,7.177744871996706,1.0125021573170103,151.1475526,34.969409,-12.488257
4616.696,-3.259573599999998,149.6842376,-12.1341134,-0.5877486,0.2287126,0.8113904,16.285422999999998,33.4205242,-123.2019362,-6.155471,5.976973,-4.182550000000003,-0.9299028,0.1308802,-0.3515344,167.1646974,65.3693616,-136.20099499999998,150.2106271671586,1.0276732220958569,9.545038186255203,1.002708970032302,150.8792744,31.9488374,-12.9990588
4636.682,-4.080522199999999,150.0954162,-12.4734236,-0.6536154,0.2434076,0.9014594,16.6417736,36.3710128,-122.4480178,-13.9842262,11.1627236,-4.282540400000003,-0.9318302,0.1356863999999999,-0.3474938,167.097455,65.2004544,-135.95214860000002,150.66808196157854,1.1397760309390963,18.3985089847084,1.0037281812400407,150.4556814,28.829441600000003,-13.504130800000004
4656.667,-13.8883042,146.821759,-14.052041400000002,-0.702742,0.221905,0.7761236,16.8224484,39.2726424,-121.7103742,-25.6699214,8.780429199999999,0.4091941999999971,-0.972442,0.1343508,-0.3471068,166.5857668,65.0656476,-135.9373506,148.14511054001454,1.0702597769074385,27.13315760304547,1.041238066645126,149.7633184,25.793005200000003,-14.226976400000002
4676.654,-9.5086216,147.246051,-13.007575200000002,-0.7376438,0.2154804,0.70538,17.166547,42.168341,-120.891339,-27.916959599999995,3.2343476000000004,0.987305999999997,-0.9674466,0.1349144,-0.3421619999999999,165.947629,65.0376264,-136.01310740000002,148.12498247226983,1.0431256505630566,28.121031468338668,1.0350022480279548,148.78108200000003,22.869285400000003,-15.121768400000002
4696.639,-6.0327042,149.0534088,-12.0088376,-0.7856736,0.2193584,0.709685,17.6991272,45.093692,-119.9490494,-32.8937252,0.9553338,-0.4146494000000029,-0.9324204,0.1537474,-0.3404466,165.21817040000002,65.0517148,-136.075644,149.65802476101237,1.0812279651454266,32.91020744886695,1.0044650082479132,147.5190432,19.9580228,-16.1265946
4716.625,-7.0884276,149.6000306,-11.715045600000002,-0.8334706000000001,0.2108285999999999,0.7814822,18.3452916,48.0157936,-118.871219,-46.2229738,-7.5245952,0.2980921999999971,-0.944064,0.1701563999999999,-0.3516148,164.0792208,65.2187772,-136.29369200000002,150.22535489980197,1.1618245859677614,46.83237874376072,1.0216863531123437,145.7339292,17.202983600000003,-17.422473
4736.61,-15.9233066,146.66477979999996,-13.3300182,-0.8807946,0.224087,0.6411787999999999,18.8674672,50.886003800000005,-117.7595154,-57.3330438,-25.655284400000006,5.389593599999997,-1.0123722000000002,0.1572077999999999,-0.344768,162.2618228,65.7009122,-137.01610399999998,148.12764330830493,1.1122609246609358,63.04220212041108,1.0809610249854895,143.39435559999998,14.814908400000002,-19.256588599999997
4756.596,-12.173238799999998,146.83358159999997,-12.7320812,-0.9091042,0.203678,0.57403,19.5784352,53.748983,-116.521042,-55.005552,-43.4237394,3.263508199999997,-0.9865536,0.153357,-0.3356254,160.2353366,66.5113782,-138.0145842,147.8864237178284,1.094287720410697,70.15612859954064,1.053304696774452,140.6569014,12.762395200000002,-21.493542199999997
4776.582,-8.602957199999999,146.25072319999998,-13.623445600000002,-0.9631318,0.239612,0.5673062,20.487502,56.5992516,-115.1684846,-52.618414400000006,-54.6780894,1.6817193999999973,-0.9419802,0.1684196,-0.318592,158.0127994,67.520587,-139.2707946,147.13559453485144,1.1431855051887598,75.9026954366237,1.0085597262037584,137.5252974,10.9213354,-24.10230999999999
4796.568,-10.7259566,142.98096919999998,-14.6884472,-1.005414,0.2202128,0.5467641999999999,21.4854932,59.383012400000005,-113.69782560000002,-61.12572339999999,-66.1479898,2.601336799999997,-0.9627974,0.1585947999999999,-0.3341488,155.28853180000002,68.7136688,-140.8870512,144.13311271010426,1.1654621740243138,90.1037045237389,1.031400293084717,133.80303859999998,9.3306564,-27.189225599999997
4816.553,-12.971573199999998,139.4150604,-14.5230608,-1.04703,0.2356096,0.428174,22.685202800000003,62.0741866,-112.0042052,-60.49655479999999,-77.748639,4.134389199999997,-1.0105913999999998,0.1652166,-0.3043768,151.99750079999998,70.07857499999999,-143.1096556,140.76839159633494,1.1554724915757015,98.59907293214675,1.068286824335,129.312298,8.004388399999996,-31.105450399999995
4836.539,-10.440001,140.89411619999998,-12.6684884,-1.0774144,0.2123053999999999,0.393627,24.3579496,64.7535506,-109.8888732,-56.645034199999984,-86.0799928,-0.3237172000000029,-0.9991184,0.1608972,-0.2681161999999999,148.28093280000002,71.5701064,-145.838681,141.84722837969036,1.1665494362972877,103.04625103706005,1.0469058137620788,123.9229832,6.816555799999996,-35.94980779999999
4856.525,-10.6593148,143.3396088,-12.836768,-1.106213,0.2211447999999999,0.3977324,26.5461928,67.45304540000001,-107.2624602,-54.9007524,-86.9216858,-3.357935600000004,-0.9593328,0.1882626,-0.2644644,144.1593446,73.041005,-149.0078216,144.30747401166843,1.196161897882473,102.86276200789952,1.0127702832241672,117.6131518,5.587959599999996,-41.74536139999999
4876.51,-15.556453199999998,143.9667512,-13.319699200000002,-1.1236254,0.1928546,0.356234,29.2976808,70.1371792,-103.9947264,-61.8197504,-86.9285934,-5.087472200000002,-0.9653646,0.2086583999999999,-0.2611904,139.4194428,74.47582539999999,-152.6596282,145.416103214276,1.1944160075209644,106.79018804837172,1.0216102798405466,110.12176200000002,4.338646199999997,-48.6649018
4896.496,-19.0783272,138.93150339999997,-14.1918116,-1.1417836,0.174348,0.2759928,32.57403000000001,72.69315300000001,-100.1604262,-67.3560234,-86.8621186,-5.221094400000004,-0.961978,0.2434511999999999,-0.2372398,133.8885758,75.843518,-156.9919036,140.95159709000944,1.1875348584293428,110.04145292877374,1.0202709845768818,101.3145458,3.1503649999999994,-56.8314774
4916.482,-20.4528922,125.8267426,-15.3584362,-1.1511064000000002,0.1455572,0.1587434,36.1710584,74.9921444,-96.020967,-72.5884208,-82.8459794,-4.7544796000000025,-0.9732156,0.2295062,-0.1892402,127.6673372,77.0313874,-161.9009704,128.40004484103946,1.1710816835884508,110.25035244047936,1.0176608242522849,91.4962788,2.039242999999999,-65.8800034
4936.467,-17.229562199999997,105.5484734,-14.3523628,-1.1536518,0.124801,0.0796612,39.8768086,76.90749480000001,-91.879753,-75.45727839999999,-79.3597352,-3.559072600000003,-0.9844684,0.2370171999999999,-0.1463624,120.3981782,77.9664506,-95.793576,107.9042555630546,1.1631137829248177,109.56475451677558,1.0231212713203457,80.5213696,1.058955800000001,-3.913823000000002
4956.453,-14.292556,81.09372799999998,-12.036821800000002,-1.1509968000000002,0.110224,0.072926,43.222839400000005,78.351373,-88.1960052,-82.5388016,-81.3882036,-1.140435400000003,-1.0493596,0.2408421999999999,-0.067982,111.587645,78.6481446,-31.0924714,83.21871758802868,1.1585599532446478,115.92236215545638,1.0787873227550462,68.3648056,0.2967715999999996,57.1035338
4976.439,-14.0716704,56.49824539999999,-10.1673334,-1.1211908,0.1062152,0.1130576,45.7873338,79.343115,-85.32693479999999,-86.85335239999999,-85.41436780000001,1.6497147999999968,-1.0740440000000002,0.2754964,-0.0195157999999999,101.4398224,79.0466126,32.3485412,59.10531540895126,1.1318712380979736,121.82709308160317,1.108985864111261,55.652488600000005,-0.2965023999999999,117.675476
4996.424,-18.7462308,35.797569399999986,-8.607193600000002,-1.0909136,0.1277706,0.1799582,47.32490539999999,79.9826552,-83.41592560000001,-87.5601946,-85.8353944,2.969493199999997,-1.0646122,0.2758319999999999,-0.0147896,90.8814392,79.1846252,95.3936004,41.31550466619723,1.1130151672985231,122.65121483319383,1.0998641556487785,43.5565338,-0.79803,178.809526
5056.382,-27.8704404,17.06926059999999,-7.386458000000002,-1.07166,0.1473017999999999,0.2345464,46.5429116,80.3377242,-83.1710878,-89.1495912,-80.11895460000001,0.2630859999999971,-0.9790864,0.2430333999999999,-0.1269948,80.84553220000001,79.17723079999999,159.0055602,33.50643023818604,1.106871713269519,119.86144380728685,1.016761078822139,34.3026206,-1.160493399999999,242.17664800000003
5076.367,-36.4979318,1.001247599999988,-7.181915000000001,-1.0518308,0.1405458,0.2490164,44.3537004,80.4431822,-84.1740404,-86.1029268,-61.664338,0.2465789999999971,-0.900351,0.1668394,-0.2696348,72.7670646,79.04126740000001,152.54745480000005,37.21130776392012,1.090004734482947,105.90687128655838,0.9545523736099556,28.4133642,-1.4019147999999972,236.7214952
5096.353,-41.319529,-14.428513200000012,-6.297668600000001,-1.0550008,0.1381944,0.2452538,41.093187,80.2953994,-86.162674,-72.4962706,-36.11905600000001,0.5888659999999971,-0.8676288,0.0771481999999999,-0.3857386,67.6088752,78.8942032,148.780478,44.21703404503565,1.091912911640136,80.99779145387556,0.9526415101614248,26.5156882,-1.4011961999999951,234.943152
5116.339,-44.6918146,-31.78227520000001,-4.401909400000002,-1.0750592,0.1288614,0.2270454,36.9382782,79.8325394,-88.983818,-48.051052600000006,-9.5838518,-0.4272628000000029,-0.8886611999999999,0.0140207999999999,-0.4194082,65.65677720000001,78.8639116,147.7730714,55.0167984846003,1.1063033750177933,48.99935126909941,0.982760677604329,28.718499,-0.968627799999996,236.7568894
5136.324,-40.4900412,-50.81605980000002,-2.278442200000001,-1.1006078,0.1068583999999999,0.215892,32.189232000000004,78.9990356,-92.489508,-16.862430999999997,12.517767199999998,-2.836783800000003,-0.9297464,0.0120201999999999,-0.3589858,66.4980018,79.003032,148.96850600000002,65.01466502900416,1.1266612635283957,21.191588360269247,0.9967164381721816,34.3087698,0.0039964000000054,241.458014
5156.31,-30.6444408,-68.41779100000001,-0.9248144000000016,-1.1327976,0.0933648,0.2393012,28.3169292,77.7934678,-95.8063078,9.3823336,27.0642052,-4.698960000000003,-0.9746068,0.0773109999999999,-0.2152002,69.2272284,79.2601822,151.54979280000003,74.9728694858269,1.1615560480520255,29.027221912732124,1.0010726903713236,40.9102992,1.4667144000000036,247.3561006
5176.296,-18.365162,-84.96127940000001,-0.6376254000000016,-1.1579788,0.1131816,0.292692,24.7183826,76.23637719999999,-99.0928052,16.3461314,33.762005,-8.419464200000004,-1.0050382,0.1788583999999999,-0.0656954,72.7134628,79.6054458,154.7573612,86.92585771059055,1.19974729951436,38.44419814199762,1.022940856692585,47.9950802,3.3690686,253.85016640000003
5196.282,-9.039161599999998,-101.3770876,-1.1697720000000014,-1.1724018,0.1056004,0.3371784,21.4533008,74.341768,-102.2346036,5.370545200000002,35.2113214,-11.087462000000002,-1.0095734,0.2338457999999999,0.0117014,76.2938476,79.9814116,158.2782412,101.78599461232854,1.2244862998620931,37.30431240595094,1.0363682892327226,54.84054679999999,5.639643599999999,260.51284480000004
5216.267,4.237750400000001,-115.86672240000004,-2.2355570000000013,-1.181253,0.1118792,0.385923,18.731509000000003,72.1474778,-105.1111952,-10.9690994,35.1268358,-12.368738800000004,-0.9921272,0.2244091999999999,-0.0081008,79.74016859999999,80.34053320000001,161.99090900000002,115.96574323166138,1.2477227926629535,38.82269226199888,1.0172224402681649,61.0086596,8.1930554,267.10210420000004
5236.253,14.755212600000002,-128.57662520000002,-3.986779400000002,-1.1868288,0.1354494,0.4491531999999999,16.5332784,69.68700580000001,-107.693231,-25.569241,35.9143846,-13.330787600000004,-0.9666602,0.181159,-0.0731648,83.2270736,80.6833556,166.036783,129.48188775530244,1.2761848367458533,46.05799609784507,0.986206678898536,66.6937952,10.9963498,273.73001400000004
5256.239,21.4297402,-139.80333560000005,-5.347024800000002,-1.1606842,0.1321866,0.5085485999999999,14.7584022,66.98969819999999,-110.0061384,-31.918851,39.7336822,-13.627885400000002,-0.9482092,0.1200269999999999,-0.162074,87.3947724,80.99574279999999,98.894095,141.53726394182397,1.27408115436622,52.75696931028479,0.9694200065862268,72.6363702,14.0060446,208.9002334
5276.224,27.0636,-148.9908294,-5.246119200000002,-1.143152,0.1230336,0.5719569999999999,13.4094732,64.0947762,-112.0338514,-24.179348800000003,44.8532844,-12.861059200000003,-0.9509662,0.0702959999999999,-0.2283664,92.6542908,81.231369,32.69509280000001,151.51972629634898,1.2841606487048105,52.55344778038116,0.980525090860708,79.2448176,17.136592800000003,144.72894420000003
5296.21,31.6097624,-156.03196400000002,-4.491589200000002,-1.1273592,0.1428228,0.6395973999999999,12.4707976,61.0434792,-113.7686568,-6.489909400000002,49.6604484,-11.927727000000004,-0.968148,0.0519519999999999,-0.2581299999999999,99.0270798,81.34923699999999,-32.73674,159.2649529627385,1.304002282249245,51.483489884581445,1.0033148344901512,86.55628220000001,20.3057578,81.03191680000002
5316.196,29.0175226,-162.5068022,-2.6695074000000014,-1.0855036,0.1298824,0.6824399999999999,11.7365886,57.85413139999999,-115.259645,15.4431754,53.7747428,-10.584072200000003,-0.9917884,0.0557811999999999,-0.2567511999999999,106.3687562,81.3111862,-97.6321746,165.0987693741843,1.2887636932512958,56.940646413402526,1.02600046362048,94.6321676,23.4570548,17.627470400000025
5336.182,28.1811956,-169.1154052,0.9498935999999988,-1.0346286,0.119918,0.7152796,11.2495794,54.52244499999999,-116.4916412,36.1217136,56.2408402,-7.904959400000003,-1.0054212,0.0787067999999999,-0.2346744,114.1230806,81.06937400000001,-162.52339179999998,171.4499995895508,1.2635116037607728,67.30749351237208,1.035441270082973,102.8735012,26.546929,-46.03175059999998
5356.167,27.634123800000005,-176.0812164,4.366680799999999,-0.992227,0.1340978,0.7539814,10.9758514,51.0431396,-117.5082978,50.5510448,58.142788,-5.963078800000003,-0.9946915999999998,0.0994759999999999,-0.223267,121.8547058,80.6139936,-155.72178979999998,178.28995335774374,1.2533892416323829,77.27580627570029,1.024282679232427,110.8788544,29.570854000000004,-38.21349199999999
5376.173,24.9658904,-182.6275788,6.497044999999998,-0.92971,0.141712,0.7939816,10.7964432,47.426416,-118.39041,64.0512772,61.96273719999999,-1.842289600000003,-0.9905574,0.1361485999999999,-0.2337914,129.148526,79.8866072,-149.62480180000003,184.4406132486743,1.2307923286170417,89.13664197869343,1.0268392389710668,118.3520828,32.4601912,-31.234391799999987
5396.139,22.4987062,-188.04407960000003,7.577716,-0.8508036000000001,0.13609,0.8151924000000002,10.6663124,43.7032518,-119.1918702,76.7940414,65.70366879999999,3.305154199999997,-1.0029242,0.174394,-0.2363538,135.67229,78.9093002,-144.5518434,189.5367759382377,1.1861390740089124,101.11983451633404,1.0450518345785915,125.0059776,35.2060484,-25.35997319999999
5416.125,23.4815858,-192.050473,8.6128412,-0.778605,0.1536788,0.8570792,10.6447134,39.8936944,-119.9234956,82.73478700000001,69.13100340000001,5.036077799999998,-1.0118306,0.1790428,-0.2360766,141.46671139999998,77.760997,-140.3237856,193.67227495112175,1.1680871862438522,107.93286195887626,1.054319519119209,130.82199799999998,37.8673026,-20.40028999999999
5436.11,20.5551796,-194.331189,9.084239599999998,-0.7070084000000001,0.1573394,0.9069946,10.6185152,36.034766000000005,-120.6181794,85.2624572,73.1725568,6.5224629999999975,-1.0330148,0.1734319999999999,-0.2500508,146.59505,76.4687896,-136.8116242,195.6263014925452,1.160713474071909,112.545333977102,1.0769046560507016,135.97653480000002,40.4340236,-16.193444799999988
5456.096,15.770385600000004,-195.956421,8.791052599999999,-0.6388188,0.1537522,0.915872,10.5450812,32.1533258,-121.2905838,89.78687579999999,76.72176959999999,8.115256199999997,-1.0662504,0.1779133999999999,-0.2610682,151.0261108,75.0429488,-134.08732600000002,196.78644922584965,1.1271870823524726,118.37977183485252,1.112070006092674,140.4810296,42.889623,-12.796742199999992
5476.082,13.942448800000005,-197.3108734,8.6904118,-0.5866482000000001,0.1484496,0.8951658,10.4899844,28.2684488,-121.9352936,88.6506178,80.1825988,4.321274599999998,-1.0545688,0.1425591999999999,-0.2613252,155.0760924,73.5524642,-131.71397860000002,197.99367640827583,1.080516174702184,119.61126452308764,1.0957779608995244,144.586108,45.2840154,-9.77868499999999
5496.067,13.802942000000002,-198.5044648,8.339831399999998,-0.5178278000000001,0.1629012,0.920145,10.4892914,24.360558,-122.561026,81.82205259999999,88.02065739999999,-1.6524658000000028,-0.9846362,0.1151179999999999,-0.2952258,158.95737300000002,71.9165404,-129.3564424,199.1584709249653,1.0683394837032285,120.18824844395355,1.0343688284456758,148.46808159999998,47.5559824,-6.795416399999991
5516.053,9.159247600000002,-200.6270998,6.828732599999998,-0.4572072,0.157898,0.9066184,10.427495,20.4285942,-123.20627439999998,73.378324,100.3361832,-1.7893924000000028,-0.9459576,0.1424921999999999,-0.3154426,162.3715698,70.01151560000001,-127.2938554,200.95212509371373,1.027583147659789,124.3178588029657,1.007295310201214,151.9440748,49.5829214,-4.087580999999989
5536.039,7.931874400000001,-202.2001984,5.474488399999999,-0.3806826,0.1510402,0.884561,10.3712146,16.4760256,-123.8657318,63.32658300000001,109.8278352,-0.3877696000000025,-0.9507716,0.1650961999999999,-0.3199334,165.275415,67.8942168,-125.548128,202.42975297060084,0.9747720485733062,126.7776000105576,1.016651745218863,154.90420039999998,51.4181912,-1.682396199999988
5556.024,5.977268200000001,-203.325644,4.836263199999999,-0.3182494,0.157159,0.8741922000000001,10.3220966,12.4995668,-124.5254624,53.3578138,106.93918159999998,0.1952399999999974,-0.9800316,0.1554019999999999,-0.3153944,167.64967040000002,65.8146148,-124.1460224,203.4709676707936,0.943500733662778,119.51185285757578,1.041194192335858,157.3275738,53.315048,0.3794400000000138
5576.01,3.603047,-203.6098848,4.436697399999998,-0.2435082,0.141692,0.878258,10.2668102,8.506128399999998,-125.1802842,53.16544180000001,88.9653348,3.7441603999999975,-1.0171816,0.1447669999999999,-0.3345354,169.4757844,64.0584778,-123.322147,203.6900866998015,0.9223394065609688,103.70831082881548,1.0805229407655903,159.2089742,55.5523494,1.858137200000016
5595.996,0.4922434000000007,-203.432248,3.8259003999999983,-0.1878626,0.139519,0.858132,10.198543,4.5282142,-125.836281,61.477137000000006,64.1200766,10.107372199999997,-1.0728072000000002,0.1350213999999999,-0.3321846,170.86838699999998,62.7864028,-123.1499454,203.4688166372653,0.8894652535449374,89.40347627299494,1.1311466197213165,160.669844,58.2581886,2.686335600000015
5615.981,0.2056976000000006,-201.29245,2.9027889999999985,-0.1312711999999999,0.1298192,0.8561195999999999,10.168624,0.5985198,-126.4935472,71.520011,33.8382632,13.112206399999996,-1.0748698,0.1188761999999999,-0.3347418,172.05524599999998,62.1070914,-123.4247882,201.31348420432164,0.8758001610768519,80.20018694809131,1.1320462492962555,161.886622,61.5085716,3.068759000000017
5635.967,-1.8029007999999995,-198.512735,0.4535793999999988,-0.0909567999999999,0.1401253999999999,0.8362712,10.1532724,-3.2652448,-127.1874406,76.7607704,6.0278904,15.549761999999998,-1.0327074,0.1149385999999999,-0.3619974,173.0579804,61.9766058,-124.02511,198.5214400077407,0.8527941059486984,78.55155271114997,1.1003352095572878,162.904708,65.24185059999999,3.1623306000000126
5655.953,-1.0776557999999994,-194.1824158,-2.275981000000001,-0.0348082,0.122083,0.813799,10.1965526,-7.0307378,-127.92272039999996,75.9798668,-11.3450272,18.702276,-0.9721138,0.1454147999999999,-0.3644808,173.82110899999998,62.186164,-124.8781952,194.1987436557192,0.823641112425333,79.06595303096434,1.0483305574951634,163.62455640000002,69.2169018,3.0445252000000123
5675.938,-0.2825945999999995,-189.16308900000004,-4.780483600000001,0.0175378,0.1349168,0.7956866,10.3090772,-10.6805928,-128.7009918,63.7943318,-14.5215446,21.6505774,-0.916449,0.1724093999999999,-0.3389656,174.2029082,62.45266779999999,-125.8840118,189.22369598752624,0.8072343419172898,68.91545203458851,0.9922204638046528,163.893831,73.1332606,2.8169800000000125
5695.924,-0.3318803999999994,-183.22130740000003,-6.628445400000001,0.0755414,0.1188546,0.7580834,10.466209,-14.2130694,-129.510411,39.793397,-14.241008,23.073177,-0.8888726,0.1797551999999999,-0.317209,174.0403288,62.700926800000005,-126.9596268,183.3414680817899,0.7710534095707507,48.15280106628276,0.960743452040554,163.5741198,76.9139962,2.5507842000000096
5715.91,1.2686352000000003,-176.15328380000005,-7.543653600000002,0.134443,0.119096,0.7168164,10.7071008,-17.615819800000004,-130.3346464,16.096328,-14.4072776,26.0595624,-0.8872392,0.1798315999999999,-0.301309,173.2768646,62.9394988,-128.1765244,176.31929996013147,0.7389753235216722,33.84910952161872,0.9541068681527244,162.5697638,80.5553186,2.1581220000000085
5735.896,3.972507400000001,-167.8726808,-7.661949000000002,0.1993188,0.1156104,0.6914614,11.047962600000002,-20.856676200000003,-131.1609954,-4.875439399999999,-12.4569412,25.8874856,-0.8808617999999999,0.161321,-0.2825859999999999,172.0753478,63.140316,-129.40713820000002,168.09438787925177,0.7288433414057921,29.139444128080704,0.9390403735389868,161.0273852,83.9969922,1.75385720000001
5755.881,5.8577848,-158.38279740000002,-8.227641000000002,0.2615893999999999,0.1271706,0.6324244,11.4793238,-23.9120718,-132.0011168,-22.4471786,-11.00142,29.8041978,-0.8937206,0.1674288,-0.3067423999999999,170.3474334,63.2829582,-130.8291994,158.7044997201952,0.6961048752968765,38.89983644719117,0.9596144089641212,158.8681096,87.19503,1.1719174000000152
5775.867,9.521307,-146.5616472,-8.178137800000002,0.3348028,0.1371126,0.5889464,12.0189142,-26.7441668,-132.8319244,-33.6488736,-12.724287,30.6293054,-0.9227822,0.1606985999999999,-0.337201,168.3386506,63.4436234,-132.3155122,147.09810894379748,0.6911950824764018,47.24731234148261,0.9955177261504689,156.3197364,90.1877902,0.5164122000000105
5795.853,12.2610372,-132.28803580000002,-8.078430800000003,0.4061249999999999,0.1506768,0.5531988,12.6412352,-29.294868,-133.6421234,-38.7673022,-11.2679806,31.8698796,-0.9354034,0.154252,-0.3684326,166.20560319999998,63.548153,-133.82916559999998,133.100407562232,0.7026164857194,51.43501076491184,1.0171114889619133,153.564368,92.843021,-0.1870421999999877
5815.839,15.4318354,-115.99438340000002,-7.791328400000002,0.4701614,0.162439,0.5191936,13.336623,-31.5221952,-134.41094360000002,-38.6550548,-8.428554199999999,29.64138,-0.9487874000000002,0.1385255999999999,-0.4034172,164.1941774,63.584642800000005,-135.211563,117.27550179980275,0.7190272352643675,49.43546495986197,1.0402558865538614,150.8575544,95.106838,-0.8006193999999851
5835.824,18.669208,-98.33513960000002,-7.041452800000002,0.5205458000000001,0.1686218,0.4826388,14.0792726,-33.408904,-135.10943300000002,-37.105462,-4.6711058,31.289161,-0.9686188,0.1248165999999999,-0.4298394,162.24324059999998,63.5149254,-136.5692808,100.33903061637272,0.7296173329892321,48.76111294579072,1.0670348978085769,148.163968,96.9238294,-1.4598477999999802
5855.81,22.7151606,-79.38337020000002,-5.292829600000002,0.5608297999999999,0.175474,0.480247,14.858684,-34.9293428,-135.696866,-31.6622986,4.293972,28.3001636,-0.9775378,0.0834841999999999,-0.4484056,160.68943819999998,63.2757386,-137.6143706,82.73881816033318,0.7589192119409285,42.6830013935186,1.0787109641557555,145.8307542,98.2050814,-1.917504599999987
5875.796,24.7887584,-60.272295800000016,-3.553720600000002,0.5790374,0.1760204,0.4749562,15.618944199999998,-36.088020400000005,-136.15645160000005,-26.3847866,19.104485,22.854775,-0.9665418,0.0981149999999999,-0.4570774,159.6416018,62.78115379999999,-138.2089874,65.26761152454665,0.7693184540444614,39.79295228232494,1.0736616571168964,144.0226576,98.8691742,-2.0525357999999843
5895.782,28.5402318,-41.03478520000001,-1.4613576000000017,0.5847344000000001,0.1802921999999999,0.4772436,16.371335,-36.8937852,-136.4611512,-24.4560784,33.4736134,12.485826599999998,-0.9480836,0.1223027999999999,-0.4604606,159.176175,62.0798096,-138.183017,50.00533965131073,0.776003253643411,43.29524720618736,1.0610581754216684,142.80484,98.9735948,-1.721865799999981
5915.767,31.5901506,-21.94639600000001,0.1665231999999985,0.5790002000000001,0.1904576,0.4891149999999999,17.098828200000003,-37.354342800000005,-136.6096528,-28.1958982,48.7107704,1.334742399999999,-0.8846832000000001,0.1298573999999999,-0.4642126,159.1910218,61.155736000000005,-137.51892400000003,38.46569435608351,0.781504198467801,56.29857338814756,1.0074823307114424,142.0921936,98.5100788,-0.9092711999999864
5935.753,34.1553746,-3.1379840000000114,0.7711747999999985,0.5776334000000001,0.1965598,0.5020874,17.7928914,-37.4638672,-136.6124054,-29.912079,57.9809296,-9.209179600000002,-0.8511208,0.1338445999999999,-0.484572,159.63022759999998,60.1177896,-136.32873239999998,34.30788930002451,0.7901821669781975,65.88876729980197,0.9884993759865508,141.8373362,97.5816568,0.2836730000000075
5955.739,37.182557,16.018876999999986,0.9626669999999986,0.5696072000000001,0.2086889999999999,0.5348453999999999,18.4635022,-37.2207724,-136.467697,-30.5354532,58.8082466,-16.5041296,-0.8030581999999999,0.1501563999999999,-0.491708,160.27052899999998,59.104212200000006,-134.886499,40.49782331375683,0.8087416539995946,68.28770067991306,0.9535335202876718,141.8070268,96.3249846,1.581198000000009
5975.724,38.7784386,34.87755659999999,0.3738749999999984,0.5565102,0.2218977999999999,0.5529648,19.0874056,-36.6191054,-136.1852934,-31.450722199999998,49.2982428,-16.8577874,-0.7539718000000001,0.1439389999999999,-0.5030430000000001,160.77351979999997,58.2585686,-133.5803252,52.15698454814847,0.815298906161366,60.8576179791234,0.9177386178892334,141.68611420000002,94.877674,2.6049682000000103
5995.71,39.0814078,53.0843316,-0.3028372000000015,0.5340772,0.233962,0.5651102,19.6455568,-35.6681426,-135.76829819999998,-28.0227938,32.175513200000005,-11.6728598,-0.7269624,0.1421583999999999,-0.506597,160.9668426,57.6946708,-132.7108184,65.91960563761256,0.8119890461994422,44.23569009240332,0.8973983853970988,141.3212858,93.3628134,3.0574798000000074
6015.696,39.1305236,69.82616699999998,-1.1528988000000016,0.5133612,0.2397676,0.5753826,20.139966,-34.3935256,-135.227069,-22.7017728,11.871979200000004,-2.875854600000001,-0.7357434,0.1360945999999999,-0.5078086,160.7685698,57.45610039999999,-132.4252166,80.05136257906598,0.8075229780371329,25.77954456673728,0.9042730035927646,140.6286038,91.849626,2.80185240000001
6035.698,38.2113876,85.03548099999999,-1.8424184000000012,0.4826536,0.2583606,0.5800107999999999,20.5735726,-32.824050799999995,-134.5761352,-15.5955676,-7.418945599999996,4.087237999999998,-0.7333985999999999,0.1378133999999999,-0.5017813999999999,160.2907194,57.536795000000005,-132.6359802,93.24450480741184,0.7975695739820821,17.74733774543588,0.8992500281275947,139.7171468,90.3608458,1.9401550000000127
6055.667,35.9807834,98.704936,-2.438706000000001,0.454555,0.2619064,0.5885648,20.9220158,-30.994949,-133.822342,-9.3765786,-23.3660044,8.628689199999998,-0.735677,0.1357751999999999,-0.5047602,159.6323394,57.8833718,-133.209024,105.08676630192905,0.7884311854467706,26.614745258465163,0.9024624162634586,138.71032359999998,88.8783208,0.613318000000018
6075.653,33.7726016,111.303668,-2.961240400000001,0.4227109999999999,0.2780904,0.5972470000000001,21.2100532,-28.9255588,-132.9807984,-3.3384954,-35.639356199999995,11.883549799999995,-0.7488228,0.1434245999999999,-0.5062485999999999,158.839331,58.4323342,-134.0794342,116.35232732435192,0.7827661458584932,37.71641575939287,0.9152015333722732,137.6292778,87.357893,-1.0986357999999854
6095.639,29.6446354,122.14095899999998,-3.5327568000000014,0.3888482,0.2869292,0.6168515999999999,21.410311,-26.6460818,-132.0683962,2.4059474,-44.00044319999999,14.5042116,-0.7579975999999999,0.1400381999999999,-0.5213952,157.965805,59.101902800000005,-135.1782104,125.7366241158341,0.7836052481182345,46.39180680708143,0.9306041122024122,136.555494,85.74798460000001,-3.10981419999998
6115.624,24.9726208,131.34486839999997,-4.175194800000002,0.3609748,0.2938507999999999,0.6437114,21.5266014,-24.1884856,-131.10487700000002,8.8182634,-50.2094664,16.3140324,-0.787616,0.1415911999999999,-0.5318414,157.0497284,59.8621712,-136.4700714,133.76299374734347,0.7943648188242226,53.524760052827496,0.9608549870440388,135.523127,84.0506568,-5.365194399999981
6135.61,21.6804436,140.92210999999998,-4.8311274000000015,0.3247508,0.292572,0.6551374,21.591354000000003,-21.5473072,-130.0888292,13.8977398,-54.582476,15.934902599999996,-0.80457,0.1419389999999999,-0.5235879999999999,156.1372438,60.697361,-137.8660216,142.6619168296147,0.7875699779469758,58.53473309677398,0.9703731026594872,134.5458898,82.2446682,-7.777192399999985
6155.596,17.6960888,149.87393799999998,-5.504950400000001,0.2760642,0.3179287999999999,0.7003614,21.6099102,-18.718726,-129.03187880000002,18.3136278,-57.027813,15.095526799999998,-0.8179432,0.1445039999999999,-0.503072,155.2427492,61.5796576,-139.3311156,151.0154075892648,0.817188016922079,61.76921035701702,0.9710787412080648,133.632839,80.2983836,-10.299236799999983
6175.581,10.964408,155.77737739999998,-7.6536620000000015,0.2356208,0.2910574,0.7034898,21.5256344,-15.764272,-127.9835558,20.700302,-56.8908852,14.1332258,-0.8277505999999999,0.1438393999999999,-0.4728212,154.35389719999998,62.4667816,-140.83069740000002,156.35020976776056,0.7969501052082496,62.16770377973252,0.9640646845321944,132.8282628,78.2310536,-12.84714159999998
6195.567,12.1533988,162.41207279999998,-9.3528232,0.18356,0.3108032,0.7440308,21.521280800000003,-12.6659164,-126.93476420000002,21.014803,-54.998828200000005,11.512475199999995,-0.8459709999999999,0.1408703999999999,-0.4401213999999999,153.5175356,63.3449128,-142.26534099999998,163.13448990141475,0.8269671904488594,59.99191723667897,0.9639596719651294,131.9962548,76.0108292,-15.330576799999983
6215.553,6.6012374000000005,166.94518739999998,-13.2516934,0.1215048,0.3327733999999999,0.7570474,21.475211,-9.4417024,-125.9393144,20.3457052,-50.7838272,5.6814318,-0.8710903999999999,0.1474391999999999,-0.4052113999999999,152.8747194,64.2048218,-143.45556019999998,167.60035593398922,0.8358362985760789,55.00203171213604,0.9719738069303924,131.3995084,73.64652420000002,-17.516245799999982
6235.539,1.2060506000000004,171.12622979999998,-16.3992408,0.0649966,0.321217,0.7585594,21.3754498,-6.1117654,-124.9843966,19.7516198,-44.0169772,-0.5327628000000011,-0.8958708,0.1567506,-0.3816232,152.5182832,65.00241100000001,-144.30465399999997,171.9144443682047,0.8263275878420858,48.24836373132394,0.9863019353480148,131.14283340000003,71.11417639999999,-19.320257399999974
6255.524,2.3458712000000004,172.7346648,-20.224819000000004,0.0187899999999999,0.3029794,0.7995436,21.3529778,-2.7312520000000005,-124.097922,17.615057,-35.666504399999994,-9.748036,-0.9224476,0.1559443999999999,-0.3614954,152.615088,65.74058399999998,-144.6029604,173.93047702699522,0.855230699417017,40.95624464090628,1.0029492284549004,131.2621102,68.47183600000001,-20.50503839999998
6275.51,2.2700316000000003,174.32380659999995,-23.97226,-0.0538474,0.3289704,0.8315972,21.3874196,0.7147603999999997,-123.27298,15.852706799999998,-26.6510072,-19.2507018,-0.9578316,0.1589641999999999,-0.3518688,153.2234376,66.4052262,-144.29807459999998,175.97900965878512,0.8959212965494011,36.49895912836065,1.0327258315998684,131.836018,65.6904658,-21.02509459999998
6295.496,-3.4604398000000005,175.17201219999998,-28.7788112,-0.105657,0.3310512,0.8060708,21.3552704,4.2046046,-122.5297228,14.63493,-16.0087342,-24.5080186,-0.9771698,0.1582725999999999,-0.3352006,154.2234132,66.9301086,-143.5341556,177.5540156569026,0.8777860976815934,32.72772100970515,1.045117446119411,132.8681428,62.725504,-21.00443279999998
6335.467,0.0757149999999995,176.056378,-32.1660746,-0.1536645999999999,0.2850848,0.7982812,21.3632724,8.454876,-121.7234528,14.357645200000002,-5.8293573999999975,-28.9470062,-0.9810994,0.1528835999999999,-0.3287774,155.6263674,67.30245199999999,-142.3254642,178.97069682608063,0.8614749135973955,32.833710593365105,1.0459560251655324,134.263095,58.84757599999999,-20.60201139999998
6355.453,7.4690184,177.37420939999998,-35.661356600000005,-0.2249352,0.3165604,0.8556652,21.573098,12.753117800000002,-120.9550888,15.8708906,0.013996000000003,-30.233142200000003,-0.9599836,0.1507963999999999,-0.3216916,157.24234339999998,67.5671538,-140.9168886,181.07768705913756,0.939664443053072,34.145691552677704,1.0236178740294055,135.66924539999997,54.814036,-19.961799799999987
6375.438,1.2047328,178.4607208,-39.5633018,-0.3196987999999999,0.3414979999999999,0.8473940000000001,21.6980896,17.10403,-120.2302276,17.774819400000002,3.080896000000003,-28.042415,-0.9513164,0.1732931999999999,-0.3146484,158.8564424,67.7382368,-139.547812,182.7975248708057,0.9679384267407924,33.34386246219321,1.0168761191500957,137.15835280000002,50.6342068,-19.317584399999987
6395.424,-4.4181946000000005,176.43571779999996,-42.0966818,-0.419273,0.3239097999999999,0.8422926000000001,21.7287022,21.4324274,-119.5557906,20.8777358,7.209989800000002,-23.772614,-0.9417444,0.1812805999999999,-0.3043608,160.41215219999998,67.7867064,-138.3069582,181.44203916869748,0.995069962907031,32.449976601589434,1.0061712913040004,138.68345,46.354279,-18.75116759999999
6415.41,-1.2320482,173.0733612,-44.140528,-0.494226,0.2723636,0.8048225999999999,21.8399384,25.7141488,-118.9322144,22.511987,9.670708400000004,-24.5810004,-0.9305778,0.1794183999999999,-0.3094128,162.0657532,67.7764846,-136.99425060000002,178.6177273171719,0.9829449054508193,34.70645098984913,0.9969464804668504,140.2258148,42.06233579999999,-18.062036199999994
6435.396,4.2476326,174.8676452,-44.6768104,-0.58262,0.3218354,0.8368556,22.1822396,29.305364200000003,-118.3832276,21.2315162,9.401554200000003,-21.3980494,-0.8990159999999999,0.2144537999999999,-0.3040062,163.5393982,67.7320632,-135.84874580000002,180.5346313260013,1.0692761029521425,31.575988023357883,0.9729542487850494,141.3571586,38.426699,-17.465518199999998
6455.381,-1.38585,172.7146728,-45.7522102,-0.6563380000000001,0.3197085999999999,0.9067918,22.4453422,32.853183,-117.8320756,16.0446514,8.529845200000004,-13.6910188,-0.9177044,0.2158585999999999,-0.2963838,164.5320952,67.6643966,-135.1101502,178.67720481029062,1.1641582915158917,22.751551451833752,0.9882406882312428,142.086753,34.8112136,-17.278074599999997
6475.367,-6.8534626,165.7859312,-46.140972,-0.7349036,0.2896013999999999,0.8275584,22.6000774,36.2706508,-117.3217134,12.299939599999998,7.835079800000004,-8.7880596,-0.9368611999999998,0.1818505999999999,-0.2868186,165.2359314,67.5934402,-134.60623479999998,172.2235008080068,1.144030234559157,17.0266550199729,0.9965156587288329,142.63585400000002,31.3227894,-17.284521399999996
6495.353,-0.5322176,162.3564696,-43.974442200000006,-0.771315,0.2761766,0.7403538000000001,22.9409628,39.6041366,-116.7558228,8.805657400000001,9.932409200000004,-6.775449600000002,-0.934611,0.2024917999999999,-0.289886,165.80899060000002,67.46465140000001,-134.17006840000002,168.20718784686525,1.1042300905096727,14.902988695042335,0.9992670030498556,142.8680278,27.8605148,-17.414245599999994
6515.338,2.9322864,162.1009398,-40.390113,-0.8545398000000001,0.3179987999999999,0.7696653999999999,23.4866664,42.90374899999999,-116.0265334,-1.5552173999999994,13.011822,0.140405599999999,-0.9357668,0.2508954,-0.2721484,165.8952546,67.23665919999999,-134.03844600000002,167.08283638880332,1.1932084204122264,13.105187013295849,1.0063164300288254,142.4085882,24.3329102,-18.011912599999995
6535.324,-1.9029244000000003,158.32715439999998,-38.3093458,-0.8957111999999998,0.2884977999999999,0.8149502,24.0407574,46.1064666,-115.1935394,-15.871581799999998,12.577477000000002,6.365750799999999,-0.9827214,0.1906775999999999,-0.2637444,165.41325999999998,66.989009,-134.2142668,162.90707448511108,1.2448587722670872,21.227878362363978,1.035210319544333,141.37250260000002,20.8825424,-19.02072739999999
6555.31,-8.0357652,151.836145,-37.4840032,-0.9514166,0.2937909999999999,0.6920303999999999,24.5331906,49.18368819999999,-114.3124374,-22.695646,10.2613668,5.370434799999998,-0.9642228,0.1699737999999999,-0.2727378,164.843152,66.7839674,-134.3431,156.6008906319123,1.212605778050195,25.47998363230458,1.016367358918575,140.3099614,17.6002792,-20.03066259999999
6575.296,-5.093953399999999,149.0743378,-35.512496000000006,-0.9485712,0.2664887999999999,0.6122745999999999,25.1759326,52.1894308,-113.3297744,-27.533935199999995,13.498435200000005,6.351165199999999,-0.8976742,0.2246625999999999,-0.281346,164.17595839999998,66.494142,-134.4719422,153.33050552287335,1.1600361148688605,31.315533523222765,0.9671855173131988,139.0000258,14.3047112,-21.14216779999999
6595.281,-2.6284064,147.4311126,-34.4314322,-0.9925058,0.299929,0.6184303999999999,26.029023,55.160327,-112.1797454,-46.0553986,6.679666400000002,14.0709984,-0.9394752,0.2202803999999999,-0.2883065999999999,162.7194612,66.29134979999999,-135.0586578,151.42115111839772,1.207261913471472,48.61800776865475,1.0071036697593552,136.6904382,11.1310228,-22.878912399999987
6615.267,-7.9203312,142.0736298,-34.690512,-1.0118104,0.2672766,0.5852752,26.877629,58.0233076,-110.9470748,-57.6264184,-15.4055844,17.2353064,-1.0258417999999998,0.1340613999999999,-0.305316,160.544449,66.47340840000001,-136.1768738,146.46187064791738,1.1990596841653711,62.090191777923046,1.0786759093690743,133.66682,8.4501008,-25.22979899999999
6635.253,-10.167582800000002,135.768567,-34.7697364,-1.0436932,0.2678316,0.4719189999999999,27.796902,60.75884,-109.6135238,-49.183651,-38.8694846,14.7225002,-0.9873114,0.1366625999999999,-0.325443,158.1473512,67.0857712,-137.71625980000002,140.51839059195711,1.1763234267180942,64.39425728198468,1.0485101873886205,130.3504492,6.326931199999999,-28.102735999999997
6655.238,-7.431582399999999,132.4068146,-33.3559074,-1.056629,0.2240128,0.4226278,28.9576504,63.4125952,-108.0987502,-40.7486628,-49.9132258,12.7412684,-0.9250094,0.17783,-0.3160675999999999,155.6755342,67.8962174,-139.51087339999998,136.74578431514493,1.1598537992081934,65.68198801947706,0.9935615867967724,126.7178838,4.483622200000001,-31.4121232
6675.224,-5.7088616000000005,129.09465939999998,-32.1927872,-1.0881158,0.2372119999999999,0.4169463999999999,30.405811,65.99982680000001,-106.33522320000002,-47.297715200000006,-65.08081619999999,15.008426599999998,-0.9864974,0.1523419999999999,-0.3240242,152.55080579999998,68.94198300000001,-141.8588408,133.1705588111518,1.1891634991146507,81.84032850255478,1.0494650481823584,122.1449948,2.942156200000004,-35.523617599999994
6695.21,-8.8198118,122.63801259999998,-31.6656646,-1.0980202,0.2042452,0.3861024,31.9860554,68.44922779999999,-104.3962814,-44.4958764,-80.28267120000001,11.525383799999997,-1.0406962,0.1175825999999999,-0.3069888,149.0226624,70.24552600000001,-144.6791564,126.96686784049164,1.181710423334262,92.50959292607816,1.091382779707761,117.036607,1.7962982000000012,-40.28287499999999
6715.195,-9.8120666,112.9335662,-30.8904436,-1.1111526,0.1964186,0.3264888,33.6812294,70.70818919999999,-102.3547822,-34.93923579999999,-87.4907386,4.768231599999998,-0.9927572,0.1556417999999999,-0.277833,145.255179,71.6744048,-147.9253234,117.49249563873175,1.174663910843506,94.3298233415751,1.0425844828828406,111.5739496,0.9662156000000008,-45.5705412
6735.181,-11.6170966,99.64352859999998,-28.7005786,-1.1249358,0.178315,0.2699952,35.378331,72.7099424,-100.303885,-37.7425744,-83.2782372,0.2094783999999983,-0.960835,0.2213003999999999,-0.265314,141.190558,73.0229842,-151.397757,104.34324576726335,1.1705444038436474,91.43199983965717,1.0210628202325067,105.81222699999998,0.3130418000000018,-51.09387199999999
6755.167,-13.740937,83.49255739999998,-25.6528202,-1.1190716,0.1772524,0.2264806,36.9408492,74.39502239999999,-98.3759386,-53.7621238,-82.7463066,-2.496782400000002,-1.0034748,0.2378223999999999,-0.256951,136.4721926,74.3425246,-155.20056759999997,88.41881968813986,1.1554363337755482,98.7094277857018,1.0628005384726713,99.5313434,-0.0524978000000004,-56.82462899999998
