Timestamp (ms),Wrist Gyroscope X (deg/s),Wrist Gyroscope Y (deg/s),Wrist Gyroscope Z (deg/s),Wrist Accelerometer X (g),Wrist Accelerometer Y (g),Wrist Accelerometer Z (g),Wrist Roll (deg),Wrist Pitch (deg),Wrist Yaw (deg),Arm Gyroscope X (deg/s),Arm Gyroscope Y (deg/s),Arm Gyroscope Z (deg/s),Arm Accelerometer X (g),Arm Accelerometer Y (g),Arm Accelerometer Z (g),Arm Roll (deg),Arm Pitch (deg),Arm Yaw (deg),Wrist Gyroscope Magnitude (deg/s),Wrist Accelerometer Magnitude (g),Arm Gyroscope Magnitude (deg/s),Arm Accelerometer Magnitude (g),Difference Roll (deg),Difference Pitch (deg),Difference Yaw (deg)
0.0,10.009209,-12.57039,3.368331,-0.926204,0.238572,0.326119,45.471706,64.365135,-77.65358,0.75929,-9.879904,4.582299,-0.842059,0.175794,-0.459808,148.111038,61.862297,36.52515,16.41781420540938,1.010506828755254,10.917256453831108,0.97539237580627,102.639332,-2.502837999999997,114.17873
19.984,10.0642785,-14.2415965,3.769887,-0.937024,0.2595435,0.3222939999999999,45.380455,64.23211649999999,-77.8685725,2.5790675,-11.231131,6.0915675,-0.8501925,0.175975,-0.465763,147.971115,61.919811,36.300949,17.8416596926167,1.0243291596963595,13.034457691663796,0.985256139209622,102.59066,-2.312305499999997,114.1695215
39.969,9.045219666666666,-15.987533666666666,4.189146999999999,-0.944951,0.2601666666666666,0.3273246666666666,45.234662333333326,64.07994566666666,-78.11658999999999,3.248789,-11.413634,6.654753666666667,-0.8512736666666667,0.184952,-0.4676943333333334,147.82666533333335,61.96864300000001,36.072429666666665,18.840546280526542,1.0333249848203074,13.605565677930867,0.9887426800215628,102.592003,-2.1113026666666648,114.18901966666664
59.953,8.257136,-17.5366155,5.1543005,-0.95124325,0.271347,0.32866675,45.08621775,63.9004905,-78.35554125,1.4765502499999998,-11.6789595,6.7728392500000005,-0.857568,0.19777425,-0.4679415,147.631302,62.01914,35.8364095,20.05691880029524,1.0423601813361467,13.58122406669428,0.9967481005797364,102.54508425,-1.881350499999998,114.19195075
79.946,6.7523616,-18.92771,6.097740399999999,-0.9598388,0.2722914,0.3377268,44.9056532,63.6991414,-78.59844819999999,-1.2392610000000002,-11.4866424,6.505749799999999,-0.8685832,0.1927588,-0.4675566,147.4128144,62.0730956,35.6285468,21.000834055033305,1.053324508372249,13.259091292837484,1.0050880083372002,102.5071612,-1.6260457999999989,114.226995
99.922,4.5502092,-21.9144628,7.844712799999999,-0.9808698,0.2831302,0.3528273999999999,44.549285,63.295735,-79.0807144,-4.383579,-11.259335,6.52334,-0.8874639999999999,0.1993242,-0.4722606,146.9937562,62.1746658,35.227002000000006,23.71682108738084,1.0801645471384629,13.731072581814791,1.0248670949513403,102.4444712,-1.1210691999999995,114.3077164
119.907,1.6752371999999998,-25.15055,9.3408946,-0.9952346,0.2833594,0.3610918,44.101061,62.827935,-79.59513079999999,-9.1911778,-10.2162778,5.5940008,-0.9000208000000001,0.221547,-0.4767349999999999,146.5110688,62.262684,34.8665046,26.88138569544124,1.095979811234112,14.837214239485332,1.04230359006704,102.4100078,-0.5652509999999993,114.4616354
139.892,-0.3743642000000002,-28.273905199999994,11.062915,-1.0050586,0.2943696,0.3522836,43.6148152,62.29562,-80.105844,-15.958159599999998,-9.271429,3.9248146,-0.9078192,0.2411836,-0.4811376,145.9509826,62.3467622,34.5747038,30.36349703361017,1.104943430980555,18.868662463605794,1.0553665803555463,102.3361674,0.0511421999999996,114.6805478
159.876,-3.8703822,-30.9411094,12.3361924,-1.000111,0.2855298,0.3572948,43.038168,61.7103326,-80.63899380000001,-24.0890712,-7.5093768,1.4184632,-0.9156844,0.2434867999999999,-0.4769726,145.342874,62.4314746,34.412403,33.53377032495247,1.099731264044121,25.272240285594037,1.0607858423491332,102.304706,0.721141999999999,115.0513968
179.861,-6.0710142,-32.95652,13.585251599999998,-0.9738346,0.2842714,0.3621844,42.422842200000005,61.0742448,-81.166185,-31.779335000000003,-5.5254478,-1.4355534,-0.9178372,0.2515904,-0.461988,144.6996916,62.519743600000005,34.38712160000001,36.16003989160277,1.0771915320027723,32.28803989091009,1.057901586736687,102.2768494,1.4454987999999986,115.5533066
199.845,-8.0439106,-33.8448666,13.9359564,-0.9256818,0.2822452,0.3591304,41.783309,60.4132874,-81.6751618,-38.9458762,-3.8954684,-4.3848486,-0.9150672,0.2571218,-0.4276662,144.0174804,62.626465800000005,34.4848212,37.47519677994085,1.0322421188744624,39.38505864266355,1.0422849798272638,102.2341714,2.2131783999999994,116.159983
219.83,-8.9719144,-33.069907,13.670713,-0.8681681999999998,0.2793027999999999,0.3624098,41.1585784,59.755275000000005,-82.142473,-44.5517928,-2.6327964,-7.100560199999999,-0.9082422,0.2512248,-0.3819401999999999,143.3140564,62.7621606,34.6897072,36.89176589590075,0.9813597407246334,45.19083771885413,1.016806820577006,102.155478,3.006885599999998,116.8321802
239.815,-9.4666206,-31.0687916,11.9190792,-0.8014199999999999,0.2688106,0.3710082,40.5361298,59.135643,-82.5902238,-48.2343582,-1.634135,-8.7132004,-0.8973929999999999,0.2487902,-0.3276666,142.57488719999998,62.9198442,34.9448418,34.59698203665238,0.9231360893928912,49.04226309393452,0.9872062402662372,102.0387574,3.7842011999999983,117.5350656
259.799,-6.217623999999999,-28.075179400000003,8.9648558,-0.7427848000000001,0.2714602,0.363417,40.0015558,58.5875306,-83.0099336,-47.1105926,-2.0276754,-8.226302800000001,-0.8796408,0.2485225999999999,-0.2831998,141.80303659999998,63.0907478,35.144375600000004,30.120477852490225,0.8703400572098703,47.866391762992,0.9569396775426549,101.8014808,4.503217199999999,118.1543092
279.784,-2.915797,-24.5310832,4.9452384,-0.7012418,0.270228,0.3529708,39.5327486,58.13916340000001,-83.4283464,-41.7370236,-3.1056378,-6.4158102,-0.8511226000000001,0.2411274,-0.2473786,141.0401612,63.26689760000001,35.2364822,25.19387421464523,0.8302720154888277,42.34131251690445,0.9185577145718608,101.5074126,5.127734200000001,118.6648286
299.768,0.7199470000000001,-20.8041432,1.3319496000000002,-0.6846289999999999,0.2647334,0.3565264,39.13056279999999,57.79120880000001,-83.8519806,-33.2635312,-4.5752384,-3.4467618,-0.8314628,0.2173052,-0.231765,140.32194220000002,63.4263702,35.1873604,20.859165556317333,0.8160341381422225,33.75315512979708,0.890093788853669,101.1913794,5.635161399999999,119.039341
319.753,3.5889120000000005,-17.0204354,-2.3049776,-0.6774796000000001,0.2591898,0.3683206,38.76932000000001,57.5434808,-84.29393,-22.5965264,-6.014604,-0.0131369999999998,-0.8280379999999999,0.2002536,-0.2220387999999999,139.6853088,63.5698166,34.9878372,17.546749906629973,0.8135219881629261,23.38329829608051,0.8803690490143323,100.9159888,6.026335800000001,119.28176720000002
339.738,7.224715399999999,-13.0645742,-5.51581,-0.700591,0.2657582,0.3886042,38.4796868,57.3955736,-84.73837280000001,-7.9832638,-7.9221344,3.5599034000000005,-0.8509232000000001,0.1927848,-0.2273524,139.1971312,63.699525400000006,34.6235772,15.915519834249926,0.8440784290608783,11.796848162512958,0.9016237492408018,100.7174444,6.303951800000002,119.36195
359.722,9.4163978,-9.145525,-8.6302176,-0.7408518000000001,0.2875478,0.418443,38.2363884,57.34264079999999,-85.1796722,7.900708999999999,-10.0850866,5.6362886,-0.8900944,0.206744,-0.238638,138.903723,63.8316644,34.122088,15.70954585202321,0.8981312104013979,13.996353940032758,0.9444359255615808,100.6673346,6.489023600000003,119.3017602
379.707,11.2845816,-5.713809,-12.0260156,-0.7893131999999999,0.289025,0.4486854,37.998687,57.3877892,-85.65431199999999,21.6100836,-12.2967734,6.967395000000001,-0.9312862,0.2349332,-0.2628292,138.77601320000002,63.9668396,33.5012788,17.453207338107884,0.9528217915709108,25.82152091446128,0.9957744639953968,100.7773262,6.5790504000000025,119.1555908
399.691,13.9552386,-3.4739544,-15.7349606,-0.8409328,0.293092,0.4662062,37.7614502,57.519494,-86.19041139999999,32.891584,-14.3001936,7.2684708,-0.9619392,0.2717452,-0.2886383999999999,138.80429980000002,64.1216148,32.8042878,21.316801557451384,1.005196058238531,36.59484257100978,1.0404252035462425,101.0428496,6.602120800000003,118.9946992
419.676,17.5418294,-3.3248264,-18.7979916,-0.9054293999999998,0.3249972,0.478532,37.5421044,57.6943222,-86.7965576,43.1279682,-16.4656156,7.8387054,-0.9762812,0.2996156,-0.3336583999999999,138.967807,64.27887559999999,32.0286584,25.92556146899257,1.0744386689877647,46.825030064007045,1.074347437809278,101.4257026,6.584553400000002,118.825216
439.661,18.308405,-5.960226199999999,-21.3527268,-0.9561322,0.3461224,0.5004784,37.2262558,57.85592799999999,-87.535231,50.1696288,-18.0586066,8.200154399999999,-0.9660394,0.3200028,-0.3683146,139.2203522,64.4330718,31.1950402,28.751711806336505,1.133343782144306,53.94763626376222,1.082261317304356,101.9940964,6.577143800000004,118.7302712
459.645,18.1671444,-12.1539156,-22.2967738,-0.9937126,0.3379988,0.516223,36.7525406,57.9322944,-88.4510986,52.9091994,-18.010599,8.667463399999999,-0.9374262,0.3310778,-0.4057376,139.527359,64.556993,30.3585758,31.223531541943508,1.1696982969677263,56.55873035419113,1.0737799542518196,102.7748184,6.6246986,118.8096744
479.629,18.265836,-21.5376976,-21.4283748,-1.0267288,0.3695514,0.5306436,36.1522994,57.838021000000005,-89.5223038,52.7092544,-17.4535168,8.573267,-0.912929,0.337316,-0.4347124,139.8613006,64.6582016,29.5541652,35.44980154044895,1.213393133412399,56.18177333570996,1.065925097561156,103.70900120000002,6.820180599999999,119.076469
499.614,16.378950800000002,-33.7267382,-19.2998072,-1.0426656,0.4098344,0.5494517999999999,35.3872268,57.5036704,-90.7520568,49.365344,-16.591771799999997,7.762264599999999,-0.8813548000000001,0.3592936,-0.4582588,140.17495119999998,64.75843979999999,28.8024384,42.16924776276347,1.2478032975473177,52.65431446160917,1.0563518837307198,104.7877244,7.254769399999999,119.5544952
519.599,12.6218556,-47.9861892,-15.700078599999998,-1.0470222,0.4208952,0.5854459999999999,34.418827,56.8758994,-92.1371872,39.5446734,-15.58159,5.737389800000001,-0.8589064000000001,0.3740128,-0.4591824,140.3726684,64.8724672,28.142756,52.04304046432746,1.2712809585578948,42.889215228981655,1.0432901106569352,105.95384140000002,7.996567799999999,120.2799432
539.584,9.2317028,-63.1163642,-9.84007,-1.0346402,0.4203194,0.614654,33.327095,55.913507,-93.607689,25.5308986,-13.9310298,2.4343096,-0.8545035999999999,0.3571738,-0.4624819999999999,140.4561432,65.0082078,27.6642988,64.54244141663274,1.274734592449895,29.18606239013105,1.0352000416071283,107.1290482,9.0947008,121.2719878
559.568,5.654768,-77.8720916,-2.2100056,-1.0231752,0.4491805999999999,0.649684,32.2071328,54.5977606,-95.0574204,12.979035599999998,-13.522045,-1.5575458000000002,-0.8681158,0.3199174,-0.452,140.4575898,65.20620120000001,27.367486000000003,78.10840656449629,1.292571081669167,18.807631828786683,1.0296971326717386,108.250457,10.6084406,122.4249064
579.553,0.4379863999999998,-92.02201440000002,5.9465232,-0.9941554,0.4601706,0.6910034,31.0635732,52.9327308,-96.4489518,5.279709399999999,-14.5894468,-5.6057206,-0.8824947999999999,0.303658,-0.4260678,140.40173959999998,65.48588099999999,27.1789218,92.21498850234995,1.2952172170200178,16.497011630102676,1.0259332449959304,109.3381664,12.5531502,123.6278736
599.537,-4.1912702,-105.4739454,13.950268799999998,-0.9667448,0.4593379999999999,0.740216,29.932573,50.9346236,-97.7530504,-0.4487614000000008,-16.3061136,-8.7537264,-0.9019224,0.291531,-0.3896656,140.2625306,65.82663260000001,27.029431800000005,106.47502009262006,1.3013480061947458,18.512656573714423,1.024838338181257,110.3299576,14.892008999999998,124.7824822
619.522,-7.016325999999999,-118.6960432,21.7227988,-0.9421144,0.4645094,0.7824622,28.875992000000004,48.615387600000005,-98.9443376,-1.393103400000001,-18.9456098,-11.5065124,-0.9156532,0.274019,-0.3625143999999999,140.10674139999998,66.24459979999999,26.8850198,120.87125170850106,1.309807474327643,22.20983330392872,1.02221518538838,111.2307494,17.629212199999998,125.8293574
639.506,-9.2763824,-132.1348524,28.737424,-0.9329418,0.4869224,0.8171956,27.9050028,45.9876486,-100.0186906,1.5830251999999991,-22.1910568,-12.3916044,-0.9215068,0.2707918,-0.3375758,139.9248322,66.72873380000001,26.6504162,135.54154354793437,1.3323972660090384,25.46567945865102,1.0180669929523891,112.0198294,20.7410852,126.6691068
659.514,-12.771131400000002,-145.4091474,33.9737824,-0.9079476,0.4800829999999999,0.834614,26.950622600000003,43.0792846,-101.027379,3.928057999999999,-24.8667232,-12.3150972,-0.919787,0.2963782,-0.3124778,139.64903880000003,67.2482422,26.271621,149.8704101395387,1.323415679305168,28.025794928997644,1.0156232265447065,112.6984162,24.1689576,127.299
679.475,-14.2347442,-157.94633159999998,38.2669866,-0.8839387999999999,0.4733083999999999,0.8682563999999999,26.0433242,39.9125822,-101.9767564,4.114321199999999,-27.493014800000005,-10.9662932,-0.935462,0.303307,-0.2875172,139.1992494,67.7939362,25.706063,163.13808222417342,1.3263626275634277,29.883993847512333,1.0245732916628465,113.1559252,27.881354,127.6828194
699.46,-14.2752062,-169.7637054,41.6227922,-0.849663,0.4637956,0.90371,25.2061912,36.506539,-102.877005,5.8939742,-30.2403548,-9.445048,-0.9567789999999998,0.2892752,-0.2668355999999999,138.6097872,68.3698578,24.953257200000003,175.37375520218208,1.3242829517321288,32.22463222478191,1.0345566362473346,113.403596,31.8633188,127.8302622
719.444,-14.558703,-179.82804240000002,44.0622202,-0.8051532,0.4401008,0.9004252000000001,24.4341444,32.9005482,-103.7304382,10.707679199999998,-33.4359278,-6.4402868,-0.9763836,0.2672534,-0.244379,137.8569124,68.96376039999998,23.92363,185.71903487637368,1.285583886965732,35.6944387231846,1.0413790903419944,113.422768,36.0632122,127.6540682
739.429,-13.6152434,-188.0256132,46.10817419999999,-0.7511894,0.4175698,0.9021488,23.7459424,29.1225914,-104.5358962,16.1099288,-36.7493536,-4.9286184,-0.9844832,0.2560794,-0.2068028,136.9587098,69.59521339999999,22.62965,194.07465007088075,1.2460026123110015,40.42692265423774,1.0380516500995698,113.2127674,40.472622,127.1655462
759.414,-11.1283186,-194.5103086,46.7133956,-0.6832971999999999,0.382142,0.8745566,23.163606,25.2059422,-105.3142378,19.0510898,-39.819013,-3.8764854,-0.9838538,0.2443358,-0.182299,135.8927826,70.2572358,21.0988754,200.3502956199777,1.1737873820651676,44.3116797009349,1.030000586571231,112.7291766,45.0512936,126.4131132
779.399,-4.712895800000001,-199.12152680000003,47.4458762,-0.607637,0.3638732,0.8507442,22.7705232,21.1950982,-106.057907,20.7045202,-42.3579962,-2.989277,-0.9662772,0.249715,-0.1662268,134.62686159999998,70.926503,19.3270876,204.75034796153707,1.1069743101268792,47.24206574414535,1.011771000524862,111.8563384,49.7314048,125.3849946
799.383,0.5552789999999999,-201.6354366,47.300688,-0.5325904,0.3706706,0.841234,22.5485178,17.14001,-106.7799332,17.360136999999998,-44.8146674,-2.6713778,-0.9700078,0.2652034,-0.1250366,133.087384,71.6074554,17.3408904,207.10990491261836,1.062414170948656,48.133824179902064,1.0133519264164643,110.5388662,54.4674454,124.1208236
819.368,5.1064512,-202.7740292,46.37819420000001,-0.4674576,0.3676638,0.8216950000000001,22.473010800000004,13.0617138,-107.499846,9.645235,-42.7620812,-3.7640368,-0.9794932,0.2699592,-0.1154302,131.4173814,72.2581132,15.3865016,208.0728710310725,1.014335225974727,43.99766038998406,1.0225502577296235,108.9443706,59.1963994,122.8863476
839.352,11.6464966,-202.092355,44.7358702,-0.3815385999999999,0.3419706,0.765246,22.575135600000003,9.0040498,-108.2344422,6.847086399999998,-38.4725838,-2.2999564,-0.973284,0.2483838,-0.12738,129.7764192,72.8090576,13.523253399999998,207.3119844945079,0.9209326984477856,39.1447582168927,1.0125225534073006,107.20128359999998,63.8050078,121.7576956
859.337,22.049858,-198.8451596,43.868003,-0.302991,0.3451478,0.7368964,22.9375686,5.0196890000000005,-108.96748519999998,14.68331,-35.213487,0.0333449999999999,-0.9625056,0.2384042,-0.1333813999999999,128.3039796,73.2623824,11.6735744,204.81698030529023,0.8683011310938159,38.15220008262032,1.000521959016872,105.366411,68.2426934,120.64105960000002
879.321,29.808623,-193.9323302,42.0793426,-0.2094082,0.3404129999999999,0.704949,23.5033188,1.1396076000000002,-109.7227432,20.2151898,-33.1985556,0.7693545999999999,-0.9660694,0.2456668,-0.1157794,126.92845300000002,73.664572,9.8129782,200.6713078035974,0.8103615843543177,38.876598347551656,1.0035173798709018,103.4251342,72.5249644,119.5357214
899.306,40.9439118,-187.6471954,40.74877239999999,-0.1146712,0.3184958,0.6703734,24.3347904,-2.614575,-110.4948562,26.5687128,-31.9633298,2.588513,-0.9545334,0.2418038,-0.1128642,125.5788864,74.00492700000001,7.8509276,196.3373023831156,0.7509923795583016,41.64434356912857,0.9911313823361866,101.244096,76.619502,118.3457838
919.291,50.3324916,-179.384201,39.8722534,-0.0225376,0.3488404,0.6570736,25.4129402,-6.193016399999999,-111.27776020000002,37.4824086,-41.8216762,4.0822762,-0.9108927999999998,0.2267974,-0.0525293999999999,123.6755126,74.39792320000001,5.090384200000001,190.5304381726612,0.7442736619704341,56.30851208838755,0.940171309710608,98.2625724,80.59093960000001,116.3681444
939.275,52.9505232,-170.4752838,37.828714000000005,0.0554972,0.3496312,0.6183723999999999,26.6095738,-9.5840072,-112.0985336,40.0122952,-47.8931468,6.790649999999999,-0.9780802000000002,0.2585436,-0.0878625999999999,121.2616256,74.7723068,1.7516916000000002,182.47353752459037,0.7125351502228083,62.77619138655031,1.015482893608632,94.6520518,84.35631400000001,113.8502252
959.26,54.91146679999999,-161.00664379999998,35.6625432,0.1355252,0.3595658,0.6251692,27.8972892,-12.7837658,-112.9530594,36.3084622,-43.9155462,7.7104686,-0.9912226,0.2596216,-0.0829886,118.9704528,75.0755036,-1.3810091999999998,173.81089011152162,0.7338195779572251,57.500703920949945,1.0280139715331111,91.0731636,87.8592694,111.5720502
979.244,55.4554374,-150.94785460000003,32.9001176,0.1816964,0.3729528,0.6270583999999999,29.2424126,-15.7616086,-113.8422868,33.210101800000004,-36.300244,7.5520442,-0.9991636000000002,0.2483883999999999,-0.102834,117.0932296,75.28746199999999,-4.020334,164.14316337777186,0.7518707400952374,49.77601779596931,1.0346977956753944,87.850817,91.0490706,109.8219528
999.229,48.778536,-140.0625382,29.7884816,0.2070264,0.38465,0.6005438,30.505931799999995,-18.4897708,-114.7565476,29.2611938,-24.9940102,6.5658564,-1.0164022,0.235598,-0.1328586,115.8728712,75.3948472,-5.895038,151.2752914965405,0.7426091896249332,39.03880734274912,1.0517752884351297,85.3669394,93.884618,108.8615096
1019.214,41.9368442,-128.65301219999998,25.956962,0.2409612,0.3522267999999999,0.5630322,31.6687484,-20.9670898,-115.6866348,22.0597946,-1.3990783999999992,7.2993706,-1.0385016,0.237671,-0.2089276,116.05937939999998,75.25994879999999,-6.1640868,137.78265611410552,0.7064922340553503,23.27816078043281,1.085644425898885,84.39063100000001,96.2270386,109.522548
1039.198,41.0590672,-115.71820699999998,23.489536800000003,0.2594222,0.3721725999999999,0.6151414,32.8180186,-23.1643474,-116.5762054,18.7964908,20.3709296,5.7407976,-0.9692172,0.2093259999999999,-0.191803,117.642694,74.9507936,-4.916957999999999,125.01323437823498,0.7643371402971073,28.306175938243697,1.009944427115096,84.8246754,98.115141,111.6592474
1059.183,34.6192876,-103.315555,21.1739644,0.2555068,0.3792144,0.615534,33.8406242,-25.0886264,-117.4171356,15.937762,36.836503400000005,5.066844000000001,-0.950223,0.192753,-0.225763,120.0874512,74.475493,-2.7098998,110.99971057305513,0.7667916217393093,40.45507568188684,0.9955131344723684,86.24682700000001,99.5641194,114.7072358
1079.167,25.517711400000003,-91.015735,19.5133926,0.2628608,0.3721402,0.5908834,34.6674566,-26.772248,-118.1811294,15.502605,53.29580080000001,5.6426304,-0.914942,0.1586546,-0.2635906,123.3064302,73.7890122,0.3191984000000003,96.5183407619798,0.7461416226348989,55.79079155676419,0.9652824197474644,88.6389736,100.5612602,118.5003278
1099.152,19.8001126,-78.4128044,18.4377948,0.284463,0.3678186,0.579651,35.3441206,-28.2294378,-118.83599239999998,17.3307256,68.958294,4.657069,-0.8716046000000001,0.1364274,-0.3104789999999999,127.226282,72.8838974,4.051787200000001,82.94916895263174,0.743104974196755,71.25509562749664,0.935256234222964,91.8821614,101.1133352,122.8877796
1119.137,15.9716216,-65.5240302,17.962078,0.315316,0.361483,0.5645870000000001,35.8911276,-29.4796906,-119.354895,18.9235836,82.0796876,1.3653199999999994,-0.8544103999999999,0.1323118,-0.3366215999999999,131.55205719999998,71.78832700000001,8.1966294,69.7934629909004,0.7408458812155199,84.24393884121386,0.9278133678892324,95.6609296,101.2680176,127.55152440000002
1139.121,10.3052154,-52.0499808,16.5248404,0.3763556,0.355902,0.5428278,36.2659704,-30.5074998,-119.736203,18.3055378,90.088028,-4.750430400000001,-0.8482645999999999,0.136464,-0.3526897999999999,136.0213854,70.58066699999999,12.5281122,55.5739895631602,0.7503144618812835,92.05168163624856,0.9287439636052554,99.755415,101.0881668,132.2643152
1159.105,3.7943830000000007,-37.8769366,14.7447002,0.4401718,0.3642151999999999,0.5350156,36.4422642,-31.3065466,-119.9678176,16.218316199999997,91.1910934,-12.5901608,-0.8527587999999999,0.1369078,-0.3534781999999999,140.3704652,69.36865379999999,16.801418,40.8223695115679,0.7827168183127535,93.4738543381012,0.9332138846767764,103.928201,100.6752004,136.7692356
1179.09,-2.0955725999999992,-24.1054876,12.9249216,0.503795,0.3703336,0.5196626,36.4295538,-31.8680964,-120.0498764,13.907405999999998,86.72876720000001,-21.0038222,-0.866906,0.1494552,-0.3381139999999999,144.43874820000002,68.2474288,20.8555174,27.43208988250387,0.8130225059324742,90.31309732641132,0.9424351153469612,108.0091944,100.1155252,140.9053938
1199.075,-5.940855399999999,-11.684370599999998,11.0626104,0.5652356000000001,0.3750338,0.4864791999999999,36.2766356,-32.215182,-119.9993682,13.3376894,75.58896480000001,-24.9200102,-0.8647448000000001,0.1593931999999999,-0.3141248,147.9609954,67.2920974,24.3641486,17.15224848420876,0.8347476544935242,80.70063485769252,0.9337366605785168,111.6843598,99.5072794,144.3635168
1219.059,-7.572089599999998,-0.8961003999999999,9.3830672,0.6089994,0.4038937999999999,0.4903133999999999,36.0323668,-32.3548294,-119.8323654,11.934206,58.6167158,-27.3444642,-0.869482,0.1784548,-0.2868609999999999,150.819348,66.603189,27.2106468,12.09055362326408,0.8800100573847778,65.77282392001644,0.9328098934338336,114.7869812,98.9580184,147.0430122
1239.044,-10.0369634,7.8832118,7.768881200000001,0.6293494000000001,0.429174,0.4721803999999999,35.6947708,-32.3259396,-119.57634579999998,9.907624,39.3424204,-27.5683304,-0.8702512,0.198263,-0.2665068,152.98443899999998,66.2188522,29.368913,14.94125756676165,0.8962283859042404,49.05099282684578,0.9314887238805846,117.2896682,98.5447918,148.9452588
1259.029,-9.478660199999998,15.2302188,6.1056142,0.6390112,0.4400701999999999,0.4707142,35.3355278,-32.152491399999995,-119.2535644,6.818453399999998,19.4197372,-25.8352542,-0.8775107999999999,0.2203374,-0.2493395999999999,154.4677642,66.1495054,30.865809,18.949487820048837,0.9075069987251448,33.03146771282882,0.9384796268878508,119.1322364,98.3019968,150.1193734
1279.013,-7.1012672,22.2681882,4.518448,0.6335029999999999,0.4530375999999999,0.478989,34.9933264,-31.8455764,-118.868991,3.8970226,1.0226776000000002,-21.726054999999995,-0.885449,0.2257506,-0.2582396,155.3281494,66.35449659999999,31.7486456,23.805809666657407,0.9143301264552972,22.096473032623948,0.949563560805447,120.334823,98.200073,150.6176366
1298.998,-3.9282428,29.5950898,2.7780918,0.6170614000000001,0.4606532,0.489251,34.6890356,-31.403688800000005,-118.4257552,-0.5058958,-14.239210600000002,-19.5522876,-0.901532,0.2266452,-0.2671169999999999,155.71653759999998,66.808609,32.2111852,29.98363263207184,0.9123226858087,24.193036177063924,0.9672018845081104,121.027502,98.21229780000002,150.6369404
1318.982,-1.908923999999999,37.7409184,-0.1336427999999999,0.5955312,0.467902,0.5116058,34.415878199999995,-30.8034362,-117.9414046,-6.3996628,-25.85775,-16.796227599999998,-0.9139528,0.222722,-0.2842323999999999,155.65948799999998,67.438942,32.313541,37.78940027191787,0.9139639962116014,31.491144479158034,0.9827018200459384,121.2436098,98.2423782,150.2549456
1338.967,-1.437480599999999,46.2481998,-3.4068176,0.5631410000000001,0.4691868,0.5277298,34.1479704,-30.0335742,-117.4210204,-10.8800018,-35.4911366,-13.7366218,-0.915437,0.2184915999999999,-0.2962758,155.18479000000002,68.2058746,32.0580122,46.395783659463774,0.903195870774042,39.58143497656569,0.9866827402489616,121.0368196,98.2394488,149.4790326
1358.952,1.0794658000000008,54.99417960000001,-6.5083472,0.5387934000000001,0.4572333999999999,0.5225702,33.9138258,-29.0798106,-116.8548766,-15.631484,-43.118866,-9.6245776,-0.9152746,0.2084246,-0.2946274,154.23497920000003,69.06764539999999,31.3923532,55.38847912306471,0.8788858423522136,46.8637641589601,0.9838565505809675,120.3211534,98.147456,148.2472298
1378.936,7.936170200000001,63.779004,-8.483861600000001,0.5052806000000001,0.447081,0.5236546,33.8000862,-27.962635,-116.2257292,-21.8534032,-49.1346778,-4.384292599999999,-0.9216946,0.1892887999999999,-0.2706621999999999,152.6966674,69.99079459999999,30.2324502,64.82838927756373,0.8540515472724817,53.95377480338144,0.9790859063348016,118.8965812,97.9534296,146.4581794
1398.921,11.2558862,72.589557,-10.7335138,0.4745236,0.4462374,0.5546454,33.735055599999995,-26.671752000000005,-115.5354796,-26.749296,-53.943015200000005,0.4888476000000015,-0.9287706,0.1694437999999999,-0.2637707999999999,150.584857,70.9370164,28.5692282,74.23710041548222,0.8555302355012826,60.213060853431735,0.980255611417471,116.8498014,97.6087684,144.1047078
1418.905,9.8832342,80.8561982,-12.3448578,0.4421594000000001,0.433444,0.577604,33.614981799999995,-25.2169948,-114.7761062,-27.1057564,-59.6207358,3.3821280000000016,-0.929894,0.157516,-0.2489945999999999,147.9686034,71.92937620000001,26.3861956,82.38809756094598,0.8467614876459368,65.58043120594684,0.9754549975888996,114.3536216,97.146371,141.1623018
1438.89,10.8523228,88.8110032,-13.8927924,0.412345,0.4298798,0.5801681999999999,33.5011132,-23.6025204,-113.9567138,-26.7981678,-60.3836454,3.587012800000001,-0.9385158,0.1462056,-0.2244415999999999,145.12383419999998,72.91697079999999,23.962117,90.54378432678472,0.8315167958401561,66.1603589021195,0.9759928361066796,111.622721,96.5194912,137.9188308
1458.874,15.541933599999998,96.0154374,-15.3327002,0.3806088,0.4201494,0.5778204,33.4814326,-21.8531162,-113.0886658,-26.054007,-60.9762426,7.563294800000003,-0.9609616,0.1464996,-0.1957519999999999,141.7494782,73.82930739999999,20.9812186,98.46627653447248,0.8094843986229506,66.7391704368717,0.991578627733938,108.2680456,95.6824236,134.0698844
1478.859,19.2525326,103.7789978,-17.861204800000003,0.336024,0.4414994,0.6273702,33.5460398,-19.931933,-112.1817368,-21.7317684,-59.5600332,10.111016400000002,-0.979046,0.1487546,-0.1959487999999999,138.1012878,74.6248288,17.6355128,107.05028273103257,0.8375125172941597,64.20202461930161,1.00948250770313,104.555248,94.5567618,129.8172496
1498.844,9.947928999999998,109.3659744,-21.430762800000004,0.2945912,0.4552743999999999,0.6567856,33.4542238,-17.868661,-111.2823288,-16.5543356,-55.965322,7.769229200000002,-0.9640904,0.1656152,-0.1589787999999999,134.4991958,75.3473326,14.2435208,111.88903092814934,0.8517194836213153,58.87719606166079,0.9910463928054228,101.044972,93.2159936,125.5258496
1518.828,5.807155799999999,114.82347559999998,-25.802311,0.272942,0.459628,0.622169,33.3251528,-15.6623694,-110.4138016,-15.6463394,-47.7774246,5.084484200000002,-0.9706262,0.1647378,-0.1401985999999999,131.2228652,75.9549056,11.1776344,117.8300168050993,0.8202740385438272,50.53060674095184,0.994439244155841,97.8977124,91.617275,121.591436
1538.813,10.934275,119.2772202,-26.8474038,0.2402568,0.4290336,0.613336,33.320781000000004,-13.3814836,-109.5240998,-16.2745846,-42.5411996,6.098610800000001,-0.9919062,0.1866321999999999,-0.1161241999999999,127.932785,76.44183640000001,8.1182428,122.74932471999658,0.7861133561842083,45.95442112571405,1.0159696439859411,94.612004,89.82332,117.6423426
1558.797,14.761985199999998,123.8515488,-29.2323244,0.1936728,0.4730221999999999,0.7394382,33.4166114,-10.9903086,-108.6276764,-13.1640794,-34.0943738,6.663517400000001,-1.0059438,0.1652678,-0.0918295999999999,125.087329,76.7690994,5.4579616,128.10796671960193,0.8989037805971893,37.14999024769365,1.0235570574772273,91.67071760000002,87.75940800000001,114.08563800000002
1578.782,-0.1053502000000001,126.96621559999998,-33.583025799999994,0.1450682,0.5006488,0.704318,33.262004000000005,-8.505074,-107.7786728,-9.4262262,-23.8021994,1.9441686000000007,-0.990254,0.17744,-0.0872149999999999,123.15337060000002,77.02047580000001,3.662810400000001,131.3325954374381,0.8762179230743229,25.674466463709678,1.0097991851556427,89.8913666,85.5255498,111.4414832
1598.766,-2.6094932000000006,131.2610916,-36.35990460000001,0.1052864,0.4935577999999999,0.6504726,33.1004104,-5.9145774,-106.9421708,-6.292533,-17.269062,3.0563632000000007,-1.0169144,0.1710668,-0.0851625999999999,121.6233626,77.1682998,2.220472,136.2289480444797,0.8232855709391244,18.63217190577221,1.0347132044331702,88.52295219999999,83.0828772,109.1626428
1618.751,-1.4343544000000006,135.38548880000002,-37.91780179999999,0.042436,0.4867418,0.7408296,32.992318,-3.2353114000000005,-106.0967498,-4.6151364,-10.8870276,6.869475,-1.0332778,0.1889115999999999,-0.0587987999999999,120.3775252,77.1742752,1.0376798,140.60244536815074,0.8874383867060293,13.675399106768024,1.052049382618915,87.3852072,80.40958659999998,107.1344296
1638.736,-3.1532238,137.8827146,-41.9349764,-0.0260733999999999,0.4856866,0.8134235999999999,32.8952684,-0.4531562000000001,-105.2990614,-2.8568826,-4.2223392,8.2090168,-1.0163444,0.229477,-0.0491061999999999,119.634413,77.0838502,0.3337144,144.1531409698259,0.9477495706377712,9.663223237239304,1.0430853521255103,86.7391446,77.5370064,105.6327758
1658.72,-9.960569,139.14371620000003,-46.168464,-0.1144443999999999,0.5181446000000001,0.7357547999999999,32.7117396,2.393301,-104.5669432,0.1327041999999998,-1.927366,6.624201200000002,-0.9863728,0.227423,-0.0725093999999999,119.2139526,76.9904236,-0.1007082,146.94119150486432,0.9071419254579516,6.900173305123221,1.0148448820372502,86.502213,74.59712259999999,104.466235
1678.705,-12.6017036,140.68532080000003,-49.1420122,-0.1570447999999999,0.480998,0.6929259999999999,32.50703,5.2994072,-103.8769424,-0.2072078000000001,-2.2294912,9.1608518,-0.953256,0.2159672,-0.0764803999999999,118.6629182,76.85360260000002,-0.6624342000000001,149.55299992071747,0.8580026728903821,9.430523409907932,0.9804020015259046,86.1558882,71.5541954,103.2145082
1698.69,-11.4044988,144.5917082,-50.9434534,-0.2241732,0.488456,0.7612314,32.3590574,8.290587,-103.1812774,-4.2922340000000005,-0.3977073999999999,11.313837800000002,-0.987279,0.2338978,-0.0548867999999999,118.0977602,76.6545074,-1.1552184,153.72722633740295,0.9318348200621182,12.107203213437844,1.0160908254187124,85.7387028,68.3639204,102.026059
1718.674,-12.303025799999997,145.1930388,-54.15393759999999,-0.3036767999999999,0.4461757999999999,0.8190739999999999,32.2194856,11.3274324,-102.5365586,-9.148472000000002,0.5423096000000001,8.136435400000002,-1.0083852,0.2786001999999999,-0.0671841999999999,117.6316928,76.5021926,-1.4460442,155.45105955701447,0.9809050213144388,12.255211979211513,1.0483188922025206,85.41220719999998,65.17476020000001,101.0905144
1738.659,-13.005840799999998,146.9975738,-56.747586,-0.3692102,0.4833396,0.7378791999999998,32.0959726,14.4211702,-101.9168566,-6.146896600000001,2.3603628,4.822743800000002,-0.9881494,0.2078726,-0.1044147999999999,117.4961322,76.3944914,-1.4587304,158.106695351047,0.95624215265007,8.161771138616537,1.0151614182041002,85.4001596,61.9733212,100.4581262
1758.643,-20.3475136,149.70658559999998,-57.005246,-0.4239091999999999,0.4336917999999999,0.682535,31.8673814,17.565536400000003,-101.272394,-9.925206800000002,6.2646522,4.433638400000001,-0.9521698,0.1723342,-0.1077905999999999,117.58875,76.25347880000001,-1.1585708,161.47966173246965,0.913039765539749,12.546423660616824,0.9736247829477432,85.72136859999999,58.6879424,100.1138232
1778.628,-17.7275526,154.2395842,-55.692308,-0.4874266,0.4293618,0.7166356,31.7543374,20.7784148,-100.5505708,-8.496415200000001,9.769808,6.711779800000002,-1.0113106,0.1591889999999999,-0.0807529999999999,117.8517962,76.0509016,-0.7109694,164.94165218567906,0.9672139519641764,14.583765209689272,1.02694270258976,86.0974588,55.2724868,99.8396014
1798.612,-13.9376706,155.3265594,-55.575749,-0.569773,0.388893,0.8234193999999999,31.773616600000004,24.006824,-99.7979264,-4.587740600000001,11.8768064,2.112732800000002,-1.0175542,0.1766124,-0.0992877999999999,118.5049486,75.91034379999999,0.0590397999999999,165.5574298958124,1.0741966976649853,12.906182005541575,1.0375290632075036,86.731332,51.903519800000005,99.8569662
1818.598,-13.476676599999996,157.0565124,-53.23327020000001,-0.633979,0.4452733999999999,0.689573,31.8731912,27.241713600000004,-98.9597886,7.637459799999999,13.964985000000002,1.0850022000000024,-0.9419456,0.1485966,-0.1293933999999999,119.584041,75.761264,1.0166328,166.37953586790218,1.037163774684384,15.953959634549848,0.9623331620880994,87.7108498,48.5195504,99.9764214
1838.582,-19.64215,158.2483582,-51.484610800000006,-0.7132400000000001,0.4312174000000001,0.6805306000000001,31.9242852,30.477389400000003,-98.0455276,6.4851648,14.3133524,3.371555000000002,-0.9362168,0.1475008,-0.1244215999999999,120.5939362,75.5667526,1.9247656,167.5679625669701,1.0760026213718628,16.0716148077214,0.9558970222515812,88.669651,45.0893632,99.9702932
1858.566,-16.612611,158.8342194,-48.8736458,-0.7646118,0.4136575999999999,0.6992552,32.1322388,33.697570600000006,-97.033168,11.5522584,16.5806364,3.0801264000000024,-0.9855272,0.1947996,-0.1443612,121.8644408,75.3531602,2.9959006,167.0117401574767,1.115661978138558,20.44160845455544,1.0149142338963622,89.732202,41.6555896,100.0290686
1878.551,-12.583495,156.0396516,-48.2595696,-0.8296863999999999,0.3922514,0.7764672000000001,32.483007,36.859218,-95.9824508,15.0671874,17.761384600000003,-2.6617351999999976,-0.9876366,0.237727,-0.1671271999999999,123.4538588,75.2083634,4.3263992,163.81606537773288,1.2021405890422137,23.442946771486625,1.029500695079124,90.9708518,38.3491454,100.30885
1898.535,-11.9063854,151.3151704,-46.8159776,-0.8722676,0.4176261999999999,0.6527160000000001,32.906488,39.9238052,-94.9021104,20.6760678,21.983331,-5.084720599999998,-0.9155498,0.2298304,-0.2044746,125.5104918,75.033435,6.025868999999999,158.83884463542938,1.1667478671899083,30.604264492155696,0.9658484928234656,92.6040038,35.1096298,100.9279794
1918.52,-10.5443588,145.87417620000002,-45.2359154,-0.9220616,0.4011074,0.6172046,33.42283640000001,42.8711724,-93.773558,19.1130302,25.813268400000005,-5.854207599999998,-0.9210734,0.1809112,-0.2308978,127.73990139999998,74.80570660000001,7.9396046,153.09064905018772,1.1798416244524008,32.64819283728348,0.966653435579598,94.317065,31.934534199999995,101.7131626
1938.504,-8.3166764,139.60113080000002,-41.0066856,-0.9446636,0.4026443999999999,0.6254014,34.1031502,45.6672296,-92.5315032,25.705683,29.0953256,-5.841079599999998,-0.9519646,0.183099,-0.2578176,130.1851056,74.5147994,9.9439268,145.73671840301014,1.2023471799518972,39.26115537220015,1.0031110398774006,96.0819554,28.8475698,102.47543
1958.489,-7.268108399999998,133.4438524,-38.733258,-0.9651843999999998,0.4087004,0.6069014,34.91778420000001,48.3300004,-91.194319,29.4456156,30.065376000000004,-8.831328199999998,-0.9695734,0.2182626,-0.2580664,132.74441199999998,74.230963,11.995714799999998,139.1414834560912,1.211175566251846,42.999575228837486,1.026795698936882,97.8266278,25.900962600000003,103.1900338
1978.474,-5.871529999999999,128.0419756,-34.8535172,-0.9820964,0.431848,0.5785929999999999,35.9142748,50.8373278,-89.7175262,25.8178776,31.4348528,-7.985426799999997,-0.975061,0.2356608,-0.2510443999999999,135.18002,73.9005172,13.9979378,132.83068185213307,1.218924072141477,41.45455120375093,1.0340712050671366,99.2657452,23.06318940000001,103.715464
1998.458,-8.1618544,122.2509462,-32.718571600000004,-0.9804956,0.4227769999999999,0.5606511999999999,36.9737168,53.205776400000005,-88.1423812,21.9070952,32.6001352,-8.418752799999998,-0.9832164,0.2316666,-0.2485017999999999,137.543042,73.5280166,16.0104806,126.81646045205024,1.2060023969336875,40.169205044009146,1.040258163816925,100.5693252,20.322240200000003,104.1528618
2018.443,-7.735771199999998,116.984749,-29.9249052,-0.9624144,0.4087202,0.5431176,38.1796546,55.4508882,-86.45557699999999,16.040566999999996,29.7811178,-8.9917062,-0.9953568,0.2235604,-0.2331362,139.623224,73.1814224,17.852778,120.99906448349398,1.1782488729657925,35.000936380132515,1.046454442154478,101.4435694,17.730534200000005,104.308355
2038.428,-6.225475799999998,111.4126618,-28.9061456,-0.961264,0.396675,0.5313448,39.5059578,57.5684548,-84.710759,14.9627078,27.1939652,-10.607806399999998,-0.9713904,0.2337062,-0.2428638,141.5674714,72.88005820000001,19.578419000000004,115.26969684937131,1.167778587664648,32.801218340587184,1.0282026660542367,102.06151359999998,15.311603400000005,104.289178
2058.412,-4.705353199999999,102.972403,-27.7317494,-0.989794,0.402325,0.5462108,40.8810348,59.5010904,-82.988759,13.136145199999998,24.459257200000003,-9.1308678,-0.923304,0.2626456,-0.2736193999999999,143.2594026,72.59786199999999,21.077454,106.74505165634405,1.1999599185379652,29.226466092778168,0.998168604831729,102.3783678,13.096771600000002,104.066213
2078.397,-4.456489199999998,90.7422898,-26.6708576,-1.0133394,0.3876018,0.5022792,42.1593618,61.2095064,-81.4197404,8.430221599999998,23.3699894,-8.126219399999998,-0.8845458,0.2560822,-0.326709,144.7430756,72.3100554,22.4554784,94.68557492699918,1.1955652594937007,26.139251758957357,0.9771070238901572,102.5837138,11.100548999999996,103.8752188
2098.381,-1.2918511999999986,78.1446564,-23.8791552,-1.0361576,0.3888046,0.4611822,43.393051,62.6716546,-80.00005660000001,1.139944999999997,21.1910656,-3.5189985999999984,-0.9007372,0.2184171999999999,-0.3601374,145.77398060000002,71.9944702,23.5076856,81.7219080569139,1.1989497948687258,21.51148732685237,0.994350302256926,102.3809296,9.322815599999998,103.5077422
2118.366,-1.0024395999999989,63.9023624,-22.861963,-1.0594204,0.4004742,0.5019667999999999,44.3725356,63.8889496,-78.8858706,3.858247399999997,20.5184008,0.0382568000000021,-0.916573,0.2314927999999999,-0.3877606,146.644403,71.638626,24.3332444,67.87625621427533,1.2388389068414185,20.878034102180063,1.0217892462211569,102.2718674,7.749676399999996,103.21911500000002
2138.35,-4.459534399999999,46.940707,-20.107509,-1.0846088,0.4154913999999999,0.5227542,44.9522032,64.7998726,-78.14990560000001,0.9279569999999971,18.8030876,1.521923400000002,-0.9195486,0.2484579999999999,-0.4094038,147.28257760000002,71.2959624,24.9787504,51.260407127818574,1.273688072539364,18.88738886989385,1.036779859459278,102.3303744,6.496089799999998,103.128656
2158.335,-9.1926976,28.1422698,-15.8244614,-1.0782834,0.4111526,0.5220773999999999,45.0452772,65.3709,-77.84970100000001,-5.512786800000002,18.2780082,1.0052472000000023,-0.9273634000000002,0.2239207999999999,-0.4242756,147.7848664,70.9663146,25.6176698,33.56942980244269,1.2666121595788824,19.117712310698405,1.0441040106653936,102.7395892,5.595414600000001,103.4673708
2178.32,-13.369481,8.7048064,-11.1784922,-1.0657317999999998,0.430859,0.518216,44.650019,65.601477,-77.99576119999999,-7.561543000000003,16.0828692,-0.1121233999999979,-0.9292288,0.2039203999999999,-0.4181385999999999,148.20707399999998,70.6756514,26.2173128,19.480127426079708,1.260940748040224,17.772118216520653,1.039177357863209,103.557055,5.074174400000001,104.213074
2198.304,-16.1413548,-10.87903,-5.4327536,-1.056527,0.4332122,0.5545468,43.814479,65.47771759999999,-78.5674682,-7.698699800000003,12.4607074,-1.244364999999998,-0.9242052,0.2195836,-0.4120666,148.5265138,70.456996,26.7152884,20.20919197292895,1.2694267467436158,14.699920128087763,1.035456948371858,104.7120348,4.979278400000001,105.2827566
2218.289,-19.3715848,-31.416776,1.4806787999999995,-1.0619088,0.4452966,0.5801318,42.5662078,64.9450874,-79.5181288,-8.976543400000004,7.166648,-2.552538199999998,-0.911394,0.2406382,-0.4087717999999999,148.6945404,70.33200380000001,27.082904000000003,36.93865890373575,1.2893766970363003,11.766674391281796,1.0274435025880888,106.1283326,5.386916400000002,106.6010328
2238.273,-21.942814,-51.925390400000005,6.451597799999999,-1.0533942,0.439061,0.593194,40.9249138,64.0305046,-80.8472608,-10.973669200000003,2.0454274000000003,-3.535448599999998,-0.913113,0.2332658,-0.3900566,148.7248016,70.2914246,27.345852200000003,56.73937229652769,1.2861932296317844,11.709166740760908,1.0199668795711947,107.7998878,6.2609200000000005,108.193113
2258.258,-22.7465104,-71.9129258,11.5893086,-1.0561277999999998,0.4322756,0.6207558000000001,39.033326,62.7301758,-82.4394164,-10.900805400000005,-4.6650966,-3.828059399999997,-0.9138808,0.2118732,-0.3698907999999999,148.56993699999998,70.3578354,27.410839,76.30979430138471,1.2990788611634936,12.459724050954303,1.00840843580938,109.536611,7.627659599999999,109.8502554
2278.243,-22.3802782,-91.4838868,16.5103182,-1.0715796000000002,0.4184614,0.6481916,37.012278,61.0332238,-84.193083,-8.811079400000004,-12.3439788,-2.924360799999998,-0.912242,0.2179446,-0.3627624,148.1674896,70.54469900000001,27.1701014,95.6178278534388,1.3204336911547965,15.445414170443293,1.0056251160780143,111.1552116,9.5114752,111.3631844
2298.227,-22.4313532,-110.6140092,20.4694558,-1.0851642,0.4243944,0.653096,34.9182412,58.9470582,-86.048088,-8.104041600000004,-20.732292,-1.8194043999999976,-0.917043,0.2371962,-0.3456996,147.41498719999998,70.8601912,26.5479936,114.7066835822089,1.335749352584159,22.33413652234028,1.0083343267902765,112.496746,11.913133000000002,112.5960816
2318.212,-23.0729668,-127.8748886,25.0385752,-1.0823402,0.4067554,0.6836270000000001,32.8516878,56.4977404,-87.8949402,-12.982247200000003,-27.0850682,-0.8673959999999978,-0.9434266,0.2190286,-0.3173633999999999,146.29015199999998,71.2875364,25.6355568,132.33018997742866,1.34322601936316,30.0481619667722,1.0191892880447089,113.4384642,14.789796,113.530497
2338.196,-23.0179284,-143.3216812,30.090747,-1.07135,0.3883116,0.7181763999999999,30.9206728,53.7181544,-89.625235,-18.311894200000005,-31.204343800000004,-1.4660561999999977,-0.9735234,0.1852352,-0.2865227999999999,144.9369048,71.811154,24.5928886,148.24433339875077,1.3469796073851747,36.21030049533076,1.0315789861113107,114.01623200000002,18.0929996,114.21812359999998
2358.181,-22.7596784,-157.229422,34.980065,-1.0628366,0.3849376,0.7384932,29.176600200000003,50.642898,-91.198204,-19.503090400000005,-32.8887364,-3.482068999999998,-0.9870834,0.1669516,-0.2658893999999999,143.5714936,72.393959,23.5620208,162.67359666131972,1.3502484218245028,38.394847592613495,1.0358106237775706,114.3948934,21.751061,114.7602248
2378.165,-22.804136,-169.3236786,40.1214548,-1.0359064,0.3780366,0.750737,27.6424396,47.30233320000001,-92.581453,-19.6492202,-33.0985024,-6.6551025999999975,-0.987918,0.1574399999999999,-0.2368661999999999,142.2885864,73.02179579999999,22.6232738,175.5000509646964,1.334023906708392,39.06268175903212,1.0280442232834344,114.6461468,25.7194626,115.2047268
2398.15,-22.7588784,-180.2634612,44.8017416,-0.9936488,0.359363,0.7849501999999999,26.2949846,43.7167932,-93.794249,-21.84074160000001,-31.242264,-9.241780199999996,-0.9886016,0.1562561999999999,-0.2108889999999999,141.0687376,73.6489,21.8010994,187.13652246481192,1.316292718201571,39.22381361811698,1.0228505726067714,114.773753,29.932106800000003,115.5953484
2418.135,-21.5149034,-190.1584748,48.2983878,-0.9413662,0.354419,0.8032644,25.1359658,39.9205922,-94.8525268,-25.4806498,-28.9151098,-11.2873098,-0.9881178,0.162338,-0.1799821999999999,139.86148980000002,74.26350420000001,21.0747872,197.37241669152445,1.2872516639611695,40.15906437527488,1.017410440892799,114.725524,34.342912,115.927314
2438.119,-19.3120034,-198.962085,50.8235402,-0.8847797999999999,0.3620176,0.8268804,24.1574414,35.9413952,-95.793567,-25.5939742,-27.4956312,-11.771397999999998,-0.989409,0.1672007999999999,-0.160566,138.6436432,74.8583742,20.3445946,206.25687135542864,1.2639712152980225,39.36530275904255,1.0162025965119554,114.4862018,38.916979000000005,116.1381616
2458.104,-16.9029356,-205.747873,52.1724866,-0.8039184,0.3535914,0.8298951999999999,23.3279686,31.8091572,-96.6487488,-22.222280800000004,-27.8748846,-10.085795199999998,-1.0038578,0.1612572,-0.1320983999999999,137.2756316,75.44018880000002,19.3929524,212.93159660780512,1.2083202038348777,37.04810683737712,1.0252728195242669,113.947663,43.63103160000001,116.0417012
2478.088,-14.9023414,-210.3719972,53.4975996,-0.7119949999999999,0.3383531999999999,0.8490412,22.6264172,27.5756836,-97.4201828,-18.884348600000003,-28.113217,-7.916320999999998,-1.0137524,0.1500712,-0.0968071999999999,135.72607720000002,76.0015748,18.187584800000003,217.5786068253974,1.1585727112584174,34.779875363641715,1.0293623888344865,113.09966,48.4258912,115.6077676
2498.073,-13.3240796,-213.139319,54.6467086,-0.620406,0.3377739999999999,0.865536,22.0439668,23.276251,-98.1071472,-14.667769000000003,-28.918566200000004,-6.5787907999999975,-1.0213744,0.1253384,-0.0602913999999999,134.0796386,76.54820260000001,16.7944704,220.4363018238697,1.1172051947641488,33.08636285376966,1.0308008694233235,112.0356718,53.2719516,114.9016176
2518.058,-11.254637799999998,-214.4976838,55.5691826,-0.543714,0.3412662,0.8710014000000001,21.5823964,18.9353906,-98.7184862,-7.956419000000006,-30.7790792,-6.197671199999999,-1.0245028,0.117321,-0.0320985999999999,132.31181320000002,77.0964066,15.140441,221.86450207819664,1.0820032217421538,32.38931070595272,1.031697884252362,110.7294168,58.161016,113.8589272
2538.042,-9.0331854,-214.946753,55.8943758,-0.4658408,0.3278966,0.8671568000000001,21.2288158,14.5630256,-99.2761324,-3.2114800000000043,-33.0910978,-4.844564399999998,-1.019789,0.1296396,-0.0104135999999999,130.204466,77.6383652,13.0462302,222.27884809352733,1.0375378292006707,33.5976808965338,1.0280488672597816,108.9756502,63.07533959999999,112.3223626
2558.027,-7.6378384,-214.4663758,54.786558,-0.3806456,0.3177746,0.8602352,20.955371,10.202009,-99.8139498,-3.652233400000005,-34.28217479999999,-4.307398599999997,-1.005203,0.1679494,0.0068636,127.7505766,78.1524292,10.6116684,221.48528136582507,0.9929130719874524,34.74420815798098,1.0191600370767686,106.7952056,67.9504202,110.4256182
2578.012,-5.005104399999999,-212.8928436,52.0310716,-0.3087224,0.332884,0.838684,20.7819484,5.8721996,-100.3656328,-5.620128800000004,-37.5359998,-4.816683199999998,-1.0146292,0.1877872,0.0097146,124.7947706,78.6765656,7.7078278,219.21598102782855,0.953683453549321,38.25882337139175,1.0319064005178182,104.0128222,72.804366,108.0734606
2597.996,-0.4720601999999985,-210.2031372,48.5323822,-0.2434768,0.3159536,0.7990134,20.7420772,1.6130825999999998,-100.9505876,-6.546538800000005,-38.418867,-4.235880799999998,-1.0331706,0.1910918,-0.0076253999999999,121.4561324,79.1762086,4.436720199999999,215.73357145229232,0.8930453755945215,39.202158078037016,1.0507215194602042,100.7140552,77.563126,105.3873078
2617.981,4.631460600000001,-206.2672454,44.7508598,-0.1684159999999999,0.3021787999999999,0.8045904,20.8444092,-2.54802,-101.5793412,-3.779868800000004,-36.405714,-3.4043109999999985,-1.0401336,0.1923619999999999,-0.0143859999999999,118.0506332,79.6212098,1.0451245999999998,211.11671275631505,0.8758091618598198,36.759390002824176,1.0578695580689332,97.206224,82.1692298,102.6244658
2637.965,5.167353600000001,-201.1279142,39.8947974,-0.1168718,0.3145576,0.8179462000000001,21.0075898,-6.5766808,-102.2749252,2.933374799999996,-33.6968012,-1.981361799999998,-1.0346714,0.1804946,-0.0130559999999999,114.7922746,79.98384560000001,-2.3304736,205.1115166763121,0.8841049074897391,33.88222090436363,1.050377868075637,93.7846848,86.5605264,99.9444516
2657.95,2.5729700000000006,-195.610986,34.8730274,-0.0832424,0.2941696,0.7695952,21.179949,-10.4642372,-103.0434402,14.359836399999995,-37.5418946,-1.603806599999998,-0.9966194000000002,0.1550978,-0.0213791999999999,111.1216508,80.3205262,-6.3550752,198.71186692936644,0.8280952980092087,40.22649558689493,1.008842220673699,89.94170179999999,90.7847634,96.688365
2677.938,2.495144600000001,-189.8683316,30.64393040000001,-0.0350671999999999,0.2548524,0.7421986,21.4156872,-14.2062646,-103.874791,18.8471628,-29.9740448,4.410349600000002,-1.0300724,0.1519362,-0.0692935999999999,108.087842,80.45405280000001,-9.821805,192.3415180388845,0.7855178012900536,35.68066830759103,1.0435206567735782,86.6721548,94.6603174,94.052986
2697.919,0.582858800000001,-183.8027402,25.128189,0.0136572,0.2480192,0.7380744,21.6945968,-17.7918706,-104.7996782,24.2328894,-16.048144399999998,4.562512400000002,-1.0064044,0.1534309999999999,-0.0925937999999999,106.7146974,80.47967220000001,-11.7106928,185.5133766385302,0.778751476798497,29.42095149304382,1.0222350511985,85.0201006,98.2715428,93.0889854
2717.904,-3.595521199999999,-177.2112364,18.635849800000003,0.0569296,0.241657,0.685747,21.982268,-21.2067694,-105.8372926,26.9436694,0.9358446,1.2145726000000017,-1.0044196,0.1571566,-0.1365373999999999,107.4602678,80.4328948,-11.5028668,178.22470361003406,0.7293065425554333,26.987262040683493,1.02576770829778,85.4779998,101.6396642,94.3344258
2737.888,-5.1343336,-168.8100188,12.307101,0.1218724,0.2180646,0.6327632,22.3332426,-24.4128874,-106.9760026,26.3611212,23.5650156,-4.017867199999998,-1.0049518000000002,0.1542311999999999,-0.1905785999999999,110.735579,80.2544754,-8.7083596,169.33590453237213,0.6802898786026145,35.58597937371077,1.0344252443529405,88.4023364,104.6673628,98.267643
2757.873,-6.456738799999999,-159.257791,6.1512342,0.2040732,0.2118774,0.6430588,22.7505594,-27.3913882,-108.2090058,21.941782999999997,57.864454,-8.870456399999998,-1.0491784,0.140456,-0.2384034,117.3644684,79.7820206,-2.4071048,159.50727617357884,0.7071509908403156,62.51737258299893,1.085052710283754,94.613909,107.1734088,105.801901
2777.857,-9.4284008,-148.2934082,-0.3922598,0.2608622,0.215451,0.613702,23.2031024,-30.1211494,-109.5368926,25.8835734,88.45577180000001,-17.497072599999996,-0.9874394,0.1011164,-0.2487701999999999,126.261618,78.983139,6.1368594000000005,148.59334953142405,0.7007841076921194,93.8111426551054,1.023302353866813,103.0585156,109.1042884,115.673752
2797.842,-12.9742462,-135.81394659999998,-5.6568076000000005,0.3243654,0.2143228,0.557261,23.6622592,-32.589171799999995,-110.91953560000002,31.98268059999999,110.5588938,-18.9609492,-0.966794,0.0794747999999999,-0.2784855999999999,135.6616578,77.72558599999999,15.0914694,136.54947318737368,0.6794755311547283,116.6433815147961,1.009237886565105,111.9993986,110.3147578,126.011005
2817.826,-16.586008399999997,-121.2978364,-9.2745012,0.4073072,0.2145144,0.492322,24.087902000000003,-34.7541508,-112.2948744,38.21983339999999,126.1126834,-18.4983356,-0.923104,0.0590467999999999,-0.2943262,144.6086228,75.99783959999999,23.4881574,122.77734792083938,0.6740152332575281,133.0689783512394,0.9706881226288286,120.52072079999998,110.7519904,135.78303179999995
2837.811,-19.0727794,-103.9553964,-10.188874,0.5032272,0.2108726,0.4104528,24.433253,-36.5889106,-113.56035,41.15659939999999,132.5324678,-20.181382,-0.8997428,0.0327065999999999,-0.2828642,152.4153566,73.9538972,30.694811400000003,106.1805467499112,0.682771095813553,140.2355478285019,0.9437261167717252,127.9821036,110.5428078,144.2551614
2857.796,-20.1907756,-82.7297084,-7.978509000000001,0.6000734000000001,0.2257588,0.3267294,24.6435034,-38.0476256,-114.5920044,40.81940139999999,125.768509,-19.9870922,-0.8686550000000001,0.0005809999999999,-0.2674317999999999,158.4975252,71.8539796,36.1707684,85.53086388632859,0.7195882308580096,133.72892447540548,0.9088903202462,133.8540218,109.9016052,150.7627728
2877.781,-17.818603,-59.39801,-1.8641768,0.6954866,0.2281429999999999,0.2472627999999999,24.6891356,-39.1227628,-115.2565614,35.9251736,103.5962518,-19.9607518,-0.8729544,0.0030055999999999,-0.2416571999999999,162.824701,70.0550294,39.9616606,62.04112635964444,0.7725863909572831,111.45058590074952,0.9057906051745956,138.1355654,109.1777922,155.21822200000005
2897.765,-9.342465,-34.306213,5.3823878,0.7627022,0.2488852,0.1816544,24.643608,-39.7888602,-115.4934954,25.531267,72.3083858,-22.8617752,-0.862859,0.0283341999999999,-0.2137851999999999,165.9315522,68.8126802,42.7153006,35.96064517089735,0.8225915205636635,80.01880414578979,0.8894001307115262,141.28794420000003,108.6015404,158.20879599999998
2917.75,3.012766200000001,-9.4628994,11.4694618,0.7750408,0.2672092,0.1668644,24.5905056,-40.0545478,-115.3228502,11.139293199999994,35.2121578,-23.9936936,-0.8613508,0.0712584,-0.192762,167.9636628,68.2568436,44.651105400000006,15.1714132239565,0.8366198217928141,44.04176702288803,0.8855281750882915,143.3731572,108.3113914,159.9739556
2937.734,14.8262384,13.165569,15.017348000000002,0.7659646,0.2836072,0.1913349999999999,24.565912,-39.9395638,-114.8237016,-3.097027600000005,-0.733683400000001,-21.6383858,-0.8577543999999999,0.1183641999999999,-0.1970279999999999,169.00316460000002,68.3711808,45.8415488,24.87308370790601,0.838894447812119,21.87120507233744,0.8880161751595519,144.4372526,108.3107446,160.66525040000002
2957.719,29.8008374,33.2144582,16.418075,0.7226152,0.2952394,0.2327088,24.6849566,-39.4729554,-114.0756486,-16.758801200000004,-30.6095912,-18.8005268,-0.8673987999999999,0.1553669999999999,-0.2075159999999999,169.251245,69.0548416,46.4809234,47.54832625830704,0.8145504380827746,39.63917631648969,0.9053079438436624,144.5662884,108.527797,160.55657200000002
2977.703,38.4155412,51.3468392,13.664467399999998,0.671445,0.3175552,0.3252,24.9056448,-38.6633714,-113.20187839999998,-27.9494588,-53.9142032,-14.986408799999998,-0.8605558,0.1627402,-0.2423567999999999,168.78942260000002,70.168515,46.6031028,65.56652629844909,0.8108234907006826,62.5500279985909,0.908722991959552,143.88377780000002,108.8318864,159.8049812
2997.688,40.253455200000005,67.36095359999999,8.8871978,0.622246,0.3020858,0.4042358,25.1381938,-37.532583,-112.2716918,-37.0909488,-68.48875480000001,-8.085885599999997,-0.8853311999999999,0.1547056,-0.2707015999999999,167.4679718,71.528932,46.0134354,78.97354626820352,0.8011569740564454,78.30599953308197,0.938629060176255,142.32977799999998,109.061515,158.28512719999998
3017.673,42.1584798,82.3881006,4.0164938,0.587857,0.3027334,0.4535674,25.4135046,-36.0978738,-111.3074614,-43.45490540000001,-75.5677984,2.602831400000002,-0.917077,0.1364215999999999,-0.2812994,165.0006896,72.9571608,44.3638404,92.63513783639644,0.8018396038281721,87.2100664467286,0.9689016613237484,139.587185,109.0550346,155.67130179999998
3037.657,43.7139944,97.619362,-1.1720106,0.5431565999999999,0.3285926,0.4646258,25.7215382,-34.3474152,-110.3068036,-48.9090936,-79.05731940000001,15.069109000000005,-0.9387636,0.1139337999999999,-0.2920931999999999,161.2120818,74.3281676,41.456429400000005,106.96647490002084,0.7866824791006597,94.17662785182458,0.9897355429374252,135.4905436,108.6755828,151.763233
3057.642,39.9050562,110.44213880000002,-6.4871218,0.4977644,0.3180594,0.5503486000000001,25.9717734,-32.3215672,-109.2959348,-51.9419618,-82.339079,23.3763028,-0.9640056,0.1077337999999999,-0.2633674,156.1267426,75.641606,37.27921,117.60936307238325,0.8073504575818856,100.12064152210668,1.005124746425318,130.1549692,107.9631732,146.57514480000003
3077.626,35.1037844,121.05726180000002,-11.8580088,0.4581503999999999,0.3179596,0.5852314000000001,26.1614898,-30.057509,-108.3010084,-50.13476340000001,-80.87610140000001,27.836201800000005,-0.9912028,0.1131932,-0.2197817999999999,150.0287598,76.81662739999999,32.03393139999999,126.6007452048222,0.8083909251088115,99.14278798524576,1.02156729140342,123.86727,106.8741364,140.3349398
3097.611,34.2301336,129.3052476,-15.4288238,0.4047214,0.3299304,0.5937258000000001,26.369426600000004,-27.60649,-107.310562,-44.041949200000005,-75.6980512,32.4223896,-1.0008658,0.0947751999999999,-0.1889079999999999,143.2080596,77.7449616,25.9326068,134.6461945508398,0.7906730082959453,93.38682772311836,1.0229373981865555,116.838633,105.3514516,133.2431688
3117.596,31.841699800000004,136.66296400000002,-19.0626998,0.3739139999999999,0.348555,0.5895768,26.563786600000004,-24.9882154,-106.3263778,-33.194793600000004,-70.7986684,32.71508440000001,-1.0077856,0.0841423999999999,-0.1518529999999999,136.0708222,78.4444474,19.2987846,141.6123091368951,0.7803224144667639,84.76215261930813,1.0226294992098164,109.5070356,103.4326628,125.6251624
3137.58,26.304096,142.4593446,-22.5799988,0.3290442,0.3396061999999999,0.6705572,26.7015216,-22.2332818,-105.36671900000002,-22.147247400000005,-63.5119648,27.252332000000003,-1.0121356,0.1071396,-0.1070945999999999,129.3919892,78.9722978,12.9228986,146.61659754627635,0.8205177725704178,72.57382337724442,1.0234093120666237,102.6904676,101.2055796,118.2896176
3157.565,17.5042826,146.10539260000002,-26.5708862,0.2858576,0.3520417999999999,0.7123222,26.7228436,-19.376556,-104.4635726,-15.151351600000003,-53.0229618,20.828898400000003,-0.9997258,0.1478126,-0.0810325999999999,123.52669520000002,79.3338274,7.2442842,149.52992225502612,0.8444234204697546,58.94778148419672,1.0138375225681675,96.8038516,98.7103834,111.7078568
3177.549,15.331601600000004,149.1741456,-30.2924266,0.2257706,0.3485821999999999,0.6763766,26.7690158,-16.4238782,-103.6182494,-14.817531200000005,-39.8209922,16.5307692,-1.0044049999999998,0.1582532,-0.0542821999999999,118.7534012,79.53618180000001,2.6767052,152.98893696090417,0.7937047429672824,45.590974775706464,1.0182436037471974,91.9843854,95.96006,106.2949546
3197.534,16.9173824,153.1138002,-33.5739168,0.1819868,0.363464,0.6680718,26.9092234,-13.3754696,-102.8081176,-11.372079800000003,-29.3085956,13.438418800000004,-1.0037848,0.1381754,-0.0401851999999999,115.1017624,79.6172014,-0.8136683999999998,157.6617947641301,0.7820135578271518,34.18931229004323,1.014046949689826,88.192539,92.992671,101.9944492
3217.518,10.531839,156.3871706,-37.647198200000005,0.0931112,0.3893707999999999,0.7987346,26.9754728,-10.229697,-102.04496,-7.067860800000005,-15.1909816,9.268556400000003,-0.9956932,0.1397196,-0.0285493999999999,113.07649840000002,79.5967072,-2.7325256,161.19918825262585,0.8934518882935107,19.14749894894099,1.005853659033341,86.1010256,89.8264042,99.3124344
3237.503,-1.1023422000000012,156.0061158,-43.5462754,0.0378236,0.347246,0.8121056,26.858966200000005,-7.041197799999999,-101.4003052,0.5461735999999959,-1.2072052,8.038808800000002,-0.986309,0.1703954,-0.0191693999999999,112.5775666,79.4596848,-3.2484502,161.97345901888232,0.8840395436768199,8.147275429197263,1.0011031423976853,85.7186004,86.5008826,98.151855
3257.488,8.273475999999999,156.6321382,-46.4550126,-0.0289439999999999,0.344594,0.7313661999999999,26.975819,-3.8196209999999993,-100.8095476,6.797635399999995,9.0591548,11.693320000000003,-0.9629114,0.1872657999999999,-0.0227993999999999,113.0338792,79.16670380000001,-2.9174706,163.5852845395717,0.808998948376597,16.27912360491486,0.9812169264438726,86.0580602,82.9863248,97.892077
3277.472,13.331358999999996,157.4139864,-49.422215400000006,-0.1062028,0.3963906,0.8049723999999999,27.2189522,-0.5637039999999999,-100.2538454,7.159924399999997,9.7387034,14.170135800000002,-0.9901248,0.168903,-0.0104759999999999,113.4944184,78.82225500000001,-2.5906718,165.527772963241,0.9035403185569308,18.62524120427246,1.004482498384138,86.27546620000001,79.385959,97.6631736
3297.457,4.203876199999999,157.7698976,-55.0556002,-0.1798582,0.399961,0.8921557999999999,27.3038186,2.7520892,-99.7852418,4.044156399999998,15.9616328,9.301577400000005,-0.9863452,0.2168444,-0.0252435999999999,114.650264,78.50939639999999,-1.4905208,167.1530205446544,0.9941125414669508,18.91159075164984,1.0102156139732543,87.34644540000001,75.7573072,98.294721
3317.441,-0.8468264000000012,155.461078,-58.451312400000006,-0.2291884,0.3423318,0.8359406,27.3116666,6.0541668,-99.3966476,-0.0045500000000029,20.1717332,6.779856800000003,-0.9593986,0.2186678,-0.0381585999999999,116.135916,78.2075974,0.0308845999999999,166.08859024374976,0.9319415597097064,21.28063202122974,0.9847422805956696,88.82424940000001,72.15343060000001,99.4275322
3337.426,9.1377744,154.9730104,-58.09930440000001,-0.3137154,0.3854236,0.8437069999999999,27.5406394,9.3498322,-98.997116,-5.751656600000003,19.6913876,6.617361200000003,-0.9653224,0.1836758,-0.0650027999999999,117.439401,77.9127074,1.4823635999999998,165.75784157978066,0.9791885443994532,21.555086836035315,0.984789063431982,89.8987616,68.56287520000001,100.4794796
3357.411,8.173907599999998,154.8082918,-59.501336,-0.3797074,0.4213844,0.8584892,27.7776206,12.6541468,-98.6053266,-4.309299800000003,20.3816414,5.118798800000003,-1.0068964,0.1247253999999999,-0.0719635999999999,118.8403898,77.6373306,3.0040086,166.0506819054718,1.0289539487726165,21.45188737802237,1.0171408680527392,91.0627692,64.9831838,101.6093352
3377.395,0.2133819999999989,154.9399874,-60.537635,-0.4274796,0.3954598,0.8672042,27.8807968,15.9743354,-98.2147626,3.422953599999996,27.654621400000003,3.0319240000000027,-0.9527462,0.1349866,-0.1072479999999999,121.0115964,77.3174544,5.1578664000000005,166.34677778298956,1.0445910139044086,28.030113436567948,0.9682194158856762,93.1307996,61.343119,103.372629
3397.38,-2.071842400000001,153.4450044,-59.5256682,-0.4753062,0.3616146,0.8431431999999999,27.9678344,19.2537738,-97.8088072,8.764101599999996,27.4583868,4.448336600000003,-0.9552054,0.1352104,-0.0895749999999999,123.0701368,76.9669554,7.091740400000001,164.59941397496817,1.0332335449441428,29.16436491714565,0.9688771279591236,95.1023024,57.7131816,104.9005476
3417.365,2.261887999999999,153.9483308,-58.4947212,-0.5227272000000001,0.3893508,0.8115938,28.1764534,22.5407992,-97.3615508,7.570972199999997,26.4580938,5.013493400000003,-1.0019206,0.1574914,-0.1182807999999999,124.908885,76.5895888,8.826916800000001,164.70226805267893,1.0409237567079157,27.97294163391857,1.0210968501699338,96.7324316,54.048789600000006,106.1884676
3437.349,4.250948999999999,155.28896500000002,-57.587577,-0.5704346,0.417225,0.8071132000000001,28.4775348,25.8425014,-96.8528504,7.930309199999996,24.169761,1.902437800000003,-1.0329876,0.1511446,-0.1046257999999999,126.6321822,76.2916016,10.4394774,165.67758521569164,1.0728019626736336,25.50855582716502,1.0492161978775203,98.1546474,50.4491002,107.2923278
3457.334,-0.0708970000000005,155.3607758,-57.848837200000006,-0.6307384,0.4130149999999999,0.8099088,28.7281842,29.1451232,-96.3170808,10.501489599999996,24.362998,-2.1585051999999973,-0.994386,0.1642696,-0.1340903999999999,128.55211319999998,76.0373596,12.2027796,165.7813730458117,1.1065100920357662,26.61759004991509,1.0167439470448398,99.823929,46.8922364,108.5198604
3477.318,0.1709461999999995,153.388037,-57.2546288,-0.6698712,0.3819988,0.7501916,29.0204776,32.4076198,-95.7564408,14.267397199999996,22.6730982,-2.9679945999999973,-0.966716,0.1817445999999999,-0.1346447999999999,130.3616638,75.80420840000001,13.7789198,163.72541536469666,1.0758428995450218,26.95249518681044,0.9928243280924374,101.3411862,43.39658860000001,109.53536060000002
3497.303,5.6705278,152.2897308,-56.273152200000006,-0.7171058,0.4083398,0.6901132,29.4786854,35.6406744,-95.1421418,19.029412399999995,20.80489,-1.2211233999999973,-0.9665012,0.1840116,-0.147943,132.019162,75.55917360000001,15.1000898,162.4530229056739,1.075750133382246,28.22150113936892,0.9949230974226098,102.5404766,39.9184992,110.2422316
3517.288,10.3399934,152.678482,-55.19726340000001,-0.7618786,0.4118139999999999,0.7130738,30.124012,38.8552388,-94.4163056,23.4419998,16.3675836,-1.7299603999999973,-1.0058268,0.1586894,-0.1174733999999999,133.4876496,75.38328700000001,16.1360174,162.67873928754597,1.1218395678439943,28.642938231120024,1.025021890975095,103.3636376,36.5280482,110.552323
3537.272,10.3658018,150.7614654,-54.5092782,-0.8186626,0.3881834,0.7293407999999999,30.8464782,42.01499080000001,-93.6094756,31.3260478,17.266870400000002,-3.9903315999999975,-0.9765684,0.148921,-0.1638334,135.2582856,75.2055434,17.3223992,160.64784687756406,1.163113411159445,35.99151053312766,1.001351430355557,104.4118074,33.190552600000004,110.9318748
3557.257,11.413210199999998,148.4119384,-52.696946,-0.8221784,0.3581312,0.6353894,31.695140400000003,45.1077896,-92.6871322,35.8325366,16.574195,-6.558975999999999,-0.9749652,0.142959,-0.1483189999999999,137.1527376,75.0670242,18.547139,157.9029225329338,1.0990700466632506,40.02117920872573,0.9964903123729,105.4575972,29.9592346,111.2342712
3577.241,17.728393,147.48022759999998,-49.5063514,-0.8655424,0.3826866,0.5663370000000001,32.85118,48.13263860000001,-91.5609206,40.6979936,17.2230364,-6.716970399999998,-1.0073054,0.1234224,-0.1741213999999999,139.17752380000002,74.908812,19.803941,156.57455821508972,1.1028827125249177,44.69985858205641,1.0296676743633746,106.3263438,26.7761734,111.3648616
3597.226,21.7926142,145.9775268,-47.4624268,-0.9319238,0.3968104,0.6058898,34.2686638,51.0892908,-90.2376402,47.1939224,16.59724,-9.589599799999998,-1.0107908,0.1316242,-0.1893465999999999,141.426593,74.78945919999998,21.159172,155.03882843358986,1.180272389026635,50.93814986274023,1.0367618368371012,107.1579292,23.700168399999995,111.3968122
3617.211,20.9480352,141.340338,-46.4373428,-0.9683362,0.3815648,0.5669868,35.812120799999995,53.929934200000005,-88.7936492,55.71560579999999,16.6748196,-10.6311346,-0.9637692,0.1730071999999999,-0.2223052,143.8603608,74.66522519999998,22.5327888,150.24093360672182,1.1852175851731697,59.12105683457336,1.0040927069088392,108.04824,20.735291,111.326438
3637.195,20.8029566,136.3127288,-43.7827598,-1.0044722,0.3852642,0.486826,37.5632996,56.628364,-87.15164639999999,53.9618522,14.6448656,-11.458421599999998,-0.9562214,0.1720506,-0.2291427999999999,146.2040254,74.5577088,23.8499302,144.6749912455789,1.1808439603311185,57.075818056862346,0.9982320359366154,108.6407258,17.929344799999992,111.0015766
3657.179,21.8346336,128.9142928,-41.1469986,-1.0792808,0.4162898,0.4967376,39.5115058,59.15447400000001,-85.36114339999999,51.5605094,12.2242982,-9.678134999999996,-0.947054,0.1766866,-0.3075886,148.27911079999998,74.446112,24.9385006,137.07195776802337,1.2589251312474623,53.86637070703981,1.0113061753917651,108.767605,15.291637999999995,110.299644
3677.164,20.9854958,116.4300888,-39.149094000000005,-1.1359888,0.4219047999999999,0.5036811999999999,41.490055,61.43584599999999,-83.5708832,51.9017196,9.9156104,-7.852399199999996,-0.9218434,0.2345107999999999,-0.375068,150.10329919999998,74.3496032,25.760202000000003,124.6154411498372,1.3123143545743603,53.42067015901029,1.0224805983803311,108.6132442,12.9137572,109.3310852
3697.149,17.8846196,98.470227,-35.0900318,-1.1626802,0.4348866,0.464384,43.3016426,63.35974280000001,-81.93723460000001,42.8768054,12.0869752,-6.102395599999997,-0.8874454,0.2568894,-0.4474836,151.7074618,74.1941406,26.539255200000003,106.05449332957676,1.3253694208738935,44.96392601690586,1.0265442387361978,108.4058192,10.8343978,108.4764898
3717.133,13.542235999999995,76.142675,-28.843208999999995,-1.1962256,0.4562412,0.4335779999999999,44.786447200000005,64.8468116,-80.5966812,28.967801,16.252567199999998,-4.688121199999997,-0.8659623999999999,0.2310446,-0.5115291999999999,153.09849860000003,73.9501908,27.3835988,82.54107957528178,1.3517032221448613,33.54486422318633,1.0319566889436589,108.3120514,9.103379200000004,107.98028
3737.118,9.3165934,50.7096288,-22.490890200000003,-1.1917546,0.4784738,0.41719,45.7699364,65.8522536,-79.7362884,18.1718662,18.8767224,-0.4084597999999974,-0.8747372,0.2470599999999999,-0.5369561999999999,154.0497924,73.6150818,27.997136,56.25038228850689,1.3502828222293284,26.20523247684668,1.0557110274039387,108.279856,7.762828200000003,107.7334244
3757.102,3.719364999999999,24.604139600000003,-15.230435,-1.1845858,0.4943032,0.4713363999999999,46.1210068,66.3613006,-79.4468444,4.869658999999997,21.3881422,1.5523344000000026,-0.899017,0.2756714,-0.5285422,154.66260979999998,73.2135422,28.5366208,29.174706712300267,1.3673833306929115,21.990360334317515,1.078695111812323,108.541603,6.852241600000002,107.9834652
3777.087,-5.2873576,-1.6617921999999994,-7.527858200000002,-1.1668546000000002,0.508238,0.5173418,45.7170318,66.3679688,-79.78092180000002,-13.711287400000003,22.6044514,-0.7550693999999973,-0.9145626,0.2482694,-0.5088071999999999,155.05595680000002,72.8088394,29.236175600000003,9.348066794025696,1.3738624604422385,26.44864372816075,1.0756148060839252,109.338925,6.440870599999999,109.01709739999998
3797.072,-12.1331718,-27.076086600000004,0.5152376000000001,-1.1468114,0.5074236,0.534772,44.6670218,65.90063319999999,-80.6667692,-27.140512,21.0396494,-1.7343097999999972,-0.9228414,0.2100206,-0.4841124,155.1896788,72.4312194,29.9449384,29.674800644376177,1.3633180806366942,34.38432882839856,1.0630661869385556,110.522657,6.530586199999999,110.6117076
3817.056,-15.3403686,-51.30042960000001,7.1514252,-1.139265,0.5111574,0.5527624,43.111904800000005,64.97830200000001,-82.029228,-30.8235428,16.560081200000003,0.2988852000000028,-0.9195134,0.2162866,-0.4597199999999999,155.0077118,72.1005004,30.3998602,54.02040233392952,1.3655595551470907,34.99166204193228,1.0505366554857187,111.895807,7.122198399999999,112.4290882
3837.041,-19.1463678,-74.223551,13.1475584,-1.1361926,0.512609,0.5823345999999999,41.1578712,63.6192102,-83.747972,-32.138480599999994,10.6839582,3.345790400000003,-0.9172352,0.2329793999999999,-0.4331372,154.466272,71.8390486,30.5050874,77.77259938348395,1.37579620494204,34.03267858245447,1.0407726202044518,113.3084008,8.2198384,114.2530594
3857.025,-24.1077834,-95.935443,20.1789276,-1.128492,0.4696584,0.620404,38.930384,61.81961,-85.6699646,-38.08482239999999,4.0041944,4.857037200000002,-0.9281282,0.1872662,-0.4007727999999999,153.5768158,71.6868438,30.3656018,100.95535430651316,1.3707568456770731,38.6015295084886,1.0281582672514575,114.6464318,9.867233799999998,116.0355664
3877.01,-26.608179,-115.9199476,27.887451200000005,-1.1267855999999998,0.4542819999999999,0.658878,36.6631218,59.5901796,-87.5996002,-39.5559122,-3.8895102,5.898657400000003,-0.9464908,0.1387102,-0.3713775999999999,152.4195192,71.6690384,29.9709676,122.16030196309752,1.382077473506952,40.181993961133735,1.0261611354219375,115.7563974,12.0788588,117.5705678
3896.995,-30.316872,-134.1654966,34.5544758,-1.1374537999999998,0.446644,0.6841462,34.4306676,56.9623162,-89.4511672,-37.6524988,-11.2675156,5.611602600000003,-0.9605216,0.1521598,-0.3421563999999999,151.07202460000002,71.78606420000001,29.3385758,141.8220892653954,1.4004813575499246,39.70085209942693,1.0309342126748728,116.641357,14.823748,118.789743
3916.979,-34.7872058,-151.010385,40.0701936,-1.1285072,0.4346324,0.7147238,32.277973200000005,53.974572,-91.1714248,-41.8304008,-15.7104404,3.0282630000000026,-0.9745182,0.1881148,-0.3155835999999999,149.62763679999998,72.0188218,28.693267400000003,160.06219566269,1.4047291318499948,44.785831972262855,1.0414729514966965,117.3496636,18.0442498,119.8646922
3936.964,-38.1678046,-166.1618316,44.5135134,-1.099088,0.3968162,0.7507064,30.237059,50.6658378,-92.746292,-50.5342506,-16.2161668,-2.205314199999997,-0.986057,0.1828958,-0.2761983999999999,148.2461518,72.3279818,28.299088600000005,176.2043939970355,1.388890790281007,53.11815094776685,1.0402138419907707,118.0090928,21.662144,121.0453806
3956.949,-37.3111044,-179.5068664,48.0548502,-1.0534258,0.401487,0.7802507999999999,28.4141186,47.071134,-94.1431608,-52.893801800000006,-15.4614924,-4.732224199999997,-1.0112416,0.151743,-0.253366,146.9240296,72.646135,28.020872399999995,189.53654587978437,1.3710175192809464,55.31008915172717,1.0534846185756863,118.509911,25.575001000000004,122.1640332
3976.933,-37.5552894,-190.6616516,50.58463,-0.995656,0.402354,0.8123570000000001,26.7567984,43.244328,-95.3914748,-46.5798504,-14.6708056,-7.648747399999998,-1.0261054,0.1404432,-0.2205701999999999,145.84620360000002,72.9828948,27.870571,200.80107057731152,1.346530173111988,49.430945135900224,1.0588993330168075,119.0894052,29.738566800000008,123.2620458
3996.918,-38.23076,-199.9118164,52.101980000000005,-0.9000928,0.379388,0.8311902,25.2338666,39.2252318,-96.5005188,-41.844494000000005,-14.3905872,-9.0816876,-1.034317,0.14812,-0.1770663999999999,144.9158386,73.3388184,27.776341,210.097457543982,1.2825675232641285,45.17220082905895,1.0597658707931483,119.681972,34.113586600000005,124.27685979999998
4016.902,-36.6487552,-207.038025,53.992344,-0.8160432,0.3851044,0.8606688,23.911514,35.046442,-97.4459824,-37.098037,-15.7907898,-8.881373999999997,-1.045766,0.1347396,-0.1361459999999999,143.95867600000005,73.71492,27.5576704,217.078438045386,1.2469894492172096,41.28549619284028,1.0631636844250087,120.047162,38.668478,125.00365279999998
4036.887,-34.5898774,-212.9017396,55.48078,-0.7224498,0.3649658,0.8640549999999999,22.7686078,30.7403164,-98.2504486,-30.523826,-19.4184992,-9.234612399999998,-1.0369008,0.1143456,-0.1080783999999999,142.9946532,74.14870440000001,27.193429,222.71445236594244,1.183944589799151,37.3371146587,1.0487702922120552,120.2260454,43.408388,125.4438776
4056.871,-31.253521,-216.7887482,56.666027,-0.6276784000000001,0.368513,0.8524132,21.8163228,26.3478084,-98.9303834,-22.4555586,-24.0868372,-7.878452999999998,-1.0118282,0.1331834,-0.0701379999999999,141.86992479999998,74.6367446,26.4955222,226.24142533361388,1.1208881605806174,33.85997430611174,1.0229630801719094,120.053602,48.2889362,125.4259056
4076.856,-28.758793200000003,-219.1578614,56.9002272,-0.5392016,0.34983,0.8599646,20.989377,21.909223,-99.5266694,-22.1873732,-29.2597216,-6.195567999999997,-1.0016012,0.1562366,-0.0248109999999999,140.3392822,75.1762772,25.3725248,228.24301140484803,1.0736193494883184,37.23970865176322,1.014016974582773,119.3499052,53.2670542,124.8991942
4096.84,-25.7082092,-220.5352144,56.8690024,-0.4573335999999999,0.3447666,0.8478897999999999,20.29551,17.4381148,-100.0501846,-19.8004882,-34.4658304,-4.5575221999999975,-1.0034649999999998,0.1459036,-0.0123185999999999,138.349472,75.7618896,23.7296022,229.19593418011613,1.0231984866625634,40.00904656103912,1.014091521818381,118.053962,58.3237748,123.77978679999998
4116.825,-22.1889362,-220.26618360000003,56.481909,-0.3695974,0.299855,0.8300286,19.721516,12.967981600000002,-100.5165894,-17.2372836,-39.0964266,-4.931055399999997,-0.9903952,0.1182736,0.0076604,135.99224239999998,76.40870520000001,21.6595948,228.47263856243455,0.9567981688578422,43.011275569946605,0.9974617678729144,116.27072640000002,63.4407236,122.1761842
4136.81,-16.9399142,-218.4541962,56.1441452,-0.3013186,0.3163892,0.8398818,19.3172832,8.532341599999999,-100.9246232,-10.5210672,-44.4185724,-2.851929199999997,-1.015969,0.114183,0.006387,133.0965652,77.0925706,18.90195,226.1887741925539,0.9467293502125304,45.73659289062501,1.0223852308298471,113.779282,68.56022899999999,119.8265732
4156.794,-15.8508556,-216.87004399999995,54.0023238,-0.2551424,0.2774888,0.8500736,18.9621502,4.1286572,-101.330278,-2.2642700000000007,-45.518163400000006,-2.3252549999999976,-1.0268776,0.122529,0.0018232,130.051535,77.76551979999999,15.8264866,224.0538251929969,0.9299047283567063,45.63372578211235,1.034163567952865,111.0893848,73.6368626,117.1567646
4176.779,-12.3812504,-214.9065246,51.45068739999999,-0.1968724,0.2600876,0.8105781999999999,18.7072174,-0.2351859999999998,-101.7455978,7.3182766,-44.0109246,0.0578990000000027,-1.0217928,0.1222362,-0.0294453999999999,126.9220336,78.3581208,12.4733176,221.3261911998904,0.8737512917705815,44.6152665444822,1.02949951253191,108.2148162,78.59330680000001,114.2189154
4196.764,-8.853858800000001,-211.2000578,48.9897194,-0.1466312,0.2478326,0.8089446,18.5531108,-4.5236858,-102.168486,14.522031800000002,-39.9834786,-0.4736505999999972,-1.025954,0.1206496,-0.0360493999999999,124.0273346,78.875586,9.2175142,216.9881283325529,0.8586693614572258,42.5416538635694,1.0336525022155754,105.4742238,83.3992718,111.38600019999998
4216.748,-8.869550799999999,-207.4660428,46.5531404,-0.103864,0.236402,0.8226582,18.4338092,-8.7362904,-102.6073684,22.0747768,-32.4763848,0.4163176000000027,-1.0325828,0.1056667999999999,-0.0486237999999999,121.6967438,79.2720214,6.3859608,212.80982761044496,0.8622297548375607,39.27065903179573,1.0391135575116517,103.2629346,88.0083118,108.9933292
4236.733,-12.7215272,-203.6836972,43.1383676,-0.0569956,0.2041214,0.7727722,18.2726658,-12.8724376,-103.0831054,28.707396200000005,-22.9759156,0.3673792000000027,-0.9842514,0.1151252,-0.0682317999999999,120.237378,79.5321868,4.3094224,208.5900393560401,0.8013057577792388,36.77148707516044,0.9933077109376732,101.9647122,92.4046244,107.3925278
4256.717,-14.7754076,-198.8406674,40.1266978,-0.0165648,0.2082346,0.7788158,18.1109456,-16.8991906,-103.5834808,37.4122824,-30.6121628,-5.520091799999998,-0.9087356,0.153527,-0.0592151999999999,118.2704468,79.9398788,1.5425107999999998,203.38651764105725,0.8063436559965236,48.65444274833986,0.9235136005210752,100.1595012,96.8390694,105.1259916
4276.702,-20.505985000000003,-193.6069028,35.3000166,0.0257921999999999,0.194254,0.7259712,17.8883622,-20.795807,-104.1443146,33.180620600000005,-20.0359264,-9.400492399999996,-1.0224572,0.1537682,-0.1302629999999999,117.4777084,80.3018828,0.0564027999999998,197.86414380728291,0.7519534808259618,39.88434765004712,1.0421285114284515,99.5893462,101.0976898,104.2007174
4296.687,-25.382627000000003,-187.33540320000003,29.5117924,0.0886524,0.1481448,0.6744855999999999,17.6323908,-24.5397766,-104.7806534,29.8926564,-0.9520961999999996,-17.7913026,-0.9764854,0.1453436,-0.1628479999999999,119.2027328,80.604106,1.1930649999999998,191.33681542293004,0.6962305325107194,34.799537957094806,1.000583814369451,101.570342,105.1438826,105.97371839999998
4316.671,-27.0786984,-178.662625,22.6410172,0.1573328,0.1470126,0.6118513999999999,17.419151,-28.0711056,-105.5074662,27.651902,19.1066532,-28.8403782,-0.9708726,0.1445832,-0.2218463999999999,123.64785299999998,80.7848328,5.1383446,182.1159112729568,0.6486358378910002,44.28836523785575,1.0063367887272927,106.228702,108.8559384,110.6458108
4336.656,-27.4510556,-167.760788,16.266103400000002,0.2192966,0.1407544,0.5899862,17.2679046,-31.351605,-106.30663,22.865534200000003,41.8694148,-39.72108659999999,-0.9789702,0.1282054,-0.262235,130.4715972,80.70382079999999,11.6026544,170.7683476635958,0.6449701668149931,62.07773570798575,1.0215608020583993,113.2036926,112.0554258,117.9092844
4356.64,-27.684054600000003,-153.369426,10.552661,0.3068804,0.1388112,0.4895243999999999,17.1671874,-34.3303266,-107.148253,13.645497799999998,80.53536940000001,-42.5251062,-1.0289794,0.0713804,-0.3267946,140.07404939999998,80.01141820000001,21.088829,156.204821836095,0.594203893747727,92.08979309307595,1.0819835847727448,122.906862,114.3417448,128.23708200000002
4376.625,-26.2675298,-134.1657472,6.9217938000000006,0.3987214,0.1316098,0.4485431999999999,17.101833199999998,-36.9244242,-107.9526384,16.06952,99.1381972,-46.529799,-0.8838056,0.0472389999999999,-0.2967017999999999,150.1743836,78.9008652,31.0459546,136.88806402655388,0.6144028780370743,110.68709867042722,0.9334751308072432,133.0725504,115.8252894,138.998593
4396.609,-23.2815664,-111.4144532,5.2893594,0.4697929999999999,0.1552948,0.3854382,17.0506616,-39.0749758,-108.6454164,17.5982584,104.8072448,-44.303608,-0.8919016,0.0215924,-0.3117733999999999,158.9743378,77.4201324,39.6696736,113.94379771955543,0.6272037498096452,115.13933707946194,0.945070023208799,141.9236762,116.4951082,148.31509
4416.594,-20.7022344,-86.0176438,5.9758152,0.5496394,0.1647953999999999,0.2999966,16.9438078,-40.7525826,-109.14297179999998,16.5526142,101.2388046,-38.5285358,-0.8719668,0.0142586,-0.2865908,165.65618899999998,75.7662764,46.1781144,88.67540764699518,0.6475020879542243,109.57980044051416,0.9179671533452818,148.71238119999998,116.518859,155.3210862
4436.579,-16.3778118,-57.8214298,7.8386414,0.6371676,0.1759582,0.224879,16.770882399999998,-41.908567,-109.387088,12.6107492,85.9671948,-30.4592296,-0.8620198,0.0201809999999999,-0.2687899999999999,170.04768080000002,74.23948340000001,50.4454102,60.60523708781561,0.6982223165138737,92.0714627069211,0.9031796457256108,153.27679840000002,116.14805040000002,159.83249819999995
4456.564,-9.7998614,-28.694086400000003,10.0078136,0.693202,0.1836088,0.1983704,16.545729,-42.5137352,-109.3507628,5.7428914,62.7123878,-25.3243164,-0.8586280000000001,0.055722,-0.2543587999999999,172.7902802,73.0922848,53.1776978,31.93030239196334,0.744037646787849,67.87595587788869,0.8972432127385751,156.2445512,115.60602,162.5284606
4476.548,-0.9335789999999996,-0.4527327999999997,11.099777,0.729889,0.1894204,0.1977192,16.336388,-42.583639600000005,-109.0703778,-3.7063884,36.5091652,-21.470838,-0.8831635999999999,0.0802782,-0.2445179999999999,174.40433360000003,72.43534679999999,54.950947,11.148165148900777,0.7795581583857615,42.5165067120382,0.9198975954334264,158.06794559999997,115.0189864,164.0213248
4496.533,7.736839600000001,26.4265762,11.1828776,0.7449565999999999,0.1973322,0.2268148,16.1665542,-42.1378616,-108.5868086,-13.0709094,9.801669399999998,-15.932920399999997,-0.906811,0.0981854,-0.2290277999999999,175.0870484,72.30179899999999,55.9569566,29.720016286454428,0.8033338574586781,22.820590440272152,0.9404255928392208,158.92049419999998,114.4396606,164.5437652
4516.517,15.516750000000002,51.4910172,9.2327402,0.732541,0.1981375999999999,0.2640302,16.0691494,-41.1996002,-107.9714614,-19.7623192,-14.915019,-10.172974199999995,-0.9113516,0.113811,-0.2326603999999999,175.042502,72.64412540000001,56.3461366,54.56498762442719,0.803484145286514,26.76745142905681,0.9474415782895113,158.9733526,113.8437256,164.31759799999998
4536.502,22.681655400000004,74.4823872,5.0799304,0.7069146,0.1844608,0.3040352,16.086494,-39.7966218,-107.3003234,-25.712268600000005,-36.2606912,-3.382544199999997,-0.9158808,0.1221734,-0.2282413999999999,174.2166322,73.393419,56.0467044,78.02492670655909,0.7913225898891298,44.58026568029017,0.951765788495342,158.1301382,113.1900408,163.3470278
4556.486,29.6005286,94.9905678,0.080518,0.6754992,0.1684524,0.3544752,16.2480072,-37.9729112,-106.61548,-32.466916600000005,-54.3187414,6.335413600000004,-0.9427576,0.1055328,-0.2071179999999999,172.27142659999998,74.4732196,54.7264674,99.49575743474765,0.7812349503711671,63.59845757779425,0.9709927549459882,156.02341940000002,112.4461308,161.3419474
4576.471,34.2830382,112.769861,-4.093553,0.6223496,0.1877894,0.4026166,16.515398400000002,-35.7912266,-105.914882,-36.153307600000005,-66.52243100000001,19.413596400000003,-0.953318,0.0855162,-0.1881141999999999,168.7916964,75.717615,51.90175039999999,117.93695533778116,0.7646463299905911,78.16126407468136,0.9754563966821276,152.27629800000005,111.5088416,157.81663239999995
4596.456,35.4673624,127.64617640000002,-8.1088968,0.5660164,0.192589,0.4255956,16.830386,-33.3047608,-105.2120164,-35.5984186,-76.2684554,33.9459608,-0.9503744,0.0685868,-0.1709147999999999,163.329938,76.9970812,47.0371936,132.72993013056967,0.7338914788504632,90.75490593107212,0.9680534686517268,146.49955200000002,110.301842,152.24921
4616.44,37.04428300000001,140.5219134,-10.9688768,0.5175014,0.169815,0.4550887999999999,17.1950042,-30.559091,-104.489592,-33.4088742,-83.89863740000001,46.65851100000001,-0.9655524,0.0554194,-0.1363375999999999,155.6586214,78.19728860000001,39.876998400000005,145.73607414375743,0.7097539356089545,101.64718826226937,0.9767039921162808,138.4636172,108.7563796,144.3665904
4636.425,38.8756254,150.3055544,-13.019794,0.4499718,0.1728323999999999,0.5530298,17.607053999999998,-27.613218,-103.74068300000002,-24.470345600000005,-86.982515,52.9037858,-1.0049528,0.0448528,-0.1082489999999999,146.2671464,79.19745640000001,30.791061599999995,155.79662695172487,0.7336127172923327,104.70704981748338,1.011760717707838,128.6600924,106.8106744,134.5317446
4656.409,34.3862322,157.592264,-15.087464,0.3586032,0.2359426,0.6258702,17.9585206,-24.518314,-102.9829178,-4.838232800000002,-77.963723,49.8711418,-0.9686975999999998,0.027599,-0.0995073999999999,137.006749,79.89773400000001,21.4495438,162.00421663496698,0.7589325877790728,92.6762180124083,0.9741860539453024,119.0482284,104.416048,124.43246159999998
4676.394,25.84507600000001,162.3153352,-18.4222378,0.2818726,0.2234113999999999,0.6187156,18.1847714,-21.3105444,-102.2620758,11.5064364,-69.66632620000001,44.94027020000001,-0.948657,0.0612108,-0.0961601999999999,128.32286219999995,80.315512,12.373544,165.38928272440714,0.7156631958987971,83.69840482638281,0.955480847400763,110.1380908,101.6260564,114.6356198
4696.379,25.248722800000003,166.46276559999998,-21.2937322,0.2282574,0.2018314,0.6720454,18.4465746,-18.0088048,-101.5734832,26.032834,-59.22693720000001,37.0372582,-0.9742768,0.0917962,-0.0666145999999999,120.88083960000002,80.4932906,4.276126599999999,169.70790601865636,0.73789048939655,74.54728050799552,0.9808564269483276,102.434265,98.5020954,105.8496098
4716.363,25.7616576,168.5535676,-25.0298328,0.1443342,0.2417429999999999,0.813123,18.7716132,-14.6469908,-100.9401932,32.4583344,-42.130653800000005,25.4162488,-0.9852716,0.1196606,-0.0460737999999999,115.7930588,80.5120956,-1.5540204000000015,172.33821596785597,0.8604888450570641,58.94506904484191,0.993580182977378,97.0214456,95.1590864,99.3861728
4736.348,18.6343204,169.04484259999998,-28.6773522,0.0520413999999999,0.3033648,0.8537914000000001,19.00843,-11.2603794,-100.3693116,36.8443446,-24.733451400000007,11.765535800000004,-0.9647944,0.146434,-0.0623333999999999,113.28055279999998,80.5111054,-4.856367600000001,172.46967048043976,0.9075782412040078,45.90944543142285,0.977832604990711,94.2721228,91.7714848,95.512944
4756.333,12.2679094,168.8935424,-33.0876022,0.0085534,0.2533077999999999,0.7660274,19.1661248,-7.850529399999999,-99.8808182,29.8527082,-13.353687000000004,5.6128294000000025,-0.9777914,0.1742052,-0.0560411999999999,112.180623,80.50830839999999,-6.5821352000000015,172.54077687553354,0.8068680063945775,33.181455622709215,0.9947683598297844,93.0144982,88.35883779999999,93.298683
4776.317,15.593110200000002,170.59515679999998,-35.078487,-0.0505478,0.2716952,0.8544832,19.4255076,-4.3941428,-99.4113448,12.9383528,-0.1112964000000069,0.7416896000000028,-1.0314518,0.2041644,-0.0238543999999999,112.4072862,80.4825622,-6.615650200000002,174.86095292984965,0.8980617466912395,12.96007189519676,1.0517342584274605,92.9817786,84.876705,92.7956946
4796.302,15.4159114,170.3200408,-38.2493186,-0.1379714,0.292007,0.9573346,19.713894,-0.924365,-98.98953079999998,-6.0853426,13.667357399999991,-4.121766399999997,-1.0168632000000002,0.2311485999999999,-0.0405001999999999,114.00263379999998,80.42560879999999,-4.8730220000000015,175.2414819492537,1.0103433731282252,15.518279901937529,1.0435902974808844,94.2887398,81.3499738,94.1165088
4816.286,14.3550876,169.314514,-39.2864426,-0.1980972,0.3111086,0.8921870000000001,20.009879,2.5353312000000003,-98.5774382,-13.542871600000002,18.568110399999995,-6.929110399999997,-0.9997562000000002,0.1927198,-0.0596551999999999,116.1003786,80.3829742,-2.468503600000001,174.40440866911297,0.965416337447632,24.00409685732964,1.019907899585801,96.09049960000002,77.847643,96.1089346
4836.271,13.0423286,170.457962,-41.3287574,-0.2471728,0.306983,0.7864768,20.3037,6.0286376,-98.1770994,-29.1317636,23.521126199999998,-7.321876599999998,-0.9923560000000002,0.175581,-0.0276717999999999,118.4010088,80.2954162,0.4624731999999986,175.88088393208594,0.8797037639382249,38.15118484540472,1.0081492185248375,98.0973088,74.2667786,98.6395726
4856.255,15.6515662,173.5071594,-41.5241402,-0.3066206,0.3313119999999999,0.8639655999999999,20.6772576,9.5804854,-97.7355514,-44.2172208,24.1419252,-5.797054399999998,-1.0333008,0.193516,-0.0099169999999999,120.3012804,80.156569,3.295749999999998,179.09204367285344,0.9747924864665914,50.71095549637087,1.051312195508851,99.6240228,70.5760836,101.0313014
4876.24,16.1919898,172.36738580000002,-43.5886512,-0.394138,0.3044402,0.970353,21.0832096,13.118066399999998,-97.3120622,-42.4145024,25.449289,-6.3161017999999975,-0.996495,0.1626006,-0.0697445999999999,122.285245,79.995479,6.178916799999998,178.52917614396986,1.0906940648179213,49.8653132587482,1.0120798137372964,101.2020354,66.87741259999999,103.490979
4896.225,16.7106632,171.0376464,-43.7282798,-0.4367981999999999,0.3259294,0.8123054,21.528733000000003,16.6289366,-96.8693316,-28.5748466,25.5637506,-4.975074399999997,-0.9728508,0.098344,-0.0981529999999999,124.3617082,79.799634,8.8749644,177.32818502680942,0.9781935923817738,38.6623663041732,0.9827228667359074,102.8329752,63.1706974,105.744296
4916.209,18.823535600000003,172.7164124,-44.694065,-0.4892682,0.3252832,0.7119192,22.060905,20.169407,-96.3904986,-17.464745,28.4377218,1.6566382000000033,-0.9932396,0.0797238,-0.0996115999999999,126.3572068,79.4454562,11.2645144,179.3957748973915,0.9230500956405996,33.41355696741847,1.0014006481669364,104.2963018,59.2760492,107.65501299999998
4936.194,25.6002902,176.5490722,-43.4671478,-0.5299188,0.3148352,0.7817,22.8082752,23.7687678,-95.7954914,-4.0297298,27.5037694,7.497222800000003,-1.0356458,0.0961514,-0.0648791999999999,128.1019912,78.99720479999999,13.126482399999997,183.61465815906985,0.9954848204530694,28.790699942554788,1.0421212143374876,105.293716,55.22843700000001,108.9219738
4956.179,30.607441800000004,177.188031,-45.9836394,-0.6042008,0.2828716,0.8898614,23.7011116,27.389236800000003,-95.1702166,6.9796700000000005,27.358521,8.024119800000003,-1.0298782,0.1345812,-0.0748867999999999,129.96148820000002,78.53401360000001,14.882509799999998,185.59878479038213,1.1121727653638889,29.35286976057184,1.041330513834546,106.2603766,51.1447768,110.05272639999998
4976.163,34.6110994,178.9993348,-47.2749336,-0.6453726,0.3215382,0.7020186,24.7405144,31.0491034,-94.4682192,13.307255,23.7573662,6.049853800000004,-0.9814756,0.1205554,-0.0687925999999999,131.6807096,78.1338472,16.3683708,188.34439043253604,1.0063412550601114,27.89437605319936,0.991241837131222,106.9401952,47.0847438,110.83659
4996.148,39.2446558,182.4108888,-48.4094512,-0.7003722,0.3199672,0.6390702,25.9776682,34.7680682,-93.641118,10.6084474,20.3922934,6.281964400000002,-0.980227,0.0757082,-0.0567243999999999,132.9333342,77.7635056,17.435380199999997,192.76241938498185,1.0006552593859286,23.829558600047918,0.9847813770739168,106.955666,42.9954374,111.0764982
5016.132,42.185721,185.7842134,-48.5488502,-0.7821393999999999,0.3278454,0.674785,27.4440558,38.5323438,-92.6133882,16.353676,17.883200199999997,4.273165000000003,-0.993793,0.0861768,-0.0714411999999999,134.18493039999998,77.46104740000001,18.3833374,196.6021359514912,1.0837709368489818,24.60714341859861,1.0000774033866977,106.7408746,38.92870359999999,110.9967256
5036.117,44.724351,187.4822024,-49.988839,-0.8677225999999999,0.324091,0.6705624,29.1537198,42.3096794,-91.3745408,25.217034200000004,18.1114992,2.441392400000003,-1.022309,0.093314,-0.1144851999999999,135.6634736,77.1823548,19.3846332,199.11988301948577,1.1435171267302997,31.142986593555023,1.0329230634931337,106.5097538,34.872675400000006,110.759174
5056.101,46.0967638,188.4721224,-50.3083818,-0.9455542,0.3485062,0.6100399999999999,31.120789,46.0793632,-89.8847582,38.3355596,24.6497984,-0.5693661999999968,-0.9786932,0.0826436,-0.1539969999999999,137.8530244,76.8304596,20.8516696,200.4434729147551,1.1779975034676768,45.58016968897216,0.9941757492295816,106.7322354,30.7510964,110.7364278
5076.086,44.9692258,186.8621186,-49.4419954,-1.0160456,0.3556524,0.5552505999999999,33.338517,49.7763344,-88.09515239999999,47.892052,28.981830799999997,-2.503307799999997,-0.944355,0.0647298,-0.1869655999999999,140.4748384,76.4125626,22.5712772,198.45451253590952,1.2112557614746275,56.03446895645637,0.9648587713320536,107.1363214,26.6362282,110.6664296
5096.071,41.503632800000005,179.98468640000002,-48.1083292,-1.1019264,0.363196,0.5723461999999999,35.7416504,53.3047454,-86.05976879999999,54.65259160000001,33.399863,-5.239846799999997,-0.9026178,0.118186,-0.2675743999999999,143.4866028,75.9434388,24.5558,190.8702444398266,1.2937284483566864,64.26439614205233,0.9488323787730898,107.7449524,22.6386934,110.6155688
5116.055,36.217403,166.0279312,-47.1867036,-1.1878352,0.3688596,0.575969,38.1925972,56.5491416,-83.91825259999999,54.80245040000001,35.6461068,-5.804864199999997,-0.8671756,0.1944416,-0.3606028,146.492874,75.4356232,26.5324804,176.3620118258198,1.370675073032336,65.63268963117319,0.9590805161266494,108.30027679999998,18.886481600000003,110.450733
5136.04,31.906848000000004,145.77313080000002,-45.7847444,-1.2532288,0.3840124,0.5466286,40.5560494,59.3998702,-81.8524476,49.7829734,38.9642732,-3.779876599999997,-0.8362646,0.2271589999999999,-0.4494347999999999,149.3185668,74.8331818,28.426481000000003,156.0900234874169,1.42015871466578,63.33124421374156,0.9761820178354036,108.7625174,15.4333116,110.2789286
5156.024,26.7620492,123.2929504,-41.5471634,-1.2766036,0.4174839999999999,0.4501792,42.7639878,61.8038382,-79.89982,38.873645200000006,36.3246766,-1.956163399999997,-0.8861424,0.1935166,-0.4987209999999999,151.5532408,74.21832280000001,29.9375716,132.82893390487774,1.416570137304045,53.23973137120031,1.0350940360152403,108.789253,12.414484600000002,109.8373916
5176.009,20.110969600000004,100.8730286,-37.4084292,-1.2605694,0.4480217999999999,0.4944362,44.6908502,63.7776618,-78.169304,30.2616438,35.02385499999999,-0.518142999999997,-0.9770278,0.2187874,-0.511817,153.3502806,73.582817,31.1779936,109.44957547839076,1.4262629145294496,46.28937217880096,1.1244589320471423,108.6594304,9.805155200000002,109.3472976
5195.993,10.329362800000002,78.00834259999999,-33.2242404,-1.2568046000000002,0.4921826,0.5558316,46.1175866,65.32926319999999,-76.8113206,20.2661242,32.7043942,-2.898786399999997,-1.0084192,0.2680314,-0.5093998,154.8983276,72.9956816,32.372610599999994,85.41573274994478,1.4597089716386895,38.58362544748282,1.1611366287197389,108.780741,7.6664184,109.1839312
5215.978,0.4163464000000033,54.1498878,-27.7275436,-1.193673,0.51875,0.55726,46.912525200000005,66.4499008,-75.95310219999999,0.6495767999999998,32.27145,-8.087521799999996,-0.9935198,0.2613678,-0.4839623999999999,156.27188719999998,72.4520278,33.7978454,60.83749146017843,1.4158020698632277,33.27576361238121,1.135611872288521,109.359362,6.002127,109.7509476
5235.962,-8.835770399999998,30.267154999999995,-19.9550284,-1.1334324,0.5477696,0.5464829999999999,47.0785646,67.1307846,-75.59489740000001,-15.832459,30.1954608,-11.346857599999996,-0.9579122,0.2080628,-0.4629259999999999,157.399704,71.96136320000001,35.3120102,37.31453696349919,1.372357172656929,35.93304590910288,1.0840601427636198,110.3211394,4.830578599999998,110.9069076
5255.948,-15.6248476,6.765062400000001,-11.6595604,-1.0882957999999998,0.5655403999999999,0.5658991999999999,46.6280206,67.3730666,-75.7617248,-21.9887714,25.5821094,-9.586015799999997,-0.932616,0.1960028,-0.4460298,158.143213,71.54000239999999,36.5535918,20.636067467431086,1.3507278026643412,35.06910446465486,1.052203537131424,111.5151924,4.166935799999999,112.3153166
5275.932,-19.5013758,-17.4975208,-3.0186434,-1.0876778,0.5838546,0.5991645999999999,45.5861618,67.15613379999999,-76.4849548,-22.7224656,19.180449,-5.546560399999998,-0.9141266,0.2057844,-0.4380274,158.4527314,71.195691,37.3565552,26.37383362758668,1.3721980208581996,30.24837845332593,1.0343319888999276,112.8665696,4.039557199999999,113.84151
5295.918,-25.170921799999995,-40.5655222,5.939221399999999,-1.0599246,0.5645418,0.6152176,44.0222252,66.48668500000001,-77.6447418,-25.1740106,11.185210199999998,-1.793519399999997,-0.937851,0.1840202,-0.3979055999999999,158.29667060000003,70.9647066,37.7225564,48.10832824427207,1.3493110453050328,27.605369925890734,1.0352568757175196,114.2744454,4.4780216,115.3672982
5315.901,-29.581610599999998,-62.1875498,15.5029432,-1.0615238,0.5341372,0.6453928,42.1250848,65.3542006,-79.068747,-25.7589158,2.078505599999997,-0.7212269999999972,-0.9405852,0.1416954,-0.3824909999999999,157.8811464,70.88709739999999,37.8251612,70.58827298978164,1.3522822163594843,25.852699996446216,1.0252206932759405,115.7560616,5.5328968000000005,116.8939082
5335.886,-33.4927228,-83.6842284,23.8734984,-1.0880614,0.5127252,0.6452009999999999,39.9901574,63.7546424,-80.66989459999999,-23.4875078,-8.112707000000004,0.7179534000000027,-0.9264446,0.157535,-0.3866059999999999,157.18466800000002,70.979088,37.584482,93.24567812674113,1.36493555572635,24.859495059382876,1.0161599639476846,117.19451060000002,7.224445600000001,118.2543766
5355.87,-37.0716924,-105.1785788,31.9326636,-1.117609,0.4946938,0.6499562,37.726412200000006,61.6864646,-82.35228599999999,-24.434632,-18.1689876,1.8200932000000027,-0.9235524,0.1761724,-0.3843787999999999,156.1375916,71.239969,36.9960832,116.00232247838316,1.3842741399585128,30.50370617877546,1.0157424929365513,118.4111794,9.5535044,119.3483692
5375.855,-42.10417339999999,-125.2005292,39.76179,-1.121016,0.4442612,0.67459,35.417534,59.1705482,-83.9908494,-31.874854,-26.4719582,1.1660394000000027,-0.939558,0.1481218,-0.3593027999999999,154.7714966,71.6696992,36.22566379999999,137.9454017851317,1.3817078396612794,41.45033819338771,1.016763396807281,119.3539626,12.499151000000005,120.2165132
5395.839,-42.801433,-143.9956496,47.1245672,-1.1287086,0.4173432,0.7054942,33.2189282,56.2353438,-85.5246324,-35.16025080000001,-31.530777,-0.4635719999999973,-0.9540478,0.113815,-0.345363,153.30356739999996,72.212851,35.4130234,157.44025725451158,1.3949482128501545,47.229736750714736,1.0209978749629405,120.0846392,15.977507200000002,120.9376558
5415.824,-42.6181718,-160.5482986,53.2559164,-1.1199502,0.4120122,0.7259346,31.189424599999995,52.9360952,-86.90997639999999,-33.4852294,-34.7148102,-1.2898613999999973,-0.9785272,0.1227646,-0.3048117999999999,151.7430724,72.83507540000001,34.471881,174.4369725216901,1.3967904448792738,48.24979147751686,1.0322290741750302,120.5536478,19.898980200000004,121.3818574
5435.809,-41.4217598,-174.37339479999997,58.3627958,-1.089976,0.391419,0.7525432,29.380642,49.3447408,-88.1179536,-34.259387200000006,-35.151455600000006,-3.6018207999999974,-1.008111,0.1212874,-0.2648524,150.201773,73.5001542,33.570097999999994,188.48888278250803,1.38115089038209,49.21690314509445,1.0493546662142024,120.821131,24.155413400000008,121.6880516
5455.793,-37.1050384,-186.0502564,62.4199926,-1.0442250000000002,0.3825,0.7803956,27.8495478,45.5068946,-89.1474488,-36.157943,-33.59103520000001,-6.812575999999997,-1.017638,0.1312662,-0.2265869999999999,148.7274932,74.17100239999999,32.7843464,199.71914594588893,1.358576237509092,49.821337592989856,1.0507899803840155,120.8779454,28.66410780000001,121.9317952
5475.778,-31.7787138,-195.910434,64.0913908,-0.9873748,0.3781098,0.7899828,26.571766,41.47921899999999,-90.05935840000001,-35.845704,-31.8399176,-9.745644999999996,-1.0085408,0.1629152,-0.1921603999999999,147.309674,74.833539,32.0608982,208.5629189849648,1.319829095310041,48.92517189031052,1.0395294738408527,120.73790800000002,33.35432000000001,122.1202566
5495.762,-25.666099599999995,-204.3610686,65.1341132,-0.9246132,0.3840308,0.8126612,25.5351884,37.2918224,-90.871547,-40.4516986,-30.516690600000004,-9.516965999999998,-1.001977,0.1776338,-0.1624669999999999,145.69062200000002,75.46698940000002,31.2308234,216.0200169668576,1.289498914675123,51.55755004503731,1.0304888167857231,120.1554336,38.175167,122.1023704
5515.747,-20.299906799999995,-211.4170866,65.0193794,-0.843199,0.3611998,0.8184172000000001,24.6811902,32.972432399999995,-91.6317566,-41.9470996,-30.421509000000004,-8.265118599999997,-1.006481,0.1547842,-0.1450777999999999,143.8872192,76.0841142,30.2413936,222.11886552042745,1.229331754400284,52.472274204206805,1.0285959945398775,119.206029,43.11168180000001,121.8731502
5535.732,-13.819072399999996,-216.9784268,65.9371344,-0.765758,0.3676338,0.8540604,24.0374622,28.5364732,-92.3243958,-39.2487856,-32.4849456,-5.716221999999997,-1.004857,0.130461,-0.1117785999999999,141.7473754,76.6953172,28.8511382,227.19663323095935,1.2045576334549544,51.26806077533078,1.0194371576453154,117.7099132,48.158844,121.175534
5555.716,-11.622791199999998,-221.0428312,65.826145,-0.6735523999999999,0.347124,0.8385337999999999,23.5012184,24.009425200000003,-92.9773224,-32.976085,-34.32091820000001,-2.8972047999999977,-1.0086984,0.115666,-0.0866617999999999,139.3006346,77.2885636,27.017916000000003,230.92878526886057,1.1301800036561431,47.68376457109337,1.0190001733551373,115.7994162,53.2791384,119.9952384
5575.701,-7.379474999999997,-223.1199156,67.196031,-0.5935336,0.3479036,0.8580568,23.125998,19.4152168,-93.5578278,-32.2743424,-34.736534000000006,-0.9403193999999976,-1.0176102,0.1007486,-0.0495305999999999,136.56097400000002,77.8474962,24.8704506,233.13571148749324,1.099809311311811,47.42514282803595,1.0237841959526237,113.434976,58.43227939999999,118.4282784
5595.685,-7.080058999999997,-223.56799,67.45267,-0.5079912,0.3371396,0.8486678000000001,22.8194746,14.791479600000002,-94.0896166,-27.5589836,-36.861042000000005,-0.0774109999999976,-1.029883,0.08899,-0.0307595999999999,133.49768360000002,78.4063782,22.2987244,233.62927059384597,1.044966604213953,46.02434124301785,1.0341781117298705,110.678209,63.61489859999999,116.388341
5615.67,-4.918462799999997,-222.7558258,67.9114652,-0.4296676,0.3305614,0.865744,22.6097254,10.1702448,-94.5721224,-21.3801682,-37.278286,-0.5294909999999976,-1.0351142,0.0860706,-0.0126271999999999,130.3166702,78.9569062,19.4841346,232.92985276637629,1.0214684327945334,42.97746572422772,1.0387632075722744,107.7069448,68.78666139999999,114.056257
5635.655,-4.717280199999997,-220.9249146,67.1736448,-0.3466406,0.3196868,0.8279736,22.4463924,5.5767206,-95.0314928,-13.6129376,-35.1956558,-0.4487291999999977,-1.0472435999999998,0.078958,-0.0221889999999999,127.2354584,79.45767359999999,16.6161652,230.95967002751624,0.952837676605811,37.73920528029837,1.050450320208414,104.789066,73.880953,111.647658
5655.639,-3.7617819999999975,-218.0249878,66.5673216,-0.2739064,0.312306,0.8209097999999999,22.3449504,1.0402500000000003,-95.4647738,-7.208782199999999,-31.0625238,-1.8835221999999976,-1.0370188,0.0858122,-0.0136885999999999,124.5045274,79.90305620000001,13.978564999999998,227.99178628626845,0.9200286154968224,31.943615661200536,1.0406532097640595,102.15957699999998,78.8628062,109.44333880000002
5675.624,-5.2497665999999965,-214.66178600000003,63.9463844,-0.1952624,0.3033309999999999,0.7965021999999999,22.2523826,-3.4148846,-95.9131532,1.0357976000000009,-26.647361400000005,-3.335380799999998,-1.0405576,0.1098204,-0.0349393999999999,122.2168504,80.29340340000002,11.6281344,224.0454920231533,0.8743871310921724,26.875258349109583,1.0469199591402776,99.9644678,83.70828800000001,107.5412876
5695.609,-4.630916799999997,-210.7155518,59.9245774,-0.1275056,0.2757565999999999,0.7457478,22.2183592,-7.767273399999999,-96.4038422,9.3342328,-17.561525200000002,-5.428208199999998,-1.022546,0.1340292,-0.0445567999999999,120.9873032,80.5926284,10.1871854,219.11970275937216,0.8052572021905547,20.615540584165583,1.0322545504839782,98.768944,88.35990180000002,106.5910276
5715.593,-2.724972999999997,-205.6907256,54.730558,-0.0582216,0.2777988,0.7173179999999999,22.2718118,-11.987197,-96.9606858,13.992351199999998,-9.813110800000002,-3.7583793999999977,-1.0090072,0.1480364,-0.0444373999999999,120.428511,80.7710464,9.335700999999998,212.86506067153576,0.7714318123541444,17.4988128566358,1.0207766591647558,98.1566992,92.7582434,106.2963868
5735.578,-5.506052599999997,-200.1460142,47.782721,-0.0009703999999999,0.2735972,0.6935205999999999,22.3377842,-16.0509512,-97.6217896,24.913228600000004,-12.804688600000002,-5.660604999999998,-0.9052318,0.1774084,-0.0252603999999999,119.7598128,80.999269,8.1530642,205.84443650860328,0.7455381895975283,28.577464169951348,0.9227981577408788,97.4220286,97.0502202,105.7748538
5755.562,-9.264106799999997,-194.646121,40.4932534,0.0524978,0.2531938,0.647771,22.4107448,-19.9546542,-98.4009994,23.2408844,-3.275967200000001,-7.234317799999997,-1.0105628,0.1635458,-0.1025705999999999,120.2965086,81.1537734,8.225714599999998,199.0292432434617,0.6974742918590476,24.56025290629223,1.0288367846387687,97.8857638,101.1084276,106.626714
5775.547,-11.917234399999998,-187.2082852,32.8170348,0.128522,0.2270766,0.5891616,22.5188586,-23.669994,-99.2968444,24.8631214,17.7340886,-15.196441799999995,-0.968682,0.1251452,-0.1275541999999999,123.7467344,81.1716522,11.2196282,190.4361318036404,0.6443547762421878,34.11164826865707,0.9850259956694948,101.2278758,104.8416462,110.5164726
5795.531,-15.433075999999996,-177.4048826,26.3696132,0.2031636,0.2318056,0.5656475999999999,22.6388584,-27.164505,-100.2736876,25.5787864,39.3659908,-22.4252218,-0.9780824,0.0949444,-0.1711735999999999,129.4705046,80.91369159999999,16.510933799999997,180.01674562512005,0.6441789285144927,52.02735932316481,0.9974768276095842,106.8316462,108.0781966,116.78462140000002
5815.516,-22.4286298,-165.6189238,20.321526,0.2693434,0.2204548,0.4941777999999999,22.6982342,-30.4081368,-101.31151400000002,25.1297846,64.3122458,-32.9364132,-0.9464714,0.0707142,-0.229817,137.1720076,80.27636399999999,23.830408,168.36162203526175,0.6044484130010104,76.5008388735911,0.9765369745117694,114.47377339999998,110.6845008,125.141922
5835.501,-24.4551796,-150.5444594,16.6960308,0.354545,0.1966354,0.4336598,22.744859400000003,-33.3494276,-102.3221234,15.9060164,97.1894056,-39.4991992,-1.0070554,0.0314706,-0.2931169999999999,146.8476074,79.0963408,33.356889,153.4289656804772,0.5936568534887811,106.10828740508283,1.0493181371836284,124.102748,112.4457684,135.6790124
5855.485,-25.9545108,-130.8360136,14.350695000000002,0.4475656,0.1994024,0.383312,22.73536,-35.910872,-103.2279126,16.6271482,112.3085022,-44.29287179999999,-0.8879346,0.005349,-0.274927,156.4963714,77.5498016,42.8599808,134.1552888729689,0.6220967551539873,121.86681343156307,0.9295382299868898,133.7610114,113.4606736,146.0878934
5875.47,-25.918725399999992,-108.0371038,13.9597246,0.5196064,0.1851615999999999,0.3109554,22.6422008,-38.0401048,-103.94538400000002,16.171657199999995,110.01212,-39.915779,-0.8830693999999999,0.001203,-0.2949585999999999,163.96194759999997,75.7820754,50.1735794,111.97620298420742,0.6332210434158675,118.14168805576443,0.9310282423961798,141.3197468,113.8221802,154.1189634
5895.455,-20.934569399999997,-82.3206144,13.8939232,0.5844422,0.1881942,0.243759,22.5197046,-39.6833728,-104.4260314,14.433290199999998,96.3510146,-35.835401,-0.8523540000000001,0.0144572,-0.2829801999999999,169.24178160000002,74.1020522,55.3151024,86.06962793601701,0.6606119830395752,103.80758086612768,0.8982172039879219,146.72207699999998,113.785425,159.7411338
5915.439,-14.243583799999996,-54.11551219999999,13.6555296,0.637585,0.178749,0.1888644,22.360853,-40.7901102,-104.6332764,9.641131599999998,72.84125300000001,-28.7559288,-0.8590159999999999,0.0341202,-0.2670831999999999,172.53392939999998,72.77217099999999,58.533622,57.60071031499912,0.6885750495141106,78.90312413516462,0.9002255895198046,150.1730764,113.5622812,163.16689839999998
5935.424,-5.929392199999995,-24.970692600000003,12.3535592,0.6877116,0.1625682,0.1548136,22.203494,-41.3445588,-104.5806992,2.249431999999997,46.004008600000006,-22.7206226,-0.8662692,0.0521606,-0.2517446,174.4849578,71.9321946,60.531591000000006,28.483391751914315,0.7234244363931591,51.35810980675914,0.903614076190804,152.28146379999998,113.2767534,165.11229020000002
5955.408,6.884810600000004,3.864470399999999,9.1061424,0.7055654,0.1585054,0.1661351999999999,22.1671514,-41.34136579999999,-104.318245,-4.526684200000003,17.496484600000002,-17.147685,-0.8712636,0.062764,-0.2410245999999999,175.519693,71.642392,61.724041,12.05224368652685,0.7419888140567619,24.913067736908516,0.906163582465175,153.3525416,112.9837578,166.04228600000002
5975.393,18.049938600000004,31.080994800000003,4.569628799999999,0.6975058000000001,0.1733788,0.2056384,22.250925,-40.8006804,-103.894484,-9.514880800000004,-9.581618199999998,-12.3214882,-0.8949273999999999,0.069422,-0.2346065999999999,175.9330536,71.8877014,62.37310179999999,36.2313404194654,0.7475705323764709,18.28002832140911,0.9277686792074412,153.6821286,112.6883818,166.26758579999998
5995.378,26.76692000000001,55.8488514,-1.3998932000000004,0.6817406,0.1749502,0.2421802,22.44799,-39.7575482,-103.3691986,-14.078904400000004,-33.5276722,-5.295244599999998,-0.8948333999999999,0.0753764,-0.2294477999999999,175.6508576,72.59683079999999,62.39037939999999,61.94773530934838,0.7443312887689459,36.74724435422092,0.926852042322484,153.2028676,112.354379,165.75957799999998
6015.362,34.375428400000004,77.3792868,-8.5021076,0.6572978,0.1827222,0.3027854,22.7772704,-38.2641842,-102.7995102,-18.7100134,-54.304138,2.151508600000002,-0.8978334,0.0776278,-0.2246971999999999,174.547925,73.6974778,61.651592400000006,85.09706185881014,0.7463958726512627,57.47723892644024,0.9287732345283428,151.7706546,111.961662,164.45110259999998
6035.347,40.55807180000001,96.2170248,-16.2983122,0.612182,0.2143405999999999,0.37487,23.242186,-36.3724698,-102.224939,-23.204693400000004,-68.81999879999998,11.897972600000005,-0.913607,0.0753438,-0.2246191999999999,172.268323,75.0367142,59.7931962,105.680215887679,0.7491570001223776,73.59491682589466,0.9438263736811342,149.026137,111.409184,162.0181352
6055.331,43.1630698,111.9993864,-23.7424324,0.5668082,0.2359929999999999,0.4058328,23.7809316,-34.14244359999999,-101.657776,-24.875873400000003,-77.4372656,24.387937,-0.9246418,0.0852776,-0.2227175999999999,168.332413,76.444078,56.27427300000001,122.3544696560152,0.7359785956072907,84.91237043054292,0.9549020141976664,144.5514814,110.5865216,157.932049
6075.316,45.0282972,125.2048628,-31.1749596,0.5181654,0.2781704,0.447703,24.3990452,-31.614687600000003,-101.1174074,-24.108430400000003,-86.7549528,36.251902,-0.9521618,0.09858,-0.1935729999999999,162.1928286,77.8763596,50.4962128,136.65900381445778,0.7391293049273043,97.06615604987908,0.9766271633065712,137.7937834,109.4910472,151.6136202
6095.301,41.7776884,136.0438932,-38.6753102,0.4564534,0.3080342,0.5015270000000001,24.998677800000003,-28.832260799999997,-100.617,-19.673702,-91.114781,44.0430374,-0.9953982,0.1060872,-0.1751649999999999,153.905414,79.1746262,42.4504978,147.47574629113333,0.7448248830901126,103.0958147088453,1.0162454663082536,128.9067362,108.006887,143.0674978
6115.285,39.3357512,144.16389759999998,-44.412265000000005,0.3973696,0.3171336,0.5684486000000001,25.5736092,-25.8555912,-100.1362306,-13.644396000000004,-88.7277572,49.979083200000005,-1.0276336,0.1089946,-0.1484093999999999,143.8281236,80.1460098,32.4755146,155.89413066604467,0.7626336801473431,102.74576973023994,1.0439999945816476,118.2545144,106.00160099999998,132.6117452
6135.27,40.3121116,150.7750518,-48.9568878,0.3253072,0.3643354,0.5985303999999999,26.195013800000005,-22.7181526,-99.6608842,-1.7069880000000026,-84.8156554,52.1432396,-1.04528,0.0989504,-0.1238209999999999,132.937584,80.7591462,21.4439518,163.56943311635376,0.7725307099327249,99.57673746888226,1.0572289724090802,106.7425702,103.4772988,121.104836
6155.254,36.8997578,155.72760920000002,-52.0503654,0.2315297999999999,0.4083815999999999,0.6351024,26.7685008,-19.463048,-99.1733704,15.852771999999998,-76.3220612,48.494613,-1.0144652,0.087384,-0.1139511999999999,122.8133912,81.0507662,10.843934999999998,168.29117900567488,0.7897699905620369,91.80465617777944,1.0245781968441845,96.0448904,100.5138142,110.0173054
6175.239,28.317774000000007,156.9431458,-54.6684486,0.1606522,0.3708018,0.7614159999999999,27.192253800000003,-16.167525400000002,-98.6998992,20.5302878,-58.72351319999999,39.9280382,-0.970951,0.1125658,-0.0612017999999999,114.644533,81.051549,2.1393587999999983,168.58732636306317,0.86200778958434,73.92017285019064,0.9793684516329286,87.45227919999999,97.2190744,100.839258
6195.224,30.076892800000007,156.99948439999997,-56.0368026,0.0915076,0.3923303999999999,0.7614338,27.6675336,-12.8599286,-98.2295866,20.8435722,-42.5802404,33.4502486,-0.985814,0.1238608,-0.0505201999999999,108.535251,80.84333660000001,-4.480504000000002,169.3917968143673,0.8614396179677135,58.021121205817856,0.9948482452015884,80.8677174,93.7032652,93.7490826
6215.208,33.22279820000001,157.3358124,-56.3972456,-0.0143502,0.4514489999999999,0.8130084,28.2384164,-9.5508346,-97.7412,23.4882604,-24.868034,25.5607554,-1.003539,0.1087292,-0.0674493999999999,105.1301438,80.55880440000001,-8.411703000000001,170.40822015112016,0.9300509589864416,42.70210426035224,1.01166297995627,76.89172740000001,90.109639,89.329497
6235.193,24.44942600000001,155.630716,-57.4036154,-0.0769468,0.4513093999999999,0.8729644000000001,28.6604662,-6.261548,-97.26173980000002,22.8187196,-4.802887399999998,13.6417528,-0.9843528,0.1373398,-0.0498103999999999,104.542566,80.3354324,-9.4683282,167.67190955969116,0.9857321280276706,27.015904778793004,0.9951350317821396,75.8820998,86.5969804,87.7934116
6255.177,21.35490260000001,151.8384492,-58.23786679999999,-0.1271748,0.4252702,0.9135048,29.051394800000004,-3.0340200000000004,-96.8146772,10.133874599999997,14.093128600000004,8.999012800000001,-1.0125292,0.159723,-0.0421835999999999,105.92856299999998,80.07891839999999,-8.260706800000001,164.02010745616224,1.0156373330998223,19.552337955324603,1.0259172840393127,76.8771682,83.1129384,88.5539704
6275.162,24.942037400000004,150.2209594,-58.04491779999999,-0.1833608,0.4757542,0.8187804,29.5387678,0.1599764,-96.3575834,-0.6888650000000027,23.6293432,5.780445000000001,-1.0152367999999998,0.1841926,-0.0680009999999999,108.1719314,79.8143554,-5.9596338000000015,162.9651936921753,0.9645540862069062,24.33585707242785,1.0340487464186587,78.6331636,79.65437899999999,90.3979496
6295.147,26.106336400000004,148.6928374,-56.2839444,-0.2505354,0.5094021999999999,0.938633,30.074835200000003,3.316972,-95.8557372,-19.020769800000004,28.8299468,-1.6704011999999988,-1.0103158,0.2045196,-0.0648305999999999,110.8470566,79.6491928,-2.845515400000001,161.11791673030996,1.0969459862304067,34.57955691509629,1.0328452397189816,80.77222139999999,76.3322208,93.0102218
6315.131,16.905079800000003,144.7684234,-57.2348036,-0.2815608,0.4979973999999999,0.950951,30.4487056,6.4158268,-95.3842498,-32.142962600000004,34.745056000000005,-5.812333399999998,-0.9677454,0.2013658,-0.0741439999999999,113.922426,79.4962982,0.9444809999999986,156.5870393100802,1.1097683086592445,47.688281377094,0.9912500579403768,83.4737204,73.0804714,96.3287308
6335.116,14.399104200000004,140.47143839999998,-56.1309248,-0.3231282,0.4814796,0.858456,30.7947458,9.4211216,-94.91650239999998,-37.195376200000005,35.95927640000001,-3.725080399999998,-0.9375254,0.1698754,-0.1084799999999999,116.8341202,79.256569,4.672643999999998,151.95472986001687,1.0359445654992356,51.86946880253921,0.958947046280617,86.0393744,69.83544739999999,99.5891464
6355.1,13.633819800000005,138.9390928,-55.02177879999999,-0.3445711999999999,0.4921399999999999,0.786675,31.1538676,12.385998,-94.4227722,-35.4120914,32.9726988,-4.872118199999998,-0.9614394,0.158453,-0.1104325999999999,119.3468658,79.0311586,7.9590283999999984,150.05781783280074,0.989842738567314,48.63077851764505,0.9806469457578096,88.1929982,66.64516060000001,102.3818006
6375.085,17.281092000000005,138.582263,-54.1778686,-0.3971092,0.5141096,0.8914146000000001,31.619307600000003,15.3351402,-93.8901292,-31.807581,30.601351,-6.066974399999999,-1.0449282,0.135803,-0.0788755999999999,121.6918992,78.82737900000001,11.002209,149.79626565756735,1.103006974878201,44.55303660208827,1.0566639760300338,90.0725916,63.4922388,104.8923382
6395.07,9.944952200000005,136.4117796,-56.23541719999999,-0.4350894,0.4957520000000001,0.8831890000000001,31.9559184,18.2579574,-93.3883988,-17.5245238,33.245806800000004,-4.008849999999998,-1.0094423999999995,0.1277902,-0.1174199999999999,124.4812776,78.54512960000001,14.2070634,147.8833926969398,1.1023137671359096,37.795019281939695,1.0242518003566308,92.5253592,60.2871722,107.5954622
6415.054,6.6486136000000045,136.287747,-56.2987152,-0.4471188,0.4689534,0.7512622,32.2596294,21.175371,-92.8644028,-9.8764232,30.6938834,-3.6146535999999982,-0.9966052,0.113387,-0.1026877999999999,127.0372194,78.25357679999999,17.020710599999997,147.60792451053848,0.9920823583926084,32.44570748259755,1.008277402655083,94.77759,57.0782058,109.8851134
6435.039,8.933927800000005,139.061032,-57.0699608,-0.4763026,0.4654492,0.7034428,32.65309,24.1448734,-92.2923462,-4.3830808,29.024211,-0.646151999999999,-1.0575818,0.1196344,-0.1059015999999999,129.24960199999998,77.9182252,19.3723204,150.58142685123613,0.9686789444492124,29.360410996424317,1.069582536430527,96.596512,53.7733518,111.6646666
6455.023,12.219501800000003,142.9810728,-58.455546600000005,-0.5226673999999999,0.4779772,0.7825675999999999,33.1630654,27.1885082,-91.6603348,-2.299905999999999,22.398160200000003,-4.044958399999999,-1.0884812,0.1443154,-0.0400465999999999,131.084183,77.69966579999999,21.2976348,154.95145798469878,1.0554882582541407,22.87638162847068,1.0987365414885224,97.9211176,50.5111576,112.9579696
6475.008,5.121452800000004,144.56976,-61.5908754,-0.5850519999999999,0.4779622,0.7883756,33.563733,30.2840546,-91.0226836,0.8198322000000005,19.7760748,-4.433792999999999,-1.0152215999999998,0.1553936,-0.1159657999999999,132.79245020000002,77.508737,23.03018,157.2262087496183,1.0919110742217977,20.283583995393933,1.0335715431440435,99.2287172,47.224682400000006,114.0528636
6494.992,-0.4260981999999956,146.3008238,-61.8614876,-0.6148962,0.4280106,0.6703672,33.912922800000004,33.4053818,-90.3188888,6.7087124000000005,19.7781806,-2.8465097999999984,-0.9852392,0.076992,-0.1059869999999999,134.4413728,77.2809844,24.5833818,158.84255176847176,1.005327107623504,21.07808976054581,0.9939101033039356,100.52845,43.8756026,114.9022706
6514.977,1.679879400000004,148.9453246,-61.399344600000006,-0.6576932,0.4415976,0.5961596,34.3921654,36.5588956,-89.5165314,17.0903748,20.7470226,2.226152400000001,-1.0065686,0.0707978,-0.1245397999999999,135.96514900000005,76.9593506,25.7960008,161.11303867877191,0.9914509843275964,26.97175582118101,1.016711776648053,101.5729836,40.400455,115.3125322
6534.962,3.909297400000004,151.1221342,-59.936869,-0.7207736,0.4404914,0.6217154,35.0526154,39.727627,-88.55605940000001,29.955519,19.402987000000003,1.7306708000000015,-0.9744962,0.1003864,-0.1117301999999999,137.5638398,76.6559326,26.824265000000004,162.62106357064457,1.048845696243294,35.732397687525854,0.9860040115087972,102.51122440000002,36.9283056,115.38032440000002
6554.946,2.5339790000000035,152.73999020000002,-59.71781,-0.7600733999999999,0.4404776,0.638393,35.838870199999995,42.9071398,-87.4386872,35.7712432,20.056857800000003,6.014704800000001,-0.9604964,0.13568,-0.1238407999999999,139.0259096,76.2820694,27.5924264,164.0187260256116,1.0859455382008436,41.44919852921296,0.9779053842563704,103.1870394,33.3749296,115.0311136
6574.931,-1.1195877999999966,153.3150542,-58.72584979999999,-0.7833816,0.4140552,0.5814678,36.7084532,46.07381,-86.15462959999999,40.02058040000001,25.650925,4.419547400000001,-0.9604666,0.1270936,-0.1235721999999999,140.880768,75.8289658,28.6821152,164.18125579956745,1.0598269869664765,47.740435776491786,0.9766877502504882,104.1723148,29.7551558,114.8367448
6594.916,3.1321258000000034,153.575534,-58.037667,-0.8347324,0.4259516,0.5204606,37.8329504,49.2216584,-84.710701,43.67561980000001,26.0596248,3.4223518000000004,-0.9505394,0.0982876,-0.1426897999999999,142.7859164,75.3694656,29.7519528,164.20604631442495,1.071957173260518,50.97427097540376,0.9662018331022562,104.952966,26.1478072,114.4626538
6614.907,5.018327200000003,151.19064020000002,-54.926480000000005,-0.9175752,0.4188811999999999,0.5658734000000001,39.2263044,52.2767426,-83.02861019999999,50.1866808,25.150070000000003,1.2085058000000006,-0.9212034,0.110498,-0.1925603999999999,144.8077028,74.94503940000001,30.8092598,160.93697989325673,1.1565545435456297,56.14881509875896,0.947578503251166,105.5813984,22.6682968,113.83787
