Timestamp (ms),Wrist Gyroscope X (deg/s),Wrist Gyroscope Y (deg/s),Wrist Gyroscope Z (deg/s),Wrist Accelerometer X (g),Wrist Accelerometer Y (g),Wrist Accelerometer Z (g),Wrist Roll (deg),Wrist Pitch (deg),Wrist Yaw (deg),Arm Gyroscope X (deg/s),Arm Gyroscope Y (deg/s),Arm Gyroscope Z (deg/s),Arm Accelerometer X (g),Arm Accelerometer Y (g),Arm Accelerometer Z (g),Arm Roll (deg),Arm Pitch (deg),Arm Yaw (deg),Wrist Gyroscope Magnitude (deg/s),Wrist Accelerometer Magnitude (g),Arm Gyroscope Magnitude (deg/s),Arm Accelerometer Magnitude (g),Difference Roll (deg),Difference Pitch (deg),Difference Yaw (deg)
0.0,-1.9113470315933228,-22.75078773498535,-3.5885872840881348,-1.0188632011413574,0.2121623456478119,0.0276142805814743,78.0405044555664,78.48707580566406,7.918784141540527,-0.7156043648719788,-23.22533798217773,-1.3990390300750732,-1.0332624912261963,0.1018079370260238,-0.034353032708168,101.77621459960938,83.03141784667969,19.083646774291992,23.11124290757768,1.0410848342199728,23.278439041333613,1.0388341362665692,23.73571014404297,4.544342041015625,11.164862632751465
18.987,-0.6336410939693451,-23.092835426330566,-3.4526052474975586,-1.014561414718628,0.2091996818780899,0.0225584898144006,76.93950271606445,78.46673202514648,6.784318923950195,-0.427721120417118,-23.380375862121586,-0.9597999155521392,-1.031328797340393,0.1094524152576923,-0.0305208936333656,99.91605377197266,83.07942962646484,17.24811601638794,23.394208318202644,1.0361645095082708,23.41001216803474,1.0376058009085716,22.976551055908203,4.612697601318359,10.463797092437744
36.362,0.9945686062177024,-23.027300516764324,-3.1508755683898926,-1.011488040288289,0.2084071487188339,0.0203738330552975,75.90090942382812,78.43673960367839,5.689729770024617,-0.0515536318222681,-23.614227930704757,-0.7786489327748617,-1.028459072113037,0.1132655863960583,-0.0241374283408125,97.99153900146484,83.11592102050781,15.33795166015625,23.40494877915879,1.0329495626428724,23.638582614957528,1.035038100556373,22.09062957763672,4.679181416829427,9.648221890131632
59.818000000000005,2.4243689328432083,-22.838047981262207,-2.8569262325763702,-1.009420096874237,0.210042268037796,0.0216065463609993,74.9158878326416,78.39756202697754,4.632964998483658,0.8013903014361858,-23.46246671676636,-0.6754677668213844,-1.0261045396327972,0.110481409355998,-0.0211762448307126,96.10683250427246,83.14346504211426,13.453535795211792,23.38970696761505,1.031286440799147,23.54247432125337,1.032333484075387,21.19094467163086,4.745903015136719,8.820570796728134
81.324,3.390095484256745,-22.722361755371093,-2.4510018587112428,-1.0082433938980102,0.2054865896701812,0.0229576747864484,73.96579284667969,78.3507095336914,3.6021122217178343,2.2971449941396718,-23.499629974365234,-0.225192242860794,-1.0243927001953126,0.1087231770157813,-0.0199939666315912,94.2449447631836,83.153515625,11.563100910186767,23.39698065309338,1.029279767763345,23.855078511641757,1.030412375935597,20.279151916503903,4.802806091308594,7.960988688468933
104.51,5.895064437389374,-22.798288345336918,-1.6635505497455596,-1.0027629137039185,0.199693614244461,0.0207596208900212,72.05452423095703,78.25538482666016,1.5282329320907593,4.461384412646294,-23.551834106445312,0.5430209338665009,-1.020396852493286,0.1076790899038314,-0.0150679796934127,90.54632263183592,83.170849609375,7.809425675868988,23.865053340264065,1.0227389956962647,24.33629849627409,1.02623008977609,18.491798400878903,4.915464782714844,6.281192743778229
116.472,8.156085300445557,-22.55504150390625,-0.7691575348377228,-0.9975799679756164,0.199193325638771,0.0215980697423219,70.28836517333984,78.13166656494141,-0.4433116197586059,6.901183080673218,-23.462171936035155,1.2524770081043244,-1.014968466758728,0.1008998960256575,-0.0118952905759214,86.9357192993164,83.14789428710938,4.091920459270478,24.180502944074483,1.017578570794327,24.87240164062714,1.0201063808932458,16.647354125976562,5.016227722167969,4.535232079029083
139.22,9.60350217819214,-22.47150077819824,0.0948895633220672,-0.9944987177848816,0.1971736639738082,0.0252244971692561,68.63324279785157,77.98144073486328,-2.3304625272750856,9.674340867996216,-23.36620140075684,2.206602305173874,-1.010539746284485,0.0983080908656119,-0.0131211645901202,83.49434356689453,83.07866821289062,0.4879641413688659,24.55645351190004,1.014248589686347,25.668247131212787,1.0154323859996452,14.861100769042968,5.097227478027344,2.8184266686439514
162.423,10.248253536224365,-22.59938697814941,0.9604638040065764,-0.9919957399368288,0.1922716408967971,0.0233955170959233,67.07034606933594,77.80736846923828,-4.1370227336883545,11.692878532409669,-23.34698181152344,3.2391711235046388,-1.0056095123291016,0.0981820955872535,-0.0161016426980495,80.24035339355468,82.96399993896485,-2.9689438939094543,24.904211422001843,1.0107828121235254,26.41708041942256,1.0105737204499794,13.17000732421875,5.1566314697265625,1.1680788397789
183.689,10.804441833496094,-22.79771423339844,1.7631898820400238,-0.9885560870170592,0.1902308195829391,0.0216446857899427,65.59646606445312,77.60968627929688,-5.864475870132447,12.65311794281006,-23.198242568969725,4.011053228378296,-1.0011287331581116,0.0966624170541762,-0.0164020519703626,77.19579467773437,82.8126205444336,-6.244478809833526,25.323713617205406,1.0069914610207946,26.78220380556597,1.0059722144417873,11.59932861328125,5.202934265136719,-0.3800029397010801
206.685,9.777484035491945,-22.748736572265628,2.4125837802886965,-0.9841121554374694,0.1979089945554733,0.0234638903290032,64.20104522705078,77.3886215209961,-7.491561889648437,13.123881721496582,-22.726202392578124,4.612649440765381,-0.9975142359733582,0.0958249613642692,-0.0183684708550571,74.41521301269532,82.63311157226562,-9.273990488052368,24.994452985873124,1.004231460248863,26.670250006284903,1.0023241309643192,10.21416778564453,5.244490051269532,-1.7824285984039308
253.479,7.159997773170471,-22.424997329711918,2.966203498840332,-0.9809131383895874,0.1927619576454162,0.0287077959626912,62.84634628295898,77.15561065673828,-9.025312900543211,12.696012687683105,-22.2200439453125,5.186806297302246,-0.9926811814308166,0.1032344698905944,-0.0144778542220592,71.87859497070312,82.42425231933593,-12.057605838775634,24.143792805994533,1.0002908403356718,26.14067909294528,0.9982702996855664,9.03224868774414,5.268641662597656,-3.032292938232422
253.568,4.89861743748188,-21.88983993530273,3.509257173538208,-0.9777223944664002,0.1908292293548583,0.0342681717127561,61.557987213134766,76.9119384765625,-10.447827339172363,9.725725078582764,-21.1432186126709,5.386189079284668,-0.9901523351669312,0.1085880085825919,-0.0047539621591567,69.5729248046875,82.20068664550782,-14.55553379058838,23.143710168326148,0.9970596851425402,24.32363688526926,0.9964753479928128,8.014937591552734,5.288748168945313,-4.107706451416016
262.516,3.0197491198778152,-20.94374809265137,3.922877693176269,-0.9748355746269226,0.1919574707746505,0.0406362295150756,60.365858459472655,76.66351776123047,-11.735638618469238,6.382697105407715,-20.115647888183595,5.392674922943115,-0.9891255140304566,0.1080113351345061,0.0082735769450664,67.4364143371582,81.97120819091796,-16.823319244384766,21.870549815461597,0.994649965679678,22.664842652333316,0.995466611817674,7.070555877685547,5.3076904296875,-5.087680625915527
294.125,0.7500192672014236,-19.414258003234863,4.133180809020996,-0.9736439108848572,0.1968375772237777,0.0454124741256236,59.29619445800781,76.41990509033204,-12.851253318786622,3.983664846420288,-19.27316665649414,5.651199245452881,-0.9895482897758484,0.1110211208462714,0.0201488982886075,65.48248291015625,81.73004608154297,-18.855822563171387,20.010313465416026,0.9945526252220088,21.257779166195128,0.9963453845826468,6.186288452148437,5.310140991210938,-6.004569244384766
307.285,-0.6890729635953903,-17.482953453063963,4.227647495269776,-0.972987961769104,0.1908467322587966,0.0504183992743491,58.365691375732425,76.1939910888672,-13.794481658935547,2.048475170135498,-18.991156768798827,6.003057670593262,-0.99031879901886,0.1203982457518577,0.0349828142672776,63.64579772949219,81.46906280517578,-20.728964614868165,18.03853468736621,0.9928551507384488,20.468136741097787,0.99844959436179,5.280106353759765,5.275071716308593,-6.9344829559326175
326.71,-0.6654669255018234,-15.705208206176758,4.204827737808228,-0.9699618577957152,0.194678446650505,0.0527155868709086,57.59364547729492,75.98323364257813,-14.572258567810058,0.0200043082237243,-18.465228652954103,6.010489940643311,-0.9915042400360108,0.1223119691014289,0.0444474734365939,61.92932281494141,81.20340881347656,-22.4438777923584,16.30978604846927,0.9907485940940512,19.53024536390155,1.0001750533657243,4.3356773376464846,5.220175170898438,-7.87161922454834
336.212,-1.1871015548706054,-13.784794998168945,4.006623411178589,-0.9619910597801208,0.200321939587593,0.0531680852174758,56.96840744018554,75.79227905273437,-15.1847261428833,0.1904714465141296,-18.28096389770508,6.027873706817627,-0.9874902606010436,0.1233572408556938,0.049403491616249,60.33614730834961,80.93256225585938,-24.0443058013916,14.459275186521683,0.984157828702002,19.360346209629416,0.99656761685605,3.3677398681640627,5.140283203125,-8.8595796585083
364.166,-1.5286471366882324,-11.853045082092285,3.864723634719849,-0.9491272926330566,0.2061961501836776,0.0547180905938147,56.485494232177736,75.62019653320313,-15.642661666870117,0.689710283279419,-17.82612705230713,6.02407054901123,-0.9798848628997804,0.1343699067831039,0.0531167425215243,58.90753021240234,80.6557601928711,-25.494857788085938,12.589164643298554,0.9729850298630014,18.86876385005804,0.9906347596097624,2.422035980224609,5.035563659667969,-9.85219612121582
386.309,-1.372429573535919,-9.936161422729493,3.9042751789093018,-0.9349713325500488,0.2139128446578979,0.0626055195927619,56.14227828979492,75.46143035888672,-15.964541053771972,0.2475142478942871,-16.74455947875976,5.485409069061279,-0.967371118068695,0.1404539436101913,0.0605391703546046,57.62496643066406,80.39091796875,-26.79177017211914,10.84391389778678,0.9615008786351954,17.675405825251758,0.9794928867534052,1.4826881408691408,4.929487609863282,-10.827229118347168
396.201,-1.1429418802261353,-8.28690309524536,4.156117105484009,-0.927121877670288,0.2214079439640044,0.0769490242004394,55.91166687011719,75.30876159667969,-16.179204559326173,-0.0222327470779418,-14.827264213562012,5.102774047851563,-0.9520145654678344,0.1400186926126479,0.066701304167509,56.558895111083984,80.14893188476563,-27.8669132232666,9.517922345216409,0.9567699240231832,15.7441500624796,0.9647165131852324,0.6472282409667969,4.840170288085938,-11.68770866394043
418.73,-1.3509857416152955,-6.843065643310547,4.590285396575927,-0.9212844848632812,0.2326325356960296,0.0925431966781615,55.7772689819336,75.15520935058593,-16.291706848144532,0.9407094359397888,-12.90547580718994,5.218249988555908,-0.9450287342071532,0.1417248249053954,0.0751122772693633,55.73733062744141,79.92189331054688,-28.715728759765625,8.598045549175389,0.9553115747239256,14.270922389997452,0.9587152373102564,-0.0399383544921875,4.766683959960938,-12.424021911621091
436.181,-1.7837977647781371,-5.354115962982178,5.194074535369873,-0.9215837955474854,0.243878498673439,0.1140080958604812,55.72865600585938,74.99783172607422,-16.307113265991212,1.9879979968070984,-10.744534683227538,5.630464267730713,-0.9395639538764954,0.1447097599506377,0.0875883348286151,55.17379150390625,79.70686950683594,-29.325497817993163,8.074191089281642,0.9610008257509756,12.94129217967442,0.9549132290978412,-0.554864501953125,4.709037780761719,-13.018384552001953
458.783,-3.8161230087280273,-3.4700107336044312,5.782151985168457,-0.925321638584137,0.2508439987897872,0.1343815237283706,55.748538208007815,74.84423522949218,-16.208400344848634,3.182161259651184,-8.732365226745605,6.512714099884033,-0.9415447831153868,0.1541279733180999,0.1056254759430884,54.86420593261719,79.49145202636718,-29.703211975097656,8.834068292291652,0.9686134949503116,12.072773096029136,0.9604247593620532,-0.884332275390625,4.647216796875,-13.494811630249025
481.03,-6.280433976650238,-1.1471032857894898,6.409985828399658,-0.9302409410476684,0.2523342907428741,0.1427448213100433,55.867741394042966,74.7050994873047,-15.951274490356443,3.2656463623046874,-7.007937049865722,7.585626316070557,-0.9465477347373964,0.1691412538290023,0.1240652710199355,54.76720581054688,79.26748962402344,-29.86884803771973,10.521926626167213,0.9746242213018016,11.390125578975775,0.9704083330562576,-1.1005355834960937,4.56239013671875,-13.91757354736328
496.163,-8.985383367538452,1.8117106676101689,7.027273845672608,-0.933184540271759,0.2551920592784881,0.1383412569761276,56.14213485717774,74.59005737304688,-15.475815582275391,1.7635335683822633,-5.926935482025146,8.450747108459472,-0.9559215068817138,0.1836648672819137,0.1414284333586692,54.77250137329101,79.03265380859375,-29.902545547485357,12.883262888311249,0.9776488413642112,11.550338588964774,0.984430222389555,-1.3696334838867188,4.442596435546875,-14.426729965209962
518.6469999999999,-11.295529747009278,5.222668480873108,7.551303863525391,-0.9391034960746764,0.2553499460220337,0.1246913194656371,56.613502502441406,74.50886993408203,-14.752565574645995,-1.0312946557998657,-5.037097644805908,8.977516746520996,-0.9604457259178162,0.1964476227760314,0.1470491364598273,54.83574905395508,78.79463195800781,-29.822647476196288,15.41603790086076,0.9819279991038992,11.978892328759157,0.9917108499513858,-1.7777534484863282,4.285762023925781,-15.070081901550292
541.107,-13.257298469543455,8.453339314460754,7.883987903594971,-0.9434864163398744,0.2498239457607269,0.1035016447305679,57.27588577270508,74.46573944091797,-13.797457313537596,-4.8597468614578245,-4.6245368957519535,9.347544860839845,-0.9666406273841858,0.2035447686910629,0.1413273304700851,54.90035095214844,78.55704803466797,-29.666014862060543,17.989538049488917,0.9821429206699476,13.05649830826726,0.998415715157409,-2.3755348205566404,4.09130859375,-15.868557548522949
563.615,-14.137538719177249,10.669916343688964,8.010242938995361,-0.9487818717956544,0.241620898246765,0.0855882942676543,58.07271881103516,74.45213317871094,-12.691753578186034,-8.627974343299865,-4.2379063129425045,9.468604850769044,-0.9677794933319092,0.2013118982315063,0.1197258211672305,54.96800537109375,78.33253631591796,-29.43218879699707,19.57055828637884,0.9831719409588404,14.109697532679125,0.9970610957778598,-3.1047134399414062,3.8804031372070313,-16.740435218811037
586.7710000000001,-14.531604957580566,11.431573677062987,7.84892349243164,-0.9518795967102052,0.2344803690910339,0.0700034126639365,58.91271209716797,74.45470428466797,-11.540009307861329,-11.322171878814697,-3.372856616973877,9.074188613891604,-0.9669637799263,0.1915304630994796,0.0888240512460469,55.077510070800784,78.14118347167968,-29.103274154663087,20.14659823599913,0.9831116031012416,15.208424644164204,0.9914049187803312,-3.8352020263671873,3.686479187011719,-17.563264846801758
596.619,-14.771195793151856,11.10424518585205,7.352913093566895,-0.9500395774841308,0.2299388229846954,0.0615015976130962,59.71189651489258,74.46309051513671,-10.431974411010742,-12.978058242797852,-1.6854892730712894,8.217023658752442,-0.9631436586380004,0.1776843160390853,0.0612566795200109,55.27338638305664,77.99995422363281,-28.65528793334961,19.987371232775036,0.9795490050178686,15.895829038698729,0.9823181895413732,-4.438510131835938,3.5368637084960937,-18.223313522338863
620.199,-15.128417778015136,10.27659797668457,6.59685115814209,-0.94639151096344,0.2214437127113341,0.0619119741022586,60.40934066772461,74.4758316040039,-9.42251796722412,-13.360507583618164,0.2401381492614746,7.446364784240723,-0.9557505965232848,0.170430690050125,0.0467173840850591,55.58371810913086,77.90148620605468,-28.082546615600585,19.543226568745432,0.9740186400981464,15.911227715746938,0.9723889113441108,-4.82562255859375,3.425654602050781,-18.660028648376464
638.6039999999999,-14.694702911376954,9.358690643310547,5.806768703460693,-0.9446425318717956,0.215537628531456,0.0626428686082362,61.01810989379883,74.4922103881836,-8.513627529144287,-12.9445987701416,2.722589683532715,6.338526344299317,-0.9517343997955322,0.1694050163030624,0.0446153562515973,56.03049163818359,77.85013732910156,-27.3783317565918,18.413874115693805,0.970995450687256,15.398825419677037,0.9680854425960108,-4.987618255615234,3.357926940917969,-18.86470422744751
661.6990000000001,-13.600151824951173,8.910778617858886,5.100336170196533,-0.9448537468910218,0.2135482758283614,0.0649871490895747,61.58600616455078,74.51405029296875,-7.671713829040527,-12.596375465393066,5.0791443347930905,4.977730369567871,-0.9514229416847227,0.16392283141613,0.0546196285635232,56.55609283447266,77.84645080566406,-26.599277877807616,17.12652779737179,0.9709438738560572,14.925638461874213,0.9674475451783388,-5.029913330078125,3.3324005126953127,-18.92756404876709
680.9730000000001,-12.71858139038086,9.149205017089844,4.448192024230957,-0.9490575313568116,0.2133409768342971,0.0718158863484859,62.14774398803711,74.54573364257813,-6.859941196441651,-11.839244270324707,6.817216777801514,4.109533548355103,-0.9541995644569397,0.1610274791717529,0.067982493340969,57.145989990234376,77.87239074707031,-25.768737030029296,16.416894521217976,0.975438542497308,14.4609943495069,0.9704072188419222,-5.001753997802735,3.3266571044921878,-18.908795833587646
703.533,-11.749865913391114,9.84181022644043,3.7382421493530273,-0.9576168060302734,0.2110874027013778,0.0775446221232413,62.73326568603515,74.59452056884766,-6.048933601379394,-10.957344436645508,7.822202777862548,3.5332553386688232,-0.9607981681823732,0.1682192593812942,0.0790030807256698,57.78460540771484,77.91065063476563,-24.905523681640624,15.91560200168313,0.983692160984096,14.00213084500214,0.9787589431706074,-4.948660278320313,3.3161300659179687,-18.85659008026123
725.915,-10.767463493347169,10.63656120300293,3.06430459022522,-0.9666749238967896,0.2133141696453094,0.082214605808258,63.35932769775391,74.65853576660156,-5.224447965621948,-11.077786254882811,8.434009742736816,2.639198875427246,-0.9722472548484802,0.1720606297254562,0.0874146342277526,58.40806503295899,77.9651092529297,-24.050510787963866,15.535812508166035,0.9933774375661204,14.220722219599256,0.9913121048128596,-4.951262664794922,3.306573486328125,-18.82606282234192
735.908,-10.319167709350586,11.54363555908203,2.2937703847885134,-0.9697534561157228,0.2094467550516128,0.0894772812724113,64.01110916137695,74.74178009033203,-4.390607452392578,-11.277081489562988,8.463076400756837,1.9237323731184008,-0.9801054239273072,0.1703844338655471,0.0897500500082969,58.987098693847656,78.03074645996094,-23.232427215576173,15.739431607995712,0.9962154653033922,14.298651814347952,0.9989026424852732,-5.024010467529297,3.2889663696289064,-18.841819763183597
758.385,-10.427096939086914,11.857835388183592,1.5815985262393952,-0.9706138849258424,0.2108044564723968,0.0986594781279563,64.64276123046875,74.83456420898438,-3.57976188659668,-11.373637390136718,8.844232368469239,1.163431665301323,-0.9800662636756896,0.1750352829694747,0.0871603891253471,59.57441711425781,78.10936737060547,-22.40415802001953,15.940321082501535,0.99829626885108,14.547391493904833,0.9994692415071944,-5.0683441162109375,3.2748031616210938,-18.82439613342285
786.026,-11.21756591796875,11.066715621948244,0.7526769578456879,-0.9694997668266296,0.2137161135673522,0.1070402085781097,65.16636276245117,74.92919158935547,-2.863893675804138,-12.119024276733398,10.220169067382812,-0.4017414361238479,-0.9781530737876892,0.1786152482032775,0.0801790535449981,60.21694107055664,78.22607727050782,-21.50813446044922,16.055371437557007,0.9987078203733968,16.07102774067959,0.99769612572999,-4.949421691894531,3.296885681152344,-18.64424078464508
806.198,-12.932970237731933,8.458058547973632,-0.2031650125980377,-0.9676751017570496,0.2167642474174499,0.1034595370292663,65.4610824584961,75.01610260009765,-2.3500279903411867,-13.475201416015626,13.037753677368164,-2.490362671017647,-0.9710934400558472,0.1720057427883147,0.0526761017739772,61.0349006652832,78.40979614257813,-20.4108585357666,16.736685366969745,0.997317224487132,19.25897375427194,0.9890916822053551,-4.426181793212891,3.393693542480469,-18.06083054542541
816.005,-15.481009483337402,4.05947437286377,-1.4033012449741364,-0.9631988286972046,0.2221301734447479,0.1047118365764617,65.37395477294922,75.0823486328125,-2.1793273448944093,-14.509033012390136,16.57673168182373,-4.82835786640644,-0.9625646114349364,0.1643666148185729,0.0155489616096019,62.09123611450195,78.66675567626953,-19.057647895812988,18.583831452880567,0.9943749931963608,22.96295376710131,0.9793409148596108,-3.2827186584472656,3.5844070434570314,-16.87832055091858
838.51,-20.06876049041748,-2.8293127059936523,-2.858849459886551,-0.9577456116676332,0.2272802352905273,0.1180025219917297,64.66684188842774,75.1061798095703,-2.552651023864746,-15.728961181640624,20.648027992248537,-7.688386893272399,-0.9493785858154296,0.1515791207551955,-0.0224747247993945,63.45267868041992,79.00996398925781,-17.378920364379884,23.19197284963527,0.9920685618776244,27.359483262373693,0.9646332319048352,-1.2141632080078124,3.9037841796875,-14.826269340515136
860.878,-26.542559814453124,-11.458044815063475,-4.313666355609894,-0.9525902748107912,0.2241832137107848,0.1207040756940841,63.21479644775391,75.07283935546874,-3.5617062568664557,-17.205912399291993,25.24960346221924,-11.293230342864993,-0.934252405166626,0.1456280976533889,-0.064578715711832,65.1535743713379,79.45030364990234,-15.326175117492676,30.883410312273902,0.9867863366489658,32.74247496892977,0.9500974794044122,1.9387779235839844,4.377464294433594,-11.76446886062622
876.7139999999999,-31.77810935974121,-20.7556568145752,-5.584436273574829,-0.9468011856079102,0.2188116669654845,0.1167338505387305,61.04724349975586,74.96577911376953,-5.203013253211975,-20.275663757324217,29.971618270874025,-15.789630317687989,-0.923248040676117,0.1364772588014602,-0.088436510413885,67.31123275756836,80.00335388183593,-12.749141788482666,39.17062985875091,0.9795560285426376,39.64977088802805,0.938096144955044,6.2639892578125,5.037574768066406,-7.546128535270691
898.281,-35.16758766174316,-29.353448486328126,-6.456071186065674,-0.9418451428413392,0.2258963406085967,0.1433622747659682,58.26557235717773,74.75769805908203,-7.40527834892273,-22.273171997070317,33.94654655456543,-19.944104766845705,-0.9156879305839538,0.1204375565052032,-0.0911759547889232,70.03414001464844,80.64797515869141,-9.562389492988586,46.83264820294378,0.9801517044722112,45.369198505488576,0.9289935450063008,11.768567657470705,5.890277099609375,-2.157111144065857
920.899,-38.83313522338867,-37.3956714630127,-6.849923038482666,-0.9472323536872864,0.2207701295614242,0.173894703388214,54.96430130004883,74.43627471923828,-10.062995719909669,-21.618923950195317,37.42537269592285,-22.92474842071533,-0.9099812626838684,0.1086616724729537,-0.0861845053732394,73.58917694091797,81.3449920654297,-5.552128529548645,54.76314422153473,0.9894095452764172,49.24845485285911,0.9214801759815666,18.624875640869146,6.908717346191406,4.510867190361023
942.107,-40.36992568969727,-44.21150436401367,-6.779734516143799,-0.9567731499671936,0.217569676041603,0.1950053125619887,51.38119812011719,73.9914337158203,-12.975272941589356,-19.861060333251952,39.82318649291992,-24.65130729675293,-0.922256326675415,0.1106036618351935,-0.0663124111946671,77.98224029541015,82.04361267089844,-0.7341778993606567,60.58577025397817,1.002502102456026,51.38654063353537,0.9328456136680368,26.601042175292967,8.052178955078125,12.241095042228698
963.392,-39.62827377319336,-49.198717498779295,-6.231387615203857,-0.9724423170089722,0.221948879957199,0.2282586365938186,47.74984588623047,73.42193908691407,-15.94905891418457,-18.436937522888183,40.42808074951172,-25.74310111999512,-0.9482322692871094,0.1069079056382179,-0.030111683672294,83.1079315185547,82.71404571533203,4.796543574333191,63.61992888006736,1.0255243417666366,51.871576947502014,0.956163286061962,35.35808563232422,9.292106628417969,20.74560248851776
976.546,-39.63370132446289,-52.414984130859374,-5.327793931961059,-0.9910058975219728,0.2290298432111739,0.2713236033916473,44.20106658935547,72.73922119140624,-18.83442478179932,-16.27718563079834,38.910652542114256,-25.51743621826172,-0.97986718416214,0.092632395774126,-0.0092193794902414,88.78489379882812,83.31840667724609,10.843463492393491,65.99244941850397,1.0534638979181532,49.66189004569344,0.9859542850757124,44.58382720947266,10.579185485839844,29.67788827419281
998.184,-40.379913330078125,-54.96510848999024,-4.479854917526245,-1.0108658432960511,0.2296553939580917,0.3065149426460266,40.796129608154295,71.95972290039063,-21.554190635681152,-13.325254249572756,34.959093475341795,-24.157627487182616,-1.0153267979621887,0.0964271701872348,0.0080007626209407,94.60630798339844,83.822802734375,16.981922912597657,68.41093695785901,1.081606071644099,44.84865979190481,1.021233296310704,53.81017837524414,11.863079833984376,38.536113548278806
1020.524,-39.8236198425293,-56.52519989013672,-3.616125774383545,-1.0177525520324706,0.2418475359678268,0.3358561515808105,37.64546012878418,71.09578857421874,-24.02660903930664,-11.90659770965576,29.96554489135742,-22.70179252624512,-1.051357626914978,0.1068701870739459,0.0231997326482087,100.17536163330078,84.23138122558593,22.84326019287109,69.26755883286454,1.099636234205886,39.7601660765112,1.0577557499878154,62.5299015045166,13.135592651367189,46.86986923217773
1044.558,-39.62440948486328,-57.32463150024414,-2.5366934537887573,-1.0208641767501831,0.2532203406095504,0.365001356601715,34.78517303466797,70.1604019165039,-26.20586204528809,-10.92774133682251,24.803499984741208,-21.05918483734131,-1.0726221799850464,0.1108542494475841,0.021716789342463,105.27841033935547,84.56381378173828,28.222348785400392,69.74683429965422,1.1144046212904288,34.51116971213358,1.0793582695404431,70.4932373046875,14.403411865234377,54.42821083068848
1065.73,-39.99048767089844,-58.04367904663086,-1.4065915822982789,-1.0134453773498535,0.2596657961606979,0.3920532464981079,32.18809700012207,69.16246795654297,-28.10893096923828,-9.160085868835449,19.414830589294432,-18.63297882080078,-1.0856942415237427,0.1028768561780452,0.0138332298025488,109.72718811035156,84.83374938964843,32.90866241455078,70.52170613932512,1.1182826928505063,28.580711094425265,1.0912595519738644,77.53909111022949,15.671281433105468,61.01759338378906
1075.65,-40.47984619140625,-59.41809844970703,-0.2148977994918823,-1.0046860456466675,0.2628932237625122,0.4200094699859619,29.80863838195801,68.09791259765625,-29.77891082763672,-6.347495746612549,14.2638370513916,-15.585490226745604,-1.0848848819732666,0.1085784420371055,0.0061721577309072,113.3911346435547,85.03863830566407,36.75022048950196,71.93421229529058,1.1208199162787629,22.224805494913305,1.090696810027786,83.58249626159667,16.94072570800781,66.52913131713868
1100.536,-40.457705688476565,-61.4440315246582,1.2006643533706665,-0.9903629183769226,0.2582885593175887,0.4378630757331848,27.637871170043944,66.96212768554688,-31.234835815429687,-4.790760803222656,9.926648616790771,-12.553238105773923,-1.0784162998199462,0.1077517196536063,-0.0045446862466633,116.2176239013672,85.19622192382812,39.72141799926758,73.64714706305895,1.113670343865053,17.053062046245252,1.0842105345424735,88.57975273132324,18.23409423828125,70.95625381469726
1120.465,-40.368953704833984,-64.35766372680663,2.763456797599793,-0.9805443763732912,0.2521147042512893,0.4591504752635956,25.64773178100586,65.7423828125,-32.50746726989746,-3.904523754119873,5.731538581848145,-9.670697498321534,-1.0636467933654783,0.0987976163625716,-0.0162591858766972,118.11229858398436,85.3246826171875,41.74185485839844,76.13497358505126,1.1120893958226714,12.610562383021158,1.06875739909784,92.46456680297852,19.5822998046875,74.2493221282959
1143.464,-39.71423110961914,-68.30369186401367,4.318880605697632,-0.9737332582473754,0.247370746731758,0.478390234708786,23.824837493896485,64.42422485351562,-33.622066497802734,-3.3212390899658204,2.5563896179199217,-6.797713789343834,-1.0478851079940796,0.0885920360684394,-0.0265489059500396,119.18949279785156,85.42435150146484,42.933563995361325,79.31566402996194,1.1131502614740063,8.810634793049744,1.052302763407187,95.36465530395508,21.00012664794922,76.55563049316406
1163.083,-37.299027633667,-73.50821456909179,5.72441029548645,-0.9688322424888612,0.239264217019081,0.4965802907943725,22.166611862182616,62.991049194335936,-34.62123260498047,-2.765124464035034,0.3702504873275757,-4.047415480017662,-1.03271119594574,0.0855006933212279,-0.0400531216524541,119.62490386962892,85.48939056396485,43.46139984130859,83.00111497718498,1.1151459305918916,6.170439699616329,1.0372799972672866,97.45829200744627,22.498341369628907,78.08263244628907
1185.655,-32.6736083984375,-79.87181091308594,7.352451419830322,-0.9657980561256408,0.2264824390411376,0.5143612027168274,20.696552658081053,61.42469787597656,-35.525849151611325,-2.328649711608887,-1.340810227394104,-1.160858663916588,-1.0210877895355226,0.0820367008447646,-0.0503451101481914,119.45659942626952,85.51644287109374,43.36659164428711,87.23728324121703,1.1179827664799098,4.626149738368559,1.0257469539833803,98.76004676818847,24.09174499511719,78.89244079589844
1195.705,-29.32966728210449,-87.03614501953125,9.279234218597413,-0.9686893939971924,0.2273973673582076,0.5426629185676575,19.39278259277344,59.70654449462891,-36.33121490478516,-1.7334317207336425,-2.2077767133712767,1.0033462196588516,-1.0086046099662782,0.0714253727346658,-0.0641907893121242,118.9856964111328,85.51364593505859,42.95005722045899,92.90913024241696,1.1339764460644357,4.051520754122337,1.0136427181342995,99.59291381835938,25.807101440429687,79.28127212524414
1220.808,-26.7798770904541,-94.37848205566408,11.098309516906738,-0.9619031310081482,0.2212696194648742,0.5679072618484498,18.225491333007813,57.83626556396485,-37.0496826171875,0.1584685325622558,-2.0904724836349486,2.985907807946205,-1.001338636875153,0.0584298100322484,-0.0771206691861152,118.47510375976564,85.47621002197266,42.45070190429688,99.08922397791004,1.1396418163879696,4.907292033382385,1.006633840064295,100.2496124267578,27.63994445800781,79.50038452148438
1235.873,-23.37274169921875,-101.25321807861329,12.984532737731934,-0.9454638600349426,0.2193377226591109,0.5995397329330444,17.215234756469727,55.81901626586914,-37.67466506958008,3.3280085563659667,-2.6402796983718875,4.76496114730835,-1.0075295090675354,0.0609618570655584,-0.0751923412084579,117.714892578125,85.41084136962891,41.63341217041015,104.87003197771178,1.1425424388303331,7.893336985223987,1.0129271424887958,100.49965782165528,29.591825103759767,79.30807723999024
1258.115,-19.49211711883545,-107.53329620361328,15.322054672241212,-0.9240898728370668,0.2184370070695876,0.6398660659790039,16.377008056640626,53.66141662597656,-38.19244384765625,6.003224515914917,-3.261201190948486,6.466849231719971,-1.0141176581382751,0.0685157757252454,-0.0633415306918322,116.64835205078126,85.31840667724609,40.46423492431641,110.53144691883016,1.147940462723651,10.720483169981872,1.019858019267038,100.27134399414062,31.65699005126953,78.65667877197265
1275.683,-15.602340698242188,-113.377490234375,17.838720512390136,-0.8973824620246887,0.223923635482788,0.6873511791229248,15.707540893554688,51.36920928955078,-38.60262222290039,8.29787187576294,-4.174710369110107,7.748643970489502,-1.0201764225959775,0.0751068528741597,-0.0521364023443311,115.28882598876952,85.2074981689453,38.964562225341794,116.29155048814192,1.155419987585654,12.758589015609791,1.0261084394457884,99.58128509521484,33.83828887939453,77.56718444824219
1298.207,-10.399913930892945,-118.64408264160156,20.696389389038085,-0.8644463777542114,0.2203457444906234,0.724942934513092,15.223111343383788,48.95772399902344,-38.91289596557617,9.88378314971924,-5.7365211009979244,9.194502258300782,-1.0278603315353394,0.0880285762250423,-0.0297619260381907,113.41864166259764,85.07701873779297,36.92556953430176,121.49370022961143,1.151919235828879,15.126578491080409,1.0335510030153092,98.19553031921389,36.11929473876953,75.83846549987793
1320.468,-4.043089437484741,-123.44145355224607,24.194913482666017,-0.8323931217193603,0.2272257149219512,0.7525876045227051,14.954669952392578,46.43703536987304,-39.114567565917966,10.324526691436768,-8.67802300453186,10.69463005065918,-1.0373289823532104,0.0984559312462806,-0.0093662168364972,110.80340576171876,84.93251495361328,34.13240127563476,126.30304867387072,1.146301327411105,17.84393004510879,1.0423227107510156,95.84873580932616,38.49547958374024,73.24696884155273
1335.648,1.947649431228638,-128.2989501953125,28.197634124755854,-0.8036623954772949,0.2368656426668166,0.7912053346633912,14.883973503112792,43.80276107788086,-39.2166130065918,9.381477069854736,-11.721108436584473,11.603219985961914,-1.0308401107788083,0.1028969943523406,-0.0015654753427952,107.62484588623047,84.77601623535156,30.79455451965332,131.62015269458016,1.1540819672404443,19.46250019030392,1.0361494569007077,92.74087238311768,40.9732551574707,70.01116752624512
1358.083,7.195709466934204,-133.4620391845703,32.27140235900879,-0.7780447363853454,0.2482276529073714,0.8236282467842102,14.978370857238769,41.05363082885742,-39.23707504272461,8.06911497116089,-14.938410568237304,12.78786849975586,-1.0213665962219238,0.1076424747705459,0.0029793403577059,103.93419036865234,84.59301452636718,26.96534957885742,137.65996463880853,1.1619012154950346,21.51711859258974,1.0274077215016315,88.95581951141358,43.53938369750976,66.20242462158203
1380.42,12.23835072517395,-138.30115966796876,36.538198471069336,-0.7400182843208313,0.258361992239952,0.8429061770439148,15.221898078918455,38.19553146362305,-39.18478927612305,7.350562000274659,-18.25808906555176,14.472878646850583,-1.0224955797195434,0.1159765779972076,0.0111108290031552,99.77504119873046,84.36265716552734,22.677336311340333,143.79312129048336,1.153412522854103,24.6024618894452,1.0296299023646889,84.553143119812,46.1671257019043,61.86212558746338
1403.6280000000002,16.761012077331543,-142.61788330078124,40.95575485229492,-0.7041259288787842,0.277496725320816,0.8769094944000244,15.594092750549317,35.23455810546875,-39.07004699707032,5.803747081756592,-21.94869079589844,15.909294891357424,-1.0241626501083374,0.1232613533735275,0.0192010652273893,95.19522094726562,84.07848510742187,17.996735763549804,149.5453091013027,1.1610762209239185,28.12676236285241,1.032302268934265,79.6011281967163,48.843927001953126,57.066782760620114
1424.832,19.230349159240724,-147.027392578125,44.92407913208008,-0.6673198819160462,0.2895945429801941,0.9131280541419984,16.032310676574706,32.17070503234864,-38.918738555908206,4.54216833114624,-25.39971923828125,17.06224956512451,-1.0203120470046998,0.1392871618270874,0.0299997255206107,90.38825225830078,83.72750396728516,13.113061618804933,155.06890192456436,1.169374924275716,31.25690094905504,1.030553275880684,74.35594158172607,51.55679893493652,52.03180017471313
1435.575,20.85361404418945,-151.40968017578126,48.549687194824216,-0.6296295523643494,0.2971361458301544,0.9322947978973388,16.50936965942383,29.012249755859376,-38.745941162109375,2.695218032598496,-28.423046112060547,19.06762275695801,-1.01654132604599,0.1505747824907302,0.0408948466181754,85.56803588867187,83.28848724365234,8.252576398849488,160.44148230465788,1.1655028553119595,34.521847509122416,1.0287315623635838,69.05866622924805,54.27623748779297,46.99851756095886
1459.031,22.191119766235357,-155.3606201171875,51.90042266845703,-0.5881651520729065,0.3103100717067718,0.9521902680397034,17.015584182739257,25.767378997802734,-38.557908630371095,1.353668862581253,-30.452209091186525,20.56927375793457,-1.0177482962608335,0.1613775730133056,0.0524335928261279,80.98888549804687,82.77401275634766,3.660082483291626,165.34636379206694,1.1631628783727872,36.92213112932,1.0323049521937278,63.973301315307616,57.00663375854492,42.21799111366272
1477.932,20.822626876831052,-158.97264709472657,54.59625244140625,-0.551588487625122,0.325532054901123,0.967487609386444,17.49041633605957,22.44852390289307,-38.36893844604492,-1.1849320590496062,-31.68543243408203,20.506542205810547,-1.0173011422157288,0.1719394832849502,0.057448149472475,76.75043029785157,82.21845092773438,-0.5411208629608154,169.41220694823042,1.1617017583717228,37.96038754817988,1.0337728204674876,59.26001396179199,59.76992702484131,37.827817583084105
1500.511,19.061814498901366,-162.05339660644532,56.78284301757813,-0.4996656477451324,0.3271493971347808,0.9686585187911988,17.917037963867188,19.066742515563966,-38.1861083984375,-0.8740753114223478,-32.15646476745606,22.3130786895752,-1.011754024028778,0.1746856003999709,0.0663071781396865,73.0779525756836,81.59303131103516,-4.187841558456421,172.79257159977206,1.1401310259734585,39.41618601725904,1.0292896863372127,55.16091461181641,62.52628879547119,33.99826683998108
1523.348,18.294357681274413,-164.3828582763672,58.92886657714844,-0.4490391194820404,0.3356269121170044,0.979434323310852,18.32024154663086,15.634851455688477,-38.00014114379883,-0.8050147473812101,-32.37942390441894,24.062406539916992,-1.0127337336540223,0.1806026011705398,0.0753283202648162,69.98577728271485,80.9042755126953,-7.262127923965454,175.61913305149818,1.1312519461633492,40.59215034318248,1.0318380151875777,51.66553573608398,65.26942405700683,30.738013219833373
1545.571,17.5182804107666,-166.44587097167968,60.98791580200195,-0.3987078785896301,0.3385205924510955,0.9922424912452698,18.69803657531738,12.158791828155518,-37.81805572509766,0.996503269672394,-32.11765098571777,23.805792236328124,-1.0253219604492188,0.1879189670085906,0.085252958536148,67.40057830810547,80.20196075439453,-9.87440881729126,178.1710993666607,1.124476425526476,40.43984498759763,1.0462208176763732,48.702541732788085,68.04316892623902,27.9436469078064
1555.454,13.889486312866213,-167.88373413085938,62.724169158935545,-0.3426703214645386,0.3460744023323059,0.9908213019371032,18.998019790649412,8.65141327381134,-37.63829574584961,1.8442742109298704,-31.81593971252441,23.46729621887207,-1.00964298248291,0.1908367216587066,0.0982514113187789,65.17750701904296,79.49252471923828,-12.150015258789065,179.82617448904995,1.1070739255098243,40.02316235022869,1.033062627719553,46.17948722839356,70.84111144542695,25.48828048706055
1583.736,8.889655876159669,-168.7156982421875,64.21078262329101,-0.2831541955471038,0.3467087447643279,0.9833080172538756,19.1907657623291,5.118631148338318,-37.45122146606445,4.605949282646179,-32.45035858154297,25.01720771789551,-1.006691026687622,0.1912631481885909,0.1044237539172171,63.30299224853516,78.74106140136719,-14.140830612182617,180.9706776883648,1.082870713298686,41.37616351407495,1.03073025999573,44.112226486206055,73.62243025302887,23.310390853881835
1603.466,5.6310193061828615,-169.34710998535155,65.35153732299804,-0.2225613430142402,0.3386706829071044,0.9714686632156372,19.30735054016113,1.5701560735702516,-37.26607131958008,5.788948202133179,-32.91251983642578,23.600023651123045,-1.0039864659309383,0.2010566055774688,0.1190111443400382,61.5970703125,77.99758605957031,-15.992654418945312,181.8070428225688,1.056147386872539,41.02145409405661,1.0315626196373384,42.28971977233887,76.42742998600006,21.273416900634764
1625.86,3.7981767654418954,-170.03200988769532,66.05379486083984,-0.1612601473927497,0.3234400153160094,0.9643437981605528,19.37585411071777,-2.001620888710022,-37.07716598510743,6.691090297698975,-33.5125732421875,25.151441955566405,-0.9906700253486632,0.2140615195035934,0.1338591694831847,60.14931030273438,77.20800323486328,-17.605212020874024,182.5934099358183,1.0342501697905726,42.59061164689463,1.023370466387134,40.7734561920166,79.2096241235733,19.4719539642334
1645.695,-0.0828940391540527,-169.72392578125,65.9585952758789,-0.0904994063079356,0.3194594085216522,0.9424630403518676,19.363077926635743,-5.571135449409485,-36.89444580078125,4.672327876091003,-34.57907943725586,27.782686233520508,-0.9803948998451232,0.2240211576223373,0.1502708703279495,58.87009963989258,76.35234069824219,-19.0105354309082,182.1612262412885,1.004336137633087,44.856165995574486,1.017812870430671,39.50702171325683,81.92347614765167,17.883910369873043
1655.755,-5.027332592010497,-167.9732238769531,65.02922134399414,-0.0214818857610225,0.3050016522407531,0.9180543184280396,19.24268493652344,-9.10476222038269,-36.71105270385742,5.0023850202560425,-37.08337936401367,29.78017120361328,-1.002627718448639,0.2348388761281966,0.1520551055669784,57.69372634887695,75.43636779785156,-20.32713928222656,180.40521951660835,0.9728923103191474,48.07493268818105,1.0419782211559212,38.45104141235352,84.54113001823426,16.383913421630858
1675.8,-7.763355731964111,-165.90347900390626,63.38228149414063,0.0445947237312793,0.2794997036457061,0.8947235822677613,19.05412559509277,-12.589785766601562,-36.53202896118164,4.334702181816101,-38.70185317993164,30.57053146362305,-1.005422556400299,0.2373219966888427,0.1690210521221161,56.56047134399414,74.48517303466797,-21.593579483032222,178.11208823851916,0.9432975638712292,49.764868171477374,1.0474089026543103,37.50634574890137,87.07495880126953,14.938449478149414
1697.956,-9.209578895568848,-163.84813537597657,61.24162292480469,0.1011831007897853,0.262687000632286,0.8743183732032775,18.827975845336915,-16.024112510681153,-36.36450042724609,3.411005139350891,-40.84885101318359,31.514195251464844,-0.981132161617279,0.2646796345710754,0.176677343249321,55.4939208984375,73.4822998046875,-22.785883331298827,175.46042572211454,0.9234496021617088,51.997581431565536,1.0330486683037496,36.665945053100586,89.50641231536865,13.578617095947266
1715.832,-12.973472499847412,-160.72962341308593,59.28246841430664,0.1569701872766017,0.2539873540401458,0.8478700876235962,18.51750144958496,-19.377983474731444,-36.196668243408205,1.2879571199417117,-42.01616668701172,33.0217399597168,-0.9839609026908874,0.2663807332515716,0.1874138504266738,54.49115982055664,72.44422760009766,-23.876513290405278,171.94057720190608,0.9023373774770772,53.7759288844493,1.0381698519949782,35.97365837097168,91.8222110748291,12.32015495300293
1737.868,-17.0143102645874,-156.6369598388672,57.50307693481445,0.2048272013664245,0.2306612581014632,0.8087899684906006,18.10776023864746,-22.64297218322754,-35.997511291503905,1.3217483043670657,-43.174075317382815,34.07008590698242,-0.9767194032669068,0.2491587251424789,0.194143384695053,53.556542205810544,71.3864517211914,-24.906895065307616,167.8572666611978,0.8689120592663121,55.33716294138263,1.0287249695979424,35.448781967163086,94.02942390441896,11.090616226196287
1760.25,-16.67499523162842,-152.92823791503906,55.93532791137695,0.2464327186346054,0.2090160220861434,0.7867196917533874,17.682260513305664,-25.82532501220703,-35.7733268737793,-0.4195771694183348,-44.06876220703125,34.09376487731934,-0.9659278869628908,0.2451377421617507,0.2049157381057739,52.64550933837891,70.3199234008789,-25.8888298034668,163.82186339641453,0.8529499242455374,56.05432140981155,1.019285708905819,34.963248825073244,96.14524841308594,9.8844970703125
1775.987,-16.616778755187987,-148.90089416503906,54.06417007446289,0.282192575931549,0.2074176967144012,0.771244478225708,17.250658798217774,-28.91388397216797,-35.53798904418945,-1.3379127025604247,-44.03776016235352,34.101288604736325,-0.9375765442848204,0.2648070365190506,0.205382615327835,51.84483947753906,69.24802856445312,-26.75171623229981,159.429118301374,0.8492652567356211,56.01673365391066,0.9973994702770346,34.59418067932129,98.16191253662107,8.78627281188965
1797.9050000000002,-20.26984634399414,-144.03353576660157,51.84226989746094,0.3211863577365875,0.2034829914569854,0.7525789856910705,16.737723731994627,-31.894226455688475,-35.28148345947265,-2.1804633140563965,-42.81020202636719,36.57673263549805,-0.9518959879875184,0.2585377484560013,0.2004852712154388,51.24704360961914,68.16266021728515,-27.39109001159668,154.50739655388597,0.8455200139716894,56.52067793094121,1.0077206391702578,34.50931987762451,100.05688667297362,7.890393447875977
1820.132,-23.53578186035156,-139.08959350585937,48.769013214111325,0.3612860679626464,0.187571769952774,0.7113020181655884,16.154533767700194,-34.76911506652832,-35.02799835205078,-3.0272687911987304,-40.57281112670898,32.71830253601074,-0.9441457271575928,0.255826535820961,0.1923395454883575,50.6580307006836,67.17326049804687,-28.012409591674803,149.364048429392,0.8223625471189363,52.4038845666055,0.9981000963953536,34.5034969329834,101.9423755645752,7.015588760375977
1842.824,-22.93812866210937,-134.57465057373048,45.30349960327148,0.4012597560882568,0.1748612135648727,0.6928354024887085,15.581635475158691,-37.54053726196289,-34.787566375732425,-3.018770492076874,-38.07233848571777,29.80337142944336,-0.9409563302993774,0.2755351483821868,0.1893967866897582,50.144161987304685,66.26091003417969,-28.566324996948243,143.9496345473986,0.823741099299691,48.603955921287,0.9990104253941632,34.56252651214599,103.80144729614258,6.22124137878418
1865.275,-23.086335754394533,-130.17699737548827,41.36463928222656,0.4434836387634277,0.1645721405744552,0.6618266820907592,15.01970443725586,-40.214324188232425,-34.58109970092774,-1.6232246279716491,-34.14114799499512,28.01362190246582,-0.91729177236557,0.2935537219047546,0.1843089550733566,49.80299377441406,65.42030487060546,-28.975735473632813,138.61310546785998,0.8181339621065377,44.39602150042483,0.981248357765176,34.7832893371582,105.63462905883787,5.605364227294922
1875.918,-23.917535018920898,-125.32912139892578,37.55663299560547,0.4934332430362701,0.1535313129425048,0.6314547419548034,14.456646156311034,-42.78858337402344,-34.40819625854492,0.4229622006416322,-31.02719612121582,27.234814071655272,-0.922896194458008,0.2896851181983947,0.1817718476057052,49.60232925415039,64.63795700073243,-29.27938232421875,133.0848432111124,0.8201198176874304,41.71752185037941,0.9848485430342342,35.14568309783935,107.42654037475585,5.128813934326172
1897.95,-24.010888671875,-120.12847595214843,33.64567565917969,0.5371094763278961,0.1366141155362129,0.5917335629463196,13.908143234252927,-45.25897216796875,-34.27103042602539,2.912474834918976,-27.61416473388672,23.38044319152832,-0.9158156752586364,0.2916301667690277,0.1859552949666976,49.46709671020508,63.96212921142578,-29.55651130676269,127.13732419039736,0.8144358826989851,36.936825674294894,0.9796429126479392,35.55895347595215,109.22110137939453,4.714519119262695
1917.637,-21.701152038574214,-115.08515014648438,30.23519821166992,0.5804641723632813,0.1203310564160346,0.5752237439155579,13.41392879486084,-47.62178497314453,-34.15800094604492,5.317799389362335,-23.912460708618163,21.42233772277832,-0.9073299884796142,0.3070242047309875,0.1964194059371947,49.45761337280273,63.3624755859375,-29.7408390045166,121.03392377246652,0.8293588681180732,32.861232054853126,0.978476801380018,36.043684577941896,110.98426055908205,4.41716194152832
1940.275,-21.003541564941408,-109.54741973876952,27.064907836914063,0.6180310249328613,0.1180288761854171,0.5466640412807464,12.95647430419922,-49.87076568603516,-34.07892227172852,4.932603693008423,-19.896949768066406,18.62336483001709,-0.8942854642868042,0.3219593346118926,0.1972768038511275,49.50486068725586,62.85415191650391,-29.841369247436525,114.83956926516385,0.8362332440474581,28.04398576622484,0.9713686872719204,36.54838638305664,112.72491760253908,4.2375530242919925
1959.998,-20.543008041381835,-103.1432327270508,24.375894165039064,0.6555618405342102,0.1046249151229858,0.5113379299640656,12.510024452209471,-51.99736709594727,-34.01059265136719,4.549094557762146,-16.4726900100708,16.353184127807616,-0.9015739560127258,0.3099558353424071,0.2020369499921798,49.57737579345703,62.43742294311524,-29.88633041381836,107.98637230647068,0.8411229290466877,23.99164975055975,0.9752090940418676,37.06735134124756,114.4347900390625,4.1242622375488285
1982.552,-18.73085746765137,-96.36534271240234,22.114491653442386,0.6821834444999695,0.0888078749179839,0.4844684958457946,12.089080238342286,-53.98806304931641,-33.93821258544922,3.666785788536072,-12.713732147216795,12.979703903198242,-0.8944677829742431,0.3154771804809569,0.2149410992860793,49.65426483154297,62.12159957885742,-29.894551467895507,100.6497322615187,0.8436695125964248,18.919511221539217,0.9730158701799704,37.56518459320069,116.10966262817382,4.04366111755371
2006.304,-17.64037170410156,-89.41147308349609,20.057629203796388,0.711275053024292,0.0846084997057914,0.4644793033599853,11.689297676086426,-55.8373046875,-33.87089309692383,1.4731856822967528,-9.100210475921632,11.001934814453126,-0.8892472743988037,0.3300207257270813,0.2205477088689803,49.74572830200195,61.87403030395508,-29.83773727416992,93.36070215347394,0.8559449941072801,14.739994144860669,0.9745190414308292,38.056430625915525,117.71133499145508,4.033155822753907
2016.388,-19.34378700256348,-81.50746459960938,17.987357139587402,0.7347944617271424,0.0802487991750239,0.4324730217456817,11.252760696411134,-57.53166122436524,-33.80748291015625,-1.1276280879974363,-5.070871925354004,9.331370067596437,-0.878833782672882,0.3257015407085418,0.2210879981517791,49.85086898803711,61.702999877929685,-29.704405212402342,85.91796099770701,0.8578644322988737,13.025513386299664,0.9637196699928052,38.59810829162598,119.23466110229492,4.103077697753906
2046.202,-20.730621337890625,-72.77831420898437,15.877973747253415,0.7613243341445923,0.0654159046709537,0.3963378369808197,10.773063468933106,-59.061186981201175,-33.737109375,-2.8308253288269043,-1.3436337471008302,7.206185436248779,-0.876886248588562,0.3194338679313659,0.2228129416704177,49.96875915527344,61.61530990600586,-29.516101837158203,77.70619991150645,0.8627112067185264,12.332230533486117,0.9601005753112746,39.19569568634033,120.67649688720704,4.221007537841797
2066.071,-20.520962524414063,-63.58544464111328,13.544280815124512,0.7823924422264099,0.0559619039297103,0.3699967682361603,10.293128395080569,-60.40924758911133,-33.66959228515625,-5.905202507972717,1.696622085571289,4.649550247192383,-0.8767515778541565,0.32619988322258,0.2268267393112182,50.05047073364258,61.60228042602539,-29.299224853515625,68.45844464792009,0.870196522536261,12.309107859993842,0.9629153966225734,39.75734233856201,122.01152801513672,4.370367431640625
2076.269,-19.46331157684326,-53.67422790527344,10.743832588195804,0.8044580459594727,0.0508811585605143,0.3378190040588379,9.855813789367676,-61.56506423950195,-33.63308486938477,-10.661347794532777,4.327065086364746,2.0261996269226072,-0.8612963080406189,0.3323563396930694,0.2161949813365936,50.06522674560547,61.66029434204101,-29.05450820922852,58.22675801364536,0.876393301326269,13.961624042477002,0.9486490957913972,40.20941295623779,123.22535858154296,4.57857666015625
2096.073,-17.844858932495118,-42.42064971923829,7.89370973110199,0.818058431148529,0.042585078626871,0.3145236134529113,9.467274284362793,-62.496743774414064,-33.621035766601565,-15.63146152496338,5.984956169128418,0.3910605907440185,-0.8558209776878357,0.3233407974243164,0.2060686856508254,49.99446563720703,61.77253494262696,-28.7954963684082,46.85012769893135,0.8786134332894399,17.38718193851319,0.938201328653374,40.52719135284424,124.26927871704102,4.825539398193359
2116.235,-14.973060607910156,-29.83928551673889,4.822500729560852,0.8244978547096252,0.0424156881868838,0.2916005373001098,9.170858764648438,-63.17716064453125,-33.650054168701175,-19.990775299072265,6.292614269256592,-1.100039792060852,-0.8663147926330567,0.3276654183864593,0.1978254377841948,49.82531585693359,61.91642379760742,-28.553250122070317,35.047944683744355,0.8757502067033467,21.20785168945764,0.9474209948063264,40.65445709228516,125.09358444213868,5.09680404663086
2138.176,-12.445466613769533,-16.468435716629028,1.8153174638748169,0.8232361674308777,0.0429017610847949,0.275139433145523,8.957501220703126,-63.576961517333984,-33.7197624206543,-23.256765365600582,7.56895751953125,-2.03325674533844,-0.8707252979278565,0.327165001630783,0.1997343868017196,49.60482482910156,62.09070129394532,-28.29534797668457,26.618500140319384,0.869408004796572,24.711668808357366,0.951715851472126,40.64732360839844,125.6676628112793,5.424414443969726
2158.659,-10.266910171508789,-2.763834810256958,-1.3645403623580932,0.8178625702857971,0.0415244460105895,0.2588009804487228,8.832326126098632,-63.67933197021485,-33.84018249511719,-24.54510345458984,9.453026294708252,-1.884541821479797,-0.8609426856040955,0.3329996049404143,0.1982167273759841,49.42664794921875,62.28161087036133,-27.96308670043945,22.61111249291212,0.8594286221066592,26.756020426534118,0.9444256175148148,40.59432182312012,125.96094284057617,5.877095794677734
2175.992,-6.797270202636719,11.405155515670778,-4.592358088493347,0.806644332408905,0.0383505441248416,0.2513015449047088,8.813064575195312,-63.48636169433594,-34.005994415283205,-24.500337600708008,10.897926235198977,-0.2846649885177613,-0.8641907691955566,0.3345048546791076,0.2019046813249587,49.33128890991211,62.46445541381836,-27.53837432861328,24.028828521530933,0.8463186190062484,27.34372827542828,0.9487047258024754,40.5182243347168,125.9508171081543,6.467620086669922
2197.6270000000004,-2.264915466308593,25.94788775444031,-7.861785364151001,0.7936566352844239,0.0386607952415942,0.2403159916400908,8.920019912719727,-62.99469528198242,-34.21475982666016,-22.21098976135254,12.24957275390625,0.126136803627014,-0.8665335774421692,0.3365139305591583,0.1996060043573379,49.33830795288086,62.65738372802734,-27.05138168334961,31.30477604765157,0.8305000572313148,25.811232535697275,0.9511329091267408,40.41828804016113,125.65207901000976,7.163378143310547
2220.0660000000003,3.018245124816895,40.69881114959717,-11.142979621887209,0.7841961503028869,0.032922152802348,0.2359968006610869,9.152801132202148,-62.18683242797852,-34.45101623535156,-17.651571846008302,13.458621215820312,0.5205825120210646,-0.860571813583374,0.3348391473293304,0.200387555360794,49.48334655761719,62.85679779052735,-26.511796951293945,43.868903778589,0.8198773637144736,22.78393487565144,0.9452440514389592,40.33054542541504,125.04363021850584,7.939219284057617
2242.399,8.851286888122559,56.04069633483887,-14.829460144042969,0.774178946018219,0.033054457977414,0.2472542226314544,9.523398399353027,-61.06387939453125,-34.718038940429686,-12.08754299879074,13.901015853881836,1.983903530240059,-0.8620826125144958,0.3296182513236999,0.1993249416351317,49.79004974365235,63.03956451416016,-25.915312194824217,58.95500197785071,0.8138792022164832,19.85664298022288,0.9447555014366186,40.26665134429932,124.1034439086914,8.802726745605469
2263.703,13.67795696258545,72.65610733032227,-18.10916690826416,0.7606040596961975,0.0286380648612975,0.2682050675153731,9.979323768615725,-59.60607223510742,-34.97212295532226,-5.0425623774528505,14.332883071899412,2.9341406136751176,-0.8762810945510864,0.325607943534851,0.1992077708244323,50.27414245605469,63.214620971679686,-25.277199935913085,76.1404843281008,0.8078252229673698,19.38334807246135,0.9563271727726336,40.29481868743896,122.82069320678713,9.69492301940918
2276.152,18.614313888549805,89.73059539794922,-21.20896606445313,0.7434586882591248,0.0213921365793794,0.2774593293666839,10.504129981994629,-57.7892707824707,-35.19389877319336,2.872246277332306,15.4725435256958,2.695645597577095,-0.8978075623512268,0.3244828939437866,0.2044171154499053,50.94078140258789,63.40686721801758,-24.61016426086426,94.1185695763666,0.7946938515253829,20.275063178562625,0.9765902764181684,40.43665142059327,121.19613800048828,10.583734512329102
2300.047,25.73600826263428,106.01672058105468,-24.92490043640137,0.7202624082565308,0.0191890174057334,0.289408391714096,11.147136878967284,-55.62607650756836,-35.389093017578126,8.652598679065704,17.500045013427734,2.500827673077583,-0.8941279411315918,0.3200182557106018,0.2212616056203841,51.76336288452149,63.61666030883789,-23.892917251586915,112.11100017708928,0.77739401180353,21.812242611396563,0.9754899402454004,40.6162260055542,119.24273681640624,11.496175765991213
2323.058,33.708961486816406,120.68870697021484,-29.41992607116699,0.6900816321372986,0.0259136436041444,0.3104589223861694,11.935414886474607,-53.16189041137695,-35.571869659423825,12.47897540330887,19.24098415374756,4.796357488632202,-0.8773423790931701,0.3223019361495972,0.2357284873723983,52.76240234375,63.79297027587891,-23.06494865417481,129.05816892077678,0.7588593691724177,24.355726929064783,0.9648859898372166,40.82698745727539,116.95486068725586,12.506921005249025
2346.242,39.04826698303223,134.0630111694336,-33.90411109924317,0.6548294425010681,0.0381516804452985,0.3482209801673889,12.80796241760254,-50.41460189819336,-35.73346481323242,16.01582622528076,19.144455909729004,7.244126844406128,-0.874365258216858,0.3366948962211608,0.247985753417015,53.88294143676758,63.910010528564456,-22.197314453125,143.97361979138662,0.7481961311161088,26.83351534595975,0.9700130578444048,41.07497901916504,114.3246124267578,13.536150360107422
2356.303,41.91686515808105,146.30932159423827,-38.33203887939453,0.616636323928833,0.0581427121069282,0.3794808089733124,13.71403636932373,-47.415016174316406,-35.863763427734376,17.85329532623291,19.867490577697755,6.223629283905029,-0.8656289458274842,0.3465467453002929,0.2619909107685088,55.03290786743164,64.03373184204102,-21.35361557006836,157.23158620696256,0.7335877263231361,28.565547497246374,0.9690866925060376,41.31887149810792,111.44874801635744,14.510147857666016
2379.923,42.65683059692383,156.88889770507814,-41.89107360839843,0.5739938974380493,0.0715209420770406,0.4256353259086609,14.592030715942382,-44.19923706054688,-35.941064453125,16.708450889587404,23.86003856658936,3.853494739532471,-0.8558472037315369,0.3373700320720672,0.2821396827697753,56.22096252441406,64.22758560180664,-20.45396614074707,168.24761997212946,0.7252585739417735,31.47699305181619,0.9628883397489348,41.62893180847168,108.42682266235352,15.48709831237793
2399.833,39.467477035522464,166.25869445800782,-44.57447967529296,0.5267444372177124,0.0999410703778266,0.4797161936759949,15.36754913330078,-40.786878204345705,-35.95567626953125,15.007101345062257,27.01407947540283,-1.6919832706451416,-0.8682931900024414,0.3307156443595885,0.2884946346282959,57.363714599609374,64.54404830932617,-19.568941116333008,176.97873452828915,0.7274400754095822,35.49950622310659,0.9738955571933424,41.9961654663086,105.33092651367188,16.38673515319824
2422.16,33.596075439453124,174.69405212402344,-46.43246917724609,0.4729416966438293,0.1149323999881744,0.5396458029747009,15.973712730407716,-37.18727607727051,-35.893167877197264,13.602457809448245,31.005805015563965,-14.44745545387268,-0.8798795104026794,0.335313493013382,0.2912442743778228,58.35746841430664,65.11131973266602,-18.81870231628418,184.03765755161416,0.735718170220381,43.33702815161167,0.986610745232085,42.383755683898926,102.29859580993651,17.074465560913087
2442.307,28.67951431274414,181.4266479492188,-48.221553039550784,0.4101055800914764,0.1401951134204864,0.6050370216369629,16.456266593933105,-33.43519630432129,-35.78047637939453,9.325258350372314,37.53623695373536,-27.29722962379456,-0.8721102118492127,0.3485677003860473,0.2909810960292815,59.26496124267578,65.9530242919922,-18.07065963745117,190.047212728714,0.7593777806171401,51.2110405978029,0.9850759195466798,42.80869464874267,99.38822059631347,17.70981674194336
2464.766,23.71571979522705,186.04598388671877,-50.27469024658203,0.3408495724201202,0.1608756989240646,0.6656917452812194,16.83763885498047,-29.565506744384766,-35.65233383178711,4.2959078550338745,42.821695709228514,-36.59270820617676,-0.8755747199058532,0.3512336909770965,0.2759795039892196,60.13370971679687,66.99830322265625,-17.260569190979005,194.441981134149,0.7792634105091593,58.223151233566455,0.9853961408677464,43.2960708618164,96.563809967041,18.391764640808105
2484.898,17.71514263153076,189.64703979492188,-52.54386520385742,0.2707038789987563,0.1928824871778487,0.7194694995880127,17.12208824157715,-25.60807113647461,-35.53489608764649,0.5998002767562867,44.7643310546875,-44.62405586242676,-0.883543074131012,0.3474656879901885,0.2508089870214462,60.92915344238281,68.19572143554687,-16.458587646484375,197.8443535513304,0.80293128984256,63.565214180336895,0.9848048166828716,43.80706520080567,93.80379257202148,19.07630844116211
2495.419,13.4142879486084,192.4774169921875,-54.42737503051758,0.1999114640057086,0.2022764712572097,0.7706052184104919,17.331788635253908,-21.589027976989748,-35.42252197265625,-0.0843758821487426,46.86502456665039,-50.084902954101565,-0.8930965185165405,0.343015170097351,0.2332205682992934,61.77754745483399,69.50110626220703,-15.606604194641111,200.6187480714072,0.8292436003298583,68.73255963262878,0.9882295628168322,44.44575881958008,91.09013423919676,19.815917778015137
2514.729,9.434780025482178,194.4865478515625,-56.08982315063477,0.1250090297311544,0.2280726432800292,0.8256028294563293,17.48389015197754,-17.531089210510252,-35.32440719604492,2.576250433921814,47.41839447021484,-50.04891357421875,-0.9195617318153382,0.3136162430047988,0.2092593938112258,62.81930999755859,70.8178482055664,-14.618523597717283,202.6994610143027,0.8721664423290483,69.51134368502532,0.9987741159433222,45.33541984558106,88.34893741607667,20.70588359832764
2537.871,5.701338472962379,195.42442626953124,-57.45430145263672,0.0554185282438993,0.2344684243202209,0.8554711222648621,17.571303176879884,-13.45284366607666,-35.237649536132814,8.880656313896178,47.21374130249024,-51.09641952514649,-0.933788800239563,0.2831534475088119,0.1798092752695083,64.11542358398438,72.1482666015625,-13.49533290863037,203.80802347075735,0.8950026435967511,71.19459179313438,0.9946016406642596,46.544120407104494,85.60111026763916,21.74231662750244
2555.026,3.62967087328434,196.1139373779297,-58.48871307373047,-0.006419812515378,0.2445432990789413,0.8811116814613342,17.62602081298828,-9.362181568145752,-35.16237030029297,13.409280109405518,46.396271514892575,-51.29673767089844,-0.9293322920799256,0.2735978752374649,0.1676938861608505,65.64291610717774,73.45911865234375,-12.223436164855958,204.726696830314,0.9191247518101344,71.46828197090895,0.98474723736515,48.01689529418945,82.8213002204895,22.93893413543701
2577.727,3.353631654381752,196.46188659667968,-59.87557220458984,-0.0547701034694909,0.2527688264846801,0.8787609934806824,17.686252975463866,-5.245429515838623,-35.107869720458986,18.1191686630249,43.95024642944336,-50.91731491088867,-0.9406657099723816,0.2774642139673233,0.163270679116249,67.33200531005859,74.72212829589844,-10.878864574432374,205.45727863583775,0.918753594704374,70.19182063660443,0.9956604618619984,49.645752334594725,79.96755781173707,24.22900514602661
2599.743,3.5567408233880995,197.86586303710936,-61.0062744140625,-0.0981826793402433,0.2678570985794066,0.8794520735740662,17.761185455322266,-1.0843655586242675,-35.06016540527344,19.529998779296875,40.92555618286133,-49.93910903930664,-0.9420611262321472,0.2673669874668121,0.1433567643165588,69.12574157714843,75.93167572021484,-9.452204608917237,207.13148354402787,0.926085547822527,67.70858933269051,0.9916440957704712,51.36455612182617,77.01604127883911,25.607960796356203
2616.1020000000003,3.600341287255288,199.92254333496092,-62.367822265625,-0.1353225380182266,0.2784805893898009,0.9144964694976808,17.83850517272949,3.126655673980713,-35.0226188659668,20.445663833618163,37.41111526489258,-48.68246688842773,-0.9464244604110718,0.2813600450754165,0.1390321016311645,70.96516265869141,77.06855163574218,-7.994806575775146,209.49549904345912,0.9665599748911669,65.06882185174408,0.998539870317084,53.12665748596192,73.94189596176147,27.02781229019165
2638.251,2.323144316673279,203.1869354248047,-64.04147567749024,-0.1723973080515861,0.2868773937225341,0.8808308601379394,17.89856300354004,7.4186985969543455,-34.99378967285156,21.036904907226564,32.9490779876709,-45.26758575439453,-0.9603011250495912,0.3034107476472855,0.1678963005542754,72.83399353027343,78.10503692626953,-6.518515539169312,213.1311293488152,0.9448904147136906,60.536548118986346,1.0239974407777968,54.9354305267334,70.68633832931519,28.47527413368225
2659.4730000000004,5.258051967620849,207.7985717773437,-64.28394927978516,-0.2208999082446097,0.2869526267051696,0.8502675056457519,18.028632354736327,11.809445190429688,-34.939938354492185,17.232765483856202,29.20429382324219,-43.347303009033205,-0.981991684436798,0.3257226675748824,0.1970538705587386,74.66022644042968,79.08714599609375,-5.006447863578797,217.69753712207563,0.9296660920854884,56.05755701663429,1.058258592467732,56.63159408569336,67.27770080566407,29.933490490913396
2682.286,10.611632156372073,213.5187957763672,-64.038330078125,-0.2895489186048507,0.2747480928897857,0.8782925367355346,18.27846908569336,16.30025691986084,-34.8402587890625,2.590613460540773,24.93403015136719,-38.69627494812012,-0.9907298803329468,0.3360378116369247,0.2132208555936812,76.17000122070313,79.95756225585937,-3.5201066851615908,223.50796450764423,0.9727410437875,55.5681300504008,1.072822321032215,57.89153213500977,63.65730533599854,31.32015210390091
2704.097,14.23716049194336,217.98470458984372,-64.5836898803711,-0.3957488268613814,0.2975927233695984,0.9002320766448975,18.624494552612305,20.8684606552124,-34.69762344360352,-13.631871509552,20.35629692077637,-29.365377759933477,-1.0163870811462403,0.3405060857534408,0.2349837839603423,77.297119140625,80.61298065185547,-2.0924595952034,228.23449838710275,1.0402879324912953,58.04068200679488,1.1016929884310798,58.672624588012695,59.74451999664306,32.60516384840012
2714.919,17.11015100479126,222.5270904541016,-63.85131301879883,-0.4963427782058716,0.2894475996494293,0.8289867043495178,19.084053802490235,25.5207763671875,-34.47439956665039,-27.04390459060669,15.98503999710083,-20.58561594486237,-1.0207249045372009,0.32007617354393,0.2455889731645584,77.97971801757812,81.07633819580079,-0.8457726955413818,232.5414809090419,1.0208516754947972,55.26975904873719,1.103076509654635,58.89566421508789,55.55556182861328,33.628626871109006
2738.083,23.55905742645264,227.9688293457031,-61.11556701660156,-0.6200565457344055,0.2851151823997497,0.8130039811134339,19.768229293823243,30.245603561401367,-34.08306121826172,-43.83066987991333,9.712368297576903,-12.83888008594513,-1.0049291253089905,0.2676659017801285,0.2278492629528045,77.80178680419922,81.35559539794922,-0.136977595090866,237.3151953149776,1.0777178131098542,55.197075928286914,1.071011408757525,58.03355751037598,51.10999183654785,33.94608362317085
2757.045,29.86569175720215,231.96710205078125,-58.77672271728515,-0.7532906532287598,0.2906363487243652,0.8235004067420959,20.7187442779541,35.01994705200195,-33.50800666809082,-57.81646041870117,0.6876311302185065,-1.9949261903762825,-1.0173320055007935,0.2189261615276336,0.2096372097730636,76.52918853759766,81.37110595703125,-0.2578917920589447,241.3735141723058,1.1702014518707755,60.53665905022424,1.0638780376905348,55.81044425964355,46.351158905029294,33.25011487603187
2780.296,32.86611976623535,233.2209014892578,-56.81724166870117,-0.8975361943244934,0.3229077994823456,0.7582911610603332,21.912831115722657,39.78946762084961,-32.70240097045898,-64.4260383605957,-10.29404001235962,3.757371973991394,-1.0273825645446777,0.1798755973577499,0.1884576231241226,73.94861602783203,81.20264129638672,-1.568929034471512,242.5867863999221,1.2347275818044154,67.50295389657606,1.0604666273084693,52.03578491210938,41.41317367553711,31.133471935987476
2799.682,36.91254081726074,232.3614074707031,-52.927832794189456,-1.0129675269126892,0.3094541788101196,0.6851525187492371,23.448613739013677,44.50311050415039,-31.598295211791992,-74.30108413696288,-21.68816728591919,3.997153615951538,-0.9805071711540222,0.1660494744777679,0.1515553783625364,70.00916290283203,80.9371551513672,-4.058712583780289,241.51204656092705,1.2733480067271554,78.99762094107061,1.0079814243838388,46.560549163818365,36.4340446472168,27.539582628011704
2822.019,42.02054328918457,229.27896118164065,-48.57348480224609,-1.1309134483337402,0.3252877652645111,0.6255903840065002,25.442097091674803,49.096318054199216,-30.09071273803711,-92.01224365234376,-28.916564750671387,5.735944199562073,-0.9672455787658693,0.1438140511512756,0.1028761949390172,65.17823944091796,80.5796401977539,-7.095127266645432,238.3045734407984,1.344002360435677,97.32884955373012,0.9888694782120356,39.73614234924317,31.483322143554688,22.99558547139168
2844.507,46.301144409179685,222.22628479003907,-44.92464904785156,-1.2258452892303466,0.337382960319519,0.582937341928482,27.954886627197265,53.50039749145508,-28.13705520629883,-101.74019775390624,-33.23307991027832,7.0544766664505,-1.007854127883911,0.1106972739100456,0.0665756799280643,60.00128402709961,80.13993530273437,-10.288852167129516,231.45675135224096,1.408187894057192,107.81557469247966,1.0242489962091907,32.04639739990235,26.639537811279297,17.848203039169313
2854.832,45.86024627685547,210.9495178222656,-41.873503875732425,-1.2847013235092164,0.3487830817699432,0.4950248658657074,30.95063247680664,57.623155212402345,-25.68591690063477,-102.26595001220704,-35.80015983581543,6.317980122566223,-1.0043845415115356,0.0762416653335094,0.004834309965372,54.913719177246094,79.66450958251953,-13.388725852966308,219.94671454745017,1.4236471525864078,109.08567787382842,1.0140430426061595,23.96308670043945,22.041354370117187,12.297191047668456
2884.43,43.4908332824707,196.9497985839844,-37.69460945129394,-1.3002174854278563,0.3459486305713654,0.4361821472644805,34.46582527160645,61.39465637207032,-22.67675552368164,-94.21690521240234,-31.851430892944336,5.795902895927429,-0.9916459321975708,0.0549717776477336,-0.0615701220929622,50.662157440185545,79.2047607421875,-15.81827907562256,205.20378628816025,1.4175724521876991,100.1105671401367,1.0001522276966743,16.196332168579097,17.810104370117188,6.858476448059082
2904.582,38.94020385742188,180.3079376220703,-34.38492317199707,-1.2858872175216676,0.3460090160369873,0.363200682401657,38.4512580871582,64.76232986450195,-19.121667289733885,-74.66447982788085,-24.20234794616699,5.271747159957886,-1.014283585548401,0.029524928331375,-0.1141209635883569,47.577484130859375,78.81573333740235,-17.470868873596192,187.67448483051825,1.3828779021669793,79.16954682825771,1.0254208045110893,9.12622604370117,14.05340347290039,1.6507984161376954
2914.821,34.127253723144534,159.89461517333984,-31.46090621948242,-1.2562808036804198,0.3402114570140838,0.3124456793069839,42.78394775390625,67.6640838623047,-15.162752151489258,-50.773800659179685,-17.890506553649903,2.0499431133270263,-1.02173455953598,0.0311712324619292,-0.1636652428656816,45.32605743408203,78.54109954833984,-18.77280616760254,166.5426169465674,1.3412984784786794,55.157825035453484,1.0416175732177604,2.542109680175781,10.877015686035156,-3.610054016113281
2939.659,28.99874610900879,136.24304656982423,-28.68565101623535,-1.1983954906463623,0.3397217452526092,0.2609968155622482,47.20980453491211,70.05175323486328,-11.050461053848268,-31.1834303855896,-8.151839256286623,-2.8739147663116453,-0.9906024217605592,0.0506489515304564,-0.2284970581531524,43.86743698120117,78.46891632080079,-19.675135803222656,142.29224328445557,1.273718747292539,39.164737424282656,1.0214475725986956,-3.3423675537109374,8.4171630859375,-8.624674749374389
2954.3810000000003,23.593081474304203,111.89749069213867,-25.856735610961916,-1.1428508758544922,0.3487381696701049,0.2389497727155685,51.44732666015625,71.93927612304688,-7.068060475587845,-14.374562740325928,6.22290515899658,-8.805625581741333,-0.9781752586364746,0.068617246299982,-0.2561329782009124,43.37484130859375,78.68396453857422,-19.945209121704103,117.39967774109188,1.2193919910694846,32.291905712676865,1.015277986355787,-8.0724853515625,6.744688415527344,-12.877148646116256
2976.954,18.375506019592287,87.63527069091796,-24.058123779296874,-1.0933781385421752,0.3530599057674408,0.2215862959623336,55.17287216186524,73.38672943115235,-3.5450938045978546,-1.006448650360107,19.497458839416502,-13.559324836730957,-0.9711398959159852,0.0947017647325992,-0.2502630531787871,43.80823287963867,79.15518493652344,-19.554992294311525,93.12723539938936,1.1710233783216826,33.2270991095083,1.010397916765422,-11.364639282226562,5.768455505371094,-16.00989848971367
2999.441,13.98449935913086,63.14587593078613,-22.23585662841797,-1.065639615058899,0.3532739758491516,0.2260706305503844,58.022187042236325,74.44030151367187,-0.8775270760059357,5.87803087234497,32.732414436340335,-17.655999755859376,-0.9676729679107664,0.125265485048294,-0.2393330395221709,45.24002914428711,79.86876983642578,-18.30057601928711,69.47394339486983,1.145901615710747,40.92306470995835,1.008272662838231,-12.78215789794922,5.428468322753906,-17.423048943281174
3014.624,10.98696165084839,39.06762008666992,-20.72576026916504,-1.0409317016601562,0.3543513834476471,0.2229328244924545,59.7299057006836,75.1630645751953,0.63912712931633,9.081891298294067,47.06671943664551,-21.83620948791504,-0.9638132810592652,0.1281706765294074,-0.2393882870674132,48.06775436401367,80.82840576171876,-15.70063133239746,49.9551179057829,1.1223680590365737,53.549282269054935,1.0048420471102522,-11.662151336669922,5.665341186523437,-16.339758461713792
3037.143,6.921965622901917,17.267832565307618,-19.020090675354005,-1.0393401622772216,0.3649511635303497,0.2516739934682846,60.17454528808594,75.62008209228516,0.915000694990158,14.134135007858276,58.49682159423829,-24.13258590698242,-0.9738676190376282,0.1186111845076083,-0.2116161674261092,52.96574172973633,81.93555297851563,-11.12107744216919,37.450973831527776,1.1316854316217762,65.35847379386726,1.0072446736302303,-7.20880355834961,6.315470886230469,-12.036078137159349
3059.389,2.7414117097854613,-2.128438949584961,-17.177248191833495,-1.0431490182876586,0.3684820771217346,0.28215072453022,59.38669052124023,75.85086822509766,-0.0042764663696289,21.5808078289032,64.75639419555664,-24.34495887756348,-0.9972161889076232,0.1249717287719249,-0.1630923407152295,60.42004928588867,83.03094482421875,-4.119879245758056,31.79734457963553,1.144857974398967,74.14922067672515,1.0253330070315314,1.0333587646484377,7.180076599121094,-4.115602779388428
3082.08,-1.5347908735275269,-19.10523567199707,-14.57619400024414,-1.0504592418670655,0.3708015501499175,0.3372681766748427,57.50842514038086,75.86309661865235,-1.9637979507446288,26.99488520622253,67.8484977722168,-23.85586624145508,-1.0268702507019043,0.1337377272546291,-0.1205958442762494,70.41946945190429,84.00465240478516,5.3420123100280765,31.9374758379534,1.1686798509452023,79.19841328759242,1.0543001729538362,12.911044311523437,8.141555786132812,7.305810260772705
3094.603,-6.297019457817077,-33.12477645874024,-11.34437608718872,-1.0496360063552856,0.3770427763462066,0.3960952758789062,54.82235107421875,75.66084289550781,-4.643953561782837,31.2226363658905,67.35618515014649,-23.04829177856445,-1.0575275659561156,0.1245352558791637,-0.0681673618033528,82.56869659423828,84.77493133544922,16.890947246551512,38.17231894913398,1.1890136174228116,79.92716137003617,1.080194858753477,27.74634552001953,9.114088439941408,21.53490080833435
3117.966,-12.956279540061953,-44.24670524597168,-7.474934673309326,-1.0572161674499512,0.3867756068706512,0.4658940136432647,51.59974822998047,75.23836364746094,-7.720931482315064,36.9145694732666,62.10760269165039,-20.689789962768558,-1.089110016822815,0.1244267426431178,0.0064359782263636,95.97528991699218,85.25282440185546,29.606766796112066,47.99200819929162,1.2199618810386363,75.96740648030956,1.103018344409604,44.37554168701172,10.01446075439453,37.32769827842712
3139.408,-19.36805772781372,-55.058302307128905,-3.3610114097595214,-1.0545437812805176,0.3809869289398193,0.5002587854862213,48.05670928955078,74.5675552368164,-10.987334060668946,38.89681396484375,54.2448371887207,-17.892113494873048,-1.1034377098083497,0.1396365240216254,0.0372003806754946,109.1949020385742,85.42489013671874,42.11570701599121,59.22098837599568,1.228815031302389,69.24396554343564,1.1147767617751352,61.13819274902344,10.857334899902344,53.10304107666016
3161.8140000000003,-24.453922080993653,-66.39842529296875,0.8526663780212402,-1.0570363759994508,0.3830069363117218,0.534989082813263,44.37344741821289,73.62276000976563,-14.296712970733642,33.508723449707034,47.3583869934082,-16.091119956970214,-1.096701407432556,0.141124977171421,0.0243643045425415,120.92723236083984,85.3631820678711,53.25555534362793,71.14961259668071,1.2453532034190666,60.325400451209,1.1086924015825943,76.55378494262695,11.74042205810547,67.55226831436157
3184.2830000000004,-27.619212341308597,-79.77001495361328,5.212747478485108,-1.063527774810791,0.3813062787055969,0.5587970972061157,40.67689666748047,72.36018218994141,-17.561307907104492,26.51530284881592,41.11849403381348,-13.131245422363282,-1.0809313297271728,0.126958705484867,-0.0071095377206802,130.5174758911133,85.13435974121094,62.39243927001953,84.83281902750721,1.2606873299679535,50.92867795836256,1.091171330992157,89.84057922363282,12.774177551269531,79.95374717712403
3194.291,-28.56175003051758,-95.25240631103516,10.070377731323244,-1.0728131532669067,0.3701183676719665,0.5782977342605591,37.10566291809082,70.7330108642578,-20.697155952453613,22.29237518310547,35.469952774047854,-9.207320952415468,-1.0604746103286744,0.10580620393157,-0.0484359011054038,137.88678894042968,84.78934631347656,69.38903121948242,100.34937343357346,1.27441795059101,43.34661034002883,1.07003205326381,100.78112602233888,14.05633544921875,90.08618717193605
3219.921,-27.220389938354494,-112.2726547241211,15.39793529510498,-1.07816903591156,0.3640654861927032,0.5991750359535217,33.78619766235352,68.69450531005859,-23.61936378479004,21.30492248535156,30.874917602539064,-4.52179000377655,-1.0383591890335082,0.0805237852036952,-0.0937300398945808,143.25872192382812,84.36688842773438,74.39578552246094,117.05727783926196,1.286694459423514,38.69425775935599,1.0492390717521956,109.4725242614746,15.672383117675782,98.01514930725098
3241.316,-26.083400344848634,-128.88095703125,20.563744735717773,-1.0878831624984742,0.3644119620323181,0.6209234595298767,30.80538101196289,66.2569694519043,-26.23654975891113,23.990197372436523,26.77378730773926,0.3815787553787231,-1.0293773889541626,0.0722465805709361,-0.1131397515535354,146.86961059570314,83.91348266601562,77.57826232910156,133.46741775414006,1.3050737435492006,38.39377250587606,1.041245219517662,116.06422958374024,17.656513214111328,103.8148120880127
3262.503,-23.723690032958988,-145.00188751220702,26.030495643615723,-1.091021466255188,0.350369530916214,0.645925760269165,28.233910369873048,63.432324981689455,-28.498243713378905,28.04283332824707,22.5857027053833,5.401949048042297,-1.0165826201438903,0.073687770217657,-0.1272655457258224,148.97744445800782,83.45587615966797,79.16788482666016,149.46973884463495,1.3159087111919043,39.46913404143448,1.030241691860896,120.74353408813477,20.023551177978515,107.66612854003908
3283.032,-20.367463684082036,-158.95421752929687,32.05612487792969,-1.0795575618743896,0.3387677550315856,0.6714932084083557,26.13584060668945,60.262109375,-30.34923286437988,32.54891414642334,19.623286628723143,10.942494511604307,-1.0131191611289978,0.062130569666624,-0.1250259175896644,149.94055786132813,82.99376831054687,79.51571807861328,163.60339778896144,1.3167176189592555,41.81015002102735,1.0252647587335928,123.80471725463867,22.731658935546875,109.86495094299316
3304.343,-16.568641185760498,-169.97591247558594,37.91526069641113,-1.0526262044906616,0.3435574948787689,0.698430347442627,24.499361038208004,56.81425857543945,-31.807736968994146,36.90784797668457,16.289421844482423,15.573780155181884,-1.0290850758552552,0.0668247342109679,-0.109910063445568,149.9580078125,82.54999237060547,78.82795867919921,175.177942475484,1.311050121218591,44.287954328514886,1.0400793936176371,125.458646774292,25.735733795166016,110.63569564819336
3324.26,-13.064866209030152,-178.22831115722656,43.233096313476565,-1.017586100101471,0.3418417632579803,0.7331377863883972,23.25797233581543,53.17034149169922,-32.927843475341795,38.11999588012695,12.449060726165772,18.548807907104493,-1.0412761569023132,0.0917941614985465,-0.0823182318359613,149.18370361328124,82.15142669677735,77.32453308105468,184.1817765113362,1.3026428961879746,44.77837108212225,1.0505051449730196,125.9257312774658,28.981085205078124,110.25237655639648
3334.092,-7.846410775184632,-184.98380432128903,48.317144775390624,-0.9790536284446716,0.340334552526474,0.7672471046447754,22.38313102722168,49.36661834716797,-33.76991653442383,34.32990646362305,7.814420413970947,20.39293556213379,-1.0464940905570983,0.1151296958327292,-0.0682409558445214,147.76388549804688,81.81250610351563,75.25264587402344,191.5877380848805,1.291975872191213,41.58831577332528,1.0567728465857578,125.3807544708252,32.44588775634766,109.02256240844729
3354.121,-2.849069046974182,-190.2600555419922,52.78535461425781,-0.9264035701751708,0.3388646841049194,0.8022435426712036,21.810622787475587,45.43641357421875,-34.39455795288086,30.22543067932129,1.7058146476745606,22.06268730163574,-1.0565012693405151,0.1151193246245383,-0.0486397136002778,145.71474914550782,81.55939025878907,72.63457336425782,197.6154486967019,1.2741037311398709,39.25711406567642,1.0649928836767812,123.90412635803224,36.12297668457031,107.02913131713868
3377.233,1.0839372396469116,-194.49195556640623,55.77039413452148,-0.874271011352539,0.3410992085933685,0.8300261259078979,21.450915145874024,41.41546249389648,-34.8865249633789,27.25039176940918,-6.33775339126587,23.918084335327148,-1.0662604808807372,0.1285195812582969,-0.0401261765509843,142.8898498535156,81.39445190429687,69.30018692016601,202.40356402748503,1.255402603483764,39.35386307009442,1.0757992445583713,121.4389347076416,39.97898941040039,104.18671188354492
3394.269,4.998181414604187,-198.21202697753907,57.38305358886719,-0.812853479385376,0.3373129785060882,0.8603320479393005,21.240959930419923,37.32205352783203,-35.30890731811523,26.44216194152832,-15.252880764007568,26.724904251098632,-1.0686301231384276,0.1505592197179794,-0.0338621217757463,139.1072509765625,81.29026641845704,65.0180648803711,206.4903818236561,1.2346828879613865,42.70566479797394,1.0803131126968406,117.86629104614258,43.968212890625,100.32697219848632
3416.9390000000003,7.976354718208313,-201.34501953125,58.26887435913086,-0.749270749092102,0.3327321887016295,0.8956758856773377,21.12990951538086,33.17209548950196,-35.6996826171875,27.216078567504884,-22.931884956359863,30.92355422973633,-1.061646556854248,0.1614059478044509,-0.0287894666194915,134.4118911743164,81.18730010986329,59.79283447265625,209.8050661988977,1.2198408335369986,47.87684744596464,1.0745134758589103,113.28198165893556,48.01520462036133,95.49251708984374
3439.28,8.8363431930542,-203.47089538574215,58.98647537231445,-0.675799834728241,0.3194394350051879,0.9162772536277772,21.065030670166017,28.986136627197265,-36.07225112915039,30.49451103210449,-28.51205062866211,35.62985000610352,-1.0597662210464478,0.1600186675786972,-0.0035879611968994,129.04713439941406,81.03186340332032,53.82118911743164,212.06010768340929,1.1869313620413742,55.095012261177615,1.0725376193027358,107.98210372924804,52.04572677612305,89.89344024658203
3454.245,8.119779872894288,-204.37158813476563,59.45126876831055,-0.605688351392746,0.3168943047523498,0.9219703197479248,21.020600891113283,24.791535568237304,-36.41667022705078,33.823682403564455,-32.90163803100586,39.49532165527344,-1.0542560338974,0.1628935813903808,0.0150268584489822,123.2632293701172,80.78839874267578,47.35302963256836,213.04039987609585,1.1513887923330717,61.70026664426986,1.0678027824584393,102.24262847900393,55.99686317443848,83.76969985961914
3476.663,6.833815050125122,-204.39269409179687,59.48898696899414,-0.531295657157898,0.3087508141994476,0.9354452848434448,20.97941398620605,20.602687454223634,-36.75595321655273,35.796173095703125,-35.82542419433594,42.86251678466797,-1.0470706701278687,0.1800613313913345,0.0325169958174228,117.3935302734375,80.41532287597656,40.75368766784668,213.04698277802373,1.1222599112332314,66.56662659604724,1.0641045996791405,96.41411628723144,59.81263542175293,77.50964088439942
3499.233,4.103431475162506,-203.8621612548828,58.614068603515626,-0.4650061845779419,0.2998547255992889,0.9354756712913512,20.91032218933105,16.440777397155763,-37.085730743408206,34.863939666748045,-37.27890319824219,44.91120300292969,-1.0278250217437743,0.1994519144296646,0.0408609002828597,111.75586547851564,79.90376281738281,34.402683639526366,212.21452282853343,1.090199548965228,68.41284243069508,1.0492993083724778,90.84554328918458,63.46298542022705,71.48841438293456
3521.641,1.428163492679596,-202.7943817138672,57.1146842956543,-0.3966201901435852,0.2945371985435486,0.9184930562973024,20.81779670715332,12.313214302062988,-37.43348617553711,31.97997169494629,-40.43423843383789,46.45289688110351,-1.0151867270469666,0.2157945930957793,0.0498944506049155,106.30117340087892,79.27366180419922,28.288622283935545,210.7235461267701,1.046808568072595,70.10525204795813,1.040060274793505,85.48337669372559,66.96044750213623,65.72210845947265
3544.024,0.3242305874824523,-200.68250122070316,55.47606887817383,-0.3295780450105667,0.288295316696167,0.901142692565918,20.73335647583008,8.22885350883007,-37.78222427368164,28.71933479309082,-43.58360977172852,48.02919692993164,-1.0043245434761048,0.2304558277130126,0.0540922969579696,101.13805847167968,78.52598724365234,22.527954292297363,208.2305102867048,1.0052504056350111,71.39197826806353,1.032462361500005,80.4047019958496,70.29713373482227,60.310178565979
3554.095,-0.8431464076042176,-197.7538818359375,54.27977752685547,-0.2590368777513504,0.2815289616584777,0.8880400657653809,20.6486515045166,4.210805508494377,-38.13464889526367,26.26718101501465,-46.36710281372071,49.420266723632814,-1.007455933094025,0.2403453767299651,0.0601035594940185,96.34748077392578,77.66829071044921,17.180303192138673,205.08558872079348,0.9702262634059656,72.82764591010286,1.037906316976965,75.69882926940917,73.45748520195484,55.31495208740235
3576.563,-2.871898496150971,-193.90780029296872,53.38863983154297,-0.1933669596910476,0.2776931047439575,0.8689396977424622,20.54914207458496,0.2746040314435959,-38.46553268432617,23.60126838684082,-50.37167053222656,49.015988159179685,-0.9985391855239868,0.228853553533554,0.0627169057726859,91.87691192626951,76.75108642578125,12.195177602767943,201.1893856374506,0.9366472885330632,74.3780453569062,1.0269294833297686,71.32776985168456,76.47648239433765,50.66071028709412
3597.789,-6.035027265548706,-189.0419250488281,52.50428085327148,-0.1327302169054746,0.279775446653366,0.8488848447799683,20.41848335266113,-3.5741735488176345,-38.77440872192383,21.1852165222168,-54.63296966552734,49.23630599975586,-0.994149088859558,0.2219242274761199,0.0766371496021746,87.65242004394531,75.76141357421875,7.492056870460511,196.3953344127176,0.9077573224996384,76.93960444819461,1.021725920652775,67.23393669128419,79.33558712303639,46.266465592384336
3619.501,-9.327080869674685,-183.74602966308595,51.021240234375,-0.0723357509821653,0.2675281286239623,0.8272543907165527,20.249361038208008,-7.322710612416268,-39.06734161376953,17.387914514541627,-57.08974380493164,48.254005432128906,-0.9823685407638548,0.2514490872621535,0.0779754541814326,83.79836730957031,74.70430908203124,3.2253130197525026,191.0783909015267,0.8763875871780721,77.52616887903659,1.0194037313079574,63.5490062713623,82.02701969444752,42.292654633522034
3641.668,-11.724079513549809,-178.44944458007814,48.74413528442383,-0.0233844254165887,0.2672841131687164,0.8152073740959167,20.05748901367188,-10.961951732635498,-39.36633148193359,10.216468858718873,-59.14036254882812,46.67081146240234,-0.9651469111442564,0.2731489449739455,0.0767001338303088,80.21800994873047,73.60559692382813,-0.6346580266952516,185.46446275189425,0.8604708524832756,77.20575479316956,1.009063580979517,60.16052093505859,84.56754865646363,38.73167345523834
3663.944,-14.629360580444336,-173.16454162597657,45.708441162109374,0.0279502000659704,0.2575982987880706,0.796618115901947,19.83235855102539,-14.492091751098632,-39.6815803527832,3.4051138401031493,-60.33720779418945,47.48833694458008,-0.9603521943092346,0.2753387957811355,0.075854680687189,76.94295501708984,72.43731994628907,-4.059475302696228,179.75735442651435,0.8404971121028328,77.61044930066885,1.0048365157042056,57.11059646606445,86.92941169738769,35.62210505008697
3674.094,-17.25649700164795,-167.9108428955078,42.51635971069336,0.0756061907857656,0.2518256455659866,0.7789458274841309,19.58211441040039,-17.91166877746582,-40.01231155395508,-0.9600429058074949,-60.12857513427734,46.4494987487793,-0.9481621146202088,0.2730376303195952,0.0772910103201865,74.01787567138672,71.23778839111328,-7.052941250801086,174.12802925940136,0.8256749201958637,76.47374944781404,0.9925550445393968,54.435761260986325,89.1494571685791,32.95937030315399
3701.505,-19.35793151855469,-162.56544799804686,39.350720977783205,0.1269660748541354,0.2402918070554733,0.7646720767021179,19.31134414672852,-21.20270652770996,-40.36182479858398,-3.1668715953826903,-58.97233657836914,44.25376510620117,-0.9355409145355223,0.2881124675273895,0.0688716053962707,71.4848403930664,70.0453872680664,-9.620426177978516,168.48120214260894,0.8155505272619141,74.07208688972858,0.9840369220118176,52.17349624633789,91.24809379577636,30.74139862060547
3721.533,-20.5699893951416,-156.59689331054688,36.32131652832031,0.1740268863737582,0.2354814261198043,0.7606975436210632,19.0375186920166,-24.3587215423584,-40.720951080322266,-2.8652124404907227,-58.56906585693359,42.19802322387695,-0.9387853980064392,0.2750771343708038,0.0818172991275787,69.23865661621093,68.8738525390625,-11.918449783325196,162.19374195177062,0.8192420384959502,72.64661106652372,0.983851309024308,50.201137924194335,93.23257408142088,28.80250129699707
3743.924,-23.55801773071289,-150.14228515625,33.375674438476565,0.2290110856294631,0.2271401494741439,0.734835934638977,18.726750564575195,-27.3645263671875,-41.07782135009766,0.0320819854736328,-56.82660446166992,40.4519645690918,-0.9506361246109007,0.2735464096069335,0.0893866702914237,67.34212036132813,67.73357238769532,-13.931122970581054,155.69109264565495,0.8057492419559816,70.12445346807915,0.9951986190978244,48.61536979675293,95.0980987548828,27.1466983795166
3763.913,-25.125865936279297,-143.7556884765625,30.674948120117183,0.2824407964944839,0.2179732590913772,0.7196219563484192,18.39938850402832,-30.234305953979494,-41.42290344238281,1.3562774300575255,-54.138258361816405,35.67549209594726,-0.9382142305374146,0.2811219304800033,0.09510188549757,65.6935417175293,66.68958282470703,-15.732998085021972,149.16870450823538,0.8078041643528406,64.99492967886779,0.9857863410651732,47.29415321350098,96.92388877868652,25.68990535736084
3775.311,-26.48974914550781,-137.57113800048828,27.84453353881836,0.3341418683528899,0.215271645784378,0.7056393146514892,18.06704597473145,-32.96945381164551,-41.77621154785156,3.074402964115143,-51.1531623840332,32.55096282958984,-0.9265612721443176,0.3059888005256652,0.1056924447417258,64.29665756225586,65.71391525268555,-17.325746726989745,142.8820518409031,0.8143435386872764,60.76790116606544,0.9820385549249316,46.22961158752442,98.68336906433106,24.450464820861814
3795.276,-26.861766052246093,-131.52008514404298,25.21518630981445,0.3830570638179779,0.2114617347717284,0.6822427868843078,17.753497314453124,-35.5841781616211,-42.13111419677735,4.15359913110733,-48.0592384338379,29.56340217590332,-0.923239517211914,0.3194632172584533,0.1202498361468314,63.10055389404297,64.80378646850586,-18.75044708251953,136.63213924239565,0.8152212672629228,56.67950718399764,0.9849470454297796,45.34705657958985,100.38796463012696,23.38066711425781
3814.355,-27.916656494140625,-125.8700393676758,22.988533401489256,0.4412091553211212,0.204441526532173,0.6422980666160584,17.43984260559082,-38.0891845703125,-42.4854476928711,5.237928354740143,-43.91223144531251,27.91242637634277,-0.9172100305557253,0.3280738592147826,0.1283216997981071,62.15182495117188,63.950294494628906,-19.953876495361328,131.0072387951412,0.8103983188773842,52.4549708812378,0.983391266817134,44.711982345581056,102.0394790649414,22.531571197509766
3836.584,-28.083498764038087,-120.32156677246094,21.236312866210938,0.4964321732521057,0.1927742928266524,0.6244986295700073,17.131741333007813,-40.49352951049805,-42.836491394042966,6.925595057010651,-40.34017333984376,24.76288948059082,-0.9011064171791076,0.326801186800003,0.1409032702445983,61.36342239379883,63.1809684753418,-21.03904800415039,125.40848635213324,0.8255695134160437,48.15063858815513,0.9698601310737296,44.23168106079102,103.67449798583984,21.797443389892575
3859.346,-27.447236633300783,-114.9334213256836,19.41683120727539,0.5393008232116699,0.1862397760152816,0.5980208158493042,16.852664947509766,-42.79744720458984,-43.18581924438477,9.283109092712404,-37.97591400146485,21.7266529083252,-0.8872140884399414,0.3481446564197539,0.1578276947140693,60.697265625,62.47143096923829,-22.05498352050781,119.76623931756151,0.831282194037858,45.02155452213356,0.9670120927745328,43.84460067749024,105.26887817382811,21.130835723876952
3881.701,-26.29350128173828,-109.68017120361328,18.007756423950195,0.5828485369682312,0.177399918437004,0.5736842155456543,16.60593948364258,-45.00481262207031,-43.51783599853516,11.04698143005371,-35.422806930541995,19.189712524414062,-0.8841424584388733,0.3679179966449737,0.1720693111419677,60.14550933837891,61.81942825317383,-22.996239471435548,114.22872453420116,0.8393439127354962,41.99668149336636,0.9738987050461876,43.53956985473633,106.82424087524414,20.52159652709961
3894.016,-25.80902557373047,-104.30670928955078,17.193911361694337,0.6231707453727722,0.165944018959999,0.5534151315689086,16.36202926635742,-47.114417266845706,-43.83093490600586,11.635959434509278,-32.29455146789551,17.84220027923584,-0.8760133862495423,0.3686809182167053,0.1872357159852981,59.70145492553711,61.2185791015625,-23.837908554077146,108.83823072874377,0.8507920279576231,38.81617215691078,0.9693041073913816,43.33942565917969,108.3329963684082,19.993026351928712
3916.493,-24.218104934692384,-99.0202621459961,16.95295524597168,0.6556610941886902,0.1553603008389472,0.5342210948467254,16.128744506835936,-49.126773071289065,-44.09568099975586,11.22322998046875,-29.0422061920166,14.938203620910643,-0.8724552989006042,0.3735161006450652,0.19607575237751,59.31903228759766,60.698456573486325,-24.60873947143555,103.36227299757212,0.8616572510268184,34.581357555772605,0.9695457275416772,43.19028778076172,109.8252296447754,19.486941528320312
3939.564,-22.34402046203613,-94.3327178955078,17.007008743286132,0.682835602760315,0.1530629321932792,0.5220791637897492,15.911281776428222,-51.04823684692383,-44.32180404663086,10.928328895568848,-27.07623863220215,12.589396572113037,-0.8659338355064392,0.3878390312194824,0.2039099484682083,58.97072296142578,60.2313591003418,-25.343819427490235,98.45998161128892,0.8745172245507022,31.8862650887654,0.9706200122424812,43.05944118499756,111.27959594726562,18.977984619140624
3961.873,-22.20479431152344,-89.76793365478515,17.48547019958496,0.7106157898902893,0.1453333809971809,0.5147334396839142,15.65379810333252,-52.88235702514648,-44.495166015625,10.096066665649412,-24.56206932067871,10.49645118713379,-0.8645085334777832,0.3874672293663024,0.2076719611883163,58.65817108154297,59.82727127075195,-26.024539184570312,94.16038778109603,0.8907282164690942,28.7246319086987,0.9700075633507386,43.00437297821045,112.70962829589844,18.470626831054688
3983.811,-21.433580780029292,-85.28763427734376,18.140085220336918,0.7336865782737731,0.137421728670597,0.4943417906761169,15.364109992980955,-54.63644256591797,-44.61073226928711,9.208920669555663,-22.55414657592773,8.507569599151612,-0.8699599385261536,0.3869959354400634,0.2096371471881866,58.36390991210938,59.48131942749024,-26.670011520385746,89.83828720601988,0.8960959887552435,26.041215035047337,0.9750649619010854,42.99979991912842,114.1177619934082,17.940720748901366
3993.898,-20.42026290893555,-81.29879150390624,18.55487174987793,0.7603542447090149,0.1282414570450782,0.4771156251430511,15.048709297180176,-56.3186653137207,-44.673587799072266,9.007559967041017,-21.447412490844727,5.707574796676636,-0.869959831237793,0.3886166214942931,0.210714367032051,58.059991455078126,59.19541931152344,-27.321158599853515,85.88573208745626,0.9076595120201728,24.15817283806798,0.975935405327682,43.01128215789795,115.51408462524414,17.35242919921875
4016.401,-19.96242485046387,-77.5457992553711,18.128625679016118,0.7785366296768188,0.1310192793607711,0.4676677942276001,14.730638122558592,-57.92094192504883,-44.72287292480469,9.304166793823242,-21.29096794128418,2.896675395965576,-0.8642513513565063,0.4052169680595398,0.2070550560951232,57.741067504882814,58.95197982788086,-28.004582977294923,82.12559347634041,0.9187723867437884,23.700324301811747,0.9771192347470808,43.01042938232422,116.87292175292968,16.718289947509767
4036.327,-20.13712921142578,-73.83250885009765,16.771990966796874,0.801854407787323,0.1258775830268859,0.449244463443756,14.420406532287595,-59.44720611572266,-44.78804016113281,9.245428657531738,-20.749840545654298,1.263680025935173,-0.8693402409553528,0.415601921081543,0.2027208179235458,57.42743606567383,58.7406867980957,-28.677965927124024,78.37753464237956,0.9287829371811588,22.95661577767995,0.9851040381227336,43.00702953338623,118.18789291381836,16.11007423400879
4058.644,-18.88753833770752,-70.08310928344727,14.720580863952636,0.8240852117538452,0.1215149104595184,0.4230603158473968,14.17254123687744,-60.89704895019531,-44.89885787963867,9.553072738647462,-19.824889755249025,-0.4651253253221512,-0.8688876748085022,0.4365976810455322,0.201930758357048,57.13616561889648,58.56011962890625,-29.32196807861328,74.12184422347991,0.9353396910556124,22.274236632959123,0.9938347300257228,42.96362438201904,119.45716857910156,15.576889801025391
4079.987,-17.329607009887695,-66.37858657836914,12.452003288269044,0.8457007765769958,0.116013453900814,0.4000783562660216,14.00422019958496,-62.2691520690918,-45.06964645385742,9.405743408203126,-18.093189811706544,-2.1996511965990067,-0.8592542409896851,0.449558699131012,0.2068002432584762,56.86880035400391,58.418216705322266,-29.9222095489502,69.80416209523136,0.943851854335745,20.748627910752955,0.9921508573604704,42.86458015441895,120.68736877441408,15.147436904907227
4101.241,-16.0579402923584,-62.47840118408203,10.309151649475098,0.8610478401184082,0.1144201770424842,0.3812285840511322,13.910995864868164,-63.556251525878906,-45.29959335327148,9.370188522338868,-16.26107578277588,-1.5148830443620682,-0.8607568383216858,0.4570154428482055,0.2136149644851684,56.666586303710936,58.28057556152344,-30.43196830749512,65.37797859355231,0.9496974031332684,19.277814118729257,0.9980963156571374,42.75559043884277,121.83682708740234,14.867625045776368
4121.496999999999,-14.547561264038086,-58.43090057373047,8.417313385009766,0.8788649320602417,0.1043447092175483,0.3547285854816436,13.886589622497558,-64.7632926940918,-45.577962493896486,8.297741794586182,-14.000630950927734,-0.423764470219612,-0.8554042100906372,0.4588981807231903,0.2227983236312865,56.52075042724609,58.14523468017578,-30.83107795715332,60.83310934873903,0.9544898349611256,16.778056178988912,0.996413060821258,42.63416080474853,122.90852737426758,14.746884536743163
4143.608,-11.747416591644289,-54.24599151611328,6.979866218566895,0.8895244121551513,0.0950239375233649,0.3289854109287261,13.94505500793457,-65.8881965637207,-45.8901969909668,5.297642612457276,-11.564480400085449,0.028660535812378,-0.8474496364593506,0.4577587783336638,0.2319565027952193,56.3831069946289,58.02569808959961,-31.139594268798827,56.00814050575517,0.9539003095013612,13.926380273000849,0.9910488801222254,42.43805198669433,123.91389465332033,14.750602722167969
4153.8550000000005,-9.228793954849245,-49.80409393310547,6.024021530151368,0.8962884426116944,0.0886756107211112,0.3095161855220795,14.060837936401366,-66.92432556152343,-46.21337966918945,2.4355185508728026,-10.14528293609619,1.3149754047393798,-0.8385891437530517,0.4512084484100341,0.2407485634088516,56.24067687988281,57.8987548828125,-31.38340187072754,51.12745405974577,0.9530252973441448,12.086870057275195,0.9825184311992564,42.17983894348144,124.82308044433594,14.829977798461917
4179.513,-7.061960005760193,-45.01404571533203,5.554580497741699,0.9005952596664428,0.0766595780849456,0.296103835105896,14.187858200073242,-67.86507415771484,-46.50671463012695,-0.0914791107177734,-9.84302043914795,3.4756367206573486,-0.8371549844741821,0.4422117292881011,0.2490764498710632,56.08429870605469,57.74141845703125,-31.580551147460938,46.08548362913512,0.951604617828724,11.753446460581078,0.9793437320101872,41.896440505981445,125.60649261474607,14.926163482666016
4193.81,-4.403269577026367,-39.988916015625,5.4053973197937015,0.9011534929275512,0.0673029780387877,0.2749421566724777,14.319127464294434,-68.7116683959961,-46.75005187988281,-2.530440330505371,-9.367574882507324,3.8470802783966063,-0.8282097339630127,0.4365261495113371,0.2575606673955917,55.89061508178711,57.58191909790039,-31.761206436157227,40.75330985965327,0.9448079774299196,11.09545348689365,0.9714164379065404,41.57148761749268,126.29358749389648,14.988845443725586
4222.090999999999,-2.4751739501953125,-34.58662796020508,5.584552383422851,0.8975748777389526,0.0650814324617385,0.2585110872983932,14.425508499145508,-69.45523071289062,-46.927685546875,-4.715413570404053,-9.00858268737793,4.36349835395813,-0.8233663320541382,0.4265616357326506,0.2627928256988525,55.664893341064456,57.42035827636719,-31.925432205200195,35.221920515348955,0.9366609565054898,11.223060424454946,0.9641158807114184,41.23938484191895,126.8755889892578,15.002253341674804
4233.802,-2.216829395294189,-28.589813804626463,5.802524566650391,0.8952123045921325,0.0617351040244102,0.2455602526664733,14.454867553710937,-70.08404693603515,-47.01860961914063,-6.001017093658447,-9.232741928100586,4.742767715454102,-0.8146673917770386,0.4229751586914062,0.263728654384613,55.4157096862793,57.24985275268555,-32.08716011047363,29.40421307191644,0.9306718874417212,12.230246105403069,0.95530218836104,40.96084213256836,127.3338996887207,14.931449508666992
4256.531,-1.998030710220337,-22.218857765197757,5.592552185058594,0.890301251411438,0.0571266755461692,0.23865367770195,14.41180934906006,-70.58627624511719,-47.02985534667969,-7.69155912399292,-8.78194694519043,4.491286754608154,-0.815108346939087,0.4176424145698547,0.2603724747896194,55.143646240234375,57.093336486816405,-32.23704223632812,23.12702633012748,0.9237846134809696,13.099355407040772,0.9523398567760862,40.73183689117432,127.6796127319336,14.792813110351563
4277.531,-1.2459274053573608,-15.292324304580688,4.7017381429672245,0.8868182539939881,0.0560378968715667,0.2280631721019745,14.339404487609864,-70.95091857910157,-46.997929382324216,-8.96581859588623,-7.441962051391601,3.0295488834381104,-0.8146225690841675,0.4144291043281555,0.2518706351518631,54.86400680541992,56.98096542358398,-32.368798065185544,16.64246063052754,0.9175179134778346,12.95115660710922,0.948344595269989,40.52460231781006,127.93188400268556,14.629131317138672
4298.915,-0.3799129486083984,-7.288991022109985,3.2816662073135374,0.8870155811309814,0.0575235359370708,0.2270033866167068,14.252195167541505,-71.15068054199219,-46.94005584716797,-9.68552007675171,-5.823100852966308,1.115009069442749,-0.8199237585067749,0.4150457620620728,0.2432373672723769,54.58833541870117,56.92307434082032,-32.482567596435544,12.911005215142229,0.9175304214522316,12.147472850266578,0.950911860892617,40.33614025115967,128.0737548828125,14.45748825073242
4313.737,0.5512866497039794,1.4776795864105223,1.807707452774048,0.886555302143097,0.050938931107521,0.2287750750780105,14.128817749023437,-71.17153930664062,-46.83502883911133,-9.172604179382324,-4.096111997961998,-0.6960173130035401,-0.8322738766670227,0.4130973577499389,0.2400108635425567,54.33841247558594,56.92031326293945,-32.57932662963867,12.36825971865043,0.9171034647198552,10.929358578896998,0.959907035109085,40.2095947265625,128.09185256958008,14.255702209472656
4336.175,2.684264993667602,10.402244138717652,0.2796009540557861,0.8882882475852967,0.0467485457658767,0.2280569344758987,14.003577041625975,-71.01328735351562,-46.68784561157226,-7.638809871673584,-1.9903278440237044,-3.022204065322876,-0.8400855422019958,0.4051816344261169,0.2401633262634276,54.127088165283205,56.98511276245117,-32.66553726196289,14.923887389157148,0.9183797559647509,9.716585959800645,0.9633215520199164,40.12351112365722,127.9984001159668,14.022308349609377
4358.455,5.06548056602478,19.67813181877136,-1.1374660968780517,0.8895943880081176,0.0496171787381171,0.225494173169136,13.88885498046875,-70.67141418457031,-46.5050048828125,-5.37805564403534,-0.5277750104665756,-5.093471670150757,-0.845273244380951,0.4027920365333557,0.2443569689989089,53.956041717529295,57.10085983276368,-32.756246185302736,20.91706195207573,0.919130452164778,8.746909874995664,0.9678167933929414,40.06718673706055,127.77227401733398,13.748758697509766
4380.996999999999,6.463426971435547,28.95059585571289,-2.620465111732483,0.8891944646835327,0.0519732356071471,0.2285187989473343,13.768755149841308,-70.14407653808594,-46.28556213378906,-3.075477629899979,0.8540436178445816,-7.03428955078125,-0.845367431640625,0.4047993779182433,0.2500493794679642,53.827047729492186,57.26027908325195,-32.85071487426758,29.833028120673152,0.9196529308385072,8.600050626744368,0.970192020372292,40.05829257965088,127.40435562133788,13.434847259521485
4403.6140000000005,7.73841347694397,37.86765899658203,-4.154751563072205,0.8862566471099853,0.052291540056467,0.2282766729593276,13.651187515258789,-69.4415283203125,-46.03367614746094,-1.8692123472690585,2.166735878586769,-8.892518424987793,-0.8412096381187439,0.4083287954330443,0.2513331770896911,53.722618103027344,57.46035232543945,-32.94531707763672,38.92728483307143,0.916778722668661,9.72433260965146,0.9683905473747256,40.07143058776855,126.90188064575196,13.088359069824218
4413.711,9.624669742584228,46.64632301330566,-6.009577655792237,0.8839249849319458,0.0548009604215621,0.2301802426576614,13.57559871673584,-68.56520538330078,-45.77883224487305,-1.1675826251506805,3.0985530614852905,-10.044605541229249,-0.8366747617721557,0.4104910731315612,0.2507938235998154,53.636610412597655,57.685865783691405,-33.03552932739258,48.04495262016139,0.915139781147864,10.705030999120574,0.965205341882548,40.061011695861815,126.2510711669922,12.743302917480468
4436.203,11.327035903930664,56.14955215454101,-7.767988109588623,0.8786067962646484,0.0581367731094359,0.2392770826816558,13.527503967285156,-67.49854278564453,-45.51089630126953,-0.2732100188732147,3.8122162342071535,-9.852849006652832,-0.8436264872550965,0.4149656116962432,0.2549645155668258,53.589351654052734,57.91329803466797,-33.100791931152344,57.833869957194295,0.9125369639393672,10.797035242987205,0.9742070762718644,40.06184768676758,125.4118408203125,12.410104370117187
4458.5650000000005,12.47339153289795,66.13859634399414,-9.284387969970703,0.86953284740448,0.0578039661049842,0.2543480575084685,13.478085136413574,-66.23138046264648,-45.21256866455078,-0.249072116613388,5.214383268356324,-9.851886367797851,-0.8534305691719055,0.4096278131008147,0.2611872404813766,53.5692253112793,58.15812377929687,-33.13148880004883,67.94828376173636,0.9083045051955942,11.358987228321467,0.9822916277406362,40.09114017486572,124.38950424194336,12.081079864501952
4479.723,13.500539970397949,76.37893447875976,-10.467262077331544,0.8552941679954529,0.0597638517618179,0.267386245727539,13.417471313476565,-64.7620864868164,-44.87289581298828,0.431076967716217,5.346695423126221,-8.921280574798583,-0.8607417225837708,0.4059971988201141,0.2650097042322158,53.57745513916016,58.38959732055664,-33.142633056640626,78.27994471392748,0.8989183901746101,10.697857797285533,0.9881766349494964,40.1599838256836,123.15168380737305,11.730262756347656
4502.071,15.78406352996826,86.70078125,-12.084773826599122,0.835469126701355,0.0598098695278167,0.2750561773777008,13.389501953125,-63.08106079101562,-44.51111755371094,1.3219441294670105,5.27080602645874,-7.626962375640869,-0.8604889392852784,0.3988594472408294,0.2686929225921631,53.61827163696289,58.59885787963867,-33.133643341064456,88.96899308166753,0.882236805510973,9.683082195607534,0.9859210283320808,40.22876968383789,121.6799186706543,11.377474212646485
4523.299,19.080928802490234,97.1412582397461,-14.264128112792967,0.8101260900497437,0.0679596006870269,0.2938833773136138,13.437546920776366,-61.18628158569336,-44.15321044921875,1.9657618522644045,5.694073486328125,-5.968433904647827,-0.8570788502693176,0.4054731726646423,0.2747447371482849,53.71424255371094,58.77886581420898,-33.07455596923828,100.08231860564,0.8653383073194589,8.921207832097934,0.987557066451455,40.27669563293457,119.96514739990236,11.078654479980468
4533.47,21.88606815338135,107.3707489013672,-17.025924682617188,0.7768315076828003,0.0807321608066558,0.3263527512550354,13.571293449401855,-59.07043762207032,-43.813723754882815,2.01636643409729,6.253902816772461,-4.167058897018433,-0.8523219108581543,0.4166066288948059,0.2786120295524597,53.86490631103516,58.92762069702148,-32.95363388061524,110.98411529426276,0.8492326815908579,8.875524089110844,0.9893737087333828,40.2936128616333,117.9980583190918,10.860089874267578
4562.451,22.708060455322265,116.76401977539062,-20.52496280670166,0.7432048678398132,0.0908806025981902,0.3621778786182403,13.772202491760254,-56.74575500488281,-43.52018356323242,2.803595542907715,8.647907924652099,-1.5833251476287844,-0.8470223188400269,0.4153709828853607,0.2704346597194671,54.15358810424805,59.06185531616211,-32.691856384277344,120.84705979683696,0.837081333307472,10.493797921693895,0.9820002833013588,40.38138561248779,115.80761032104492,10.828327178955078
4583.312,23.22478141784668,126.06775970458985,-24.15500259399414,0.7063102126121521,0.1021544709801673,0.3886772453784942,14.036084938049315,-54.21838226318359,-43.27491989135742,4.95535979270935,12.795075702667235,-1.5522890567779544,-0.8533628702163696,0.4100983083248137,0.2646561294794082,54.60216369628906,59.24679489135743,-32.29403228759766,130.61248155965748,0.8181144501110049,14.681494134739555,0.9840860665595824,40.56607875823975,113.465177154541,10.980887603759763
4603.796,23.04761734008789,134.92650756835937,-27.170037460327148,0.6696591973304749,0.10664594322443,0.4310263574123382,14.315795516967771,-51.50301361083984,-43.04563369750976,6.958935070037842,16.86084222793579,-4.761214876174927,-0.8556823492050171,0.4179241061210631,0.271377870440483,55.14249725341797,59.52349548339844,-31.834897232055663,139.71967418360703,0.8068900407765291,20.217881135990545,0.991270619039771,40.8267017364502,111.02650909423828,11.2107364654541
4614.809,21.294377899169923,143.432666015625,-30.09451789855957,0.6244857788085938,0.1268678948283195,0.4769916951656341,14.584624671936036,-48.589446258544925,-42.83368148803711,5.936868476867676,22.66935214996338,-10.110919380187989,-0.8564118623733521,0.4089877128601073,0.2763575822114944,55.7184440612793,59.95179748535156,-31.307724380493163,148.20001009534272,0.8003616142155435,27.91612081684203,0.9894571461745054,41.13381938934326,108.54124374389647,11.525957107543944
4635.919000000001,16.259612464904784,151.27012329101564,-32.494660186767575,0.5878330111503601,0.1272855013608932,0.507981127500534,14.755091667175291,-45.50923080444336,-42.617279052734375,3.831328105926514,30.393607330322265,-18.71855812072754,-0.8671686530113221,0.3899828195571898,0.2668069839477539,56.31734390258789,60.61545104980469,-30.705891418457032,155.7285486998387,0.7918057641649757,38.68083746966302,0.9884603822577204,41.5622522354126,106.12468185424804,11.911387634277345
4653.51,13.93543071746826,159.09418334960938,-34.6998405456543,0.5432818174362183,0.141459572315216,0.531221604347229,14.89364242553711,-42.26249923706055,-42.40453186035156,2.098987674713135,35.48006134033203,-31.530643653869628,-0.8713890671730041,0.3959003627300261,0.2655641496181488,56.80304718017578,61.53788452148437,-30.197684478759765,163.59588209139417,0.7788735072097505,49.763301858165626,0.9942501592532702,41.90940475463867,103.80038375854492,12.206847381591796
4675.707,12.39826717376709,165.99722900390626,-37.447532653808594,0.5034822523593903,0.1419989109039306,0.5726786136627198,15.01286792755127,-38.860433197021486,-42.202429962158206,-0.1000645637512206,39.43915519714356,-40.651478958129886,-0.8680177807807923,0.3916912555694579,0.2576551645994186,57.2156494140625,62.64765090942383,-29.740475845336917,170.7850450245197,0.7807626437817514,57.61599385337489,0.9878648478227244,42.20278148651123,101.50808410644532,12.461954116821287
4698.226,10.80078716278076,171.83553771972657,-41.39668273925781,0.458055692911148,0.1658601343631744,0.6161778569221497,15.149206733703611,-35.31260871887207,-42.05749130249024,2.110226345062256,42.81954650878906,-45.4409481048584,-0.8805798292160034,0.3950440824031829,0.2533147126436233,57.72001724243164,63.86507949829102,-29.23556442260742,177.2104651884135,0.7896845737653704,63.79068361216703,0.9988930716760376,42.57081050872803,99.17768821716308,12.821926879882811
4723.699,7.7800537109375,177.11339721679687,-44.95883712768555,0.418159806728363,0.1677446782588958,0.6450979232788085,15.24744815826416,-31.64531936645508,-41.94665603637695,8.35002613067627,44.44458847045898,-48.497988891601565,-0.8869072198867798,0.4051660537719727,0.244469717144966,58.40539321899414,65.13635482788087,-28.67971267700195,182.97993772246485,0.7920117855668494,68.27424634298465,1.0061985621912095,43.15794506072998,96.78167419433592,13.266943359375
4733.679,7.433570528030396,182.29517822265623,-48.61042251586914,0.3695882439613341,0.1847472339868545,0.6703985452651977,15.37534008026123,-27.85460090637207,-41.88196105957032,13.03621711730957,43.227881622314456,-47.95183486938477,-0.8926305890083313,0.4105241239070892,0.2391915649175643,59.22684326171875,66.36929016113281,-28.10181427001953,188.89511120802203,0.7915963825790506,67.32222708802867,1.0121666703254912,43.85150318145752,94.22389106750488,13.78014678955078
4755.601000000001,7.046377325057984,187.1224578857422,-51.725982666015625,0.3214486479759216,0.1863295257091521,0.7227735877037048,15.505241394042969,-23.948727989196776,-41.842436981201175,19.09377059936524,40.77283401489258,-43.79919967651367,-0.9187860369682312,0.3856275677680968,0.2416882902383804,60.20324630737305,67.50767364501954,-27.503317642211915,194.32380912045045,0.8188595661894127,63.57534421801672,1.0281101653181974,44.69800491333008,91.4564016342163,14.339119338989258
4778.215999999999,4.322251176834106,191.82794799804688,-54.44025497436523,0.2565332621335983,0.2082547396421431,0.7524850487709045,15.601633834838868,-19.92510356903076,-41.827822875976565,27.831357955932617,39.11364593505859,-42.2386344909668,-0.9292531728744506,0.3908249258995055,0.2581709176301955,61.37754592895508,68.58882293701171,-26.877626800537108,199.52591354506396,0.8288615147389622,64.6373089138409,1.043437000946592,45.77591209411621,88.51392650604248,14.950196075439454
4800.853,2.245401620864868,196.93063354492188,-55.28422393798828,0.1903436712920665,0.2077900111675261,0.7807474613189698,15.64541702270508,-15.791396045684817,-41.79406661987305,31.4766544342041,37.52641220092774,-40.3352653503418,-0.9266613960266114,0.3871292889118194,0.2598345249891281,62.69245910644531,69.62278442382812,-26.191151428222657,204.5910686498273,0.8382560939513886,64.3818017909479,1.040088516374272,47.04704208374024,85.41418046951294,15.602915191650393
4823.851000000001,2.606087827682495,201.4980590820313,-55.8997299194336,0.1211804386228322,0.2128503829240798,0.7835302233695984,15.694535636901856,-11.560929155349733,-41.74414138793945,28.003490257263184,35.27934265136719,-39.17068862915039,-0.9367217898368836,0.3680419921874999,0.2527724891901016,63.9438720703125,70.61187744140625,-25.505517578125,209.16430573692173,0.8289886448789593,60.99665140722097,1.0395478393215538,48.24933643341065,82.17280659675598,16.238623809814452
4833.817,4.42531385421753,205.78035583496091,-55.71245956420898,0.0397952701896429,0.2224634855985641,0.8434154629707337,15.7714111328125,-7.242995476722717,-41.66377487182617,26.04858856201172,34.63304595947265,-38.98129501342773,-0.939761519432068,0.3512295067310332,0.249121481180191,65.23517837524415,71.5894058227539,-24.72682876586914,213.3063891123996,0.8808276683725893,60.0417784692166,1.035809420811017,49.46376724243164,78.83240129947663,16.93694610595703
4855.701,3.585757064819336,209.428857421875,-55.688574981689456,-0.0413698319345712,0.2177508890628814,0.8596778512001038,15.840872955322263,-2.862097859382629,-41.56550903320313,24.75775871276856,34.57238006591797,-36.89700012207031,-0.9166321277618408,0.3735665380954742,0.2514923453330993,66.69288558959961,72.52007751464843,-23.739468383789063,216.80710638022848,0.895284340319533,58.10713089280855,1.0227306747051927,50.852012634277344,75.38217537403106,17.82604064941406
4875.662,7.9114457130432125,211.9887817382813,-54.497595977783206,-0.1216763589531183,0.2170364409685134,0.8555485367774963,15.99887237548828,1.5496542692184447,-41.42748031616211,13.9174635887146,33.01939430236816,-34.20726623535156,-0.9067632555961608,0.3618157804012298,0.2578399002552032,68.06278533935547,73.38950042724609,-22.615287399291997,219.1149892245953,0.9003977758271089,51.854987733940376,1.011851797445184,52.06391296386719,71.83984615802765,18.81219291687012
4898.332,12.24881238937378,214.64223022460936,-52.77359619140625,-0.2169109519571065,0.2261331796646117,0.8579817891120911,16.266232872009276,5.988596892356872,-41.23255233764648,-0.1483014106750495,29.94080924987793,-31.911357879638672,-0.9005199193954467,0.3336788058280945,0.2430580437183379,69.10169830322266,74.187255859375,-21.539049911499024,221.54162990323093,0.9248319801840272,47.07602072457758,0.9924434030228892,52.83546543121338,68.19865896701813,19.69350242614746
4918.094,16.16594123840332,216.79446411132807,-51.18179931640625,-0.3108510673046112,0.2274590969085693,0.8897935032844544,16.6299072265625,10.45258457660675,-40.97881317138672,-8.762488842010498,26.98791084289551,-27.80085411071777,-0.9204913258552552,0.3055968165397644,0.2313135892152786,69.94959106445313,74.895263671875,-20.48086624145508,223.53443485021413,0.9807534714779144,44.93970749581542,1.0010493727056509,53.31968383789062,64.44267909526825,20.49794692993164
4940.629999999999,19.762565040588377,217.68671875,-50.1967414855957,-0.4101180762052536,0.2366668701171874,0.8689498662948608,17.102761840820314,14.916481876373291,-40.67161178588867,-16.88086404800415,23.54160690307617,-24.014424133300786,-0.9289000272750856,0.3013737559318542,0.2252813756465911,70.56810760498047,75.49643096923828,-19.49781875610352,224.49636427725852,0.999456365270551,43.227764736999845,1.0066477533934328,53.46534576416016,60.57994909286499,21.17379302978516
4963.722,23.75782966613769,218.9023956298828,-48.607672119140624,-0.5110731422901154,0.2667274564504622,0.8393976569175721,17.706118011474608,19.388587379455565,-40.28521041870117,-26.54322557449341,21.31708526611328,-20.802682304382323,-0.932094204425812,0.280160230398178,0.2028015494346618,70.96414794921876,76.00573425292968,-18.549687576293945,225.531583785878,1.0254172478451595,41.68299237791085,0.9973336550328232,53.25802993774414,56.61714687347412,21.735522842407228
