Timestamp (ms),Wrist Gyroscope X (deg/s),Wrist Gyroscope Y (deg/s),Wrist Gyroscope Z (deg/s),Wrist Accelerometer X (g),Wrist Accelerometer Y (g),Wrist Accelerometer Z (g),Wrist Roll (deg),Wrist Pitch (deg),Wrist Yaw (deg),Arm Gyroscope X (deg/s),Arm Gyroscope Y (deg/s),Arm Gyroscope Z (deg/s),Arm Accelerometer X (g),Arm Accelerometer Y (g),Arm Accelerometer Z (g),Arm Roll (deg),Arm Pitch (deg),Arm Yaw (deg),Wrist Gyroscope Magnitude (deg/s),Wrist Accelerometer Magnitude (g),Arm Gyroscope Magnitude (deg/s),Arm Accelerometer Magnitude (g),Difference Roll (deg),Difference Pitch (deg),Difference Yaw (deg)
0.0,13.113076210021973,-4.60065221786499,-3.627918004989624,-0.8976085186004639,0.2693496346473694,0.3688875436782837,33.5661506652832,62.15595245361328,-65.83135223388672,5.852745056152344,2.45226788520813,-2.5881028175354004,-0.9937787055969238,0.1626418828964233,-0.0391884818673133,101.64543151855467,80.36088562011719,-91.14824676513672,14.362470454992,1.007138668818643,6.853212288210072,1.0077619931715305,68.07928085327148,18.204933166503903,-25.31689453125
22.1,13.246556758880615,-4.565879583358765,-3.5872600078582764,-0.9010159075260162,0.2762277871370315,0.3672821223735809,33.61697769165039,62.14221382141113,-65.93016815185547,5.487743854522705,3.0962995290756226,-2.9367562532424927,-0.9923416078090668,0.1576454639434814,-0.0407930761575698,101.96855163574216,80.3886947631836,-90.8732452392578,14.46365780451195,1.0114694037932637,6.998247447319278,1.0056257128948412,68.3515739440918,18.24648094177246,-24.943077087402344
32.256,12.868521372477211,-4.7311733563741045,-3.8228723208109536,-0.8987855712572733,0.269867072502772,0.368773877620697,33.637709299723305,62.12911478678385,-66.0509745279948,5.270197709401448,4.12601621945699,-3.018417835235596,-0.9905310670534768,0.1598694523175557,-0.047365682820479,102.39926656087238,80.40859476725261,-90.48751322428386,14.246448280881234,1.0083362986383195,7.489237091557737,1.0045250928164116,68.7615572611491,18.27947998046875,-24.436538696289062
55.119,12.850456953048706,-4.936765074729919,-3.714274942874909,-0.8972737938165665,0.2690355107188225,0.3718155398964882,33.65969753265381,62.1099910736084,-66.17140197753906,4.953663468360901,5.153890550136566,-3.2394530177116394,-0.989298328757286,0.1633270382881164,-0.0479642506688832,102.90455436706542,80.42587661743164,-90.0211238861084,14.273603315960052,1.007889569319141,8.105892151019123,1.0039002138297597,69.24485683441162,18.31588554382324,-23.849721908569336
74.568,12.586423110961912,-5.035122776031495,-3.682280445098877,-0.8932028651237488,0.2675810277462006,0.3727274298667907,33.67629699707031,62.08916091918945,-66.29254913330078,4.812386417388916,5.6774732112884525,-3.4858852863311767,-0.990269124507904,0.1605882674455642,-0.0464479193091391,103.4307876586914,80.44707336425782,-89.53239440917969,14.065010354496248,1.004217213488905,8.469008481068382,1.0043523408769284,69.75449066162109,18.35791244506836,-23.239845275878903
98.67,12.51695728302002,-5.199815559387207,-3.6253254413604736,-0.8868512749671936,0.2646491348743439,0.3737629652023315,33.72020797729492,62.049435424804685,-66.5300277709961,4.771722793579102,6.724236392974854,-3.9454087734222414,-0.9888410449028016,0.1555682152509688,-0.0487622424960135,104.44771728515624,80.49384918212891,-88.59926910400391,14.046018947093035,0.9981853934707364,9.2418414367774,1.0022942464477846,70.72750930786133,18.44441375732422,-22.069241333007813
117.128,12.358460235595704,-5.1195882797241214,-3.59413013458252,-0.8771204590797425,0.2607625007629394,0.3761138617992401,33.75810852050781,62.00866928100586,-66.76937408447266,5.066292095184326,7.254191493988037,-4.420470142364502,-0.9857059478759764,0.1577164262533187,-0.0497415669262408,105.54678192138672,80.54283599853515,-87.58866882324219,13.868004870233738,0.9893774771679104,9.970766630379291,0.999586736041117,71.7886734008789,18.534166717529292,-20.81929473876953
139.878,11.951747131347656,-4.501004552841186,-3.6050010681152345,-0.8683521270751953,0.2582816869020461,0.3830109179019928,33.79308242797852,61.97415390014648,-67.00099182128906,5.451584529876709,7.122688102722168,-4.696147203445435,-0.9840369582176208,0.1593157231807708,-0.0410094924271106,106.614111328125,80.59520111083984,-86.61704559326172,13.336018676786082,0.9837200545770834,10.247021642005375,0.9978746316178194,72.82102890014649,18.62104721069336,-19.616053771972656
162.19400000000002,10.910952281951904,-3.4003077760338782,-3.741497468948365,-0.8600348711013794,0.2572251707315444,0.3882571995258331,33.82118530273438,61.95558013916016,-67.21566619873047,6.135851192474365,6.216131210327148,-4.618216419219971,-0.9841330409049988,0.159026026725769,-0.0339588403701781,107.5626724243164,80.64970092773437,-85.7789291381836,12.188003764540143,0.9782167043590536,10.058093151037546,0.997692967982048,73.74148712158203,18.694120788574217,-18.563262939453125
172.27,10.064540576934814,-2.1634565606713294,-3.955436420440674,-0.8557869672775269,0.255921646952629,0.3916867434978485,33.84763107299805,61.95782470703125,-67.41209259033204,6.730166721343994,5.052538990974426,-4.258958148956299,-0.9826552987098692,0.1624022126197814,-0.0316388264298438,108.36411895751954,80.70041961669922,-85.10158081054688,11.276425989276698,0.9754724137730586,9.662341555182945,0.9966864487887694,74.51648788452148,18.742594909667968,-17.689488220214844
202.108,9.454346179962158,-0.730731512606144,-4.08816499710083,-0.8545025587081909,0.2610716372728346,0.3963688671588897,33.88936538696289,61.98147506713868,-67.57783355712891,6.9963301658630375,3.792934656143189,-3.576856422424316,-0.9811915278434752,0.1669425129890441,-0.0274859018623828,108.98067169189451,80.7421859741211,-84.61637420654297,10.553247974781783,0.977586104231288,8.972506734293614,0.9957513728986896,75.09130630493163,18.76071090698242,-17.038540649414063
222.132,8.242784786224366,0.8292839750647545,-4.351912307739258,-0.8557979583740234,0.2613342195749282,0.4049965262413025,33.92514877319336,62.03031311035157,-67.72134399414062,7.265665340423584,2.529163712263107,-2.416866984963417,-0.983623480796814,0.1696720123291015,-0.0239563100039958,109.39557495117188,80.76825256347657,-84.34034423828125,9.58787315627981,0.9822882199493704,8.403685994284263,0.998475504245311,75.47042617797851,18.737939453125,-16.619000244140626
232.543,7.691573143005371,2.0749860033392906,-4.351243209838867,-0.858950960636139,0.2636813879013061,0.4014190137386322,33.980492401123044,62.101007080078126,-67.83133392333984,7.645773696899414,0.7903444468975067,-1.3096654087305069,-0.9873310565948488,0.1691191405057906,-0.0269149906933307,109.58318939208984,80.78433074951172,-84.30253295898437,9.261643733875593,0.9842025565121414,8.288009273735724,1.0021049139396985,75.60269699096679,18.683323669433594,-16.47119903564453
260.513,7.908847332000732,2.901577377319336,-4.141185855865478,-0.862868583202362,0.2648827016353607,0.3995276570320129,34.06601257324219,62.18390884399414,-67.91251678466797,7.943715286254883,-1.045178586244583,-0.2096420675516127,-0.9888271808624268,0.1659540235996245,-0.03045951500535,109.53635864257812,80.7925537109375,-84.50875244140624,9.54975131157705,0.9871719326530956,8.615372249636362,1.0031446226345238,75.47034606933593,18.60864486694336,-16.59623565673828
272.186,7.572435188293457,3.514662170410156,-3.817677545547485,-0.8678680419921875,0.2671473205089569,0.401200920343399,34.16819076538086,62.27259979248047,-67.96727905273437,8.550508117675781,-2.505060201883316,0.4701083630323411,-0.9862980365753172,0.1628562331199645,-0.0333063572645186,109.31981811523436,80.7981201171875,-84.89967346191406,9.30088145396964,0.9928255490284792,9.34388529141801,1.0002577338854572,75.15162734985351,18.52552032470703,-16.932394409179686
294.738,6.216411447525025,3.737162780761719,-3.672513151168823,-0.871054720878601,0.2648873567581177,0.3953569710254669,34.25345153808594,62.36647491455078,-68.01068267822265,8.905423259735107,-3.752331095933914,0.7968953460454941,-0.9859137535095216,0.1593330264091491,-0.0357404001057147,108.96705780029296,80.80679473876953,-85.43636627197266,8.219573572577504,0.9927299810085828,9.892023935124758,0.9994283573093392,74.71360626220704,18.44031982421875,-17.42568359375
317.123,6.275202989578247,3.469645357131958,-3.311637306213379,-0.8709160566329956,0.2692806422710418,0.3862070381641388,34.35560150146485,62.453531646728514,-68.03871459960938,9.21069450378418,-4.49249906539917,0.7863245785236359,-0.9813178539276124,0.1546353101730346,-0.0385953441262244,108.55308990478515,80.82162933349609,-86.0418930053711,8.004888850256512,0.9901552485014712,10.331426244080982,0.9942225853133037,74.1974884033203,18.368097686767577,-18.00317840576172
331.915,5.880226850509644,3.098550271987915,-2.921610689163208,-0.8721343994140625,0.2721939742565155,0.3876623272895813,34.45526885986328,62.52817153930664,-68.0608139038086,9.4474214553833,-4.50664963722229,0.8614230692386627,-0.9763171076774596,0.1519707739353179,-0.0430882140994071,108.16085357666016,80.83458557128907,-86.63070831298828,7.367451403332164,0.9925788901933624,10.566987589306114,0.9890522096769694,73.70558471679688,18.30641403198242,-18.56989440917969
354.598,4.933652925491333,2.909670114517212,-2.741873025894165,-0.8717064142227173,0.2726994395256042,0.3887182414531708,34.53667221069336,62.596240234375,-68.08186187744141,9.543438911437988,-4.550221300125122,1.2525861084461212,-0.9779082894325256,0.1562514781951904,-0.0441112630069255,107.75361480712893,80.83694000244141,-87.23651580810547,6.4503703875599525,0.9927662152310044,10.771490611863964,0.991362551927052,73.21694259643554,18.240699768066406,-19.15465393066406
377.314,4.056058168411255,2.716536808013916,-2.4853276014328003,-0.8740471243858338,0.2713931620121002,0.3879971385002136,34.603048706054686,62.658879089355466,-68.09969024658203,8.885330772399902,-5.025346899032593,1.621048253774643,-0.979293704032898,0.1579954981803893,-0.0403267957270145,107.25341186523436,80.83379364013672,-87.92288208007812,5.6755589065311804,0.9941979142057792,10.596145689617655,0.9928753204699184,72.65036315917969,18.17491455078125,-19.823191833496093
400.268,3.704524779319763,2.3609897136688227,-1.938063073158264,-0.8828608632087708,0.2728838086128234,0.3836138546466827,34.675846862792966,62.71252517700195,-68.10322570800781,8.12608070373535,-5.415375566482544,1.9123486816883088,-0.980718231201172,0.155092105269432,-0.0408350281417369,106.69090118408204,80.82787780761718,-88.65715942382812,4.9633511821439225,1.000921851585372,10.308018609034953,0.9939108443766892,72.01505432128906,18.115352630615234,-20.553933715820317
422.572,2.3005569636821748,1.7383328080177305,-1.3813465431332588,-0.8953262329101562,0.2715782403945923,0.3821826040744781,34.72348251342773,62.75337600708008,-68.10319061279297,7.345000648498535,-5.84845724105835,2.035381853580475,-0.9863113641738892,0.1478268787264823,-0.0451226420700549,106.0838623046875,80.82506713867187,-89.42152709960938,3.571280956353193,1.011069368073893,9.892599216152892,0.9986840176000692,71.36037979125976,18.0716911315918,-21.318336486816406
432.567,0.8801271378993988,0.4512372612953184,-1.0364817693829536,-0.912719476222992,0.268919849395752,0.3829359829425811,34.721980285644534,62.77370986938477,-68.12565002441406,6.153344440460205,-6.063544273376465,1.7923111766576767,-0.9903136014938354,0.1455311551690101,-0.0490513078868388,105.4573699951172,80.82847747802734,-90.18211975097655,3.1939832729861526,1.026098462026137,8.96371960783918,1.0025369186254165,70.73538970947266,18.054767608642575,-22.0564697265625
454.332,-0.1220886290073394,-1.8961776137351989,-0.6978954091668129,-0.9320500016212464,0.2673776745796203,0.3816233038902282,34.659471893310545,62.75737991333008,-68.19410705566406,4.38032078742981,-5.182487845420837,0.9154370158910752,-0.9908990859985352,0.1384534433484077,-0.0578176580369471,104.97197265625,80.84586639404297,-90.76510925292968,3.834943992964583,1.0423149487000098,6.92137578896133,1.0025107232041737,70.31250076293945,18.08848648071289,-22.571002197265624
476.831,-0.7095474779605866,-5.266224753856659,-0.7277820840477943,-0.9473785519599914,0.2700628578662872,0.3773962020874023,34.51769027709961,62.690748596191405,-68.34012145996094,2.7695324182510377,-2.3587733030319216,0.2051869004964828,-0.993069577217102,0.1291182830929755,-0.071077175438404,104.8702865600586,80.8647705078125,-90.92800903320312,5.968603525349288,1.055105915988558,6.092515168138236,1.0041402017994805,70.35259628295898,18.174021911621093,-22.587887573242188
500.162,-2.144515258073807,-9.021718442440031,-0.953880263864994,-0.9532891869544984,0.2681545376777648,0.3913444578647613,34.25101776123047,62.56140213012695,-68.59237976074219,0.6162275552749634,1.5251007318496703,-0.5093391090631485,-0.9938848733901976,0.1252231672406196,-0.0824070468544959,105.25101928710936,80.8762222290039,-90.55930633544922,9.38510374493163,1.064978252949504,7.184940409578641,1.0053147050928586,71.0000015258789,18.314820098876957,-21.96692657470703
522.668,-3.2215527296066284,-13.220711135864258,-1.1010291755199433,-0.9529136776924132,0.2636245012283325,0.4096067249774933,33.85917282104492,62.35863342285156,-68.95868377685547,-1.296512484550476,4.864175820350647,-1.2860830575227735,-1.0002557396888734,0.1261216863989829,-0.0831424579024314,106.01203002929688,80.88278045654297,-89.76614532470703,13.721470530437823,1.070689979260782,7.9800864760160595,1.0117815604850944,72.15285720825196,18.524147033691406,-20.807461547851563
531.779,-3.11427493095398,-18.014217185974122,-1.1503102481365204,-0.9491886138916016,0.2651169538497924,0.4353916347026825,33.36557235717773,62.0661506652832,-69.440869140625,-1.3867651700973511,7.826299214363098,-1.9833187341690064,-1.0054428458213809,0.122089560329914,-0.0828476786613463,107.14119720458984,80.88661651611328,-88.59778747558593,18.440072959260373,1.0787684127026158,9.127215655634632,1.0163538823202125,73.7756248474121,18.82046585083008,-19.156918334960935
556.698,-3.376014232635498,-23.407943725585938,-1.4879594802856446,-0.9491437315940856,0.2715720176696777,0.4587937533855438,32.75717124938965,61.677242279052734,-70.0483184814453,-0.1108493089675903,10.081951236724851,-2.89491708278656,-1.0046193242073058,0.1236070916056632,-0.0819923773407935,108.5818878173828,80.89084014892578,-87.13910827636718,23.84692145138859,1.0899997031496462,11.462940785488811,1.01569333516513,75.82471656799316,19.21359786987305,-17.090789794921875
579.4319999999999,-5.291915464401245,-29.964716720581052,-1.5415645360946657,-0.9532889246940612,0.2639492958784103,0.4952903270721435,31.982385635375977,61.16712265014648,-70.7991943359375,0.8542042732238769,12.215031814575196,-4.243767547607422,-0.9992658257484436,0.1163906976580619,-0.0886072531342506,110.3674819946289,80.90080108642579,-85.3509033203125,30.636205725351907,1.107184422453966,13.970182189745406,1.0104195764072637,78.38509635925293,19.7336784362793,-14.551708984375
600.525,-6.488090658187867,-38.84019165039062,-1.2655109643936158,-0.9726497530937196,0.262260290980339,0.5246115446090698,31.05389213562012,60.49618148803711,-71.70119934082031,2.430361795425415,12.71264533996582,-6.447955799102783,-1.0021764397621156,0.0995622538030147,-0.0964982017874717,112.38970489501952,80.94372100830078,-83.35614624023438,39.528169920364434,1.1362516003237677,15.169181782335434,1.0131358566602835,81.33581275939942,20.44753952026367,-11.654946899414062
622.7669999999999,-7.672644186019897,-50.51488151550293,-0.4552153587341307,-1.0048586010932925,0.2692547470331192,0.56086665391922,29.972779846191408,59.60848617553711,-72.75906829833984,6.509616041183472,13.915038299560546,-9.5230899810791,-0.9973718285560608,0.0748955572955309,-0.1215878903865814,114.85419311523438,81.0208953857422,-80.99743347167968,51.235690807639095,1.1822622889529852,18.75876828071331,1.010175158226428,84.88141326904297,21.41240921020508,-8.238365173339844
642.399,-10.39755597114563,-64.2749038696289,1.0603602170944213,-1.0324719309806825,0.2804558545351028,0.5889242172241211,28.73822479248047,58.46034545898438,-73.94596405029297,12.082077264785768,16.64143810272217,-13.815954780578611,-0.991457211971283,0.0503871279768645,-0.1490671336650848,118.07657470703126,81.12798919677735,-77.98533172607422,65.25892964763503,1.2218936350548202,25.78314093450597,1.0066318623997936,89.33834991455078,22.667643737792968,-4.03936767578125
652.854,-13.423306846618653,-79.31157836914062,3.422140431404114,-1.0513822317123414,0.2919012278318404,0.6379763364791871,27.378512573242187,57.010728454589845,-75.22561950683594,17.554783582687378,20.76323909759521,-18.21060447692871,-0.99353529214859,0.0358344259671866,-0.168662978708744,122.25578002929689,81.2352783203125,-74.11590576171875,80.62572798459084,1.265441916063646,33.81143144757581,1.0094732661941028,94.87726745605468,24.224549865722658,1.1097137451171877
672.848,-13.517409133911134,-94.81470184326172,6.110315728187561,-1.0535406351089478,0.3059514999389648,0.6829656839370728,26.00208549499512,55.242977142333984,-76.54823608398438,23.945720434188843,23.79342632293701,-22.04083404541016,-1.0112484216690063,0.0375535148195921,-0.1779465675354004,127.16883087158205,81.31687469482422,-69.63120193481446,96.063830088301,1.2947563834430595,41.007620133812665,1.0284117092700982,101.16674537658692,26.073897552490237,6.917034149169922
694.489,-12.314575481414796,-109.88546600341796,8.689965200424194,-1.037098157405853,0.3221509099006652,0.7338105320930481,24.671320343017577,53.15940628051758,-77.87740173339844,30.80206451416016,27.77618980407715,-24.719418334960935,-1.0172911405563354,0.0530581082217394,-0.1881362497806549,132.76436920166014,81.3171401977539,-64.59023208618164,111.04653662621809,1.3133009671092997,48.393232617758805,1.0369445229090608,108.09304885864258,28.157733917236328,13.287169647216796
712.7900000000001,-11.529416370391846,-123.64529418945312,10.590405559539796,-1.00603529214859,0.33409925699234,0.7745024800300598,23.405607604980467,50.791053771972656,-79.18683319091797,37.23257560729981,32.13979873657227,-26.76147346496582,-1.0171412825584412,0.0711656503379344,-0.1873056054115295,138.95106658935546,81.20310668945312,-59.07571029663086,124.77591178581338,1.3154726805625514,56.08456908888199,1.0374157958386578,115.545458984375,30.41205291748047,20.11112289428711
734.607,-9.192022037506105,-136.59441986083985,12.097785377502442,-0.968661856651306,0.3385477006435394,0.8226106286048889,22.247219467163085,48.15495300292969,-80.4650390625,41.868621063232425,36.05257949829102,-27.954993057250977,-1.0177149653434754,0.0888322368264197,-0.1817613333463668,145.37733459472656,80.94609832763672,-53.40525283813477,137.58420563821693,1.3174553301879208,62.01544171791657,1.0377111440478628,123.13011512756349,32.79114532470703,27.059786224365237
754.2299999999999,-4.146872425079346,-149.37193450927734,13.025432968139649,-0.9320308685302734,0.3453505039215088,0.8597640872001648,21.253261947631835,45.26525268554688,-81.71654205322265,44.79361801147461,39.48572311401367,-28.45950813293457,-1.011768352985382,0.0998111873865126,-0.1892520308494567,151.64331970214843,80.53370666503906,-47.94750061035156,150.15461125340826,1.316481521488525,66.24956510953521,1.0344558205303624,130.3900577545166,35.268453979492186,33.76904144287109
776.826,-2.5812325954437254,-161.66795043945314,13.780430221557618,-0.8952080130577087,0.353244537115097,0.8982353568077087,20.360765838623045,42.1337028503418,-82.9377197265625,46.00712356567383,45.25331802368164,-29.13011817932129,-0.994160521030426,0.107956801354885,-0.1984533816576003,157.63866271972657,79.92457275390625,-42.7783920288086,162.3679767103435,1.318764943051966,71.21446066505202,1.0198150848641123,137.27789688110352,37.790869903564456,40.15932769775391
800.3670000000001,-3.7356142520904543,-173.4983642578125,14.169694328308106,-0.8589730501174927,0.3635019123554229,0.9443446159362792,19.51762275695801,38.77177925109864,-84.13128967285157,44.38905639648438,53.209415435791016,-30.196574401855468,-0.974782943725586,0.1057894974946975,-0.2048659324645995,163.2362274169922,79.08610229492187,-37.96876182556152,174.23464103840962,1.3300614608574666,77.02785866197166,1.0020579689033573,143.71860466003417,40.31432304382325,46.16252784729004
812.863,-5.056656312942505,-185.8784027099609,13.929669952392578,-0.8240056991577148,0.3558316349983215,0.9902149200439452,18.70907020568848,35.17617492675781,-85.3164306640625,37.80049705505371,63.65400848388672,-30.65249557495117,-0.9678368091583252,0.1139454349875449,-0.2166709929704666,168.15353698730468,77.97039337158203,-33.70294532775879,186.62605416968475,1.3391322138322004,82.8121115478227,0.9987660378532108,149.4444667816162,42.79421844482422,51.61348533630371
834.148,-8.264353609085083,-197.79093017578128,13.875734901428222,-0.7695900797843933,0.354909586906433,1.0132205009460449,17.912613296508788,31.35373039245605,-86.47903137207031,27.2479287147522,73.7532958984375,-29.42152519226074,-0.9657878518104552,0.1209593147039413,-0.2288372427225113,172.13614501953126,76.59617309570312,-30.161265563964843,198.66152959910528,1.3241469020757706,87.02264235522958,1.0000661756513864,154.22353172302246,45.24244270324707,56.31776580810547
856.735,-14.551455736160278,-208.52276611328125,13.799174499511718,-0.7028943181037903,0.3485925555229187,1.0390875339508057,17.07301025390625,27.32311897277832,-87.61027374267579,14.767935085296632,83.4554069519043,-28.268618392944337,-0.9701128125190734,0.1103286653757095,-0.2319071501493454,175.245556640625,74.99818572998046,-27.24476623535156,209.57226153007076,1.3060137776859522,92.14764177823868,1.0038267909549925,158.17254638671875,47.67506675720215,60.36550750732422
879.331,-22.111371994018555,-218.23464660644527,12.883372497558591,-0.6239346265792847,0.3396768689155579,1.064891242980957,16.165456008911132,23.102358436584478,-88.71421966552734,0.0051421165466308,88.79291381835938,-25.026594734191896,-0.98964821100235,0.1269566297531127,-0.2369379073381423,177.38133544921874,73.26615600585937,-25.01686668395996,219.93733115495075,1.286422798582014,95.05833143326696,1.0263713926888811,161.21587944030762,50.163797569274905,63.69735298156738
901.431,-28.034045791625974,-227.15116271972656,11.205777645111084,-0.539434266090393,0.3173605322837829,1.0454278588294983,15.224264526367188,18.716243171691893,-89.79819946289062,-14.897862339019776,85.07485961914062,-16.878536796569826,-1.0134686708450318,0.1572542577981948,-0.2372729390859603,178.38937683105468,71.58917388916015,-23.64669876098633,229.39583995129584,1.22424652565442,92.5249017749677,1.054206944755108,163.1651123046875,52.872930717468265,66.1515007019043
916.097,-33.20004539489746,-233.62171020507813,10.978934001922608,-0.4239724844694137,0.2911355704069137,1.013966989517212,14.275662422180176,14.18854637145996,-90.81658782958984,-29.24549989700317,74.66040115356445,-3.97420711517334,-1.0298874020576476,0.1722561180591583,-0.2334100604057311,178.22401123046876,70.10449829101563,-23.21027107238769,236.4060739332032,1.1447004693348828,88.26119246976614,1.071474004690241,163.9483488082886,55.91595191955567,67.60631675720215
935.497,-38.68220748901367,-238.6378448486328,10.015758419036866,-0.321931354701519,0.2677047878503799,0.99579735994339,13.30532913208008,9.552334439754484,-91.78171081542968,-41.74022235870361,61.02123718261719,11.469792366027832,-1.0471848487854003,0.186446139216423,-0.2243913322687148,176.97356872558595,68.86334075927735,-23.668383026123045,242.0761954850519,1.088977814424439,85.67847289915888,1.0884555474585784,163.66823959350586,59.31100631952286,68.11332778930664
959.984,-44.80505599975586,-242.87088012695312,8.355029201507568,-0.2301743358373641,0.2296417951583861,0.9682323694229126,12.287727546691894,4.831353223323822,-92.70511016845704,-48.64221038818359,42.20415625572205,30.19796085357666,-1.0545812606811524,0.2151159912347793,-0.2186506986618041,174.64992065429686,67.9392578125,-25.13651924133301,247.16079687245588,1.0289068593545818,82.63103654001898,1.0985352178551389,162.36219310760498,63.10790458917618,67.56859092712402
976.703,-47.45558547973633,-246.01815490722657,6.696387052536011,-0.1505453161895274,0.2039520353078841,0.9165578246116638,11.299521255493165,0.0502319693565368,-93.58443603515624,-49.735347747802734,21.78725790977478,49.6436092376709,-1.044456911087036,0.2260412395000457,-0.2136224627494811,171.36419067382812,67.3374038696289,-27.626065063476563,250.72101620523156,0.9577143250177824,82.21812809839764,1.0902084664432186,160.06466941833497,67.28717190027237,65.95837097167968
1000.776,-51.50102615356445,-248.26474304199215,5.60268565416336,-0.0760496739298105,0.1709339320659637,0.8886286497116089,10.3012544631958,-4.801517641544342,-94.40978546142578,-47.74818420410156,6.931430959701538,67.30076293945312,-1.027957594394684,0.2240811437368392,-0.2148216366767882,167.2868896484375,66.9060272216797,-31.021897888183595,253.72899100057384,0.9106920037853524,88.63474904878741,1.0743385986575542,156.9856351852417,71.70754486322403,63.38788757324219
1025.251,-54.28219299316406,-250.2697723388672,2.705698025226593,-0.0242566768079996,0.1558145269751548,0.8535062909126282,9.321764659881593,-9.693766367435456,-95.2204132080078,-43.4902847290039,-5.61592583656311,79.70553359985351,-1.028485119342804,0.2308316081762313,-0.2241999268531798,162.70411682128906,66.5746063232422,-35.063781356811525,256.1784739797978,0.8711526980646804,94.30884471895308,1.0783577802882998,153.38235216140748,76.26837269067764,60.15663185119629
1032.952,-57.61431732177734,-251.28291931152344,0.3509294629096985,0.033004243299365,0.1250997886061668,0.8133227348327636,8.328589248657227,-14.602866554260254,-96.00565795898436,-38.30044937133789,-13.725450944900512,86.2494110107422,-1.0180904030799869,0.2315810143947601,-0.2394953697919845,157.967626953125,66.25843963623046,-39.39260368347168,257.855273327335,0.8293450931582521,96.07361195180376,1.0718543140977506,149.63903770446777,80.86130619049072,56.613054275512695
1056.209,-62.970977783203125,-251.43084411621092,-2.6905319094657894,0.102323555573821,0.1009061753749846,0.7815474987030029,7.28896951675415,-19.524370384216308,-96.77860260009766,-36.20817108154297,-18.321366691589358,86.02301788330078,-1.0111453890800477,0.2275522708892821,-0.2511220633983612,153.30989685058594,65.92774963378906,-43.68772735595703,259.4198284140619,0.8028303653974822,95.32042508361836,1.0668941719698029,146.0209273338318,85.45212001800537,53.09087524414063
1081.445,-66.24510192871094,-250.46877746582032,-5.711283338069916,0.1698394019156694,0.0791750967502593,0.7162163496017456,6.245124053955078,-24.449005317687988,-97.5434356689453,-36.71268157958984,-16.60240421295166,80.2010482788086,-1.0109887480735775,0.22984219789505,-0.2545169800519943,149.01305236816407,65.51832885742188,-47.58212432861328,259.3600811343339,0.7521107088747143,90.35146570343322,1.0680337767385657,142.76792831420897,89.96733417510987,49.96131134033203
1102.253,-67.14324111938477,-247.5804901123047,-7.021453666687012,0.2450208336114883,0.0516765974462032,0.6656446695327759,5.19959831237793,-29.32145042419433,-98.2486343383789,-38.28550262451172,-15.01269245147705,70.12573623657227,-0.99252393245697,0.2261284589767455,-0.2605839401483535,145.2440216064453,65.08450622558594,-50.87527008056641,256.80521848162846,0.7243939076824878,82.3149785006408,1.051338253893075,140.04442329406737,94.40595664978028,47.3733642578125
1112.636,-67.25714721679688,-242.09224853515624,-8.281460094451905,0.3116160809993743,0.0420515239238738,0.6029844045639038,4.186000776290894,-34.109004974365234,-98.9101318359375,-38.84614944458008,-13.807907676696775,60.47395706176758,-0.976555871963501,0.2309926271438598,-0.2667022377252578,141.98411254882814,64.64555358886719,-53.611670684814456,251.5181602064992,0.6937310336468188,74.0279288795571,1.0392068253924152,137.79811177253725,98.75455856323242,45.29846115112305
1133.686,-63.49396286010742,-234.03448181152345,-9.348937034606934,0.3715447127819061,0.0284160872455686,0.5350286722183227,3.257906365394592,-38.7686767578125,-99.51705322265624,-38.30107421875,-13.813281631469726,54.82849273681641,-0.9469377040863036,0.2534966588020324,-0.2717729002237319,139.05765380859376,64.19905548095703,-56.00336227416992,242.8451560433377,0.665892661944343,68.78873914253612,1.018953202306122,135.79974744319915,102.96773223876951,43.51369094848633
1156.259,-54.53323669433594,-222.4494415283203,-9.097523498535155,0.4287072956562042,0.0313002017792314,0.4474329829216003,2.5107662677764893,-43.21877975463868,-100.0572021484375,-39.21441268920898,-12.173448944091795,49.83632659912109,-0.906274390220642,0.2767831981182098,-0.2902361601591109,136.42369689941407,63.72261123657226,-58.06270599365234,229.37641070438585,0.6310629675001366,64.9877789340279,0.993730952047264,133.91293063163758,106.94139099121094,41.99449615478515
1178.581,-47.44076385498047,-207.4287628173828,-8.023674869537354,0.4820986926555634,0.0283027564641088,0.4017856419086456,1.8887301325798036,-47.3800765991211,-100.52369384765623,-38.85006484985352,-16.09292640686035,52.40462951660156,-0.8748711228370667,0.2772816240787505,-0.3125230371952056,133.75234680175782,63.21345977783203,-60.19018707275391,213.0382999043833,0.6392267741350823,67.70624162573925,0.9714011719900152,131.863616669178,110.59353637695312,40.33350677490235
1201.814,-38.46726112365722,-188.96515502929685,-8.427546787261964,0.5399050056934357,0.0393421118613332,0.3226866960525512,1.4587626099586486,-51.177799987792966,-100.969384765625,-35.74954032897949,-20.28499374389649,54.2270133972168,-0.8672953724861145,0.3071909189224243,-0.3297010421752929,131.0770050048828,62.67479476928711,-62.4051628112793,193.10964281903165,0.6426996910822859,68.69918038808754,0.9790391754023372,129.61824239492415,113.85259475708008,38.564221954345705
1212.95,-27.525912117958068,-167.5787811279297,-6.9584068775177,0.6050808608531952,0.0397156809922307,0.2548777759075164,1.197845637798309,-54.54399490356445,-101.33635864257812,-33.545373153686526,-23.814352416992183,56.23041915893555,-0.8298734784126282,0.3225346982479095,-0.3375448107719421,128.40386657714845,62.08962936401368,-64.68454284667969,170.38815148047598,0.6728374182352665,70.58847895532313,0.95307022230754,127.20602093935013,116.63362426757811,36.65181579589844
1237.152,-14.541481041908265,-144.239453125,-4.794644165039061,0.6647006750106812,0.0458121873438357,0.1915110558271407,1.1306960701942443,-57.435384368896486,-101.61035766601562,-31.62469940185547,-30.0860538482666,55.06787567138672,-0.8117830038070679,0.3339933753013611,-0.3382497072219849,125.72394714355468,61.54065170288086,-67.03277130126953,146.5405313915099,0.7051244189653241,71.65498436286683,0.9416437634918908,124.59325107336043,118.97603607177734,34.5775863647461
1257.321,0.9339904546737672,-120.19949951171876,-0.6755840301513671,0.7064953088760376,0.0430897265672683,0.165017282962799,1.23330420255661,-59.85424652099609,-101.71510772705076,-26.73299179077149,-38.71758270263672,55.26281585693359,-0.8164121508598328,0.343859589099884,-0.3129067987203598,122.94424591064453,61.04889831542969,-69.61533966064454,124.14288184780348,0.7329117028538606,73.97354152876035,0.9415377356009784,121.71094170808792,120.90314483642578,32.09976806640625
1281.8780000000002,16.31283566951752,-96.58450622558594,5.233103656768799,0.7359063625335693,0.0384899348020553,0.1789541363716125,1.4112878561019897,-61.79890594482422,-101.55597534179688,-24.299975967407228,-42.31618041992188,48.3221549987793,-0.8215057969093322,0.3492362022399902,-0.2940876454114914,120.30695037841797,60.66455764770508,-72.09817810058594,103.29900303886072,0.7651699457035859,69.7392115569717,0.9419448012510564,118.89566252231596,122.4634635925293,29.457797241210937
1303.39,28.39556767940521,-74.85755004882813,12.487485885620115,0.7466577768325806,0.0290453802794218,0.2255158543586731,1.5251120805740357,-63.30604705810547,-101.05554809570312,-24.55709457397461,-42.413479232788085,39.54357299804688,-0.8265793800354004,0.3253248572349548,-0.2826390773057937,117.85088500976562,60.397291564941405,-74.37024993896485,86.00915409674822,0.7919446114828632,64.73322643865676,0.9351204327894754,116.3257729291916,123.70333862304688,26.68529815673828
1312.712,36.55120048522949,-54.81633644104004,19.964129209518436,0.7453327298164367,0.0248921740800142,0.2844176352024078,1.4794989466667174,-64.40901489257813,-100.196875,-25.13214111328125,-39.33328742980957,27.42992925643921,-0.8406002998352051,0.3019208997488021,-0.2788579255342483,115.68630981445312,60.28805236816406,-76.29144744873047,73.5535709214499,0.8079646268507993,57.415169916154,0.9390015894374948,114.2068108677864,124.6970672607422,23.905427551269533
1335.352,39.41745986938477,-36.273202419281006,26.573471450805663,0.7360197901725769,0.0194164860993623,0.3485304504632949,1.1783005237579345,-65.13294525146485,-98.99535064697268,-26.063966369628908,-32.663686180114745,14.729783725738525,-0.8508515238761902,0.2826966017484664,-0.2908906191587447,113.90665283203126,60.32577362060547,-77.74547729492187,64.25248009430258,0.8179782144504515,49.39537076471517,0.9455146117663178,112.72835230827332,125.4587188720703,21.24987335205078
1356.016,37.57640380859375,-19.16927366256714,29.94163398742676,0.7289499044418335,0.0101826386060565,0.3864560425281524,0.6562288761138916,-65.49344482421876,-97.5951156616211,-26.81181869506836,-22.75733423233032,0.9761059761047356,-0.8480005741119385,0.2787051767110824,-0.3254855096340179,112.62417144775392,60.50730819702149,-78.60933532714844,56.523475060068,0.8254533748129079,41.20974408624609,0.9528289874382856,111.96794257164,126.00075302124024,18.985780334472658
1376.317,35.83899688720703,-2.865487575531007,29.714101028442386,0.7278985381126404,0.0143514627125114,0.3861065983772277,0.1035513043403625,-65.5214111328125,-96.19800262451172,-25.515130233764648,-11.124666309356687,-12.770051097869873,-0.8293548464775086,0.2943392485380172,-0.3542523086071014,111.92742767333984,60.83562850952149,-78.82793273925782,52.24296403423072,0.8245417300615937,38.01342504344397,0.9518922296166336,111.82387636899948,126.357039642334,17.370069885253905
1397.485,33.13205223083496,14.297376346588134,26.798656463623047,0.7324465632438659,0.0270546359475701,0.3690600156784057,-0.3510550260543823,-65.21513214111329,-94.96229095458985,-23.664241790771484,2.4971526145935057,-24.10863752365112,-0.8053770661354065,0.3222965329885482,-0.3749252557754516,111.88507690429688,61.26572265625,-78.34247131347657,51.42606117570513,0.8216051946306375,41.21833112654787,0.9481357813624542,112.23613193035126,126.48085479736328,16.61981964111328
1418.753,28.638573455810548,31.619469928741456,21.770885467529297,0.741507637500763,0.0238964752759784,0.3597517848014832,-0.6630379676818847,-64.5720703125,-93.97998962402345,-22.357390213012696,16.288336086273194,-32.94850101470947,-0.7913821697235107,0.3557812571525574,-0.3796247243881225,112.49165191650393,61.74428253173828,-77.15421295166016,54.31050760958876,0.8256828235237632,48.43665535221289,0.9485672074546552,113.1546898841858,126.31635284423828,16.825776672363283
1438.806,25.222104263305663,48.99024124145508,16.08706912994385,0.7515131711959839,0.0258424786385148,0.3428072690963745,-0.7671720147132873,-63.60155181884765,-93.2969985961914,-22.193101501464845,29.72664346694946,-40.70847358703613,-0.7867175221443177,0.3712928473949432,-0.3713701605796813,113.74911346435547,62.23939208984375,-75.24561004638672,61.7983477534277,0.8275426986057564,57.81922127880021,0.9466655240276708,114.51628547906876,125.8409439086914,18.051388549804688
1462.51,22.54998016357422,66.87426719665527,12.230168914794922,0.7613975763320923,0.0320965714752673,0.321198946237564,-0.7249444365501404,-62.29136810302735,-92.8283950805664,-23.49179039001465,42.065161514282224,-46.592987823486325,-0.7869837045669555,0.36823610663414,-0.3505915343761444,115.57904357910157,62.71304626464844,-72.67344818115234,73.75012724552214,0.8276217447418149,67.65255638415617,0.9382404479131476,116.3039880156517,125.00441436767578,20.154946899414064
1471.785,19.42067184448242,84.61569290161133,10.398009300231934,0.7648897767066956,0.0242484986782073,0.3191164374351501,-0.6505826830863952,-60.6440055847168,-92.4611083984375,-24.365846633911133,48.79724044799805,-50.84457931518555,-0.798271095752716,0.3602158308029174,-0.3306627392768859,117.79241790771484,63.16502227783203,-69.66293334960938,88.03947227020396,0.8295941902241262,74.67849383404123,0.9376476692168028,118.44300059080123,123.80902786254885,22.798175048828124
1498.707,18.93350601196289,100.47214965820312,9.512968635559082,0.7577395081520081,0.014340696716681,0.3282070338726043,-0.5428916275501251,-58.68153686523438,-92.13987426757812,-23.69038772583008,49.65546340942383,-53.89894180297851,-0.819429624080658,0.3519257366657257,-0.3098239660263061,120.20892333984376,63.61155471801758,-66.45292282104492,102.7724183616039,0.8265360781793707,77.32734381819209,0.9448504978661432,120.75181496739388,122.29309158325196,25.686951446533204
1523.386,20.77146186828613,114.43950042724607,9.565125274658204,0.7416486382484436,-0.0006551676895469,0.3457278668880462,-0.4005765110254288,-56.445211791992186,-91.81547088623049,-22.068522453308105,46.76767883300781,-56.679525756835936,-0.8470759630203247,0.3434614896774292,-0.2995139241218567,122.7107711791992,64.07983016967773,-63.1948844909668,116.74007572107853,0.8204601576355843,77.33380725043818,0.9621696142635348,123.11134769022463,120.52504196166991,28.620586395263672
1531.811,25.726705169677736,126.54808044433594,9.321653461456298,0.7167954087257385,0.0006568374577909,0.3655761539936065,-0.1467003971338272,-53.964288330078126,-91.5001251220703,-19.2939905166626,42.22316131591797,-57.64403381347656,-0.8669472575187683,0.3388890027999878,-0.3030567467212677,125.20809783935547,64.55596542358398,-60.01075210571289,129.65949375030212,0.8072984612363843,74.58759411910873,0.9791452629647732,125.3547982364893,118.5202537536621,31.489373016357423
1557.957,32.97879295349121,137.02719421386718,7.872481775283814,0.6896732330322266,0.0077909658197313,0.397659969329834,0.2881908982992172,-51.26663055419922,-91.22071990966796,-14.568823051452636,36.20229377746582,-57.50383834838867,-0.8930851340293884,0.3374464631080627,-0.3109479784965515,127.6681121826172,65.04276885986329,-56.98064498901367,141.5950932113089,0.7986643236616147,69.9368266861081,1.0043668777439363,127.37992128431796,116.3093994140625,34.240074920654294
1574.527,40.45678291320801,146.6104309082031,5.533090853691101,0.6521245956420898,0.0097332099918276,0.4221386134624481,0.913648721575737,-48.37097702026367,-90.9849090576172,-8.086291694641114,29.845961380004884,-54.89148483276367,-0.9086653470993042,0.3338804066181183,-0.3139358401298522,130.04614715576173,65.51621704101562,-54.19056625366211,152.545120170749,0.7803248023932889,63.80468553142414,1.0179498644441236,129.13249843418598,113.8871940612793,36.79434280395508
1595.635,47.500762939453125,156.48422241210938,2.777779650688172,0.6194702625274658,-0.003353127092123,0.4586352288722992,1.7060599595308303,-45.274201202392575,-90.77764129638672,-0.2852403640747063,24.52611846923828,-50.5023193359375,-0.912046194076538,0.3209693372249603,-0.3126473605632781,132.34921875,65.94911041259766,-51.66086044311523,163.81960147604644,0.7751871683434948,58.09012540132626,1.0164310288224738,130.64315879046916,111.22331161499024,39.116780853271486
1616.285,60.21850814819336,165.56971130371093,-0.2692579507827758,0.5739593207836151,0.0124940294772386,0.4744861543178558,2.789981555938721,-41.9926383972168,-90.5991928100586,9.32782211303711,18.54741973876953,-43.0520736694336,-0.91221421957016,0.3150827050209045,-0.2942850440740585,134.45708618164062,66.32323608398437,-49.55595321655274,176.60439523859205,0.7493296457131147,51.96161643275558,1.0100473141347523,131.6671046257019,108.31587448120118,41.04323959350586
1633.2469999999998,73.86497268676757,175.36929626464843,-2.3047996759414677,0.519490385055542,0.0296094927936792,0.5386447012424469,4.13487811088562,-38.49760398864746,-90.3789306640625,21.06673164367676,11.938354659080506,-33.081912231445315,-0.945832097530365,0.297554314136505,-0.266437417268753,136.2851776123047,66.64200744628906,-48.0127182006836,191.02554579393723,0.7612118111633064,48.19167242087668,1.0294308467392357,132.15029950141906,105.13961143493653,42.36621246337891
1653.674,77.21872634887696,183.36196899414065,-5.9783950567245485,0.4581647872924804,0.0192982895299791,0.6275224208831787,5.537464904785156,-34.83546943664551,-90.1340576171875,35.01509742736816,5.832493948936462,-22.118424272537236,-0.9436586141586304,0.2713061600923537,-0.2469638854265213,137.85883483886718,66.89243011474609,-47.05274429321289,199.7970441145736,0.7954333642804885,49.60550158629379,1.0152863501771292,132.32136993408204,101.7278995513916,43.08131332397461
1678.493,81.49471817016601,187.91890869140624,-10.405773735046386,0.4013813436031341,0.0218358503654598,0.6824206590652466,7.023294162750244,-31.06458740234375,-89.880859375,43.97019119262696,7.493916296958924,-16.6612633228302,-0.944055724143982,0.2526869684457778,-0.2198580652475357,139.47810974121094,67.03993530273438,-46.23705368041992,205.78049007621743,0.8088681412546697,52.18279912664933,1.003876637228757,132.45481557846068,98.10452270507812,43.64380569458008
1696.207,87.82207336425782,189.37900085449215,-12.792533683776856,0.3283537209033965,0.0561979698017239,0.7405969023704528,8.625966453552246,-27.251627731323243,-89.57739868164063,49.86073684692383,11.161243796348572,-14.724187898635863,-0.9567856550216676,0.2233164817094802,-0.2018053382635116,141.26661987304686,67.09173278808593,-45.36592559814453,209.6428821314968,0.8250448185310517,56.37526156863655,1.005110955021192,132.64065341949464,94.34336051940916,44.211473083496095
1718.727,87.35696105957031,189.2849090576172,-15.272436046600342,0.2587791860103606,0.0937913751229643,0.8487750887870789,10.21290693283081,-23.431497955322264,-89.22192687988282,52.8982666015625,13.601572394371033,-18.24369244575501,-0.9719622373580932,0.1839794799685477,-0.2110228419303893,143.3760772705078,67.1375503540039,-44.21848678588867,209.49922466723416,0.9015220407089952,61.32738660515527,1.0130251185858616,133.163170337677,90.56904830932618,45.00344009399414
1742.073,71.66454849243163,185.70504760742188,-19.49604568481445,0.1941164411604404,0.1286399831995367,0.9547387719154358,11.51106777191162,-19.68753433227539,-88.87730407714844,53.32333908081055,17.826661109924316,-27.050378847122197,-0.957759928703308,0.1695867106318473,-0.2304083675146102,145.9816650390625,67.1868408203125,-42.54395599365235,200.9904136549644,0.993842010625722,66.47715700131876,1.0012103226113704,134.47059726715088,86.87437515258789,46.33334808349609
1754.015,60.150496292114255,179.10587463378906,-22.91967887878418,0.1250815991312265,0.1812583547085523,0.9758918285369872,12.603817176818849,-16.069434928894044,-88.55942993164062,49.58117599487305,21.53223571777344,-40.18311500549317,-0.9560592293739318,0.1796281173825263,-0.2500708937644958,149.14543762207032,67.27639465332031,-40.17985000610352,192.51073295833123,1.0107424803839988,69.33915917732836,1.0074293779881691,136.54162044525145,83.34582958221435,48.37957992553711
1773.613,55.4183521270752,172.26333923339843,-23.38949203491211,0.0665623296052217,0.2243496328592299,1.0122065663337707,13.62116870880127,-12.584977722167968,-88.22285614013671,45.15064315795898,20.8518440246582,-48.9001277923584,-0.953490698337555,0.1839104250073432,-0.2826012313365935,152.56265563964843,67.39703826904297,-37.445245361328126,184.5790441120532,1.0439888205508747,71.42792667483124,1.0145151256688572,138.94148693084716,79.98201599121094,50.777610778808594
1795.929,48.41560020446777,165.2526824951172,-25.702312469482425,0.0284380932338536,0.25102219581604,1.0663363337516785,14.520786476135251,-9.232765340805056,-87.91322784423828,38.39114151000977,20.434359741210937,-52.44559555053711,-0.9693335294723512,0.2016666546463966,-0.3175674557685851,155.94378967285155,67.49345245361329,-34.52347984313965,175.725675491593,1.0976423807040772,69.61041645221049,1.0419907323379063,141.4230031967163,76.72621779441833,53.38974800109863
1815.902,35.933968734741214,158.79227600097656,-28.748401641845703,-0.0100196997635066,0.2867430835962295,1.0780722975730896,15.20089282989502,-5.990469956398011,-87.65280456542969,31.05843544006348,21.287164306640623,-51.44873275756836,-0.9778330683708192,0.2031721740961074,-0.3418170452117919,159.14042053222656,67.50499725341797,-31.53707275390625,166.18929256085252,1.1176021966387963,65.18446109227806,1.0573215944291587,143.93952770233153,73.49546720981598,56.11573181152344
1839.11,33.60978775024414,151.94605407714843,-30.381803894042967,-0.0579524653963744,0.3018692404031753,1.0022995591163637,15.858549690246582,-2.869681191444397,-87.42620086669922,28.78220100402832,20.71639289855957,-48.82644958496094,-0.9612903118133544,0.1881048798561095,-0.3523222625255584,162.1590576171875,67.45144500732422,-28.585692596435543,159.46495361082688,1.0526319029149287,61.70318416404906,1.043184409715825,146.30050792694092,70.32112619876861,58.84050827026367
1861.921,41.02499961853027,146.78507080078126,-29.85635681152344,-0.0986009671352803,0.3087440222501755,0.9931142210960388,16.673510932922362,0.1598870992660522,-87.17876434326172,25.251789474487303,20.144780349731445,-42.28436431884766,-0.9599221587181092,0.1511378429830074,-0.3632644832134246,164.8307342529297,67.32101440429688,-25.830350494384767,155.99546744286366,1.0505340839880457,54.436690379148,1.0402497530766188,148.15722332000732,67.16112730503082,61.34841384887695
1871.889,43.23980293273926,142.41041259765626,-32.42883148193359,-0.1280145882628857,0.3152622699737549,0.9959514379501344,17.538698577880858,3.113051009178162,-86.96286315917969,23.42987403869629,19.45434646606445,-35.363891983032225,-0.9610876441001892,0.1364302597939967,-0.3705715179443359,167.10755004882813,67.12796630859376,-23.354112243652345,153.32722661964942,1.0579123448517371,47.848609667741854,1.040717491721216,149.5688514709473,64.01491529941559,63.60875091552735
1894.105,37.69312095642089,139.93096313476562,-34.24492263793945,-0.1718413472175597,0.3675923645496368,0.9946727991104126,18.32136001586914,6.018223118782044,-86.752001953125,23.993886184692386,15.323053550720214,-29.42642478942871,-0.9501733422279358,0.116319055110216,-0.3798393189907074,169.04989929199218,66.96055297851562,-21.22473564147949,149.90044246589414,1.0773089517079903,41.82976546600192,1.0309069428226911,150.72853927612306,60.94232985973358,65.5272663116455
1918.395,29.602739524841308,136.8914306640625,-36.040530395507815,-0.2359196186065673,0.3746259868144989,0.978588342666626,18.95197105407715,8.875591659545899,-86.55625,25.94967193603516,13.61429672241211,-24.75162811279297,-0.9262759327888488,0.0924335073679685,-0.3865176022052765,170.78945922851562,66.78544311523437,-19.35775184631348,147.1064132034675,1.0776482479617555,38.68875611644789,1.0097191666681833,151.83748817443848,57.90985145568848,67.19849815368653
1941.089,30.475219917297363,133.39804077148438,-36.41654968261719,-0.2748130440711975,0.3436444252729415,0.9400551080703736,19.60373306274414,11.66616611480713,-86.3587158203125,21.819141387939453,13.855624008178712,-20.95167770385742,-0.9228137254714964,0.085190588608384,-0.3785406649112701,172.2399139404297,66.58214874267578,-17.714469337463377,144.00214192131918,1.0461269068068275,33.76793282619167,1.0032023938393673,152.63618087768555,54.91598262786865,68.64424648284913
1950.891,35.44572010040283,130.81722106933594,-35.49738693237305,-0.2946638494729995,0.3362178832292556,0.9316179275512696,20.369921875,14.38545093536377,-86.12645568847657,16.833774948120116,12.28345193862915,-16.35895757675171,-0.9314879655838012,0.0926460575312375,-0.36360644698143,173.33370056152344,66.39921722412109,-16.346923828125,143.69356141486492,1.0415048802588174,26.89001464154868,1.0066836925025655,152.96377868652343,52.01376628875733,69.77953186035157
1974.477,31.8692964553833,129.86605529785157,-34.64454345703125,-0.3351642102003097,0.374247333407402,0.9590384840965273,21.09599952697754,17.065438079833985,-85.84309692382813,12.540629148483276,6.150369930267334,-11.894019985198977,-0.9623912334442138,0.0738266970962285,-0.3610166311264037,174.11630554199218,66.3322967529297,-15.22979679107666,141.31139563730136,1.088924338130116,21.75351473319852,1.0321737979807106,153.02030601501465,49.266858673095705,70.61330013275146
1996.681,25.60898904800415,127.53470306396484,-35.29243621826172,-0.3925431489944458,0.3668838530778885,0.9309208989143372,21.70600624084473,19.707621383666996,-85.55329284667968,10.582635259628296,0.4504971504211426,-10.31382360458374,-0.9530012845993042,0.0513743948191403,-0.3532541275024413,174.7841033935547,66.37571716308594,-14.200551223754882,138.747814023657,1.07936683879695,20.802689215371903,1.0191501117412287,153.07809715270997,46.66809577941895,71.35274162292481
2010.888,31.721243953704835,123.6561264038086,-33.64757995605469,-0.420156180858612,0.3336497038602829,0.8751755118370056,22.44806785583496,22.27107048034668,-85.23016052246093,9.12356505393982,-3.3351156234741213,-9.601226329803469,-0.9339402198791504,0.0512941949069499,-0.3440382421016693,175.3675537109375,66.49023895263672,-13.230759620666504,134.65196720947475,1.0340144429390452,18.84490472762764,0.9979907975248712,152.91948585510255,44.21916847229004,71.99940090179443
2034.496,37.458793544769286,121.4837158203125,-32.1650390625,-0.4321462512016296,0.3574874699115753,0.8822572350502014,23.34098777770996,24.775296020507813,-84.84951629638672,5.839074385166168,-10.050214195251463,-6.322126340866089,-0.9382338762283324,0.0594886913895606,-0.3423613786697387,175.69969787597657,66.72938995361328,-12.461686515808106,134.0328070796034,1.0527465572099377,15.834904880750798,1.002177309730851,152.3587100982666,41.95409393310547,72.38782978057861
2056.153,32.78575429916382,119.85649871826172,-33.252936935424806,-0.4630257964134216,0.3744765818119049,0.922392439842224,24.17040023803711,27.2469841003418,-84.45428924560547,3.656612455844879,-18.48008794784546,-2.690721368789673,-0.96747465133667,0.0600209787487983,-0.3351744413375854,175.8042236328125,67.12513427734375,-11.89356689453125,130.69503757207775,1.104159764608274,22.247314305803677,1.0282530272534938,151.6338233947754,39.87815017700196,72.56072235107422
2076.02,26.97855176925659,117.48685150146484,-34.117499923706056,-0.515585869550705,0.3967226564884186,0.8768315792083741,24.903675079345703,29.680284881591795,-84.05076904296875,6.595416939258575,-24.156498432159424,0.3237233638763431,-0.9449815034866332,0.0558114618062972,-0.3370180904865265,175.79832763671874,67.61973571777344,-11.507002258300782,127.37825464169882,1.0993865206960984,28.61346735406501,1.007470692591551,150.89465255737304,37.93945083618164,72.54376678466797
2098.771,26.766411209106444,113.91680450439452,-31.46612319946289,-0.5411979377269744,0.3770653367042541,0.8226037979125976,25.67816734313965,32.02546691894531,-83.58146362304687,7.828476440906525,-28.172429752349853,3.4931228160858154,-0.9410849809646606,0.0406248480081557,-0.3203133583068848,175.6651580810547,68.19334259033204,-11.28493137359619,123.2273359742087,1.0646075816022802,32.590381380312024,0.998529689188671,149.98699073791505,36.16787567138672,72.29653224945068
2112.183,29.51371841430664,112.19683990478516,-28.961043548583984,-0.5502054870128632,0.3881748139858246,0.8060505747795105,26.57646331787109,34.296817016601565,-83.02205505371094,6.854301750659943,-35.526228713989255,5.692939209938049,-0.9587949514389038,0.0460743531584739,-0.2984304010868072,175.3599365234375,68.92052001953125,-11.228134918212891,121.5532659515226,1.06095320930631,37.74768828518763,1.0080258832294562,148.7834732055664,34.62370300292969,71.79392013549804
2133.501,26.829278564453126,110.38079223632812,-27.77126808166504,-0.5930566906929016,0.3973114550113678,0.8670258164405823,27.47716827392578,36.511480712890624,-82.39834899902344,5.948622131347657,-44.85865020751953,9.153033328056337,-0.9680263042449953,0.0595743268728256,-0.2883632063865661,174.76090393066406,69.82657623291016,-11.468169784545898,118.64534956783334,1.1344050536569228,47.49349872949499,1.0157953091564171,147.2837356567383,33.31509552001954,70.93017921447753
2155.83,18.023710823059083,107.51251068115236,-28.09872436523437,-0.6476799130439759,0.4293889880180359,0.7936331987380981,28.241968154907227,38.67193069458008,-81.75025939941406,9.681060028076171,-47.94587020874023,12.302284693717956,-0.9449769854545592,0.0593601554632186,-0.3005677044391632,173.9328369140625,70.77412261962891,-12.027135467529297,113.84867204713764,1.1173600978073264,51.61060144420988,0.9971758027587044,145.69086875915528,32.10219192504883,69.72312393188477
2178.2180000000003,14.566280126571655,103.25889129638674,-24.69746322631836,-0.6719048976898193,0.3941918790340423,0.7417361736297607,29.010634231567384,40.728597259521486,-81.01914672851562,8.407744026184082,-49.06761779785156,14.312173914909362,-0.9409952282905578,0.0455025717616081,-0.2783905148506164,172.8779327392578,71.73536071777343,-12.805155372619629,108.64875954554968,1.0837372956059763,52.97267520762013,0.9860368106264306,143.86729850769044,31.006763458251957,68.213991355896
2201.081,17.507057714462285,100.66513671875,-22.26424732208252,-0.6931053757667541,0.4086729168891906,0.7492632150650025,29.91425323486328,42.690711212158206,-80.20256195068359,6.577111721038818,-50.68923873901368,15.816369700431824,-0.9506853580474852,0.0652260184288024,-0.2653452575206756,171.54134216308594,72.71614990234374,-13.841256141662598,105.69573987992652,1.1079329087355445,54.36706065091262,0.9913994009333756,141.62708892822266,30.025438690185545,66.36130580902099
2211.951,13.4980103969574,96.96121215820312,-21.606035423278808,-0.7394514679908752,0.4178102254867554,0.7700575351715088,30.76945304870605,44.56471099853516,-79.36248168945312,5.750860595703125,-51.46089019775391,18.99550876617432,-0.9658371686935424,0.0806702718138694,-0.265878164768219,169.82241821289062,73.68456420898437,-15.26283130645752,101.22354022149004,1.1554072290189736,55.58881089687132,1.0072935105547445,139.05296516418457,29.119853210449214,64.0996503829956
2235.813,6.644498777389527,92.69700469970704,-20.141925239562987,-0.7742218375205994,0.4393264651298523,0.6932218432426452,31.545386123657227,46.33972778320312,-78.47655181884765,5.748260402679444,-47.33474502563477,20.20031490325928,-0.9713723540306092,0.0721676900982856,-0.2684825301170349,167.87203674316407,74.5400405883789,-16.925543975830077,95.34412837315404,1.13081854252995,52.15961143303267,1.0120492537891848,136.32665061950684,28.20031280517578,61.55100784301758
2255.941,4.053516435623169,87.85343933105469,-15.623940086364746,-0.7997415900230408,0.4246382653713226,0.6762300252914428,32.34603424072266,47.97609252929688,-77.50027465820312,1.3614144325256354,-43.14059829711914,18.703782081604004,-0.9655403137207031,0.0609215877950191,-0.2491892844438552,165.82460021972656,75.30083618164062,-18.600113296508788,89.55733668713603,1.132233273947415,47.76332837938546,1.000242310710041,133.47856597900392,27.32474365234375,58.90016136169434
2278.248,3.4678688049316406,82.49512023925782,-13.133666133880617,-0.8273080706596374,0.428789335489273,0.6864053130149841,33.17052040100098,49.47595520019532,-76.49283599853516,-1.9632958412170407,-39.010733413696286,16.851880836486817,-0.969132375717163,0.0695123843848704,-0.2464720100164413,163.7539520263672,75.96766967773438,-20.23000144958496,83.88296803569636,1.159918894651652,43.2945942933036,1.0031641620582454,130.58343162536622,26.491714477539062,56.2628345489502
2299.605,1.555820244550705,74.89104614257812,-11.075556468963622,-0.8655786514282227,0.4250647127628326,0.6570484161376953,33.96255798339844,50.825086212158205,-75.49988403320313,-6.228963661193848,-33.98209838867187,16.12901191711426,-0.972965657711029,0.0754398308694362,-0.257631978392601,161.62439880371093,76.51382141113281,-21.836536026000974,75.98772731726754,1.1699324680481795,38.98838278472224,1.0100109848083123,127.6618408203125,25.68873519897461,53.66334800720215
2320.563,-1.1756753265857696,66.43699951171875,-7.791460919380188,-0.8878268122673034,0.4308526158332825,0.6308682322502136,34.708100128173825,51.99118041992188,-74.51600189208985,-10.8545823097229,-28.359577560424803,14.49317626953125,-0.9689688205718994,0.0624138273298739,-0.2594322711229324,159.57964477539062,76.94243621826172,-23.2714111328125,67.07022914455939,1.172486350113186,34.43077161393381,1.0055853125057206,124.8715446472168,24.951255798339844,51.244590759277344
2330.7920000000004,-3.9405295670032494,57.217533111572266,-5.084000086784362,-0.9098143339157104,0.4227544486522674,0.63131765127182,35.35302963256836,52.96579284667969,-73.59655303955078,-12.81438331604004,-22.773642349243165,11.328484153747558,-0.967930018901825,0.0483884833753108,-0.2590725392103195,157.8491638183594,77.27125701904296,-24.355453872680663,57.7239591430704,1.1859827488676618,29.156146085646743,1.003294909328581,122.49613418579102,24.30546417236328,49.241099166870114
2360.717,-5.681447058916092,47.16792678833008,-2.7436414480209352,-0.9247842669487,0.4129722476005554,0.6222104907035828,35.886474609375,53.74436874389649,-72.77939910888672,-12.6011625289917,-17.92343235015869,8.796407222747803,-0.9807429432868956,0.0458388201892375,-0.2608371913433074,156.4327850341797,77.51684265136718,-25.132709121704103,48.139331883289785,1.1891167398366609,24.052235020615147,1.0160595345103136,120.54631042480467,23.772473907470705,47.64668998718262
2370.7,-6.659461718797684,36.27411231994629,-0.2670289754867553,-0.9340800166130064,0.4114082992076874,0.6097484111785889,36.30589370727539,54.31337966918945,-72.08607482910156,-11.624419593811036,-13.894914245605468,6.827358269691468,-0.9876731157302856,0.0416326388716697,-0.2627322435379028,155.32195129394532,77.6972885131836,-25.624095916748047,37.80486771967831,1.189328489003649,19.49847516901375,1.0231232281983709,119.01605758666992,23.383908843994146,46.46197891235352
2397.17,-8.64953546524048,25.08237146139145,1.7582252740859985,-0.9360507011413576,0.4099329471588134,0.6140881180763245,36.55548629760742,54.67017135620117,-71.55413055419922,-9.742678165435793,-9.303379917144776,4.039844107627869,-0.9880490779876708,0.0451219275593757,-0.2637021124362945,154.63182373046874,77.81089477539062,-25.7308650970459,28.67759818359675,1.1925203834872034,14.917570370184706,1.0239944935269285,118.07633743286132,23.14072341918945,45.82326545715332
2410.772,-10.703730964660645,13.952554643154144,3.4883098125457765,-0.9325814723968506,0.409830504655838,0.6080211281776429,36.625719451904295,54.824310302734375,-71.19429168701171,-8.120311450958251,-4.281618976593018,1.5332373380661013,-0.9909813284873964,0.0478472650051116,-0.2623649656772613,154.3615295410156,77.85233612060547,-25.442558670043944,22.88815302442141,1.1865704427524024,11.83042172734616,1.0266262708833254,117.73581008911133,23.028025817871093,45.751733016967776
2436.048,-11.485811996459962,2.7587382674217222,5.417351627349854,-0.9212923407554626,0.4018483102321625,0.6109091281890869,36.53256683349609,54.77184982299805,-70.98638458251953,-7.117369365692139,0.3968958854675293,-0.3533801317214965,-0.9926593661308288,0.0511156663298606,-0.256140249967575,154.43231201171875,77.82662200927734,-24.82595634460449,19.80230675484248,1.1768202894640492,10.5558401682461,1.0269516394804803,117.89974517822266,23.054772186279298,46.16042823791504
2455.632,-10.988247108459472,-7.8733555436134335,7.187660789489746,-0.9047149062156676,0.4044087231159209,0.6158574938774108,36.314518737792966,54.52130508422852,-70.90157012939453,-6.210489177703858,4.4117817878723145,-1.7972575664520265,-0.991879117488861,0.0644139789044856,-0.2468801140785217,154.75238952636718,77.74197387695312,-23.97436637878418,19.959350177316303,1.1675293926357058,9.933748470588847,1.024990231421232,118.43787078857422,23.22066879272461,46.92720375061035
2470.561,-11.76314525604248,-17.68411718606949,8.999534511566162,-0.8837933421134949,0.3971247971057892,0.6336877703666687,35.9529411315918,54.083615112304685,-70.92291717529297,-5.6078803434968,7.381726360321045,-2.392098832130432,-0.9937532663345336,0.0734500676393508,-0.2385196387767791,155.21034240722656,77.61140289306641,-22.999653244018557,24.575221000124973,1.1586095856250855,10.434429066529628,1.025260483448604,119.25740127563476,23.52778778076172,47.92326393127441
2493.802,-11.990902328491211,-27.272028732299805,10.91161699295044,-0.870884644985199,0.395915162563324,0.6567270517349243,35.47733917236328,53.461640167236325,-71.02940521240234,-4.215089406073093,8.759231567382812,-2.744533705711365,-0.993861436843872,0.0694370761513709,-0.2261669605970382,155.75867919921876,77.46609344482422,-21.9682373046875,32.44013029542047,1.160927773431467,11.265826949410556,1.0219264360936022,120.28134002685547,24.00445327758789,49.06116790771485
2515.587,-12.10724105834961,-37.54162750244141,13.17464828491211,-0.8791252493858337,0.4014260470867157,0.6745119571685791,34.907717895507815,52.64699096679688,-71.20015411376953,-1.111865796148777,9.986672592163083,-3.5104780912399294,-0.9841411113739014,0.0629342097789048,-0.2243724167346953,156.46676025390624,77.3046630859375,-20.846181106567386,41.84500266933948,1.178774574534211,11.933928780822312,1.0117818231610438,121.55904235839844,24.657672119140624,50.35397300720215
2538.05,-12.821684837341309,-48.6963623046875,15.828886985778809,-0.8864272594451904,0.4022826969623566,0.6928528904914856,34.241180419921875,51.62144775390625,-71.44940490722657,2.6163477048277857,12.263667678833007,-5.009700465202331,-0.9755753397941588,0.0505119065754115,-0.2344538450241088,157.4464141845703,77.10665435791016,-19.532544708251955,52.90751995905886,1.195219334437359,14.251174003057738,1.0055903417897352,123.20523376464844,25.485206604003903,51.91686019897461
2559.475,-14.602585983276366,-60.80835418701172,18.448956871032717,-0.8986764430999756,0.4068056404590606,0.7195787787437439,33.45998611450195,50.36780700683594,-71.79449615478515,5.605734072625637,14.954066467285156,-7.27019419670105,-0.9680760502815248,0.0422781999222933,-0.2480245351791381,158.7297149658203,76.8659912109375,-17.972858238220216,65.28354599808188,1.221314279434758,17.773731612883907,1.0008315182083722,125.26972885131836,26.49818420410156,53.82163791656494
2570.663,-16.171697998046874,-73.7468246459961,21.022675132751463,-0.9074879050254822,0.4149712562561035,0.7472050428390503,32.580878829956056,48.87050323486328,-72.22157592773438,9.068392992019652,19.16588287353516,-10.14276866912842,-0.9645424962043764,0.0344997297041117,-0.2554204702377319,160.3813446044922,76.55809936523437,-16.10363178253174,78.38867511516555,1.2473107978068,23.55639267234673,0.9987406585015204,127.80046577453614,27.68759613037109,56.11794414520264
2593.417,-17.328115463256836,-87.3249008178711,23.87394409179688,-0.9096322417259216,0.42989022731781,0.7910503625869751,31.632386016845704,47.10839614868164,-72.71138000488281,12.426283264160157,24.16484146118164,-12.774895668029783,-0.9702062249183656,0.0325820791535079,-0.2673207551240921,162.3518859863281,76.15974884033203,-13.973353004455566,92.22611784015854,1.281848635397134,30.07150436301161,1.007114842253258,130.71949996948243,29.05135269165039,58.738027000427245
2616.142,-19.20759735107422,-101.4984130859375,26.34230690002441,-0.901980173587799,0.441042160987854,0.8400187373161316,30.608561706542968,45.07058639526368,-73.2583236694336,15.54787311553955,29.09123497009277,-14.972247695922851,-0.978431224822998,0.0398764654062687,-0.2767374396324157,164.52561950683594,75.66485137939453,-11.691976165771486,106.66210141117412,1.3107212335933889,36.268033882398974,1.0179426675241945,133.91705780029298,30.59426498413086,61.56634750366211
2638.112,-21.20858154296875,-116.2608139038086,28.35389709472656,-0.8951958298683167,0.4527292370796204,0.8829293727874756,29.523012161254883,42.75253601074219,-73.85113220214843,17.415304565429686,33.625182723999025,-17.078446769714354,-0.976675546169281,0.0500757835805415,-0.2825467586517334,166.78492736816406,75.07431030273438,-9.35405044555664,121.59074304835472,1.3379348651233802,41.60293851601269,1.0183277431342417,137.26191520690918,32.321774291992185,64.4970817565918
2658.1510000000003,-23.21498260498047,-131.34433288574218,30.66482009887695,-0.8817495942115784,0.4638160943984984,0.9159525990486144,28.403089141845705,40.1456413269043,-74.4603042602539,18.801537704467773,40.11385307312012,-19.37244873046875,-0.9609284996986388,0.0490442179143428,-0.3007274508476257,169.13756103515624,74.33990478515625,-6.938951015472412,136.90229350999024,1.3540581135817795,48.54351929529869,1.0091484925648992,140.73447189331054,34.19426345825195,67.5213532447815
2680.585,-25.46467704772949,-146.10308074951172,32.6175121307373,-0.8584033489227295,0.4781795442104338,0.9557457208633424,27.260682678222658,37.253814697265625,-75.07219696044922,18.33487033843994,48.40939712524414,-21.174419784545897,-0.9527087092399598,0.0496749572455882,-0.3227722883224487,171.45803527832032,73.42024841308594,-4.537946158647538,151.8803749674263,1.371945150780585,56.36226132133106,1.0079814247847694,144.19735260009764,36.16643371582031,70.53425080180168
2690.63,-30.2994441986084,-160.12222290039062,33.58769416809082,-0.8089011549949646,0.4711994826793669,0.9793100953102112,26.050840377807617,34.0958366394043,-75.6863784790039,16.33956527709961,56.66925811767578,-22.61176261901856,-0.9605486750602722,0.0594863340258597,-0.3306327223777771,173.63807983398436,72.32630920410156,-2.229076510667801,166.4315577109813,1.358630891286562,63.7347020235369,1.0183959149255382,147.58723945617675,38.23047256469727,73.45730196833611
2717.905,-33.31460838317871,-172.81603088378907,34.50713119506836,-0.737465751171112,0.4645528018474579,1.0010267972946167,24.83465232849121,30.686991500854493,-76.27487030029297,10.670022106170654,62.64448852539063,-22.829198837280277,-0.9698271512985228,0.0780549317598342,-0.3328877270221709,175.5156463623047,71.10763702392578,-0.0951062500476838,179.39353002816614,1.33363181459158,68.43224638473859,1.0298538835095026,150.68099403381348,40.420645523071286,76.17976405024528
2740.796,-37.744775390625,-184.19146728515625,34.91634674072266,-0.655307000875473,0.460464310646057,1.0089367866516112,23.601054763793947,27.05250244140625,-76.82426605224609,2.0830924034118654,66.15576171875,-20.98544273376465,-0.9733381271362304,0.0950370252132415,-0.3292861998081207,176.91847534179686,69.81839294433594,1.741998165845871,191.29682434038267,1.2953047990924,71.42546104109178,1.0338029266056077,153.31742057800292,42.765890502929686,78.56626421809196
2760.83,-41.62273406982422,-194.22813415527344,34.78655853271484,-0.554438978433609,0.4350186944007873,1.0008901357650757,22.358962631225587,23.21618995666504,-77.33257904052735,-8.934526920318607,67.47266387939453,-17.31155958175659,-0.9812227368354798,0.1186343491077422,-0.3107763290405273,177.76340942382814,68.50006256103515,3.2367017447948454,201.71590845912283,1.2288835018126414,73.38721112055435,1.0378699417768729,155.40444679260253,45.28387260437012,80.56928078532219
2770.4300000000003,-43.78244018554688,-202.4276092529297,34.961499786376955,-0.4483815044164657,0.4160175621509551,0.9842183589935304,21.155121994018558,19.206880187988283,-77.7784210205078,-21.801093959808348,61.18374404907227,-8.25930051803589,-0.9923583626747132,0.1544096052646636,-0.288088497519493,177.81056213378906,67.30025939941406,4.160514450073242,210.06571835297876,1.1640180922988272,71.33043201274647,1.0457329348091755,156.65544013977052,48.09337921142578,81.93893547058106
2794.075,-46.12996292114258,-208.65612182617187,35.5691421508789,-0.3500895768404006,0.3913827002048492,0.964542293548584,19.986681747436524,15.060138607025149,-78.14379272460937,-34.0600152015686,49.22797889709473,5.937494754791261,-0.9911981701850892,0.1766485542058944,-0.276712754368782,176.932421875,66.31419525146484,4.352608299255371,216.67062322004648,1.1054104004912175,69.79518206697823,1.0446441176216164,156.94574012756348,51.2540566444397,82.49640102386475
2810.27,-50.04157791137696,-213.4216217041016,36.07329177856445,-0.2622059419751167,0.3576378762722015,0.955163037776947,18.81093559265137,10.807765913009645,-78.42391510009766,-41.96986389160156,32.33638076782226,21.66841173171997,-0.9862096190452576,0.1758383244276046,-0.2652763992547988,175.18761596679687,65.62197570800781,3.77164694070816,222.20525880585177,1.061866359578066,71.26561956996784,1.0367611210105132,156.3766803741455,54.81420979499817,82.19556204080581
2832.753,-51.77685775756836,-216.63226318359372,36.34789810180664,-0.1930356994271278,0.3338018596172332,0.9219939947128296,17.66921272277832,6.481807804107666,-78.61805877685546,-42.84252853393555,14.622863006591796,36.541451358795165,-0.9883131504058836,0.1967569708824157,-0.2454208403825759,172.75978088378906,65.21960906982422,2.4670127987861634,225.734507887691,1.0046492021703746,72.49066299900878,1.0380393699808683,155.09056816101074,58.73780126571656,81.08507157564163
2850.364,-55.2730583190918,-217.9426086425781,37.24503250122071,-0.1292653784155845,0.3077021360397339,0.8906160354614258,16.517603874206543,2.121739959716797,-78.70614166259766,-40.386651611328126,-4.125783538818361,55.19023971557617,-0.9963457226753236,0.1992771714925765,-0.2422642618417739,169.5005615234375,65.09798126220703,0.1981766819953918,228.018421183894,0.9538422280295707,77.0383629721505,1.045294474206528,152.98295764923097,62.97624130249024,78.90431834459305
2872.933,-59.09115982055664,-217.91246643066407,37.72737503051758,-0.0646570339798927,0.2684464514255523,0.8767782926559449,15.32212257385254,-2.2444120407104498,-78.69222564697266,-38.10860595703125,-21.11949157714844,67.2224838256836,-0.9980440497398376,0.1976875990629195,-0.2487757265567779,165.63140258789062,65.20627288818359,-2.783049190044403,228.963761869238,0.9238368268549582,83.65331807061676,1.0482229124985494,150.30928001403808,67.45068492889405,75.90917645692825
2896.396,-60.84742813110351,-216.96129455566407,36.78861312866211,-0.0177455753087997,0.2545138537883758,0.855606985092163,14.128398895263672,-6.588491344451905,-78.60067901611328,-33.81848030090332,-34.57341423034668,72.37509460449219,-0.9862255573272704,0.224422800540924,-0.2452855080366134,161.44976806640625,65.45670471191406,-6.194951140880585,228.35663676305035,0.8980366416316394,88.28339586950639,1.043227904508954,147.32136917114258,72.04519605636597,72.4057278752327
2916.238,-62.78280029296875,-215.659814453125,34.94262351989746,0.0281252369284629,0.2263582229614257,0.8113021135330201,12.919980812072756,-10.896501111984254,-78.44795837402344,-32.49158821105957,-40.877427673339845,77.75332641601562,-0.9822893261909484,0.2525269329547882,-0.2521223515272141,156.89999389648438,65.67269134521484,-10.037348890304566,227.3912850074861,0.849593731737931,94.18800335587352,1.0472866950068744,143.9800130844116,76.5691924571991,68.41060948371887
2937.788,-63.95433654785156,-212.47725524902344,33.33511238098144,0.0967515245079993,0.2034481674432754,0.7960829377174378,11.707506561279295,-15.137765216827392,-78.22965240478516,-34.48719367980957,-45.82007751464844,81.79181823730468,-0.9790629625320436,0.2549287945032119,-0.2680717557668686,151.99617919921874,65.81656341552734,-14.221647167205813,224.43989744240488,0.832415491955157,100.39789403398927,1.048461411866596,140.28867263793944,80.95432863235473,64.00800523757935
2950.376,-66.15827789306641,-208.55230712890625,29.81011848449707,0.1520534738898276,0.1786924958229064,0.7974369645118713,10.456392860412596,-19.29564590454101,-77.98056335449219,-38.51048774719239,-49.48882904052734,80.79377593994141,-0.98257257938385,0.2723658204078674,-0.2794094294309616,146.98086242675782,65.86856689453126,-18.45197162628174,221.0016542397269,0.8355947010871401,102.41789569955633,1.058471315460643,136.5244695663452,85.16421279907226,59.52859172821045
2973.0910000000003,-66.58769302368164,-204.8973175048828,26.00688705444336,0.1962698325514792,0.1491007074713706,0.7566723823547363,9.193303871154786,-23.369889640808104,-77.70443572998047,-37.45900001525879,-50.09011459350586,78.29399719238282,-0.9600417733192445,0.2900150179862976,-0.2694497674703597,142.0773712158203,65.79910125732422,-22.59595470428467,217.14495742682507,0.8036705895932176,100.34927573090452,1.0390870281467728,132.88406734466554,89.16899089813232,55.1084810256958
2995.122,-67.40031433105469,-200.4515838623047,23.580077362060543,0.248856770992279,0.1259819731116294,0.748024845123291,7.897876358032226,-27.35172119140625,-77.3786834716797,-39.47475051879883,-50.58288650512695,77.74756774902343,-0.955630111694336,0.2953578054904938,-0.2681994587182998,137.1518524169922,65.59197998046875,-26.738948822021484,212.88159541724627,0.8034591451556781,100.97175534054324,1.0365817313859316,129.25397605895995,92.943701171875,50.6397346496582
3018.782,-71.34970092773438,-194.12364501953124,20.630784034729004,0.2969197064638137,0.1138670682907104,0.7189773201942444,6.514899015426636,-31.208158111572267,-77.01050262451172,-38.95907440185547,-50.567473602294925,73.33103942871094,-0.9564455032348632,0.3041729927062988,-0.2586164981126785,132.49435729980468,65.29596862792968,-30.629347610473637,208.19640073658147,0.7905921029157874,97.37682066266636,1.0376162531146738,125.97945828437804,96.50412673950196,46.381155014038086
3040.15,-75.94518280029297,-187.6186492919922,18.65672359466553,0.3457942605018616,0.0671631306409835,0.691299045085907,4.971833825111389,-34.934146118164065,-76.55278625488282,-42.08348007202149,-48.70993194580078,68.26541900634766,-0.9648017644882202,0.3007875442504882,-0.2460210889577865,128.1219223022461,64.9299102783203,-34.17021865844727,203.6299306525397,0.7824689571633658,94.33846169980004,1.0417447409241742,123.1500884771347,99.86405639648436,42.38256759643555
3050.226,-72.65939254760742,-180.7606903076172,18.212232398986817,0.3925344049930572,0.0404235158115625,0.6537158489227295,3.4066800378263,-38.52551803588867,-75.96905975341797,-42.1158332824707,-47.60398635864258,60.02903518676758,-0.9425443053245544,0.3006263732910156,-0.2383930832147597,124.13982696533203,64.57061462402343,-37.32268409729004,196.0470282740004,0.7708004735619989,88.17758802057973,1.018999330313026,120.73314692750571,103.09613265991212,38.64637565612793
3072.825,-68.25935440063476,-172.61234436035156,18.640141105651857,0.4355132818222046,0.02357431165874,0.6304959774017334,1.8207196019589904,-41.95645828247071,-75.23625946044922,-42.65386810302734,-47.011915588378905,54.32863082885742,-0.9528380751609802,0.3013906896114349,-0.2324493408203124,120.42615356445312,64.2120864868164,-40.20642852783203,187.09018321070815,0.776215704902107,84.1787500705528,1.027519297192369,118.60543396249412,106.16854476928712,35.02983093261719
3095.228,-65.43048248291015,-163.14078063964843,19.31192989349365,0.4815641760826111,-0.0045373400673269,0.5824526071548461,0.1547346375882625,-45.18973083496094,-74.34042663574219,-40.49929733276368,-44.12076034545898,48.07450485229492,-0.9456384539604188,0.3018517196178436,-0.2341143637895583,117.12659759521485,63.84738845825196,-42.71725234985352,177.38310971534298,0.7606561180913057,77.3268838996084,1.0215974851863716,116.97186295762658,109.0371192932129,31.623174285888677
3115.227,-59.72410049438477,-151.9345275878906,20.454948043823244,0.5303243339061737,-0.0181528678163885,0.5421796500682831,-1.536375067383051,-48.20355911254883,-73.28008117675782,-38.82985343933105,-40.20068092346192,40.735768508911136,-0.9318870186805726,0.3120484769344329,-0.2319285422563552,114.24449768066408,63.51170272827149,-44.83266067504883,164.9868742703101,0.7632277166642665,69.46601868620327,1.0121756195169724,115.78087274804712,111.71526184082032,28.447420501708983
3139.023,-54.71023025512695,-139.26446380615235,20.877844619750977,0.5686830461025238,-0.0226616768166422,0.4918793678283691,-3.26102552190423,-50.96887969970703,-72.08233489990235,-36.31137962341309,-35.404859161376955,32.04124755859375,-0.8997105240821839,0.3338627815246581,-0.2349247038364409,111.80784454345704,63.23917922973633,-46.54239120483398,151.58091500089367,0.7585475288538553,61.09945401089624,0.9895706719439266,115.06887006536128,114.20805892944335,25.53994369506836
3158.9,-52.36338500976562,-125.29876098632812,20.611338806152343,0.6148960709571838,-0.0336965503171085,0.4650365829467773,-5.061325645446777,-53.4506118774414,-70.77530975341797,-34.71654930114746,-32.03853416442871,26.584770965576173,-0.8876116275787354,0.3500215828418732,-0.2280076712369918,109.65692596435548,63.00252685546875,-48.00504531860352,137.91374001149464,0.7773090759742189,55.66739428439,0.981974227262999,114.71825160980224,116.45313873291016,22.77026443481445
3180.033,-51.050784301757815,-110.51937866210938,19.584767532348632,0.6503167986869812,-0.0381281943991779,0.4300783634185791,-6.931294393539429,-55.62927169799805,-69.39825134277343,-33.41889953613281,-29.330953216552736,21.19695987701416,-0.8697472810745239,0.3684571385383606,-0.2331385552883147,107.75477142333985,62.80573425292969,-49.25865631103515,123.5179451898644,0.7854436172189434,50.62735416563177,0.9730488698974212,114.68606581687928,118.43500595092772,20.13959503173828
3190.339,-48.42255630493164,-95.49830627441403,18.153049087524412,0.6809374332427979,-0.0505612403154372,0.3806581139564514,-8.820600605010986,-57.51307601928711,-67.9936737060547,-32.05145263671875,-25.98825569152832,16.140265464782715,-0.8566721200942993,0.3705297946929932,-0.2253152847290038,106.10161437988282,62.66051177978515,-50.300360107421874,108.711010217361,0.7842127509342773,45.10476356942693,0.9603178195815648,114.9222149848938,120.17358779907228,17.693313598632812
3219.936,-42.19622116088867,-81.4329116821289,17.54132995605469,0.7109472870826721,-0.0707201823592185,0.3467992365360259,-10.664192962646483,-59.11410140991211,-66.5537498474121,-29.96283683776856,-23.725143814086916,12.463314628601074,-0.8394851207733154,0.3751318633556366,-0.2189193725585937,104.63859558105467,62.554248046875,-51.2084587097168,93.4952414622034,0.796761678327399,40.69046083028574,0.9455973777525704,115.30278854370115,121.66834945678713,15.345291137695312
3230.012,-32.34572525024414,-68.17131118774414,17.244499588012694,0.7349422812461853,-0.082004677504301,0.3329830169677734,-12.355020523071287,-60.43622436523437,-65.10805587768554,-24.896540451049805,-23.05102195739746,10.391538286209109,-0.8353991746902466,0.3841984093189239,-0.2098853677511215,103.32763214111328,62.473210144042966,-52.08985061645508,77.8338172973653,0.8134974722783428,35.66968166713636,0.9436404889587824,115.68265266418456,122.90943450927736,13.018205261230468
3252.678,-23.34625635147095,-54.77680549621582,17.168362045288085,0.7509349465370179,-0.0792172066867351,0.301213264465332,-13.859554100036622,-61.492872619628905,-63.70492935180664,-20.26664295196533,-19.405611991882324,7.6630952715873715,-0.835792076587677,0.3932079792022704,-0.2003727585077285,102.27039947509766,62.418427276611325,-52.79774780273438,62.777614748447945,0.8143664981249167,29.377741894950155,0.9453768968119312,116.12995357513428,123.91129989624024,10.907181549072266
3270.14,-15.896445775032044,-41.3625337600708,17.73166275024414,0.7686198353767395,-0.0911255180835723,0.2862330317497253,-15.207989501953126,-62.274861907958986,-62.3500228881836,-16.846753883361817,-14.20456485748291,5.012272080779075,-0.8327830314636231,0.3945165872573852,-0.1910314828157424,101.49862213134766,62.38703994750976,-53.27179183959961,49.61082246259797,0.8257827074989592,23.0490811460459,0.9412536514016662,116.70661163330078,124.66190185546876,9.078231048583984
3292.302,-5.640702366828919,-28.48114094734192,18.149663162231445,0.7812486290931702,-0.1023285299539565,0.2803194642066955,-16.301074600219728,-62.79301528930664,-61.07774810791015,-13.819263076782226,-9.794799876213071,1.7054328054189682,-0.828084671497345,0.3972725152969359,-0.1856086254119872,100.97953338623049,62.3976692199707,-53.53948593139648,38.47114983705083,0.8366219423537778,17.711166515240954,0.9370801445065412,117.2806079864502,125.19068450927736,7.538262176513672
3314.095,5.194199824333191,-15.35271725654602,18.382740020751957,0.7884080648422241,-0.1037441357970237,0.2790799975395203,-17.070111083984376,-63.0480354309082,-59.95046768188477,-11.67585916519165,-4.456436991691589,-1.6620242029428482,-0.823229455947876,0.3959186255931853,-0.1865075320005416,100.73585357666016,62.45166168212891,-53.55711441040039,32.55305481325949,0.8431510080695468,15.032201166350138,0.9324329751643958,117.80596466064452,125.49969711303712,6.393353271484375
3334.9410000000003,13.558722376823424,-1.4064938068389885,17.742925262451173,0.7896064281463623,-0.0990170195698737,0.2791516125202179,-17.491212844848633,-63.03479309082032,-59.04120788574219,-10.662272548675537,1.4854199647903443,-4.911326733231545,-0.822920298576355,0.4028441905975342,-0.1914158314466476,100.76629791259764,62.54130096435547,-53.29904174804688,31.868845098402076,0.8437219993704144,15.088402965453014,0.9362276149307102,118.25751075744628,125.5760940551758,5.742166137695312
3357.528,20.916654753685,12.775968885421753,16.151881980895997,0.78744558095932,-0.101996886730194,0.2876894891262054,-17.546319198608398,-62.75281295776367,-58.38867111206055,-10.67821969985962,7.502949833869934,-8.967496374249459,-0.8169378280639649,0.4100525140762329,-0.1958786845207213,101.06094665527344,62.67905502319336,-52.74351425170899,35.95781757200915,0.844919509219282,18.243525563858327,0.9351243783888338,118.60726585388184,125.43186798095704,5.6451568603515625
3369.826,28.394195556640625,27.384121465682984,13.390752601623536,0.7834150671958924,-0.1004041418433188,0.2863928914070129,-17.19052734375,-62.21091842651367,-58.04515075683594,-11.925644397735596,14.609006428718567,-13.747867679595949,-0.8084407806396484,0.4166784942150116,-0.2045331746339797,101.65252838134764,62.8704719543457,-51.83114242553711,45.02041648660743,0.8405166287978811,24.20910079246446,0.9324039684150504,118.84305572509766,125.08139038085938,6.214008331298828
3392.276,35.32514953613281,42.56777839660644,10.665281105041505,0.7775684118270874,-0.098183387517929,0.2873812079429626,-16.45144691467285,-61.39836044311524,-57.97838363647461,-13.813533306121826,22.715411567687987,-18.22261600494385,-0.8079136371612549,0.4173987627029419,-0.2107667684555053,102.56883850097655,63.105142211914064,-50.51152420043945,57.98299630766719,0.8351021994622974,32.369767437481855,0.9335964211811244,119.0202854156494,124.5035026550293,7.466859436035156
3414.834,41.52395095825195,57.98228073120117,8.201859474182129,0.7689290404319763,-0.0990036845207213,0.2984512031078338,-15.386474418640136,-60.302147674560544,-58.147379302978514,-14.792044639587402,29.33094310760498,-22.32198753356933,-0.8199961304664611,0.4111129760742187,-0.2136812597513198,103.77388916015624,63.38149871826172,-48.84799041748047,72.3982828748557,0.8309167426532035,39.95384248104117,0.9423002693765794,119.1603635787964,123.68364639282228,9.299388885498049
3437.579,48.349551391601565,72.09120178222656,6.487402725219726,0.7485029339790344,-0.1040352553129195,0.3217705190181731,-14.064493560791016,-58.93112182617188,-58.458902740478514,-13.32936887741089,34.92428016662598,-26.07595329284668,-0.8383867383003235,0.3961622953414917,-0.2133277386426925,105.28421630859376,63.69520111083985,-46.87464370727539,87.14185949633844,0.8238157510977382,46.09150148310079,0.9525035836155242,119.34870986938476,122.62632293701172,11.584259033203123
3459.767,57.19445266723633,84.27439422607422,5.195675802230835,0.7314684987068176,-0.108127374947071,0.3204153537750244,-12.516428947448732,-57.31954879760743,-58.835157012939455,-8.442421817779541,38.71448097229004,-28.920747375488283,-0.8602993369102478,0.381704306602478,-0.2127107411623,107.10081329345704,64.02988815307617,-44.662574768066406,102.03802888770562,0.8081792900133731,50.313935837700384,0.9659198666846404,119.61724224090575,121.3494369506836,14.172582244873048
3470.067,66.60799026489258,95.88656463623047,3.712065744400024,0.7128395199775696,-0.0998235419392585,0.3416775226593017,-10.758998584747314,-55.4724609375,-59.243971252441405,-2.162374019622804,40.62019500732422,-31.16666030883789,-0.88315349817276,0.3722613394260406,-0.2106821984052657,109.17661895751954,64.37323989868165,-42.29695129394531,116.8983741157253,0.7993164798675374,52.76370098090096,0.9817564493998404,119.93561754226684,119.84570083618163,16.947019958496092
3492.515,73.51737747192382,107.22705383300782,1.161568784713745,0.6856196641921997,-0.0824445374310016,0.363243418931961,-8.848022079467773,-53.39859237670898,-59.6681411743164,3.6281929969787594,38.7797492980957,-32.83672256469727,-0.8894360542297364,0.376301771402359,-0.200829866528511,111.33553161621094,64.72614669799805,-39.94949264526368,130.1815306676573,0.7829647784490653,52.16150257804742,0.9870170731898216,120.18355369567873,118.12473907470704,19.718648529052736
3514.893,79.24705200195312,118.29342193603516,-1.834643602371216,0.649371063709259,-0.0573060628026723,0.4024046421051025,-6.8221252918243405,-51.08832778930664,-60.09087371826172,7.435811805725097,32.61760196685791,-33.91459197998047,-0.893383526802063,0.3863357961177825,-0.197874704003334,113.36939086914064,65.10947875976562,-37.80802307128906,142.64269886241672,0.7714535644688735,48.986880252362646,0.993993999302606,120.19151616096497,116.19780654907228,22.28285064697265
3537.761,83.62824401855468,129.63800048828125,-6.761655282974243,0.6257614731788635,-0.0573656018823385,0.4187314450740814,-4.705752259492874,-48.546688079833984,-60.52740478515625,10.473574924468991,24.97687625885009,-32.76070251464844,-0.8909161567687989,0.3968543469905853,-0.1993281662464141,115.1692642211914,65.49766693115234,-35.97108917236328,154.7600714592084,0.7625023810043177,44.053505131212425,0.9960863454335138,119.87501648068428,114.04435501098632,24.556315612792968
3557.776,87.76185760498046,142.46865539550782,-11.51797046661377,0.5953647494316101,-0.0451247457414865,0.4654572367668151,-2.526680094003677,-45.74232940673828,-60.94928665161133,12.06055326461792,19.101083755493164,-28.643140983581542,-0.9005425572395325,0.3928083419799805,-0.18499076962471,116.70047760009766,65.84270477294922,-34.44097213745117,167.98577129848044,0.7625470937185476,38.282927297587285,1.0011392695525867,119.22715769410134,111.5850341796875,26.508314514160155
3579.737,91.6086639404297,154.1190399169922,-16.517821407318117,0.5392018795013428,-0.028875983133912,0.5357012212276459,-0.309088522195816,-42.68174514770508,-61.335958862304686,14.66077470779419,15.028726196289062,-23.6120964050293,-0.9113714218139648,0.3763766229152679,-0.17637020945549,118.0420700073242,66.12335510253907,-33.152340698242185,180.1491829025437,0.7735173418631499,34.18131057552118,1.00414794503492,118.35115852952003,108.80510025024414,28.1836181640625
3589.933,94.85311279296874,163.3740997314453,-21.678697967529292,0.4790517389774322,-0.0176518116146326,0.6088900446891785,1.9130503594875337,-39.401248931884766,-61.66272201538086,20.66099138259888,15.95879135131836,-19.16066169738769,-0.9230072498321532,0.3531390726566314,-0.1775263935327529,119.47429809570312,66.30926666259765,-31.875542831420898,190.27676000343564,0.7906668619434916,35.85783364873755,1.006250035840189,117.5612477362156,105.71051559448242,29.78717918395996
3618.089,98.36024322509766,169.40185546875,-27.151448059082032,0.4177774846553802,-0.0139481104910373,0.6904242873191834,4.144565147161484,-35.98085441589355,-61.929734802246095,27.936308670043942,26.0287145614624,-16.440745162963868,-0.9296948432922364,0.3273846983909606,-0.1681038111448287,121.38407745361329,66.33495178222657,-30.211201095581053,197.87400231709623,0.8283182199613318,44.08268291817188,1.0012711737133777,117.2395123064518,102.31580619812011,31.71853370666504
3640.261,97.83656005859376,173.58958435058594,-32.48113594055176,0.346046170592308,0.0266011230647563,0.75244619846344,6.316118216514587,-32.45509490966797,-62.1399040222168,37.2804443359375,36.25388545989991,-16.61947135925293,-0.940541434288025,0.2890591353178023,-0.1659326344728469,123.88309173583984,66.24251861572266,-28.09430809020996,202.1774014531493,0.8445877229298869,55.268632036274525,0.9988416482118492,117.56697351932526,98.69761352539062,34.04559593200683
3650.221,93.79744262695311,174.96045837402343,-36.818856430053714,0.2644011497497558,0.0718129307031631,0.8086733460426331,8.361733627319335,-28.878174209594725,-62.28283767700195,46.74719123840332,42.07072105407715,-21.460509300231934,-0.9424162864685058,0.2592554599046707,-0.1780373245477676,126.93610382080078,66.13206481933594,-25.582179260253906,202.27645379560377,0.8620151059933743,67.34220498496578,0.994956778578284,118.57437019348144,95.01023902893068,36.70065841674805
3680.354,85.82479858398438,173.34378356933593,-40.338566589355466,0.1950388938188552,0.1079022526741027,0.8893827319145202,10.206832695007323,-25.3211612701416,-62.36172027587891,55.08435287475586,46.82052001953125,-29.052925491333006,-0.9302730202674866,0.2548885732889175,-0.18959541618824,130.52167816162108,66.03019714355469,-22.668788528442384,197.99556242823596,0.9263430209724016,79.25529030367947,0.9846164466508264,120.31484546661378,91.35135841369627,39.692931747436525
3690.169,73.77755966186524,170.5298095703125,-43.671076965332034,0.1424736276268959,0.1590650834143161,0.9626132726669312,11.7798921585083,-21.80542907714844,-62.39737091064453,59.37364807128906,46.688235473632815,-38.53212661743164,-0.9418976783752442,0.2541230350732802,-0.2205828130245208,134.47259826660155,66.00014801025391,-19.447736740112305,191.86735019822945,0.9934601258148532,86.81439363387426,1.0027443653980923,122.69270610809326,87.80557708740234,42.94963417053223
3712.835,57.04852027893067,167.48251037597657,-46.55552978515625,0.0986167535185813,0.2016481235623359,0.970183253288269,12.993601036071777,-18.32620792388916,-62.4031982421875,60.27267074584961,39.85976867675781,-47.10012969970703,-0.9531450033187866,0.2422958344221114,-0.2557788968086242,138.5060821533203,66.09507751464844,-16.161815071105956,184.33225526845436,1.0000397190998096,88.02497009168718,1.018393948126327,125.51248111724854,84.4212854385376,46.24138317108155
3734.643,44.67533645629883,164.02477111816407,-46.84172592163086,0.0676263496279716,0.2359043806791305,1.0022855043411254,13.932759666442871,-14.897661399841308,-62.34947052001953,57.11090621948242,35.86101608276367,-54.20996856689453,-0.9655594825744628,0.2486633360385894,-0.282992747426033,142.5825653076172,66.2402847290039,-12.74535026550293,177.62736194110488,1.0332807289583443,87.76370999305293,1.0384183731334946,128.6498056411743,81.13794612884521,49.6041202545166
3749.788,34.30892105102539,159.9965087890625,-48.60095291137695,0.0534767426550387,0.2453228712081908,1.0285127639770508,14.65155773162842,-11.53080587387085,-62.290140533447264,51.82350845336914,34.98326187133789,-58.49086837768554,-0.9697706699371338,0.2704158782958984,-0.3073572188615798,146.6551086425781,66.35342559814453,-9.193180751800536,171.4556130575576,1.059340508377255,86.54062194639035,1.0534377259773666,132.0035509109497,77.88423147201539,53.09695978164673
3772.859,27.14888572692871,157.55464782714844,-50.00751571655273,0.0542293548583984,0.2668220371007919,0.9957425355911256,15.22340793609619,-8.201816582679749,-62.222086334228514,46.17585372924805,31.34082946777344,-59.41686019897461,-0.9821623206138612,0.2722851157188415,-0.3227890193462371,150.54591064453126,66.44945220947265,-5.693675065040589,167.64148178920763,1.0325600707313711,81.89204698989778,1.0694519816781995,135.32250270843505,74.65126879215241,56.52841126918793
3794.662,23.464180374145503,155.5875030517578,-50.180162048339845,0.030743558704853,0.289682474732399,0.975274419784546,15.720347785949707,-4.902671909332275,-62.13493194580078,42.74455337524414,28.425173950195312,-57.18038635253906,-0.977449381351471,0.2560589909553528,-0.3050307214260101,154.20938720703126,66.50784606933594,-2.3535261392593383,165.21412934450944,1.0199474100830748,77.16024774639,1.056110126365929,138.48903942108154,71.41051797866821,59.78140580654144
3817.061,21.52898578643799,154.04148559570314,-49.57957458496094,-0.0011346355080604,0.2944575220346451,0.9592243075370788,16.171369552612305,-1.6337779998779296,-62.0171630859375,41.30999374389648,25.786285972595216,-51.18992691040039,-0.9624192357063294,0.2421603113412857,-0.2956646740436554,157.53902587890624,66.50218505859375,0.6714144468307495,163.3890133845245,1.0070254456971697,71.25344601071076,1.036479431788012,141.36765632629394,68.13596305847167,62.68857753276825
3838.479,23.327798652648926,152.02340393066407,-47.909627532958986,-0.0452241078019142,0.2835386276245117,0.9453557848930358,16.65030155181885,1.5812531471252442,-61.8558219909668,40.43254928588867,20.92824935913086,-43.51566009521484,-0.954609727859497,0.2216186344623565,-0.2858173966407776,160.4225280761719,66.48011474609375,3.235075354576111,161.34026419352696,0.993893125782406,63.81643606811949,1.0224437728744964,143.77222652435302,64.89886159896851,65.09089734554291
3849.791,26.445622444152832,150.3629150390625,-46.53150405883789,-0.0929745353758334,0.2944443136453628,0.918616259098053,17.19563407897949,4.756234741210937,-61.65370483398438,39.50543594360352,13.322509288787842,-35.766021728515625,-0.95094096660614,0.2016360312700271,-0.2771740734577179,162.83636169433595,66.51190338134765,5.3104695081710815,160.02574585371002,0.9747140034275452,55.93557761886657,1.011940610840127,145.64072761535644,61.75566864013672,66.96417434215546
3872.864,26.86540355682373,149.27864990234374,-43.264983367919925,-0.1630909293889998,0.3364918977022171,0.9637598872184754,17.7662784576416,7.888747525215149,-61.36780395507813,38.905581665039065,5.977024936676026,-29.37716445922852,-0.951311457157135,0.170802143216133,-0.2795300245285034,164.88952026367187,66.61941528320312,7.0098308563232425,158.21860838481248,1.0381170401865798,50.58759377605477,1.006972213935185,147.12324180603028,58.73066775798797,68.37763481140136
3894.763,23.11639852523804,147.21527404785155,-42.046025085449216,-0.2368256419897079,0.3322612673044204,0.9562442541122436,18.26074943542481,10.981621360778808,-61.04343719482422,37.53527679443359,0.8578012466430668,-24.15712203979492,-0.9521538853645324,0.1455507144331931,-0.2879802644252777,166.66095275878905,66.7666259765625,8.430956077575683,155.6370088582167,1.045429039949458,45.81702664724038,1.0060753354079897,148.40020332336425,55.78500461578369,69.47439327239991
3915.376,25.785736179351808,144.68976745605468,-39.024740600585936,-0.2915702909231185,0.3272311300039291,0.946587610244751,18.820806884765624,14.005300807952882,-60.65276947021484,33.63723869323731,-6.49621353149414,-20.973712539672853,-0.9602790236473082,0.1331085130572318,-0.3057643353939056,168.1575439453125,67.02142333984375,9.64370756149292,152.70205722621876,1.0499064268519367,42.12970463156422,1.0177812927630965,149.33673706054688,53.01612253189087,70.29647703170777
3936.998,28.31284532546997,142.17486572265625,-38.478274536132815,-0.3335481107234954,0.3415609061717987,0.9096883773803712,19.459597015380854,16.97706890106201,-60.23907165527344,28.956453323364254,-14.777875328063963,-18.496424674987797,-0.959650433063507,0.1244273081421851,-0.3080518662929535,169.38966369628906,67.41749572753906,10.678787803649902,150.85094636786022,1.0333631529598852,39.960825740908895,1.0167706885787833,149.9300666809082,50.44042682647705,70.91785945892335
3959.499,28.53491792678833,140.6398132324219,-35.91229057312012,-0.3803984045982361,0.3733515620231628,0.9828800082206726,20.13437690734863,19.883330154418942,-59.757111358642575,23.429390811920165,-23.88179559707641,-14.713501453399658,-0.9685021996498108,0.1151488259434699,-0.3198493599891662,170.26983032226562,67.9715560913086,11.46364097595215,148.84632702648628,1.1225787774826157,41.66888716502379,1.0270178155682816,150.13545341491698,48.08822593688965,71.22075233459472
3969.751,23.10539054870605,138.24517822265625,-37.13546028137207,-0.4409176766872406,0.3737438559532166,0.9208001017570496,20.7108585357666,22.75025138854981,-59.28850402832031,24.171690464019772,-28.80822896957397,-9.82533564567566,-0.9625126004219056,0.1054694190621375,-0.3196488440036774,170.90606079101562,68.5977798461914,11.976575469970705,146.20129443397573,1.0928883485647325,43.8056732603223,1.0203247624955387,150.19520225524903,45.8475284576416,71.26507949829102
3997.816,24.89424886703491,135.46712646484374,-33.849884033203125,-0.4650093257427216,0.3466939270496368,0.8619407176971435,21.3567138671875,25.533811950683592,-58.75318908691406,22.377459049224854,-36.7339729309082,-5.171867227554321,-0.9594249844551086,0.0973713606595992,-0.3101488262414932,171.22381591796875,69.3689178466797,12.185519409179689,142.74110024046527,1.04771773012937,45.77242260987676,1.0142551265970456,149.86710205078126,43.835105895996094,70.93870849609375
4017.747,33.63428373336792,132.4071044921875,-32.96159439086914,-0.5051053464412689,0.3463949978351593,0.8468677759170532,22.21550178527832,28.250770568847656,-58.19137268066406,22.48466196060181,-42.87584724426269,-0.3891207218170166,-0.963101589679718,0.0986468404531478,-0.2825567722320556,171.2283447265625,70.25339813232422,12.063651847839356,142.5177042076333,1.0556216864886363,50.32130219120669,1.0096151639240736,149.0128429412842,42.002627563476565,70.25502452850341
4039.554,37.55264005661011,129.96397705078124,-32.40672988891602,-0.5479581534862519,0.3740745604038238,0.8885720849037171,23.19086990356445,30.89358329772949,-57.589786529541016,22.287775135040285,-49.92149124145508,5.838688611984253,-0.9628827452659608,0.108354091644287,-0.2732858419418335,170.74241333007814,71.25036163330078,11.42634048461914,141.67031049482603,1.1192477120223647,57.13523735274735,1.0081317040992004,147.55154342651366,40.35677833557129,69.01612701416016
4059.865,33.59334058761597,127.27012481689454,-33.22868614196777,-0.6092888712882996,0.3901754558086395,0.8267750382423401,24.13008918762207,33.494557571411136,-56.97070465087891,24.826738357543945,-50.87592391967773,9.838415384292604,-0.9525814175605772,0.0932200819253921,-0.2563927829265594,169.98802795410157,72.24651794433593,10.452427673339844,138.42421945477207,1.1031361392847625,59.27157278767369,0.9919322656881198,145.8579387664795,38.751960372924806,67.42313232421876
4069.787,33.198807048797605,124.03204193115236,-31.539013290405272,-0.6420730471611023,0.3614391386508941,0.7823914051055908,25.1199333190918,36.027038192749025,-56.28986740112305,19.79043426513672,-52.7681999206543,12.253175830841064,-0.9562076210975649,0.0862721636891364,-0.2408655941486358,168.8660400390625,73.2648696899414,9.193897342681884,134.84087791779865,1.0810770474033875,58.51208397706095,0.9906712726038628,143.7461067199707,37.23783149719238,65.48376474380493
4089.761,36.83176145553589,122.031640625,-30.58935165405273,-0.6829059839248657,0.3781165719032287,0.7855719923973083,26.25758934020996,38.500938415527344,-55.54839859008789,15.995156478881835,-53.20621871948242,15.485589218139648,-0.9675005435943604,0.0964379504323005,-0.2331100404262542,167.28390502929688,74.26395416259766,7.529471111297608,133.2610903564254,1.1144924734948782,57.99670223238705,1.0007389187180251,141.0263156890869,35.76301574707031,63.077869701385495
4112.622,32.60876722335816,119.1381820678711,-30.610494995117183,-0.7338523268699646,0.3975850522518157,0.8017385125160217,27.351283645629884,40.90363388061523,-54.789835357666014,13.101766204833984,-53.19332427978516,19.140710067749023,-0.978383696079254,0.1041474983096122,-0.2262443214654922,165.13876037597657,75.2208251953125,5.336240184307099,128.9287674448663,1.1641246150650335,58.2868096020606,1.0108333060565102,137.78747673034667,34.31719131469727,60.12607554197312
4131.9980000000005,25.82131223678589,114.8886001586914,-29.930216598510743,-0.7900470852851867,0.4039643585681915,0.7379623413085937,28.36996536254883,43.22993927001953,-54.003553771972655,11.30632781982422,-47.94065704345703,18.752278137207032,-0.9730811953544616,0.0923530817031859,-0.2196928888559341,162.85329895019532,76.04873657226562,3.0250682234764104,122.45428187247768,1.1598042808410018,52.9996833208112,1.0027202817006045,134.48333358764648,32.8187973022461,57.028621995449065
4150.83,26.45813856124878,109.48116912841796,-27.405833053588868,-0.82871333360672,0.3803567767143249,0.6918044805526733,29.464707946777345,45.43428115844726,-53.17348403930664,5.840075302124023,-43.803290939331056,17.38377513885498,-0.972387182712555,0.0801616329699754,-0.2168818861246109,160.48033142089844,76.7806411743164,0.7222887873649597,116.8377602196161,1.1481408318949966,48.200685744266494,1.0008278538570985,131.0156234741211,31.34636001586914,53.8957728266716
4171.89,29.67835578918457,103.62816314697264,-25.298162841796877,-0.8686831831932068,0.3981398999691009,0.684616482257843,30.691570281982425,47.49483947753906,-52.30596923828125,2.185666370391845,-39.61187438964844,15.95766258239746,-0.9754776358604432,0.083662849292159,-0.2141066044569015,158.08080444335937,77.41880340576172,-1.5462705731391906,111.01283346322998,1.180211987359817,43.32280891933722,1.0033703134937884,127.38923416137696,29.92396392822265,50.75969866514206
4195.468,26.66225357055664,96.02684631347655,-24.27335548400879,-0.9189656138420104,0.4126418590545654,0.6681540250778198,31.8882568359375,49.399600982666016,-51.45866394042969,-1.1668256759643554,-33.855580902099604,13.800117683410644,-0.9799212098121644,0.073990475013852,-0.2227330565452575,155.83963012695312,77.9386993408203,-3.596222698688507,102.9224939961998,1.2130208236682216,37.09694955111322,1.0088007907238263,123.95137329101564,28.5390983581543,47.86244124174118
4216.787,20.48278102874756,87.93512573242188,-21.59971008300781,-0.9471408486366272,0.4246099710464477,0.6200416207313537,33.007257080078126,51.130628204345705,-50.60361938476562,-3.4604671478271483,-26.06770076751709,9.105654788017272,-0.9779774069786072,0.0441260505700483,-0.2351601958274841,154.1675018310547,78.33009033203125,-5.034030818939209,92.93465517798668,1.2098532889436326,28.30783988411688,1.0074533374012986,121.16024475097656,27.199462127685543,45.569588565826415
4229.419,17.054707336425782,78.90871505737304,-18.576033782958984,-0.9651430249214172,0.41274254322052,0.6100522637367248,34.05677032470703,52.66251983642578,-49.778079986572266,-5.411440467834472,-20.13681507110596,5.194021487236023,-0.989048957824707,0.0372750286245718,-0.2403598070144653,152.9789276123047,78.6349868774414,-5.953088426589966,82.88039918197424,1.214784034189942,21.927003324246595,1.018868486053658,118.92215728759768,25.972467041015623,43.8249915599823
4251.892,14.721616744995115,68.36193389892578,-16.31367015838623,-0.9774111628532408,0.4053910315036774,0.5964907050132752,35.00996322631836,53.98062210083008,-49.03732452392578,-3.9257248878479,-14.40717625617981,1.5808785200119018,-0.992172372341156,0.0509520665043964,-0.2365385323762893,152.30990905761718,78.86140289306641,-6.388304042816162,71.86373470916124,1.2152329417149494,16.369485939676967,1.0216762310866163,117.29994583129884,24.88078079223633,42.649020481109616
4275.467,13.432518768310548,56.89432373046875,-13.812253379821778,-0.9774456977844238,0.4018614292144775,0.5830243587493896,35.86292190551758,55.067151641845705,-48.403907012939456,-4.102753448486328,-8.844216680526733,-2.166141438484192,-0.9933619976043702,0.0465892762178554,-0.2337175786495208,152.21948852539063,79.0213638305664,-6.241160678863525,60.176481270509726,1.2073448824083708,13.3156737402529,1.022015081650578,116.35656661987304,23.954212188720703,42.162746334075926
4296.912,10.780702525377272,45.38389892578125,-11.390717315673829,-0.9697129487991332,0.4029157936573028,0.5758437871932983,36.56286773681641,55.92305374145508,-47.900970458984375,-4.669047260284424,-2.552203512191773,-5.93870975971222,-0.9886841535568236,0.03847607600037,-0.2312754064798354,152.76268310546874,79.10274200439453,-5.4453685760498045,48.21420480608998,1.1979214737000654,12.830774044258384,1.0166505227858198,116.19981536865234,23.17968826293945,42.45560188293457
4319.135,7.712808787822723,34.26491241455078,-9.1157808303833,-0.9538146495819092,0.4021930396556853,0.5762537240982055,37.08047561645508,56.55718231201172,-47.53882675170898,-4.821280860900879,3.73190655708313,-8.627887344360351,-0.9866952180862428,0.0519119553267955,-0.2236017733812331,153.77734985351563,79.09207763671876,-4.173524188995361,36.56506795254781,1.1852070230718443,13.983872336597395,1.01338630404013,116.69687423706054,22.53489532470703,43.36530256271362
4329.395,5.214084804058075,23.23914246559143,-6.955614328384399,-0.9406179070472718,0.4109624624252319,0.5881818175315857,37.41134872436523,56.97202987670899,-47.34635009765625,-3.337357425689697,8.89578366279602,-10.483397674560546,-0.9872482061386108,0.0535039834678172,-0.2179988771677016,155.18431396484374,79.00267639160157,-2.534215807914734,25.28872443095072,1.1837923617631718,15.78907370407535,1.012768671000143,117.77296524047853,22.030646514892577,44.81213428974152
4351.740000000001,1.4889536738395686,12.198594903945922,-4.730884218215943,-0.9225051999092102,0.420425534248352,0.6028427481651306,37.52100448608398,57.16799240112304,-47.32667541503907,-2.0307475090026856,12.653185749053955,-11.192419815063475,-0.9927440285682678,0.0462328560650348,-0.2172415077686308,156.8210906982422,78.84854888916016,-0.6919069051742553,17.893217156313362,1.1802182154493657,18.2047193796952,1.017514592568132,119.3000862121582,21.68055648803711,46.634768509864806
4371.763,-2.3340376019477844,1.0558557987213135,-2.314311170578003,-0.903039824962616,0.4140758514404297,0.6293068051338195,37.40629043579101,57.163273620605466,-47.47458724975586,0.7980193138122559,14.702471733093262,-11.356334495544434,-0.9941511631011964,0.0514246106147765,-0.2136377006769179,158.5434326171875,78.65238952636719,1.18227379322052,15.005297621816696,1.177032857983757,19.981421629157666,1.0184408610646376,121.13714218139648,21.48911590576172,48.65686104297638
4395.569,-4.464667838811875,-9.934644842147828,0.3189864635467529,-0.8831388115882873,0.4127058267593383,0.6481301188468933,37.10928955078125,56.9451301574707,-47.777242279052736,5.022976016998291,14.685619163513184,-10.590388298034668,-0.9988432407379152,0.0670188590884208,-0.2003577262163161,160.16080322265626,78.44842071533203,2.8678531885147094,17.162271114193267,1.1714217068225945,19.99623878229402,1.0212963787654463,123.051513671875,21.503290557861327,50.64509546756744
4416.918,-6.576401329040527,-20.955118322372435,3.3567773342132567,-0.8738671898841858,0.4114981532096863,0.6776736617088318,36.657362365722655,56.52413864135743,-48.19903106689453,8.420341110229492,13.08481788635254,-8.934993314743043,-1.0020942449569703,0.0715702101588248,-0.1916528344154357,161.5605682373047,78.2629409790039,4.268338036537171,23.506551068607862,1.1807610844078549,18.681243577150237,1.0231395955227216,124.90320587158205,21.738802337646483,52.4673691034317
4437.43,-9.150138092041017,-32.20854606628418,6.5483448028564455,-0.870086395740509,0.413027286529541,0.701378858089447,36.04198379516602,55.87865829467773,-48.740919494628905,10.097033214569093,11.452089500427244,-6.864279508590698,-0.9982771635055542,0.0748457551002502,-0.189622551202774,162.69497680664062,78.09222106933593,5.373315048217774,34.27006427403052,1.191917344861868,17.320111689180713,1.0192378035996306,126.6529930114746,22.213562774658204,54.11423454284668
4459.301,-10.232433605194093,-44.214970397949216,10.230000305175782,-0.8723358392715455,0.4134002864360809,0.7267958760261536,35.31200637817383,54.99213638305664,-49.3757568359375,12.116917037963868,10.489084815979004,-4.781990575790405,-0.9958529233932496,0.0780018284916877,-0.1913800656795501,163.60642700195314,77.92370147705078,6.219751071929932,46.6379436402782,1.208546997045923,17.29085261770402,1.0174112642967874,128.2944206237793,22.93156509399414,55.59550790786743
4469.351,-10.123554229736328,-57.44969100952149,13.900464916229248,-0.8843436121940613,0.4171898603439331,0.746748971939087,34.48555908203125,53.8287353515625,-50.11112670898437,13.462550354003906,9.802973365783693,-2.5158263564109804,-0.9946285963058472,0.0729181915521621,-0.2003964215517043,164.31279907226562,77.75019226074218,6.835120582580567,60.18208193176527,1.2305234518715529,17.225133284693065,1.0178621517899151,129.82723999023438,23.92145690917969,56.946247291564944
4499.115,-9.238853168487548,-71.87772521972656,17.40948619842529,-0.8986815094947815,0.4228495657444,0.7662070155143738,33.59527854919433,52.38583068847656,-50.93620910644531,14.03051643371582,10.237860679626465,-1.1726259112358093,-0.9845619201660156,0.0609780963510274,-0.2145977526903152,164.93485107421876,77.55376739501953,7.358059501647949,74.72031964951323,1.2544807367860658,17.54425668971177,1.010066243999779,131.3395725250244,25.167936706542967,58.29426860809326
4509.148,-8.338791751861573,-87.2038703918457,21.469150733947757,-0.9142882227897644,0.4363072514533996,0.7907498598098754,32.65664520263672,50.62609710693359,-51.82751617431641,15.667557525634766,11.829550552368165,-0.8768407225608825,-0.9756455540657044,0.0478258032351732,-0.2282091319561004,165.6151336669922,77.31908264160157,7.910010242462159,90.34589958258792,1.2853577766181457,19.74318437598088,1.0034513339913032,132.95848846435547,26.69298553466797,59.73752641677856
4531.575,-8.357668018341064,-103.3143081665039,25.803800964355467,-0.923175859451294,0.443628603219986,0.8262328863143921,31.68581771850586,48.54939270019531,-52.75782928466797,17.368682289123534,14.45917491912842,-1.194139564037323,-0.97451514005661,0.0408788751810788,-0.2368972063064575,166.40284423828126,77.03213348388672,8.536197948455811,106.86428069512974,1.3164949887941462,22.81551206788646,1.003858258123295,134.7170265197754,28.482740783691405,61.29402723312378
4549.223,-8.42559003829956,-119.55298461914064,30.03153610229492,-0.9191863656044006,0.4507005035877228,0.8454787731170654,30.711255645751955,46.154931640625,-53.696337890625,17.790306282043456,16.80118751525879,-2.0666438937187195,-0.9741170644760132,0.0424070995301007,-0.2383609592914581,167.27706604003907,76.70401916503906,9.242294311523438,123.57081084258536,1.3284287632778535,24.783634962618738,1.0038934255748966,136.5658103942871,30.549087524414062,62.93863220214844
4571.778,-8.171864414215088,-134.4387954711914,34.829407119750975,-0.8950022220611572,0.4644168257713318,0.8709885954856873,29.78411674499512,43.4531608581543,-54.59035873413086,17.590331077575684,20.18011054992676,-2.890032148361206,-0.977616500854492,0.0529346462339162,-0.2385771304368972,168.20767211914062,76.3143814086914,10.010318946838378,139.1607609705777,1.3341060359509769,27.113539352030784,1.0080117376802191,138.4235553741455,32.86122055053711,64.60067768096924
4593.427000000001,-9.450120162963866,-148.10408630371094,39.148414611816406,-0.8590237498283386,0.4770130932331084,0.9085576653480528,28.88997840881348,40.46458358764649,-55.424319458007815,17.455141258239745,23.613430404663085,-3.0203874588012694,-0.9832325935363768,0.0686811715364455,-0.2394796252250671,169.11456604003905,75.85857543945312,10.756356048583983,153.5201107451598,1.3405880382070028,29.83456318127628,1.0147625357344563,140.22458763122555,35.39399185180664,66.1806755065918
4609.262000000001,-11.324341773986816,-160.97718811035156,42.57862701416016,-0.8134188771247863,0.4829976260662078,0.9311487913131714,28.01972732543945,37.21530532836914,-56.20262680053711,15.773998260498049,27.318733978271485,-2.284328317642212,-0.9846762537956236,0.0918859012424945,-0.2361931264400481,169.88401794433594,75.33016662597656,11.400871849060058,166.93896406011942,1.3301362130080956,32.06918196243366,1.0173182746339626,141.8642906188965,38.11486129760742,67.60349864959717
4631.41,-12.044104957580569,-172.83185424804688,45.99224548339844,-0.7695323705673218,0.4943646967411041,0.943603217601776,27.215122985839844,33.72805480957031,-56.9100700378418,12.658699083328248,31.816034698486327,-1.0834801197052,-0.9747952938079834,0.1061661958694457,-0.2394674122333526,170.48355407714843,74.70850982666016,11.940998458862303,179.2881575592955,1.316621552088315,35.16360257526976,1.0098900920399545,143.2684310913086,40.980455017089845,68.8510684967041
4654.572,-13.90305767059326,-183.4879119873047,48.54555435180664,-0.719977617263794,0.4983500540256499,0.9564217686653136,26.45111541748047,30.0311279296875,-57.55654067993164,7.032235765457154,37.36546173095703,1.184586763381958,-0.9634735703468322,0.1262769460678099,-0.2456254720687865,170.80465393066407,73.96867980957032,12.316043281555176,190.3602552127859,1.2977495024940269,39.71141308361846,1.002906938160535,144.3535385131836,43.93755187988281,69.87258396148681
4676.79,-18.18417263031006,-193.41114196777343,50.38191375732422,-0.6619102001190186,0.4912481606006622,0.9784711360931396,25.6651611328125,26.14187698364258,-58.15834045410156,-1.5747600078582755,42.60723648071289,4.60223617553711,-0.956692910194397,0.1383354038000106,-0.2505948245525359,170.753076171875,73.11657104492187,12.4890869140625,200.7229401384697,1.2820798689917332,45.58846756269614,0.99903664300447,145.0879150390625,46.974694061279294,70.64742736816406
4698.411,-23.553027725219728,-202.7202331542969,51.64392776489258,-0.6040340185165405,0.4841199696063995,0.981964099407196,24.843276977539062,22.07912654876709,-58.715065002441406,-11.600945043563843,45.78243789672852,9.095534992218017,-0.9623404026031496,0.1476896852254867,-0.2479066491127013,170.25739135742188,72.19563903808594,12.411800575256349,210.658904258455,1.2540932198174854,51.10435520757591,1.0050990606778205,145.41411437988282,50.11651248931885,71.12686557769776
4719.676,-27.93383331298828,-210.54366455078124,53.02113952636719,-0.528751528263092,0.4626883387565613,0.96815584897995,24.00608940124512,17.86366786956787,-59.21501846313477,-22.72400012016296,45.17497634887695,15.838595247268676,-0.9743139028549196,0.1625186979770659,-0.250399050116539,169.19385986328126,71.26199340820312,11.974125289916993,219.0623760542434,1.2015298396252545,56.75786089862072,1.0196776075953848,145.18777046203613,53.398325538635255,71.18914375305175
4729.617,-32.54661254882812,-215.97508544921877,54.116658782958986,-0.4340294659137725,0.4498549818992615,0.966520380973816,23.14906158447265,13.533237934112549,-59.64385147094727,-33.14206657409668,38.78403377532959,24.89054317474365,-1.0048232436180116,0.188847905397415,-0.2445099472999572,167.43843994140624,70.40850677490235,11.027672004699706,225.13276061432956,1.1581345056157202,61.90806369170521,1.052002043528272,144.28937835693358,56.87526884078979,70.67152347564698
4751.551,-41.3106330871582,-219.22413024902343,53.71259994506836,-0.3427600294351577,0.431538313627243,0.9687190294265748,22.18447914123535,9.13566597700119,-60.01142883300781,-38.98743705749512,26.98579387664795,33.63628368377685,-1.026293122768402,0.2161525398492812,-0.2382836371660232,165.0803680419922,69.72352142333985,9.56863842010498,229.77213610292847,1.1205224821211477,64.60902593735607,1.0769792957823747,142.89588890075683,60.58785544633865,69.58006725311279
4774.087,-51.84379425048828,-220.90988159179688,52.18802261352539,-0.2634242922067642,0.4065018892288208,0.950928783416748,21.069511032104494,4.7095795512199405,-60.31879653930664,-41.18891525268555,12.325971412658692,43.43913879394531,-1.0343964338302611,0.2433891892433166,-0.2283730924129485,162.0968444824219,69.23032684326172,7.498303031921386,233.44109431078036,1.0737396784960858,67.60529810541063,1.0881699579921702,141.02733345031737,64.52074729204178,67.81709957122803
4794.007,-57.20715103149414,-221.49469909667968,49.44619369506836,-0.187461319565773,0.3683237969875335,0.9015490174293518,19.9047664642334,0.2685862421989441,-60.57805252075195,-41.902320861816406,-2.4328413009643564,54.74677963256836,-1.0237825036048889,0.2717334926128387,-0.2293224662542342,158.41246337890624,68.88191680908203,4.713095951080322,234.68759085952652,0.995636660988938,73.19410019196016,1.084483095211262,138.50769691467286,68.61333056688309,65.29114847183227
4816.486,-60.57906188964844,-220.82220153808595,48.043524169921874,-0.1200601591728627,0.341999477148056,0.8877524256706237,18.714659118652342,-4.1670018315315245,-60.75770492553711,-40.94192962646484,-15.610072898864749,65.04992752075195,-1.0190605521202087,0.2853514552116394,-0.2239047110080718,154.1335479736328,68.61485290527344,1.27070894241333,234.4037624690633,0.9628238039374428,80.37919994259941,1.0820233629517308,135.41888885498048,72.78185473680496,62.02841386795044
4839.692,-65.03066635131836,-219.9259490966797,44.20530242919922,-0.0663536011241376,0.3098473310470581,0.8621597766876221,17.466609382629393,-8.58281899690628,-60.90722122192383,-39.15657958984375,-25.84854850769043,72.85053176879883,-0.9948137998580932,0.3012687802314758,-0.2178703546524047,149.40546569824218,68.35235900878907,-2.691333484649658,233.7329962022752,0.9217986685200736,87.19073612468483,1.062274166907761,131.93885631561278,76.93517800569535,58.21588773727417
4849.797,-69.43985366821289,-218.0935821533203,40.99625473022461,-0.0093304543755948,0.2785148113965988,0.8356109857559204,16.161824417114257,-12.969486236572266,-61.0100700378418,-39.449981689453125,-32.914638137817384,80.72475891113281,-0.9817606568336488,0.3148444890975952,-0.2089372515678405,144.25721740722656,68.00155792236328,-7.10994291305542,232.87353403836477,0.8850912750966868,95.8980253375672,1.052675210394273,128.09539299011232,80.97104415893554,53.90012712478638
4871.571999999999,-69.87284774780274,-216.21527404785155,38.15207214355469,0.0476278067566454,0.2423577815294265,0.7983150839805603,14.871313858032227,-17.323387145996094,-61.06370391845703,-41.119039916992186,-38.43980407714844,84.83886260986328,-0.975383460521698,0.3120882272720336,-0.2057965129613876,138.89580993652345,67.55498657226562,-11.758770275115968,230.80165182729385,0.8413622146015033,102.02681706499688,1.045307650976808,124.0244960784912,84.87837371826171,49.304933643341066
4899.636,-70.19155044555664,-213.30543823242184,36.61966438293457,0.1120439619757234,0.216295164823532,0.8010978460311889,13.583218765258788,-21.620655059814453,-61.04442672729492,-42.304456329345705,-43.20161819458008,86.83543090820312,-0.9751616477966308,0.3164596855640411,-0.1989463210105895,133.52290802001954,66.99382629394532,-16.435019111633302,227.91822986567985,0.8439335446277008,106.0055525848757,1.0450156283127243,119.93968925476074,88.61448135375977,44.60940761566162
4920.821,-75.32363967895508,-209.46497802734376,33.227217483520505,0.168608845770359,0.1916927486658096,0.7916282653808594,12.188159370422364,-25.83344345092773,-60.98000793457031,-40.65652770996094,-48.56038589477539,85.50105133056641,-0.9735628128051758,0.3251153290271759,-0.1898328006267547,128.31394653320314,66.35881042480469,-21.02153949737549,225.27005698710929,0.8392194358722966,106.80754742092446,1.0443574558918027,116.12578716278075,92.19225387573242,39.95846843719482
4929.607,-81.55946197509766,-205.3381805419922,30.46742935180664,0.2234943032264709,0.1592096656560897,0.7523173689842224,10.65938835144043,-29.95873565673828,-60.85464248657227,-38.93415756225586,-51.97059173583985,82.75425567626954,-0.972855532169342,0.3361832559108734,-0.1848246842622757,123.39257049560548,65.6534194946289,-25.38358345031738,223.2227178863894,0.8057696013646133,105.61908455489022,1.0465886901395942,112.73318214416504,95.6121551513672,35.471059036254886
4949.767,-83.56721649169921,-200.72040100097652,28.93177528381348,0.2759780228137969,0.128430813550949,0.7123306035995484,9.045814514160156,-33.982313537597655,-60.62592544555664,-36.85056419372559,-53.35060272216797,77.76260528564453,-0.9731526970863342,0.3236013114452362,-0.1749746948480605,118.8730972290039,64.9197868347168,-29.405367279052733,219.6739284315331,0.7799830745171061,101.58037710418408,1.041250648701628,109.82728271484376,98.90210037231444,31.220558166503903
