Timestamp (ms),Wrist Gyroscope X (deg/s),Wrist Gyroscope Y (deg/s),Wrist Gyroscope Z (deg/s),Wrist Accelerometer X (g),Wrist Accelerometer Y (g),Wrist Accelerometer Z (g),Wrist Roll (deg),Wrist Pitch (deg),Wrist Yaw (deg),Arm Gyroscope X (deg/s),Arm Gyroscope Y (deg/s),Arm Gyroscope Z (deg/s),Arm Accelerometer X (g),Arm Accelerometer Y (g),Arm Accelerometer Z (g),Arm Roll (deg),Arm Pitch (deg),Arm Yaw (deg),Wrist Gyroscope Magnitude (deg/s),Wrist Accelerometer Magnitude (g),Arm Gyroscope Magnitude (deg/s),Arm Accelerometer Magnitude (g),Difference Roll (deg),Difference Pitch (deg),Difference Yaw (deg)
0.0,2.589085578918457,2.1439452171325684,-1.7848628759384155,-0.8556709885597229,0.2786703705787658,0.422270268201828,32.96490859985352,59.45186233520508,-109.30429077148438,4.185995101928711,1.1610684394836426,-1.2925156354904177,-0.9875014424324036,0.1512571424245834,-0.024655807763338,98.74674224853516,80.80567169189453,-26.407581329345703,3.805995364544246,0.9940534168285544,4.532243548456254,0.9993226359874928,65.78183364868164,21.353809356689453,82.89670944213867
23.65,2.054637908935547,2.2561967372894287,-1.9481241703033447,-0.8586408495903015,0.2779061496257782,0.4191431701183319,32.998165130615234,59.51298522949219,-109.40178680419922,3.620570182800293,1.1046983003616333,-1.6319299936294556,-0.9849830865859984,0.1544630676507949,-0.0265949741005897,98.99401092529295,80.83712005615234,-26.23639869689941,3.620379598482816,0.9950763456347584,4.122145350119506,0.9973754622888944,65.99584579467773,21.32413482666016,83.1653881072998
43.82599999999999,2.938312768936157,2.13725209236145,-2.03725814819336,-0.8607162833213806,0.285198301076889,0.4209232926368713,33.04972076416016,59.57025146484375,-109.41349029541016,3.178812265396118,1.0263478755950928,-1.508998155593872,-0.9862329959869384,0.1574702858924865,-0.026676170527935,99.21808624267578,80.86422729492188,-26.072608947753903,4.16556709185879,0.9996734514810224,3.665421232813095,0.999081593958406,66.16836547851562,21.293975830078125,83.34088134765625
55.223,1.1984621286392212,2.5193936824798584,-2.3822736740112305,-0.8583199977874756,0.288041889667511,0.4182650744915008,33.06778717041016,59.63680267333984,-109.42495727539062,2.789454460144043,1.506389021873474,-1.2884193658828735,-0.9867987036705016,0.1594381630420684,-0.0239943638443946,99.47640991210938,80.88427734375,-25.84537124633789,3.6686351493421694,0.9973098923326208,3.4220298848520363,0.9998839627158288,66.40862274169922,21.24747467041016,83.57958602905273
77.628,0.1147977858781814,2.797282695770264,-2.595191717147827,-0.8616317510604858,0.280938982963562,0.4101206064224243,33.06156921386719,59.71590423583984,-109.43896484375,2.4463977813720703,1.321285843849182,-1.3704710006713867,-0.991318702697754,0.1508078873157501,-0.0261617377400398,99.7184066772461,80.91130065917969,-25.62863540649414,3.817458455628689,0.994753687299754,3.099814373400392,1.0030654144753357,66.6568374633789,21.195396423339844,83.81032943725586
99.901,0.4895501732826233,3.164597988128662,-2.174457550048828,-0.8649656772613525,0.2767856121063232,0.4154322147369385,33.07436752319336,59.79560470581055,-109.43740844726562,2.995966672897339,1.1938514709472656,-1.3341671228408811,-0.9909747838974,0.1507458686828613,-0.0246075745671987,99.94840240478516,80.93777465820312,-25.430633544921875,3.870737066192093,0.9986790390062764,3.490143199277648,1.0026768532141994,66.8740348815918,21.14216995239257,84.00677490234375
122.972,1.525937557220459,3.1681573390960693,-2.1513171195983887,-0.8710777759552002,0.2733092904090881,0.4171414375305176,33.1041145324707,59.876312255859375,-109.4389190673828,3.614475727081299,1.258036494255066,-1.0783796310424805,-0.9951019287109376,0.1544492393732071,-0.0274783819913864,100.19966888427734,80.9566421508789,-25.22240257263184,4.122362393443999,1.0037337490051852,3.976178219243295,1.0073914222108775,67.09555435180664,21.08032989501953,84.21651649475098
145.028,2.4948530197143555,2.905022621154785,-2.0209782123565674,-0.8697119355201721,0.28644460439682,0.4223430752754211,33.16096496582031,59.944366455078125,-109.4340591430664,3.463097095489502,1.0434560775756836,-0.887937605381012,-0.9950160980224608,0.1530754566192627,-0.0279949530959129,100.41840362548828,80.97282409667969,-25.044601440429688,4.329873087541805,1.0083764353689524,3.724281846164066,1.007111139915492,67.25743865966797,21.02845764160156,84.38945770263672
154.908,1.0082597732543943,2.975991725921631,-2.139684200286865,-0.8606643080711365,0.2961508929729461,0.4200295805931091,33.19637680053711,60.00997161865234,-109.42255401611328,3.334432363510132,0.9207290410995485,-0.6825296878814697,-0.9931265115737916,0.1592184603214264,-0.0287298299372196,100.61196899414062,80.98149108886719,-24.890411376953125,3.801494837570381,1.0024336642239549,3.525908099878304,1.0062187581366566,67.41559219360352,20.971519470214844,84.53214263916016
177.517,-0.8510830402374268,3.3887064456939697,-1.9991000890731807,-0.86184161901474,0.2868508696556091,0.4059241712093353,33.20646286010742,60.088905334472656,-109.39736938476562,3.219967126846313,0.6295205950737,-0.9017221331596376,-0.9893608689308168,0.1558814942836761,-0.0258721318095922,100.76312255859376,80.99729919433594,-24.77693557739257,4.025428534032127,0.9949014174580882,3.4025853821796765,1.0018998634773963,67.55665969848633,20.90839385986328,84.62043380737305
202.376,0.8439192175865173,3.387581348419189,-1.328974366188049,-0.8640234470367432,0.2809315025806427,0.403705358505249,33.26548385620117,60.16287612915039,-109.35353088378906,3.01475477218628,0.6134668588638306,-0.7037999629974365,-0.9900838136672974,0.1516407132148742,-0.0292551554739475,100.91744995117188,81.01106262207031,-24.65629768371582,3.73551601575396,0.9942017112524626,3.156013674124273,1.0020562499740722,67.6519660949707,20.84818649291992,84.69723320007324
223.587,2.217376232147217,3.339325189590454,-0.974694550037384,-0.8607741594314575,0.2877082824707031,0.4086612462997436,33.36421585083008,60.22658157348633,-109.29634857177734,3.511446475982666,0.3252840042114258,-0.6291658878326416,-0.9876936674118042,0.1527879387140274,-0.0297883134335279,101.04452514648438,81.02345275878906,-24.573558807373047,4.125273268838961,0.9953452785714282,3.5821663489429323,0.9998851326422826,67.6803092956543,20.79687118530273,84.7227897644043
244.792,2.277894735336304,3.621373176574707,-0.9455188512802124,-0.8620568513870239,0.2829878330230713,0.4078952074050903,33.46570587158203,60.2959213256836,-109.23591613769533,3.253431797027588,-0.2875093817710876,-0.6729612350463867,-0.9887591600418092,0.1547371000051498,-0.0238365139812231,101.06858825683594,81.03852844238281,-24.598527908325195,4.381455695018938,0.9947877305669008,3.3347199172331865,1.001077632395892,67.6028823852539,20.74260711669922,84.63738822937012
264.984,3.2376036643981934,4.317971229553223,-0.7341983318328857,-0.8614729642868042,0.2884962856769562,0.3962346315383911,33.61821365356445,60.3769645690918,-109.14229583740234,4.140808582305908,-1.0018529891967771,-0.3941938877105713,-0.9914331436157228,0.1531479358673095,-0.0228434279561042,101.01334381103516,81.05188751220703,-24.73050308227539,5.446650366733683,0.9911446202632884,4.278480331656224,1.0034519374244877,67.3951301574707,20.674922943115234,84.41179275512695
275.284,3.533990859985352,5.682761192321777,-0.3305859267711639,-0.8611384630203247,0.2908448576927185,0.3905477821826935,33.82014846801758,60.47684860229492,-108.99996948242188,4.813180446624756,-1.641040325164795,-0.4865211248397827,-0.9972562789916992,0.1481619775295257,-0.0206452086567878,100.89085388183594,81.07279968261719,-24.943397521972656,6.700160686311753,0.9892814331155344,5.108465734983766,1.0084137455500652,67.07070541381836,20.595951080322266,84.05657196044922
295.097,3.897059440612793,7.06262731552124,-0.29111048579216,-0.8647117018699646,0.2725683450698852,0.386216789484024,34.041893005371094,60.60579681396485,-108.83858489990234,5.891205787658691,-2.553405523300171,-0.3522248864173889,-0.9949474334716796,0.1464393585920334,-0.0238515138626098,100.6869125366211,81.09469604492188,-25.274269104003903,8.071711230993971,0.9854862954726126,6.430415831777508,1.0059491914755272,66.64501953125,20.48889923095703,83.56431579589844
318.181,6.029886722564697,8.608957290649414,0.205430194735527,-0.8572556376457214,0.2782905101776123,0.3677971363067627,34.36935806274414,60.757118225097656,-108.60950469970705,6.532805442810059,-3.529367446899414,-0.7549818754196167,-0.9927304983139038,0.1421917676925659,-0.0218181479722261,100.37994384765624,81.12999725341797,-25.720956802368164,10.512653379813148,0.9734513700261268,7.463509841961363,1.0030993832432789,66.01058578491211,20.372879028320312,82.88854789733887
335.109,8.901876449584961,10.523571968078612,0.8626095056533813,-0.8657814860343933,0.2765054404735565,0.3564062118530273,34.81780242919922,60.93784332275391,-108.3086166381836,8.012431144714355,-4.234027862548828,-1.2443183660507202,-0.9910233020782472,0.1343493312597274,-0.0181708894670009,100.01730346679688,81.18146514892578,-26.243173599243164,13.81061426766561,0.9762470117848366,9.147369730459108,1.0002535225111835,65.19950103759766,20.243621826171875,82.06544303894043
357.246,10.948132514953612,12.79291534423828,1.115501880645752,-0.8635582327842712,0.2982508838176727,0.351181149482727,35.38672637939453,61.14470291137695,-107.9228515625,9.829645156860352,-4.852515697479248,-1.0901106595993042,-0.9965227842330932,0.1387674510478973,-0.0134305190294981,99.58832550048828,81.2292251586914,-26.857398986816406,16.87497060784273,0.9787822080828432,11.016223207353905,1.0062278289768218,64.20159912109375,20.084522247314453,81.0654525756836
379.799,10.89426612854004,15.078557014465332,1.943459391593933,-0.8759914636611938,0.2926921844482422,0.3777461647987366,36.00389862060547,61.36902618408203,-107.4735336303711,11.149910926818848,-5.052847862243652,-0.995549738407135,-0.9904943108558656,0.1366242468357086,-0.0221241973340511,99.19036865234376,81.27439880371094,-27.46702003479004,18.70360795474261,0.9978586694840702,12.281811937846024,1.0001173155030043,63.18647003173828,19.905372619628903,80.00651359558105
400.371,8.308645248413086,15.930242538452148,1.7924951314926147,-0.8847306966781616,0.2501978874206543,0.3816509544849396,36.5412712097168,61.61792755126953,-107.0441436767578,11.829586029052734,-4.789466381072998,-0.5581920146942139,-0.9804020524024964,0.1515767127275467,-0.0367521345615386,98.87574005126952,81.29847717285156,-28.01756858825684,18.05600321207084,0.9954922599265396,12.7745713102028,0.9927307810233074,62.334468841552734,19.68054962158203,79.02657508850098
421.089,12.506217956542969,15.220503807067873,1.3334866762161257,-0.8789452910423279,0.2585034966468811,0.3389068245887756,37.17547225952149,61.87004852294922,-106.60991668701172,8.849878311157227,-3.947574615478516,-1.4902149438858032,-0.978440523147583,0.1618017256259918,-0.0332913920283317,98.60926055908205,81.33221435546875,-28.45604705810547,19.74455394363649,0.976845288762245,9.804306811092868,0.9922872429574254,61.43378829956055,19.46216583251953,78.15386962890625
434.854,17.30615997314453,15.45014190673828,1.337655782699585,-0.8893793821334839,0.3059933185577392,0.3195449709892273,37.97444534301758,62.116249084472656,-106.1123046875,5.855810165405273,-3.197319507598877,-2.22483491897583,-0.9840949177742004,0.1524153351783752,-0.0330026447772979,98.39693450927734,81.38360595703125,-28.79014778137207,23.23788675734973,0.993346155602679,7.033011811708427,0.996374636443965,60.422489166259766,19.2673568725586,77.32215690612793
457.296,15.034071922302246,15.815462112426758,1.2084790468215942,-0.8929286003112793,0.3154961466789245,0.3441700041294098,38.725341796875,62.3521728515625,-105.6142578125,3.666733741760254,-1.8610268831253047,-1.339614987373352,-0.9810657501220704,0.1686482429504394,-0.0372053235769271,98.30323028564452,81.4029312133789,-28.96556663513184,21.85434926968016,1.007627061747325,4.324687931755718,0.9961508279449024,59.57788848876953,19.050758361816406,76.64869117736816
479.719,11.175037384033203,16.11398696899414,0.6510277390480042,-0.8866064548492432,0.3000652194023132,0.3606269359588623,39.36509704589844,62.59139251708984,-105.14725494384766,-0.1125893741846084,-0.2039941102266311,-1.3523131608963013,-0.9835150241851808,0.1714108884334564,-0.036480575799942,98.3444595336914,81.41642761230469,-28.921607971191406,19.620547232135564,1.0030762327033669,1.372239355695566,0.9990066705894504,58.97936248779297,18.825035095214844,76.22564697265625
503.0520000000001,9.293957710266112,15.69630527496338,0.6726391315460205,-0.8928933143615723,0.2801260352134704,0.3643146455287933,39.9384651184082,62.82591247558594,-104.7069091796875,-3.5840649604797363,-0.4801469445228576,-1.8942668437957764,-0.9839187860488892,0.1628707647323608,-0.0323961786925792,98.2800064086914,81.44651794433594,-28.898252487182617,18.253878837286752,1.0042182170140026,4.082194214485301,0.9978339420656652,58.3415412902832,18.62060546875,75.80865669250488
525.722,11.016995429992676,14.567041397094728,0.4060108065605163,-0.8943706750869751,0.3016669154167175,0.3566747307777405,40.5391845703125,63.038604736328125,-104.28032684326172,-4.955521106719971,-1.1285741329193115,-1.934354543685913,-0.9896820187568665,0.1504336297512054,-0.0259468182921409,98.08734893798828,81.48704528808594,-28.97787475585937,18.268490034597686,1.0090186796526328,5.438069189824642,1.0013860457337491,57.54816436767578,18.44844055175781,75.30245208740234
534.9699999999999,8.410938262939453,14.15427303314209,0.2129155993461609,-0.8880295157432556,0.3236965239048004,0.3480303883552551,41.10121154785156,63.23785018920898,-103.8445053100586,-4.984709739685059,-1.2354698181152344,-1.623097538948059,-0.9919639825820924,0.1473763585090637,-0.0210939459502697,97.85820770263672,81.52349090576172,-29.09409713745117,16.4661064193135,1.0072244097707133,5.385922621178661,1.003073919680534,56.75699615478516,18.28564071655273,74.75040817260742
557.06,3.3352038860321045,14.304378509521484,0.0733297318220138,-0.8965780138969421,0.3053975105285644,0.3515739738941192,41.54291534423828,63.44451904296875,-103.4247589111328,-4.116515159606934,-0.2297837734222412,-1.3011976480484009,-0.9893527626991272,0.1477757692337036,-0.0181489400565624,97.7624282836914,81.55012512207031,-29.09331512451172,14.688233615878827,1.0103088802738165,4.323379807637602,1.000492854076522,56.219512939453125,18.10560607910156,74.3314437866211
579.69,0.9776105880737304,13.00952434539795,0.4261980354785919,-0.9025689363479614,0.2839380502700805,0.3618560433387756,41.88654708862305,63.62873458862305,-103.05521392822266,-4.133275985717773,0.2516719102859497,-1.4080249071121216,-0.9880543947219848,0.1399029195308685,-0.0249764248728752,97.76233673095705,81.58118438720703,-29.003005981445312,13.053164019534176,1.013011005543503,4.373767627982345,0.9982224880366696,55.875789642333984,17.952449798583984,74.05220794677734
600.14,1.928905367851257,11.452054023742676,1.0523440837860107,-0.9016073942184448,0.3137221932411194,0.3492879569530487,42.26585006713867,63.77309799194336,-102.67528533935548,-4.302969455718994,0.8011784553527832,-1.5827171802520752,-0.9924811124801636,0.1371626257896423,-0.0233492720872163,97.83033752441406,81.61595916748047,-28.85929679870605,11.660945302655596,1.016523282917724,4.654291216376256,1.002186376404297,55.56448745727539,17.84286117553711,73.81598854064941
623.128,-1.465429663658142,10.488836288452148,1.449412822723389,-0.9074564576148988,0.3342923820018768,0.3525546789169311,42.57941818237305,63.88899993896485,-102.2961654663086,-2.289597511291504,1.4451842308044434,-1.1806230545043943,-0.9970487356185912,0.1444368362426757,-0.0250259656459093,98.01929473876952,81.63665008544922,-28.63483619689941,10.689432553496694,1.0293315407378176,2.95375777976214,1.0077670761733266,55.43987655639648,17.747650146484375,73.66132926940918
644.6899999999999,-5.851486206054688,8.211393356323242,1.0839025974273682,-0.9103087782859802,0.3220353126525879,0.3611868619918823,42.7125358581543,63.97637176513672,-102.01595306396484,-1.5050715208053589,3.383760452270508,-0.1467283070087433,-0.9825379252433776,0.1657340377569198,-0.0382602773606777,98.49878692626952,81.6164779663086,-28.10829734802246,10.141090499183386,1.0309339278999925,3.706292524500315,0.997152142171138,55.786251068115234,17.640106201171875,73.90765571594238
654.832,-8.106420516967773,5.96358585357666,0.2642107009887695,-0.9104886651039124,0.3023361563682556,0.3329284787178039,42.71977615356445,64.05789184570312,-101.8268814086914,-4.40516471862793,4.884681701660156,0.3537278175354004,-0.985729455947876,0.1777727752923965,-0.0372829958796501,99.08856964111328,81.57476806640625,-27.408344268798828,10.067185163957832,1.0154989574940911,6.587162886529845,1.0023251676677676,56.36879348754883,17.516876220703125,74.41853713989258
677.283,-7.931370735168457,3.184498786926269,0.5806059241294861,-0.9139522910118104,0.3116795122623443,0.3482524454593658,42.65880584716797,64.08567810058594,-101.7165985107422,-7.71456241607666,4.196677684783936,0.0849081948399543,-0.9962888956069946,0.1552384495735168,-0.0337943360209465,99.5179214477539,81.55416870117188,-26.80548477172852,8.566491551490364,1.0265148193661202,8.782584258807711,1.00887689877551,56.85911560058594,17.468490600585938,74.91111373901367
699.735,-11.224847793579102,0.4923093318939209,0.6252675652503967,-0.909155011177063,0.3124624788761139,0.379498153924942,42.43367004394531,64.06037902832031,-101.71023559570312,-7.096025466918945,4.084936141967773,0.2271616458892822,-0.987385392189026,0.1402059346437454,-0.0408125892281532,99.9722137451172,81.53755950927734,-26.191465377807617,11.25302341575106,1.033544621139412,8.190963504037844,0.9981248840987328,57.53854370117188,17.47718048095703,75.51877021789551
723.118,-14.33613109588623,-2.3975133895874023,0.4570463895797729,-0.9039337038993835,0.2959904074668884,0.3771654665470123,42.050968170166016,63.99989318847656,-101.80756378173828,-6.818562984466553,6.242123603820801,0.3369689881801605,-0.983911156654358,0.1517151445150375,-0.0404502972960472,100.69315338134766,81.50366973876953,-25.315162658691406,14.54240752605685,1.0232107561559831,9.250430063381344,0.9963608160779276,58.64218521118164,17.50377655029297,76.49240112304688
734.885,-13.788938522338867,-5.358457565307617,0.460722416639328,-0.9079408645629884,0.2980704307556152,0.3598434031009674,41.62054061889648,63.90243911743164,-101.97467041015624,-7.793061256408691,5.113683700561523,0.0686918571591377,-0.9950316548347472,0.1482190191745758,-0.0300799198448658,101.20606994628906,81.48229217529297,-24.667348861694336,14.800681004509125,1.0211218683337997,9.321281205218884,1.0064599710600133,59.58552932739258,17.579853057861328,77.30732154846191
757.124,-14.818647384643556,-8.24850845336914,0.5660143494606018,-0.9160589575767516,0.3037242293357849,0.3860200643539428,41.08628463745117,63.75132369995117,-102.23210144042967,-7.568268775939941,3.5704433917999268,0.0549751669168472,-0.9953202605247498,0.1389436870813369,-0.0351731851696968,101.54385375976562,81.47137451171875,-24.20427894592285,16.96910646614903,1.0394344189635265,8.368379804232882,1.005586854600732,60.45756912231445,17.720050811767578,78.02782249450684
777.377,-16.765316009521484,-11.492734909057615,0.0194318927824497,-0.9146382212638856,0.2823802828788757,0.3998593389987945,40.39059829711914,63.55992126464844,-102.6209487915039,-6.110573768615723,3.768534898757935,0.4671134650707245,-0.9938998222351074,0.1450597941875457,-0.0418320260941982,101.94005584716795,81.44686889648438,-23.695669174194336,20.32631678852433,1.0373953879500677,7.194384063566624,1.0053005117554934,61.54945755004883,17.886947631835938,78.92527961730957
795.997,-15.37449836730957,-14.51220703125,-0.4219647645950317,-0.90826815366745,0.2795950174331665,0.3872096836566925,39.65379333496094,63.33185958862305,-103.09066772460938,-6.247647762298584,3.362551689147949,0.2481583952903747,-0.9996841549873352,0.1459579616785049,-0.0317433960735797,102.24351501464844,81.42933654785156,-23.261493682861328,21.146096737384568,1.0261850475705865,7.099397087999749,1.0107817665076724,62.5897216796875,18.09747695922852,79.82917404174805
817.274,-15.704503059387209,-17.308704376220703,-0.5338606834411621,-0.9054343104362488,0.2896671295166015,0.3992260992527008,38.85552978515625,63.05315399169922,-103.62459564208984,-4.698784828186035,2.6048078536987305,-0.1047893762588501,-0.9988576173782348,0.138810396194458,-0.030035737901926,102.4863510131836,81.42582702636719,-22.921913146972656,23.37750351844756,1.0310673182494343,5.373507572308666,1.008903866301195,63.630821228027344,18.37267303466797,80.70268249511719
840.414,-18.504886627197266,-20.205398559570312,-0.9996670484542848,-0.906523823738098,0.2907546162605285,0.4095041453838348,37.933013916015625,62.73027038574219,-104.23702239990234,-3.219468355178833,3.070410966873169,0.1248435601592063,-0.9877883195877076,0.1396247595548629,-0.0383488312363624,102.83882904052734,81.41336059570312,-22.465600967407227,27.41693444286351,1.036348076163648,4.4506163516985096,0.9983443647619068,64.90581512451172,18.683090209960938,81.77142143249512
861.6239999999999,-18.80584144592285,-23.28402328491211,-1.5049954652786257,-0.9018374681472778,0.271815150976181,0.3952518701553345,36.93698501586914,62.37331771850586,-104.92766571044922,-3.9868006706237793,4.358504295349121,-0.3371875286102295,-0.9924100041389464,0.1458794474601745,-0.0366370193660259,103.33650207519533,81.4007797241211,-21.8481388092041,29.967823147036025,1.0214785049700192,5.916488376504532,1.0037433440349064,66.39951705932617,19.027462005615234,83.07952690124512
874.576,-15.240968704223633,-26.341289520263672,-1.484027624130249,-0.9014703035354614,0.2701203823089599,0.4234692454338074,35.95443344116211,61.95460891723633,-105.68318939208984,-4.564531326293945,3.706164598464966,-0.2281647324562072,-0.9929462671279908,0.1451299041509628,-0.0379953347146511,103.73605346679688,81.38882446289062,-21.3264389038086,30.46888574632585,1.031959268054381,5.884102429833335,1.0042154270585355,67.78162002563477,19.434215545654297,84.35675048828125
897.109,-17.014129638671875,-29.18143653869629,-2.20706844329834,-0.901880979537964,0.282355934381485,0.4338618814945221,34.89419937133789,61.48883056640625,-106.49341583251952,-2.813706159591675,5.832139015197754,0.2561272978782654,-0.9847548604011536,0.1413516998291015,-0.045711725950241,104.44889068603516,81.35675048828125,-20.52876663208008,33.85126285586544,1.0398799484299932,6.48046210064023,0.9958975851048248,69.55469131469727,19.867919921875,85.96464920043945
919.248,-16.476308822631836,-33.026668548583984,-2.9056520462036133,-0.9089125394821168,0.2739747166633606,0.4347210824489593,33.77802276611328,60.96885299682617,-107.3840789794922,-3.7661447525024414,6.187558650970459,0.7745708227157593,-0.988620400428772,0.1636633723974228,-0.0489621646702289,105.14641571044922,81.2992172241211,-19.726015090942383,37.02259312433922,1.0441104200821836,7.284894530149604,1.0032712939069062,71.36839294433594,20.33036422729492,87.6580638885498
943.073,-17.87212562561035,-36.07044219970703,-2.9338107109069824,-0.9089682102203368,0.2808081805706024,0.4632611870765686,32.6099739074707,60.38238143920898,-108.30696868896484,-6.0937275886535645,6.528510570526123,0.6148483157157898,-0.9916379451751708,0.1583596915006637,-0.0520854070782661,105.84532928466795,81.24484252929688,-18.85758399963379,40.36207279300008,1.0581528098144075,8.951704007926505,1.0055528309511783,73.23535537719727,20.86246109008789,89.44938468933105
965.006,-22.19500160217285,-39.35301971435547,-3.274499654769897,-0.9052071571350098,0.2702653706073761,0.4839001297950744,31.317716598510746,59.73384094238281,-109.2764129638672,-8.08043098449707,7.184053421020508,-0.0091620339080691,-0.99448561668396,0.150219514966011,-0.0561489537358284,106.61405181884766,81.2018051147461,-17.881954193115234,45.299013286693054,1.0614154245599028,10.812218661965826,1.0073332365575594,75.29633522033691,21.46796417236328,91.39445877075195
975.095,-24.21576881408692,-42.89423751831055,-3.531942129135132,-0.9068177938461304,0.2712481915950775,0.4720064699649811,29.984682083129883,59.027774810791016,-110.25910186767578,-9.111286163330078,7.951645851135254,0.1676017194986343,-0.9965147376060486,0.1509574800729751,-0.0609291791915893,107.44816589355467,81.1483154296875,-16.86012840270996,49.38414408226697,1.0576786848416515,12.094308480783246,1.00972379784424,77.4634838104248,22.120540618896484,93.39897346496582
996.756,-24.78363609313965,-46.76627349853516,-4.404644966125488,-0.8861257433891296,0.2765185534954071,0.4945346713066101,28.61184883117676,58.24234390258789,-111.28477478027344,-11.474979400634766,8.216442108154297,0.5466830730438232,-0.9860545992851256,0.1521510034799575,-0.0643435269594192,108.2432861328125,81.08193969726562,-15.845539093017578,53.11039307155033,1.0517822420294358,14.123878204798988,0.9997968244062818,79.63143730163574,22.83959579467773,95.43923568725586
1016.789,-28.018047332763672,-52.20781707763672,-4.36104679107666,-0.8836920261383057,0.2885093986988067,0.5603377223014832,27.147661209106445,57.32686614990234,-112.34929656982422,-14.4327392578125,10.30503749847412,0.2044928073883056,-0.969998061656952,0.1559560149908065,-0.0750996395945549,109.25214385986328,81.00125122070312,-14.537264823913574,59.41115946913443,1.085415880311314,17.735263675435824,0.985321507984723,82.10448265075684,23.67438507080078,97.81203174591064
1039.39,-36.29134368896485,-57.86513900756836,-4.850309371948242,-0.890364944934845,0.2691625952720642,0.5667482614517212,25.49459648132324,56.31223678588867,-113.4522705078125,-18.66793441772461,12.952948570251465,-0.8397564888000488,-0.958792805671692,0.1617641150951385,-0.0834225714206695,110.51841735839844,80.91279602050781,-12.82364559173584,68.4759917059942,1.08922074425755,22.737102784843287,0.9759152619785924,85.0238208770752,24.60055923461914,100.62862491607666
1062.095,-36.37565231323242,-63.14445877075195,-5.609170913696289,-0.875111997127533,0.2585339248180389,0.5326167345046997,23.855545043945312,55.212364196777344,-114.55807495117188,-25.24274253845215,12.968871116638184,-0.9319679141044616,-0.9793666005134584,0.1714155226945877,-0.0740146562457084,111.5743408203125,80.82064819335938,-11.196138381958008,73.08812183250724,1.0565705767589824,28.394651487480417,0.9970057115990444,87.71879577636719,25.60828399658203,103.36193656921388
1083.346,-37.26632690429688,-67.97509765625,-4.439341068267822,-0.8610948324203491,0.294489324092865,0.5930957198143005,22.2812442779541,53.9746322631836,-115.58799743652344,-28.379159927368164,11.059053421020508,-0.532087504863739,-0.984207570552826,0.158810555934906,-0.0752856954932212,112.32141876220705,80.73924255371094,-9.837214469909668,77.64728437901131,1.086264611081363,30.462476883289654,0.9997766103264007,90.04017448425293,26.764610290527344,105.75078296661376
1104.956,-41.37549591064453,-73.60218811035156,-4.177114486694336,-0.8540671467781067,0.2615822553634643,0.6532454490661621,20.631391525268555,52.6067008972168,-116.6139678955078,-28.964542388916016,10.001258850097656,-0.7107160091400146,-0.9722272753715516,0.1381319910287857,-0.0772243663668632,112.95904541015624,80.67687225341797,-8.58951473236084,84.53793256236096,1.1066099512711716,30.650856621497827,0.9850228041435034,92.3276538848877,28.07017135620117,108.02445316314696
1115.132,-41.11103439331055,-79.85285186767578,-2.69350004196167,-0.8587919473648071,0.2534441351890564,0.6795805096626282,19.06127166748047,51.1015510559082,-117.60145568847656,-30.6142635345459,7.707944393157959,-0.739966869354248,-0.9916142821311952,0.1566934287548065,-0.0756289064884185,113.26366424560548,80.62442016601562,-7.641812324523926,89.8546050170217,1.1240939496473077,31.578364262551407,1.0067628552137473,94.202392578125,29.522869110107425,109.95964336395264
1144.086,-41.10084915161133,-84.91629028320312,-1.2793002128601074,-0.8413634300231934,0.2783969640731811,0.6807000041007996,17.607044219970703,49.48296356201172,-118.4430694580078,-28.390060424804688,4.81439208984375,0.8725703358650208,-1.0077617168426514,0.1512825489044189,-0.0591058358550071,113.16681671142578,80.57328796386719,-7.133592128753662,94.34878253310612,1.1174747364340665,28.80859734714349,1.0207661766383058,95.55977249145508,31.09032440185547,111.30947732925416
1164.623,-41.64293670654297,-90.09666442871094,-0.626150906085968,-0.8197081685066223,0.2639898061752319,0.7083706855773926,16.202463150024414,47.749324798583984,-119.2583999633789,-26.0482177734375,2.5551772117614746,1.6418190002441406,-0.9985018968582152,0.1543514132499694,-0.0602103546261787,112.83353424072266,80.523681640625,-6.91845703125,99.2569150421374,1.115078978129488,26.224685877727747,1.012153982161769,96.63107109069824,32.774356842041016,112.3399429321289
1174.8829999999998,-42.60608673095703,-95.8335418701172,0.9025235772132874,-0.805359423160553,0.2459917664527893,0.778421938419342,14.843466758728027,45.87516021728516,-120.02734375,-23.562116622924805,0.778361439704895,2.55403470993042,-1.000535488128662,0.154135063290596,-0.0584164075553417,112.3138656616211,80.47216796875,-6.934164047241211,104.88165198310314,1.1467591132616248,23.712913772513453,1.0140223653411833,97.47039890289308,34.597007751464844,113.0931797027588
1196.813,-43.50202560424805,-101.86003112792967,2.0450968742370605,-0.7817114591598511,0.2296933233737945,0.7861685156822205,13.537407875061035,43.87741470336914,-120.68746948242188,-22.56366920471192,-2.1833043098449707,2.5322067737579346,-1.0030696392059326,0.1513742059469223,-0.0481113903224468,111.47260284423828,80.44754791259766,-7.297740936279297,110.77939607291816,1.1322070319664632,22.81004289417532,1.0155676034619951,97.93519496917725,36.57013320922852,113.38972854614258
1217.178,-40.54192352294922,-105.86322021484376,2.6180782318115234,-0.759607195854187,0.2575020492076874,0.75419020652771,12.391745567321776,41.81098175048828,-121.2502212524414,-20.85370635986328,-5.2329816818237305,3.092257738113404,-1.0163180828094482,0.147575557231903,-0.0357646718621254,110.28598022460938,80.43878173828125,-8.037820816040039,113.39101944521468,1.1009601559375022,21.72149221726324,1.0275991934072275,97.8942346572876,38.62779998779297,113.21240043640135
1234.692,-43.421661376953125,-109.0472412109375,4.395982265472412,-0.7347062826156616,0.2472657859325409,0.825259804725647,11.260541915893556,39.65606689453125,-121.68777465820312,-16.967403411865234,-8.065577507019043,4.577879428863525,-1.0113872289657593,0.1586048454046249,-0.0492075309157371,108.85112762451172,80.40928649902344,-9.100194931030272,117.45665648454973,1.132248840098136,19.336579302656386,1.0249297561295043,97.59058570861816,40.75321960449219,112.58757972717284
1256.658,-48.10431289672852,-113.70897674560548,4.65973711013794,-0.7105391025543213,0.2012011110782623,0.8523430228233337,10.062104225158691,37.40874862670898,-122.0833969116211,-10.516826629638672,-9.48054027557373,5.286920547485352,-0.9969969987869264,0.1620138883590698,-0.04468709602952,107.36649322509766,80.36827850341797,-10.343280792236328,123.5535084962568,1.1277572131950413,15.11409326258362,1.0110630307566957,97.30438899993896,42.95952987670898,111.74011611938477
1279.235,-48.291236877441406,-117.46385192871094,5.314422607421875,-0.6781351566314697,0.1883592456579208,0.8473758697509766,8.91884994506836,35.091407775878906,-122.4523468017578,-13.870976448059082,-12.667924880981444,5.8107008934021,-1.008743405342102,0.1748559474945068,-0.0174574516713619,105.37224578857422,80.32746124267578,-12.076359748840332,127.11429170920776,1.101540902881338,19.663279311584382,1.0239348723499166,96.45339584350586,45.23605346679688,110.37598705291748
1301.682,-49.29742431640625,-119.94984436035156,5.713991165161133,-0.6530406475067139,0.1724162250757217,0.8657166361808777,7.802319526672363,32.72700500488281,-122.6944808959961,-10.97323226928711,-13.930419921875,7.016671657562256,-1.0238639116287231,0.1544683277606964,-0.0264639351516962,103.34366607666016,80.27064514160156,-13.90239143371582,129.81082736559344,1.0980231036393016,19.070975506919755,1.0357886433440795,95.5413465499878,47.54364013671875,108.79208946228027
1322.3290000000002,-48.98454666137695,-123.2921905517578,5.93236780166626,-0.628136932849884,0.1510895788669586,0.8925285339355469,6.725976943969727,30.29815673828125,-122.87769317626952,-5.3102240562438965,-17.65000343322754,7.777087211608887,-1.0012717247009275,0.1498978585004806,-0.026386871933937,101.03916931152344,80.20391082763672,-16.113386154174805,132.7992584708432,1.1018127114629743,20.00510400416418,1.0127737662869525,94.31319236755373,49.90575408935547,106.76430702209473
1334.755,-49.852333068847656,-127.14900970458984,6.01624870300293,-0.6083878874778748,0.1101318299770355,0.8989549875259399,5.65033483505249,27.80506706237793,-123.05074310302734,-1.9914754629135127,-16.035964965820312,9.189983367919922,-0.9916750192642212,0.1571003347635269,-0.0294831916689872,99.0188217163086,80.08479309082031,-18.091007232666016,136.7052340977535,1.0910476209596192,18.589619178645048,1.0044745480132864,93.3684868812561,52.27972602844238,104.95973587036131
1356.784,-48.80220413208008,-129.83547973632812,4.652116775512695,-0.5746376514434814,0.0865645185112953,0.8714517951011658,4.6095967292785645,25.27713966369629,-123.19979095458984,-1.0665630102157593,-18.40829086303711,10.373669624328612,-1.0013175010681152,0.1799819022417068,-0.0165387280285358,96.75662231445312,79.92626953125,-20.32906913757324,138.78238042707255,1.0474397727347462,21.15693150311865,1.017498772777953,92.14702558517456,54.64912986755371,102.8707218170166
1379.094,-45.74494934082031,-132.4077911376953,3.948089599609375,-0.5341412425041199,0.0725851580500602,0.913581609725952,3.648834466934204,22.69227600097656,-123.29502868652344,0.0596900731325149,-18.30246925354004,11.932452201843262,-0.9880412220954896,0.1791949719190597,-0.0134054664522409,94.59848022460938,79.72199249267578,-22.4915771484375,140.14282341826964,1.0607576677745294,21.84873816106741,1.0042489736374258,90.94964575767516,57.02971649169922,100.80345153808594
1401.8,-44.76676940917969,-134.20370483398438,2.2867560386657715,-0.4969472587108612,0.0573019832372665,0.9686431884765624,2.714775800704956,20.06674575805664,-123.40531158447266,-0.5744907855987549,-17.102806091308594,14.656058311462402,-0.999711811542511,0.1939198672771453,-0.018166959285736,92.6613540649414,79.44287872314453,-24.41131401062012,141.49179229793594,1.0901879295815031,22.53078030358972,1.018508055673633,89.94657826423645,59.37613296508789,98.99399757385254
1424.691,-43.06943893432617,-135.77113342285156,-1.6907378435134888,-0.460499107837677,0.0259433649480342,0.9209484457969666,1.7996618747711182,17.432302474975586,-123.55541229248048,0.4948732852935791,-14.909852981567385,16.63685417175293,-1.0136044025421145,0.2075185328722,-0.0213007219135761,91.09329223632812,79.10885620117188,-25.998279571533203,142.44871300050028,1.0299895758307325,22.345772133283376,1.0348485623955934,89.293630361557,61.67655372619629,97.55713272094728
1434.8000000000002,-35.56562805175781,-135.78553771972656,-3.49250864982605,-0.4060128331184387,0.0082313483580946,0.8918828368186951,1.0403358936309814,14.801979064941406,-123.69988250732422,-2.354208946228028,-14.164678573608398,18.1471004486084,-1.009516954421997,0.2043906152248382,-0.0081553691998124,89.61637115478516,78.74144744873047,-27.443748474121094,140.40948603716336,0.9799842704678564,23.14082266359656,1.0300322882823807,88.57603526115417,63.93946838378906,96.25613403320312
1459.058,-35.20526885986328,-133.66107177734375,-5.167020797729492,-0.3389767110347748,0.0057664103806018,0.9257783889770508,0.3006569743156433,12.195816040039062,-123.83908081054688,-2.424881935119629,-14.048871994018556,19.861513137817383,-1.0031800270080566,0.2050158083438873,0.0030354072805494,88.2291030883789,78.33540344238281,-28.79813575744629,138.31627224620993,0.9859026765404252,24.44852880701169,1.0239193630145598,87.92844611406326,66.13958740234375,95.0409450531006
1479.125,-33.15913772583008,-133.06207275390625,-7.106908321380615,-0.3059147000312805,-0.0211478509008884,0.951498806476593,-0.4013414680957794,9.603188514709473,-123.98341369628906,1.5346750020980835,-12.808591842651367,18.83027648925781,-0.9784578680992126,0.2041409462690353,-0.0104953153058886,87.17109680175781,77.94750213623047,-29.91596031188965,137.31551902889535,0.999690459101884,22.8253053652212,0.999581651108224,87.57243826985359,68.344313621521,94.0674533843994
1501.994,-30.457983016967773,-131.12742614746094,-8.554675102233887,-0.2598660886287689,-0.0134277772158384,0.9230402708053588,-1.0319242477416992,7.0519208908081055,-124.12310791015624,0.2578381896018982,-6.345761299133301,20.16035270690918,-0.9912061095237732,0.2105715572834015,-0.0083657223731279,86.74613189697266,77.53910827636719,-30.35506057739257,134.8898553769871,0.959017221299286,21.13705249708614,1.0133607045888624,87.77805614471436,70.48718738555908,93.76804733276369
1521.662,-26.396648406982425,-129.07460021972656,-10.68637466430664,-0.1942334324121475,-0.050951674580574,0.9365555047988892,-1.593253254890442,4.525060653686523,-124.28002166748048,-2.324740409851074,-4.698758602142334,19.93892478942871,-0.9871344566345216,0.2243217527866363,0.0172674283385276,86.38086700439453,77.13182067871094,-30.70056533813477,132.17879585043138,0.9578407555425228,20.61658245522026,1.012448936159166,87.97412025928497,72.60676002502441,93.5794563293457
1545.232,-25.55844688415528,-125.87459564208984,-12.351740837097168,-0.154652863740921,-0.0579654388129711,0.9139846563339232,-2.131232261657715,2.063278913497925,-124.44591522216795,-6.457359313964844,-1.2558972835540771,18.21809196472168,-0.9737929701805116,0.2361175417900085,-0.0036180124152451,86.29216003417969,76.7597427368164,-30.685955047607425,129.03570644165367,0.9287870866748138,19.369399632707868,1.0020166327600435,88.4233922958374,74.69646382331848,93.75996017456056
1564.357,-18.42127990722656,-124.89986419677734,-13.92619800567627,-0.1092194467782974,-0.081270582973957,0.9581407308578492,-2.5272934436798096,-0.3879216015338897,-124.62276458740234,-11.685306549072266,3.4812068939208984,16.028709411621094,-0.9937704801559448,0.2399364709854126,0.0050999927334487,86.45889282226562,76.44136810302734,-30.30441093444824,127.0167651166062,0.967764152746059,20.13913394330213,1.0223381472214526,88.98618626594543,76.82928970456123,94.3183536529541
1574.223,-11.883116722106934,-123.53033447265624,-14.762659072875977,-0.0730397626757621,-0.0748296082019805,0.9262942671775818,-2.779442071914673,-2.8092141151428223,-124.802001953125,-17.797775268554688,10.356145858764648,15.379071235656738,-0.9661944508552552,0.2251926511526107,-0.0058250720612704,87.06534576416016,76.15149688720703,-29.361772537231445,124.97555001223044,0.9321777441032622,25.70070803751113,0.9921075437981248,89.84478783607483,78.96071100234985,95.44022941589355
1594.8770000000002,-4.618341445922852,-120.25439453125,-15.775601387023926,0.0023190607316792,-0.0915481448173523,0.9082382321357728,-2.887280225753784,-5.188474178314209,-124.99640655517578,-19.41612243652344,15.150300979614258,16.052690505981445,-0.9855051040649414,0.2541027963161468,0.0175888109952211,87.93014526367188,75.83843994140625,-28.117521286010746,121.37264140205129,0.912843429715792,29.397385984536047,1.0178889465486702,90.81742548942566,81.02691411972046,96.87888526916504
1618.2810000000002,-3.5017244815826416,-118.2472915649414,-15.636844635009766,0.0478546284139156,-0.0673976093530654,0.9128220081329346,-2.948977470397949,-7.533162117004394,-125.1875,-19.011592864990234,23.451778411865234,12.974987983703612,-0.9956916570663452,0.2363702058792114,0.0030501952860504,89.41608428955078,75.59910583496094,-26.199125289916992,119.32809789370069,0.91655688407157,32.85995872061663,1.023367995332172,92.36506175994872,83.13226795196533,98.988374710083
1634.08,4.46568775177002,-117.11581420898438,-15.717415809631348,0.0797519236803054,-0.093590497970581,0.927388072013855,-2.8586392402648926,-9.85090446472168,-125.38025665283205,-16.06194305419922,27.843955993652344,10.979219436645508,-0.9794573783874512,0.2235237807035446,-0.0047198608517646,91.24568176269533,75.39291381835938,-23.98653030395508,118.25013092873304,0.935504241975773,33.96785479671628,1.0046501449281162,94.1043210029602,85.24381828308105,101.39372634887695
1657.706,10.831666946411133,-115.27223205566406,-14.273564338684082,0.1425528526306152,-0.066212497651577,0.8923664689064026,-2.6228976249694824,-12.148685455322266,-125.55523681640624,-14.6175537109375,36.87937927246094,11.394015312194824,-0.961018204689026,0.2322120815515518,-0.0198187362402677,93.7344207763672,75.14425659179688,-21.12235641479492,116.65653488280626,0.9061033746029576,41.27450880323949,0.9888737143176496,96.35731840133668,87.29294204711914,104.43288040161131
1679.008,16.44142723083496,-113.00491333007812,-13.02252960205078,0.2063547968864441,-0.0550487898290157,0.8794940114021301,-2.266706943511963,-14.417509078979492,-125.72085571289062,-18.608699798583984,44.28246688842773,9.181612968444824,-0.9705345630645752,0.2531034648418426,-0.0108368713408708,96.5625457763672,74.88468170166016,-17.816633224487305,114.93483911922269,0.9050538036779332,48.9031962004615,1.00305340824821,98.82925271987916,89.30219078063965,107.90422248840332
1699.255,19.6648063659668,-110.42598724365234,-11.92247486114502,0.2489214837551117,-0.0474761612713336,0.8838337659835815,-1.8393967151641848,-16.6356258392334,-125.88356018066406,-22.61883544921875,49.2979736328125,4.22667932510376,-0.9562802910804749,0.2528085112571716,-0.0054228431545197,99.5809326171875,74.66678619384766,-14.239324569702148,112.79516246258468,0.9194444066155542,54.40373828605504,0.9891478886905152,101.42032933235168,91.30241203308104,111.64423561096191
1721.379,20.34144401550293,-108.92894744873048,-10.120295524597168,0.3048348426818847,-0.0249541401863098,0.8650366067886353,-1.3878591060638428,-18.836280822753903,-126.03132629394533,-23.270692825317383,54.61614608764648,4.638472080230713,-0.939499855041504,0.2447363883256912,-0.023660996928811,102.85697174072266,74.37164306640625,-10.353096961975098,111.27313385732111,0.9175158426478114,59.54799729022379,0.9711414521939508,104.2448308467865,93.20792388916016,115.6782293319702
1733.84,21.089149475097656,-108.1778793334961,-8.134909629821777,0.3410256505012512,-0.0125904064625501,0.8933072090148926,-0.9193158745765686,-21.01319122314453,-126.15970611572266,-21.71868133544922,59.56944274902344,4.7021918296813965,-0.9386709332466124,0.2592331767082214,-0.0558095946907997,106.3752899169922,73.97998809814453,-6.261723518371582,110.51417355869256,0.9562712911682912,63.57932239638209,0.9754074388110098,107.29460579156876,94.99317932128906,119.89798259735107
1757.433,19.22455406188965,-107.23734283447266,-5.828936576843262,0.3796837329864502,0.0031934527214616,0.862537145614624,-0.48906409740448,-23.176347732543945,-126.26068115234376,-24.276491165161133,62.11396026611328,-1.027729868888855,-0.9416377544403076,0.260929137468338,-0.0718213617801666,109.9382781982422,73.61357879638672,-2.051560163497925,109.10273909803364,0.9424119390159664,66.69743857087656,0.9797571042739692,110.42734229564668,96.78992652893066,124.20912098884584
1778.8919999999998,18.58875846862793,-105.91883087158205,-2.971787452697754,0.4086447656154632,0.0172945223748683,0.8684335947036743,-0.081167459487915,-25.305233001708984,-126.32015991210938,-25.17344284057617,64.69798278808594,3.871836423873901,-0.9949557781219482,0.2386510223150253,-0.0577972903847694,113.28916931152344,73.09268951416016,1.977070927619934,107.57867909242889,0.9599304940353948,69.53072931149548,1.0248081955400627,113.37033677101137,98.39792251586914,128.2972308397293
1801.393,18.10223388671875,-104.94334411621094,-0.8648097515106201,0.4363029301166534,0.0063767144456505,0.8474146127700806,0.2946356236934662,-27.41356658935547,-126.3457489013672,-23.176353454589844,68.55436706542969,6.196160316467285,-0.9567875266075134,0.2512478530406952,-0.098983034491539,116.62459564208984,72.41461944580078,5.9342803955078125,106.49668653009464,0.9531591867320822,72.63082682897884,0.9941657285616092,116.32996001839638,99.82818603515624,132.280029296875
1823.884,14.82685661315918,-103.17730712890624,1.554884433746338,0.4810551404953003,0.0079964753240346,0.7798976302146912,0.5842557549476624,-29.509984970092773,-126.3292999267578,-24.50278663635254,66.75667572021484,2.9185099601745605,-0.9503322839736938,0.2733453214168548,-0.1167272701859474,119.63411712646484,71.73805236816406,9.665226936340332,104.2487891968158,0.9163614491176788,71.17132854280702,0.9957280604202154,119.04986137151718,101.24803733825684,135.99452686309814
1833.87,11.387436866760254,-99.12830352783205,2.629046440124512,0.5168398022651672,0.0352417007088661,0.7506526708602905,0.8144521713256836,-31.53375244140625,-126.30652618408205,-25.47551727294922,55.38052368164063,-1.6969273090362549,-0.9321999549865724,0.2559049129486084,-0.1261941790580749,121.96782684326172,71.21452331542969,12.691924095153809,99.8148594342785,0.9120552565190544,60.98265282741679,0.9748892508261354,121.15337467193604,102.74827575683594,138.99845027923584
1856.439,6.188497543334961,-93.93617248535156,2.80337905883789,0.519740641117096,0.0180536694824695,0.7535014152526855,0.9256629347801208,-33.4348030090332,-126.2770767211914,-24.713756561279297,45.03804397583008,-4.67345666885376,-0.9510945081710817,0.2582250237464905,-0.1588498055934906,123.80435943603516,70.81587219238281,15.210637092590332,94.18153182651636,0.9155439103606076,51.58523398972455,0.99824555451009,122.87869650125504,104.25067520141602,141.48771381378174
1878.723,9.47738552093506,-89.49082946777344,4.064951419830322,0.5352224111557007,0.011965487152338,0.7358155250549316,1.0802005529403689,-35.2432975769043,-126.21640014648438,-25.512052536010746,40.54301071166992,-9.268900871276855,-0.952137291431427,0.2555506825447082,-0.1921297162771225,125.51348876953124,70.5145263671875,17.623193740844727,90.08303516860497,0.9099619163448432,48.790501796233976,1.00438309472042,124.43328821659088,105.7578239440918,143.8395938873291
1898.953,9.44743537902832,-83.27307891845703,6.701040267944336,0.5499389171600342,0.0230715610086917,0.7003470659255981,1.2029426097869873,-36.93210983276367,-126.0963897705078,-22.76139259338379,40.0690803527832,-5.924430847167969,-0.932852029800415,0.249652624130249,-0.2050941437482834,127.0876007080078,70.14054870605469,19.825334548950195,84.07475036224075,0.8907587340493063,46.461931448991855,0.9872198083698054,125.88465809822084,107.07265853881836,145.921724319458
1927.959,7.879611968994141,-75.29408264160156,8.820579528808594,0.5752085447311401,0.0267157237976789,0.6396719813346863,1.260035753250122,-38.48430252075195,-125.9214324951172,-25.458086013793945,37.72846221923828,-11.047693252563477,-0.9126778841018676,0.2701514661312103,-0.2192264348268509,128.5968475341797,69.84269714355469,22.05080986022949,76.21738508271115,0.8606734825323673,46.83591070019839,0.9767409915163776,127.33681178092957,108.32699966430664,147.97224235534668
1945.065,8.37044906616211,-66.79281616210938,8.439729690551758,0.5821816325187683,0.0154534913599491,0.6562568545341492,1.314945936203003,-39.848182678222656,-125.74333953857422,-26.25958824157715,32.36052322387695,-8.276278495788574,-0.93355530500412,0.2675929069519043,-0.2295082211494445,129.72393798828125,69.5581283569336,23.87311553955078,67.84227108288854,0.8774094384952134,42.48842458458667,0.9979005436051672,128.40899205207825,109.40631103515624,149.616455078125
1953.713,6.161898136138916,-59.64672088623047,10.088513374328612,0.5803533792495728,0.0058060949668288,0.6534600257873535,1.2813690900802612,-41.05790328979492,-125.5092544555664,-19.76314926147461,41.45214080810547,-4.7225494384765625,-0.8932840824127197,0.2509292066097259,-0.2837137281894684,131.24948120117188,69.06886291503906,25.98744201660156,60.80689437246439,0.8739872772799218,46.16453746660073,0.9702656327959313,129.9681121110916,110.12676620483398,151.49669647216797
1984.789,11.945430755615234,-52.344017028808594,11.613554000854492,0.6211922764778137,-0.0091984774917364,0.6092230081558228,1.3146538734436035,-42.14984130859375,-125.21717834472656,-21.60108184814453,41.47253036499024,-6.886020183563232,-0.8939852118492126,0.2572446763515472,-0.2816698551177978,132.70631408691406,68.59688568115234,28.067502975463867,54.93144883561843,0.8701247784141561,47.265154033957366,0.9719682555507536,131.39166021347046,110.7467269897461,153.28468132019043
1993.832,15.152859687805176,-41.07428741455078,13.13881492614746,0.6246933341026306,0.016377193853259,0.595107913017273,1.396180510520935,-43.01554107666016,-124.88867950439452,-20.118635177612305,44.059669494628906,-2.047373056411743,-0.8968542814254761,0.2634534537792206,-0.2813867628574371,134.02059936523438,68.00433349609375,29.94537734985352,45.70924087091134,0.8629388172324514,48.478920097480646,0.976183299760242,132.62441885471344,111.0198745727539,154.83405685424805
2015.909,15.83740234375,-30.82833480834961,12.608296394348145,0.6335625052452087,0.0018375288927927,0.611400842666626,1.477611064910889,-43.66552734375,-124.5555419921875,-20.78946876525879,44.13698196411133,2.5591747760772705,-0.9049341082572936,0.2710034251213074,-0.2933190762996673,135.07826232910156,67.33053588867188,31.53564071655273,36.88060029366727,0.8804634092218014,48.85513856265756,0.9891332959900772,133.60065126419067,110.99606323242188,156.09118270874023
2034.283,18.29302406311035,-23.31877326965332,11.610316276550291,0.6612472534179688,-0.0198558159172534,0.6122547388076782,1.6000323295593262,-44.17141342163086,-124.22893524169922,-21.27445602416992,52.14634704589844,2.3369901180267334,-0.86493319272995,0.2713454067707062,-0.3157437741756439,136.3219451904297,66.52361297607422,33.345394134521484,31.83079264197738,0.9013867365182414,56.367592747671736,0.959912437981853,134.72191286087036,110.69502639770508,157.5743293762207
2056.079,18.272705078125,-16.029342651367188,12.099686622619627,0.685823917388916,0.0140193756669759,0.5805809497833252,1.7356467247009275,-44.55310821533203,-123.90238189697266,-21.09552001953125,55.93064880371094,1.5269527435302734,-0.8653053045272827,0.2685453593730926,-0.3239760398864746,137.6076202392578,65.66224670410156,35.20893859863281,27.15205320178706,0.8986797136956405,59.79623755036324,0.9622007870005094,135.87197351455688,110.2153549194336,159.11132049560547
2073.8120000000004,18.175365447998047,-6.692202091217041,11.77382469177246,0.7199699282646179,-0.0042089545167982,0.5420559644699097,1.851707935333252,-44.77791595458984,-123.56442260742188,-21.16578865051269,37.69392395019531,-2.656906843185425,-0.8766008615493774,0.2683029174804687,-0.3188644349575043,138.38986206054688,65.12873077392578,36.59218597412109,22.66610742652037,0.9012208838685928,43.31144959401203,0.970613235989707,136.53815412521362,109.90664672851562,160.15660858154297
2096.5660000000003,18.04386711120605,3.604152202606201,11.12002182006836,0.7099964022636414,0.0022723195143043,0.563088595867157,1.9748694896698,-44.78135681152344,-123.23782348632812,-18.1931266784668,17.59878921508789,-5.968191623687744,-0.9001023173332214,0.27182337641716,-0.3130164742469787,138.72219848632812,64.94625854492188,37.41452407836914,21.499440427723023,0.9061836576869702,26.006279077040045,0.9909850870651232,136.74732899665833,109.72761535644533,160.6523475646973
2117.989,16.042495727539062,13.83253574371338,9.84292984008789,0.6987370848655701,0.0047834403812885,0.5742217898368835,2.0776965618133545,-44.57097244262695,-122.93791961669922,-15.173845291137695,7.658559799194336,-6.457046985626221,-0.8808553218841553,0.2733016610145569,-0.3250411748886108,138.8538360595703,64.9096908569336,37.89298248291016,23.357739233626827,0.9044263701329092,18.182204896321068,0.977881210259162,136.77613949775696,109.48066329956056,160.83090209960938
2134.22,18.89986801147461,22.33360290527344,8.839681625366211,0.6981550455093384,-0.0210784822702407,0.5671230554580688,2.2286853790283203,-44.19684982299805,-122.64112091064452,-12.458821296691896,3.633919715881348,-7.067093849182129,-0.8646701574325562,0.2809664905071258,-0.3291382789611816,138.94073486328125,64.9331283569336,38.26310729980469,30.56361890907941,0.899718472644115,14.777395442956871,0.9669170888033064,136.71204948425293,109.12997817993164,160.90422821044922
2157.337,21.16754722595215,32.52967834472656,6.45743989944458,0.6831889152526855,-0.0150936972349882,0.5683059692382812,2.467867374420166,-43.61561584472656,-122.40135192871094,-8.055254936218262,-1.0917985439300537,-5.06466007232666,-0.8734797239303589,0.2815867364406585,-0.3250987231731415,138.91436767578125,65.00469207763672,38.41157150268555,39.34391387278629,0.8887893947905909,9.57757473456701,0.9736257484606514,136.44650030136108,108.62030792236328,160.81292343139648
2178.555,20.332338333129883,45.2125244140625,3.272168636322021,0.6649287343025208,-0.0228337571024894,0.5663700103759766,2.730736255645752,-42.779388427734375,-122.22527313232422,-3.162876844406128,-3.482091188430786,-1.2466092109680176,-0.8915273547172546,0.2774347960948944,-0.3364876806735992,138.81056213378906,65.0628662109375,38.36334228515625,49.68182196306401,0.873742863099809,4.866496018933756,0.9924792438829436,136.0798258781433,107.84225463867188,160.58861541748047
2200.984,17.808696746826172,57.06575012207031,-1.1266411542892456,0.6388773322105408,-0.042464330792427,0.5771952867507935,2.991543769836426,-41.69584274291992,-122.135498046875,2.341489791870117,-7.138930320739746,2.229879856109619,-0.9077724814414978,0.2809050679206848,-0.3341686725616455,138.59559631347656,65.13329315185547,38.071815490722656,59.79062499343458,0.8620451635787054,7.837044388192063,1.0072870678051968,135.60405254364014,106.8291358947754,160.20731353759766
2223.992,13.958325386047363,68.54088592529297,-5.856252193450928,0.6042903065681458,-0.0365161076188087,0.5600720643997192,3.2460315227508545,-40.3828010559082,-122.15097045898438,10.365463256835938,-9.911625862121582,7.107757568359375,-0.8729787468910217,0.2570952773094177,-0.3586333990097046,138.3533935546875,65.16913604736328,37.56352996826172,70.19247524314908,0.8247308155081967,16.00635415733587,0.9781655223036022,135.10736203193665,105.55193710327148,159.7145004272461
2233.5440000000003,12.958451271057127,83.5065689086914,-10.508265495300291,0.5879677534103394,-0.0212697554379701,0.5352831482887268,3.547009229660034,-38.78430938720703,-122.26256561279295,13.097818374633787,-12.95277976989746,12.238550186157228,-0.8875395655632019,0.256863385438919,-0.3412823677062988,137.89923095703125,65.19058990478516,36.763763427734375,85.1568679201279,0.7954159480351671,22.11581923875868,0.9849766158272374,134.35222172737122,103.9748992919922,159.02632904052734
2256.273,12.132737159729004,96.7353057861328,-16.08135414123535,0.5073737502098083,-0.0526207610964775,0.5979650616645813,3.857506275177002,-36.85910415649414,-122.45856475830078,19.34044075012207,-17.60114288330078,23.481670379638672,-0.9114389419555664,0.2710302472114563,-0.3258281946182251,137.05355834960938,65.13087463378906,35.39881134033203,98.81058975403153,0.7859766420650578,35.14600579049279,1.0051578742788403,133.19605207443237,101.9899787902832,157.8573760986328
2276.245,16.60316276550293,107.83499908447266,-20.94321250915528,0.4591023921966553,-0.0132474843412637,0.6710249781608582,4.326589107513428,-34.66469192504883,-122.75211334228516,30.62973022460937,-24.179622650146484,30.46302604675293,-0.8435664176940918,0.2914661765098572,-0.3168318271636963,136.009521484375,65.04119873046875,33.56821823120117,111.09757059256354,0.8131574408918876,49.50586309782886,0.9470687619251332,131.68293237686157,99.70589065551758,156.32033157348633
2298.397,12.228534698486328,119.32390594482422,-25.373783111572266,0.448126345872879,0.0284728836268186,0.6586758494377136,4.759620666503906,-32.25251007080078,-123.11964416503906,32.77364730834961,-28.78411102294922,25.266395568847656,-0.8231866359710693,0.3074542582035064,-0.34261155128479,135.0554962158203,65.05575561523438,31.78497314453125,122.60326447609154,0.7971711244142622,50.40860789899919,0.9431580109412232,130.2958755493164,97.30826568603516,154.9046173095703
2320.97,7.729001045227051,129.26495361328125,-31.019302368164062,0.4394139945507049,-0.0010904328664764,0.6554538011550903,5.102330684661865,-29.652488708496094,-123.55477142333984,34.849464416503906,-40.45104598999024,22.021936416625977,-0.947101354598999,0.2998556792736053,-0.2875517904758453,133.83248901367188,65.31939697265625,29.66832160949707,133.1591634443851,0.7891169324628005,57.75584797524312,1.0342148889286784,128.73015832901,94.97188568115234,153.2230930328369
2343.396,11.62747287750244,135.7252960205078,-34.88825607299805,0.3812503814697265,0.0044112023897469,0.6744403839111328,5.524796009063721,-26.897924423217773,-124.02286529541016,48.35407638549805,-46.37982940673828,26.02153968811035,-0.924114465713501,0.2614414095878601,-0.2504477202892303,132.54502868652344,65.60602569580078,27.18619537353516,140.61914705041633,0.7747523110824075,71.8771577528816,0.9925035098105746,127.02023267745972,92.50395011901855,151.2090606689453
2353.404,7.182285785675049,141.21548461914062,-36.19716262817383,0.2921936810016632,0.0423374250531196,0.8474476337432861,5.847480773925781,-23.95119857788086,-124.45560455322266,62.92179489135742,-58.795406341552734,28.62353515625,-0.8420695066452026,0.2830303907394409,-0.249541699886322,131.00558471679688,65.96334075927734,24.11518287658692,145.95764079915898,0.8974057592385537,90.74887792176514,0.9227449897376688,125.1581039428711,89.9145393371582,148.57078742980957
2382.136,-3.181252956390381,143.4017791748047,-38.434173583984375,0.2163944840431213,0.0596938952803611,0.9132885336875916,5.967356204986572,-20.984373092651367,-124.9263916015625,58.972843170166016,-60.80929183959961,18.85395240783692,-0.958430290222168,0.3162026405334472,-0.2619355916976928,129.52627563476562,66.4666519165039,21.20673370361328,148.49705835455407,0.9404710945176692,86.78155176651067,1.04268067273432,123.55891942977904,87.45102500915527,146.13312530517578
2401.106,-6.8984808921813965,145.74832153320312,-40.225040435791016,0.2366038113832473,0.1045015379786491,0.7404592633247375,6.026916027069092,-17.981008529663086,-125.4157485961914,50.46378326416016,-54.13114547729492,15.3375244140625,-0.8832260370254517,0.278834581375122,-0.2251435220241546,128.13626098632812,66.91983032226562,18.59041213989257,151.35460398159938,0.7843352954217956,75.57786704563817,0.9531665970646293,122.10934495925903,84.90083885192871,144.00616073608398
2423.513,-12.592740058898926,155.48619079589844,-39.695091247558594,0.1849220693111419,0.0838305130600929,0.8422015905380249,5.909128665924072,-14.767681121826172,-125.8984146118164,46.25856018066406,-65.06655883789062,15.875109672546388,-0.9328139424324036,0.2537075579166412,-0.1846031546592712,126.13214111328124,67.49571990966797,15.409953117370604,160.96655832675782,0.8663297557760625,81.39736221836785,0.9841685327475492,120.22301244735718,82.26340103149414,141.308367729187
2443.318,-26.816755294799805,157.23501586914062,-32.654293060302734,0.0217361003160476,0.0986543223261833,1.010799765586853,5.449428558349609,-11.563218116760254,-126.1908950805664,51.75838851928711,-55.16218948364258,9.592443466186523,-0.9478381872177124,0.2662465572357178,-0.2132223844528198,124.7319107055664,68.00362396240234,12.76899242401123,162.8136709099645,1.015835271823648,76.24836327682546,1.007347131638234,119.2824821472168,79.5668420791626,138.95988750457764
2453.279,-28.6182861328125,153.45823669433594,-25.9050350189209,-0.0115939863026142,0.1566160917282104,0.9294205904006958,4.928127288818359,-8.451995849609375,-126.4175033569336,54.32241821289063,-42.03535461425781,5.711889743804932,-0.8776962757110596,0.2356195598840713,-0.2306311726570129,124.02125549316406,68.3995590209961,10.8173246383667,158.2387675313666,0.9425951700318554,68.92402949979042,0.9375809656761258,119.0931282043457,76.85155487060547,137.2348279953003
2473.499,-28.01425170898437,159.05078125,-18.756567001342773,0.0401964709162712,0.1164634525775909,0.7799729108810425,4.420718669891357,-5.211658477783203,-126.50991821289062,36.74787902832031,-28.78481674194336,3.164098262786865,-0.8540894389152527,0.2541725933551788,-0.1745732128620147,123.46247863769533,68.68341064453125,9.423463821411133,162.58461833988338,0.7896437385103879,46.78657719649833,0.908046410448516,119.04175996780396,73.89506912231445,135.93338203430176
2496.761,-26.913822174072266,161.43124389648438,-11.209498405456545,-0.0874871015548706,0.0392653495073318,1.0159852504730225,3.872123718261719,-1.925912857055664,-126.54328918457033,19.33501434326172,-17.72078514099121,-9.36375617980957,-0.9971801042556764,0.324955940246582,-0.1281605809926986,123.24546813964844,69.0576171875,8.844803810119629,164.04283947946567,1.020500754428499,27.84867924089459,1.0565934213051336,119.37334442138672,70.98353004455566,135.38809299468994
2513.409,-16.153305053710938,159.20547485351562,-4.376609325408936,-0.2149967700242996,0.1418954581022262,1.0657598972320557,3.548524618148804,1.2557566165924072,-126.421142578125,17.1063232421875,-0.0324895232915878,-26.54776191711425,-0.9291777610778807,0.2628593444824219,-0.2324385941028595,124.44419860839844,69.5028076171875,9.824836730957031,160.08268862272053,1.0964497666099455,31.581814597060603,0.9932240667099976,120.89567399024963,68.24705100059509,136.24597930908203
2536.471,-12.011785507202148,155.15306091308594,-3.751052141189575,-0.2078850418329239,0.0856432169675827,1.0382331609725952,3.327459812164306,4.442747116088867,-126.35592651367188,24.20083236694336,5.392777919769287,-13.470871925354004,-0.9460542798042296,0.2777380347251892,-0.2849858999252319,125.69732666015624,69.64100646972656,10.70391082763672,155.6625378629576,1.0622989446354447,28.21748981348509,1.0263401382704975,122.36986684799194,65.1982593536377,137.0598373413086
2557.867,5.270415306091309,151.634033203125,-2.058443784713745,-0.2165083736181259,0.1056803315877914,0.919419288635254,3.478621006011963,7.544647216796875,-126.20579528808594,11.464119911193848,17.60065269470215,-9.38050651550293,-0.9010061025619508,0.3879432380199432,-0.1877014935016632,126.85700225830078,69.5361099243164,11.789814949035645,151.73956139965583,0.9504609600850672,23.00441094888435,0.9987711466807748,123.37838125228882,61.99146270751953,137.99561023712158
2573.285,11.314470291137695,147.58604431152344,-3.385437250137329,-0.2893645465373993,0.0886877924203872,1.044742226600647,3.7357656955718994,10.558907508850098,-126.1386947631836,-4.23420524597168,19.194456100463867,-11.09106731414795,-1.027593731880188,0.3549010157585144,-0.1477252840995788,127.80067443847656,69.48658752441406,12.975357055664062,148.0578228222562,1.087696504250921,22.56916952890845,1.097144643311983,124.06490874290466,58.927680015563965,139.11405181884766
2596.444,18.03481101989746,139.51988220214844,-3.73728084564209,-0.3896706700325012,0.1161595731973648,1.143877029418945,4.1397199630737305,13.415589332580566,-126.0286636352539,8.269659042358398,17.680208206176758,-15.643412590026855,-0.9618236422538756,0.263893574476242,-0.2544457018375397,129.28033447265625,69.50845336914062,14.462202072143556,140.73030663771038,1.2139979143150466,25.01386376297014,1.0293139232673176,125.14061450958252,56.09286403656006,140.49086570739746
2618.343,19.38479995727539,133.1212615966797,-1.6244184970855713,-0.4084532260894775,0.1530410945415496,1.0901801586151123,4.607802391052246,16.129344940185547,-125.89054107666016,14.91941738128662,30.79048538208008,-6.854252815246582,-0.911165416240692,0.2659224271774292,-0.3223503530025482,131.1783447265625,69.17781066894531,16.2412109375,134.53504931403148,1.1742011721844978,34.89446641971245,1.002420522091341,126.57054233551024,53.048465728759766,142.13175201416016
2640.732,23.149864196777344,128.31256103515625,-1.91103196144104,-0.4090089797973633,0.1495011895895004,0.9625166654586792,5.165624618530273,18.74380874633789,-125.72391510009766,-1.3729966878890991,36.38615036010742,-1.1043269634246826,-0.9170856475830078,0.3572370409965515,-0.2483091950416565,132.5098114013672,68.66560363769531,17.755537033081055,130.39816553497823,1.0564455890055344,36.42878801134409,1.0150477056793696,127.34418678283691,49.92179489135742,143.4794521331787
2662.797,29.616361618041992,125.19788360595705,-0.712970495223999,-0.4052018821239471,0.0977100655436515,1.0094091892242432,5.841098785400391,21.255977630615234,-125.50343322753906,-14.536259651184082,35.85804748535156,-3.434632062911988,-1.0266680717468262,0.3287632465362549,-0.2212751358747482,133.5736541748047,68.23245239257812,19.30914306640625,128.6551486021001,1.0920818346056662,38.844550602574266,1.1004977453742433,127.7325553894043,46.97647476196289,144.8125762939453
2673.144,26.52742958068848,119.65188598632812,0.9132307171821594,-0.4974233508110046,0.1663031727075576,1.1354845762252808,6.506692409515381,23.643386840820312,-125.271728515625,-10.360125541687012,34.35594177246094,-12.16205883026123,-0.9864692091941832,0.2774139940738678,-0.2795005142688751,135.02005004882812,67.92774200439453,21.17122268676757,122.56064756106038,1.2507645493977486,37.889030223838894,1.0621678597438255,128.51335763931274,44.28435516357422,146.44295120239258
2696.234,19.62261199951172,110.87290954589844,-2.933703184127808,-0.5471028089523315,0.1757877469062805,1.0929429531097412,7.01577091217041,25.86866569519043,-125.0417022705078,4.164502143859863,36.49176406860352,-5.393353462219238,-0.8676068186759949,0.2685354948043823,-0.3431286215782165,136.6022491455078,67.43617248535156,22.78227424621582,112.6341670508062,1.2348065088418347,37.122502401013705,0.9708708228848376,129.5864782333374,41.56750679016113,147.82397651672363
2725.394,16.966995239257812,105.85077667236328,-4.266376972198486,-0.5111478567123413,0.1711597442626953,0.8748950958251953,7.485271453857422,28.00979232788086,-124.87989044189452,-2.2495131492614746,33.9536247253418,1.837632179260254,-0.9453020691871644,0.3266386091709137,-0.2607656717300415,137.5027313232422,66.90478515625,23.823999404907227,107.28684831823716,1.0276230914964246,34.0776441882988,1.033579952671037,130.01745986938477,38.89499282836914,148.70388984680176
2740.273,16.32910919189453,102.00106811523438,-5.411381721496582,-0.5275483131408691,0.0864054262638092,0.9232168793678284,7.881772994995117,30.05313873291016,-124.7247085571289,-12.513089179992676,26.487735748291016,-2.646646738052368,-1.025079607963562,0.2736287117004394,-0.2472426295280456,138.1220245361328,66.58301544189453,24.780017852783203,103.4414846944167,1.0668188818798054,29.4139811119438,1.0893988215458628,130.2402515411377,36.529876708984375,149.5047264099121
2760.452,11.064682006835938,94.29071044921876,2.015625,-0.6344461441040039,0.1846285462379455,1.0391768217086792,8.306330680847168,31.915023803710938,-124.3867645263672,6.405030250549316,24.516860961914062,-3.0700912475585938,-0.945989191532135,0.1601163893938064,-0.320521742105484,139.22955322265625,66.28919982910156,25.8270206451416,94.95908597428388,1.2314617641774055,25.52501408823536,1.0115666047327116,130.92322254180908,34.374176025390625,150.2137851715088
2782.952,-6.39456844329834,87.30738830566406,1.646137237548828,-0.6391760110855103,0.1941998451948166,0.95614492893219,8.393712043762207,33.64324188232422,-124.08740234375,16.251140594482422,28.20260238647461,-0.612008273601532,-0.8364992141723633,0.1732534021139145,-0.3646287620067596,140.5498504638672,65.85376739501953,26.889057159423828,87.55672633291447,1.166393020445346,32.55550500480948,0.9288174259442,132.15613842010498,32.21052551269531,150.97645950317383
2793.026,-13.07515811920166,81.0811767578125,5.427644729614258,-0.5861107707023621,0.1441298276185989,0.8314006924629211,8.382804870605469,35.23575973510742,-123.6591339111328,1.5678671598434448,30.831945419311523,-3.639681816101074,-0.9042004942893982,0.3475158512592315,-0.3042619228363037,141.4547119140625,65.39591979980469,27.86922073364257,82.30781440169984,1.0273881224593306,31.085597139073545,1.0153428575794805,133.07190704345703,30.160160064697266,151.5283546447754
2820.498,-14.918813705444336,74.77654266357422,5.895637035369873,-0.6286414861679077,0.0878335013985633,0.919744610786438,8.297029495239258,36.68188095092773,-123.29255676269533,-13.028207778930664,25.302600860595703,-9.121366500854492,-0.9577662348747252,0.3042018115520477,-0.3062853813171386,142.11952209472656,65.11723327636719,28.90183448791504,76.47784562308168,1.1175128595099133,29.88570118107518,1.0505549189005972,133.8224925994873,28.435352325439453,152.19439125061035
2841.545,-11.480460166931152,67.82891845703125,7.896980285644531,-0.667157769203186,0.1462231129407882,0.9573379755020142,8.339899063110352,37.97419738769531,-122.91845703125,-12.117464065551758,21.05837821960449,-15.59642219543457,-0.9149850010871888,0.2478640675544738,-0.363002747297287,142.9909210205078,64.96582794189453,30.12529945373535,69.24540015284009,1.176000292136257,28.87103416779688,1.015088736389361,134.65102195739746,26.99163055419922,153.04375648498535
2863.069,-11.264277458190918,60.51683807373047,6.959342002868652,-0.6537774801254272,0.134304329752922,0.8896329402923584,8.366817474365234,39.12656784057617,-122.5359344482422,-13.111634254455566,19.3052921295166,-13.132933616638184,-0.902029037475586,0.2638514637947082,-0.3657733798027038,143.67822265625,64.79837036132812,31.1733512878418,61.948398512069005,1.112164293152213,26.778409258348663,1.0084959815329138,135.31140518188477,25.67180252075196,153.70928573608398
2883.886,-8.06113052368164,52.91936111450195,7.403328895568848,-0.6396516561508179,0.1228658780455589,0.8396270871162415,8.45419692993164,40.12615203857422,-122.21036529541016,-18.12347412109375,16.081012725830078,-11.17756462097168,-0.9064441323280334,0.2940337657928467,-0.3223112225532532,144.03614807128906,64.66747283935547,31.9836368560791,54.03933645801786,1.062649476837821,26.68327632361254,1.005972834942384,135.58195114135742,24.54132080078125,154.19400215148926
2893.264,-5.442648887634277,44.77930450439453,8.026960372924805,-0.6742143630981445,0.1100566834211349,0.8705859780311584,8.581002235412598,40.95844268798828,-121.8729019165039,-17.74852180480957,12.694387435913086,-13.161409378051758,-0.8897071480751038,0.2139951884746551,-0.3510830104351043,144.4877471923828,64.6216812133789,32.86833572387695,45.817470812342535,1.1066153017729174,25.48293930153148,0.9801183756273592,135.9067449569702,23.663238525390625,154.74123764038086
2915.443,-2.4270782470703125,35.23270034790039,9.73473072052002,-0.694007396697998,0.1135447472333908,0.93113112449646,8.776369094848633,41.578372955322266,-121.47233581542967,-11.77653694152832,12.530314445495604,-13.256648063659668,-0.9075762033462524,0.2128753215074539,-0.3739111423492431,145.0680694580078,64.5715103149414,33.761043548583984,36.63330267425227,1.166852110295846,21.71253832056281,1.0044003234568455,136.29170036315918,22.99313735961914,155.23337936401367
2932.997,-1.8016138076782229,24.777746200561523,10.067338943481444,-0.7050079703330994,0.1348278820514679,0.9322247505187988,8.979517936706543,41.98744583129883,-121.11396026611328,-13.35079574584961,11.27744483947754,-12.802146911621094,-0.9092565774917604,0.2679371237754822,-0.3823550045490265,145.50909423828125,64.51480102539062,34.546730041503906,26.805481388969607,1.1765448489078167,21.66378255756792,1.022121898558481,136.5295763015747,22.5273551940918,155.6606903076172
2955.864,-4.286381244659424,14.127433776855469,8.558257102966309,-0.7024303078651428,0.1202291995286941,0.9220771193504332,9.069360733032228,42.18966674804688,-120.81060028076172,-19.80899429321289,7.425795555114746,-12.69960594177246,-0.9121897220611572,0.2865073680877685,-0.3551991581916809,145.68153381347656,64.52582550048828,35.186885833740234,17.06461877495299,1.165371018970535,24.674251470129853,1.0199720599029516,136.61217308044434,22.336158752441406,155.99748611450195
2979.012,-7.746488571166992,3.9843170642852783,7.251604080200195,-0.709925651550293,0.1096351146697998,0.9524281620979308,9.028719902038574,42.18925094604492,-120.58302307128906,-20.569320678710938,1.659142255783081,-11.543490409851074,-0.9355434775352478,0.2387155890464782,-0.3535711169242859,145.71243286132812,64.63774871826172,35.67668914794922,11.33440026591402,1.1929516725563574,23.64533520698944,1.028221408810203,136.68371295928955,22.4484977722168,156.25971221923828
3000.436,-10.215654373168944,-6.284876823425293,5.968729972839356,-0.7086511850357056,0.1104938313364982,0.9818044304847716,8.885510444641113,41.98248291015625,-120.42106628417967,-14.690446853637695,1.434950590133667,-9.916407585144045,-0.96425199508667,0.2182050198316574,-0.3703396916389465,145.83473205566406,64.73942565917969,36.130252838134766,13.397201515478711,1.2158681378074907,17.78211043015932,1.0557209990862109,136.94922161102295,22.75694274902344,156.55131912231445
3013.13,-12.407480239868164,-17.2900390625,6.466109275817871,-0.680041491985321,0.1248625144362449,0.976745903491974,8.687783241271973,41.549766540527344,-120.26185607910156,-5.393204689025879,-1.4486980438232422,-7.469944477081299,-0.9486089944839478,0.2045750916004181,-0.3547065556049347,145.9936065673828,64.86680603027344,36.41762161254883,22.24188809099427,1.1966952988632131,9.326599237159568,1.0332118529654422,137.30582332611084,23.317039489746094,156.6794776916504
3035.376,-15.573247909545898,-29.43358421325684,6.768529415130615,-0.6712938547134399,0.1206360012292862,0.9812059998512268,8.400032997131348,40.877227783203125,-120.21118927001952,-1.6084113121032717,-5.628615856170654,-7.605390548706055,-0.9300786852836608,0.2092853933572769,-0.3380416333675384,146.1173858642578,65.0649185180664,36.58588409423828,33.98050794991956,1.1949701662856136,9.597409484000613,1.0114933922579457,137.71735286712646,24.18769073486328,156.7970733642578
3058.912,-18.764869689941406,-41.516876220703125,6.510367393493652,-0.6698206663131714,0.1066823303699493,0.992563009262085,8.010986328125,39.97126388549805,-120.21204376220705,1.4418838024139404,-9.779956817626951,-6.168248176574707,-0.9205384850502014,0.2297870814800262,-0.3348584175109863,146.12660217285156,65.30696105957031,36.56530380249024,46.02343130628063,1.2021739358299155,11.652204504819196,1.0061428154350605,138.11561584472656,25.335697174072266,156.7773475646973
3081.067,-21.38686752319336,-53.94912338256836,5.749147415161133,-0.6804828643798828,0.1082433834671974,1.0172185897827148,7.538626194000244,38.828834533691406,-120.2648696899414,4.876463413238525,-13.30923080444336,-3.443701267242432,-0.9283819794654846,0.2284722477197647,-0.3361352682113647,146.02182006835938,65.5762939453125,36.3431282043457,58.31773925833769,1.2286200463034176,14.586795345263644,1.0134493506386488,138.48319387435913,26.747459411621094,156.6079978942871
3102.865,-25.18621253967285,-65.76899719238281,4.471782207489014,-0.6680161356925964,0.1129811331629753,1.00626540184021,6.96514368057251,37.46500396728516,-120.36846923828124,7.008051872253418,-18.64935874938965,-1.614987015724182,-0.9283245205879213,0.2246569246053695,-0.3361467719078064,145.7612762451172,65.9115219116211,35.90241241455078,70.56842870502678,1.213087116796275,19.98798528788204,1.0125471848570688,138.79613256454468,28.446517944335938,156.27088165283203
3113.066,-28.227405548095703,-77.67692565917969,3.90153169631958,-0.6556867361068726,0.0957568287849426,1.0202699899673462,6.31123685836792,35.87196731567383,-120.5032730102539,11.083490371704102,-23.34025382995605,-1.86444628238678,-0.938106119632721,0.2324197143316269,-0.3297204077243805,145.45010375976562,66.32512664794922,35.32035446166992,82.73882494582442,1.2165711317442154,25.905354033603587,1.0211648067634762,139.1388669013977,30.45315933227539,155.82362747192383
3135.32,-28.342193603515625,-89.55192565917969,3.432211399078369,-0.6451297998428345,0.0886745080351829,1.043769598007202,5.650017738342285,34.049739837646484,-120.65377044677734,13.574108123779297,-26.668737411499023,-0.7073017358779907,-0.9634597301483154,0.2095400393009185,-0.3188958764076233,145.06166076660156,66.7912826538086,34.597896575927734,93.99259227521269,1.230248186645546,29.932895653864072,1.036270360319874,139.41164302825928,32.74154281616211,155.25166702270508
3157.959,-26.39330291748047,-100.7724609375,2.9848783016204834,-0.6238487362861633,0.0942666977643966,1.0322747230529783,5.0377373695373535,32.01702880859375,-120.806640625,17.11195182800293,-32.77433013916016,1.4364763498306274,-0.9779812097549438,0.2082731425762176,-0.3120830357074737,144.47010803222656,67.3312759399414,33.580406188964844,104.21422561612847,1.2098200527050915,37.000528046747895,1.0474830641727384,139.4323706626892,35.314247131347656,154.38704681396484
3177.917,-27.88722038269043,-109.500732421875,0.8277519345283508,-0.6036928296089172,0.0949857383966445,1.0323328971862793,4.387601852416992,29.825464248657227,-120.99401092529295,18.02170181274414,-34.1733512878418,5.546866893768311,-0.9768258333206176,0.2242031395435333,-0.2921838164329529,143.6272430419922,67.83853912353516,32.27947235107422,112.99908245142936,1.1996576735189894,39.03033956817295,1.0439478622081764,139.2396411895752,38.01307487487793,153.2734832763672
3200.382,-27.37209701538086,-119.6764678955078,-0.9305049180984496,-0.5889508128166199,0.0736206173896789,1.048710584640503,3.7373030185699454,27.44485664367676,-121.20746612548828,21.20218276977539,-39.69129943847656,8.41919994354248,-0.97609680891037,0.2363026440143585,-0.2908745110034942,142.5106201171875,68.38247680664062,30.62005424499512,122.7703323379331,1.205021553981181,45.78006916778431,1.0455677410310178,138.77331709861755,40.93762016296387,151.8275203704834
3222.8720000000003,-23.00761604309082,-129.06155395507812,-2.088530302047729,-0.5475366115570068,0.0763988867402076,1.047999620437622,3.187276601791382,24.88390350341797,-121.4236297607422,20.858131408691406,-40.70664978027344,11.92631721496582,-0.9676885604858398,0.2488320916891098,-0.2696102857589721,141.1206817626953,68.8831558227539,28.68340110778809,131.11291722827465,1.1848781943001023,47.26870026252112,1.0349049551222418,137.93340516090393,43.99925231933594,150.10703086853027
3232.697,-19.80631256103516,-137.2324676513672,-3.7264347076416016,-0.5076361298561096,0.0720842778682708,1.0508430004119873,2.707064151763916,22.168197631835938,-121.65412902832033,18.74096298217773,-42.83821105957031,15.820123672485352,-0.983693540096283,0.2586269676685333,-0.246752917766571,139.3619384765625,69.35111999511719,26.405384063720703,138.70445742866116,1.1692568558558667,49.36205357657215,1.0466269113962694,136.65487432479858,47.18292236328125,148.05951309204102
3255.238,-18.654766082763672,-144.35888671875,-4.951301574707031,-0.4693977832794189,0.0605244562029838,1.0535919666290283,2.256864309310913,19.31975173950196,-121.89045715332033,19.665271759033203,-47.05228042602539,17.7801570892334,-0.9652848839759828,0.2494799196720123,-0.237086996436119,137.31777954101562,69.82775115966797,23.807018280029297,145.64341337514452,1.1550123466402955,54.00716612417076,1.0248050455726594,135.0609152317047,50.507999420166016,145.6974754333496
3283.212,-17.023395538330078,-150.2645263671875,-5.72042989730835,-0.4103012084960937,0.0355844162404537,1.043118953704834,1.8442009687423704,16.35605239868164,-122.12295532226562,15.95563507080078,-47.915157318115234,20.78229141235352,-0.9613271355628968,0.2723211348056793,-0.2242969870567321,134.92205810546875,70.23101043701172,20.922821044921875,151.33389309146727,1.121476920828421,54.61088012182447,1.0240204101648291,133.07785713672638,53.87495803833008,143.0457763671875
3302.778,-10.174185752868652,-156.25177001953125,-6.843551635742188,-0.3767126798629761,0.023353923112154,1.0477356910705566,1.5761404037475586,13.285452842712402,-122.3607940673828,10.435100555419922,-46.08112716674805,22.459062576293945,-0.9854187965393066,0.2809507846832275,-0.1911617368459701,132.30210876464844,70.55059814453125,17.9266414642334,156.73214057417013,1.1136462307381865,52.31415770482803,1.042365750406768,130.72596836090088,57.26514530181885,140.2874355316162
3312.85,-5.911920547485352,-160.44277954101562,-7.991219520568848,-0.3248812556266784,0.036118745803833,1.0243818759918213,1.4125763177871704,10.139932632446287,-122.60771942138672,8.377225875854492,-46.83975982666016,22.345531463623047,-0.9751467704772948,0.2649848759174347,-0.198776975274086,129.57969665527344,70.83341217041016,14.864497184753418,160.7504149320699,1.075272347787542,52.56865787126451,1.0298740186723767,128.16712033748627,60.69347953796387,137.47221660614014
3332.6,-5.666473388671875,-163.0475616455078,-8.73636245727539,-0.270202100276947,0.0144938006997108,1.0315921306610107,1.256441593170166,6.944653511047363,-122.86146545410156,3.4479942321777344,-44.47613143920898,23.33690071105957,-0.9854315519332886,0.282283067703247,-0.1617849320173263,126.71676635742188,71.02611541748047,11.767043113708496,163.3797426494334,1.0664903043602976,50.34506794931136,1.0377540354464811,125.46032476425172,64.0814619064331,134.62850856781006
3355.088,-0.5754775404930115,-166.6173095703125,-8.497364044189453,-0.2277156710624694,0.0219558998942375,1.034746766090393,1.222337007522583,3.687034130096436,-123.10382843017578,-2.257359981536865,-43.08704376220703,24.18808364868164,-0.967932939529419,0.2678799629211426,-0.1695944964885711,123.78103637695312,71.13648986816406,8.71015453338623,166.8348411410172,1.0597345697494835,49.463647306362354,1.0185362748571631,122.55869936943054,67.44945573806763,131.813982963562
3372.625,0.6329857110977173,-170.27578735351562,-7.610126495361328,-0.1633407026529312,0.0224434398114681,1.0338095426559448,1.22711181640625,0.354320079088211,-123.3284683227539,-13.102712631225586,-38.7818603515625,20.546161651611328,-0.9652153253555298,0.2868288159370422,-0.134712666273117,120.8876495361328,71.21235656738281,5.97018575668335,170.44693735894913,1.0468744259080065,45.80238562824777,1.015902995569675,119.66053771972656,70.8580364882946,129.29865407943726
3395.232,-0.2092429995536804,-173.20233154296875,-6.619667530059815,-0.1140443161129951,0.0076796412467956,1.0272576808929443,1.2196491956710815,-3.029952049255371,-123.53438568115234,-26.340246200561523,-33.725738525390625,13.75542163848877,-0.9645192623138428,0.2970982789993286,-0.1252639293670654,118.1699676513672,71.30968475341797,3.660488128662109,173.3289111278377,1.0335973228878403,44.9493674420655,1.0169837003410032,116.9503184556961,74.33963680267334,127.19487380981444
3417.0150000000003,0.6244702935218811,-176.39756774902344,-5.814343929290772,-0.0682968199253082,-0.0194069109857082,1.035898208618164,1.224927544593811,-6.470339298248291,-123.72444152832033,-41.769630432128906,-26.35294532775879,1.0366580486297607,-0.946500301361084,0.2968005537986755,-0.1491054743528366,115.9089584350586,71.52448272705078,2.1627063751220703,176.49447148918543,1.038328552253206,49.39893130214723,1.0030881475193532,114.68403089046478,77.99482202529907,125.88714790344238
3433.019,5.200514793395996,-180.738021850586,-5.266819000244141,-0.0218930412083864,-0.0122990934178233,0.9982397556304932,1.347544550895691,-10.023768424987791,-123.91150665283205,-50.73417282104492,-21.929014205932617,-7.868425369262695,-0.9980732798576356,0.2655670046806335,-0.1281333565711975,113.90103912353516,71.87214660644531,1.18208909034729,180.88951677463385,0.9985555481161172,55.82786108809207,1.040718147726378,112.55349457263948,81.8959150314331,125.09359574317932
3454.9,0.5565128326416016,-183.0024261474609,-6.89574146270752,0.0314928777515888,0.0030577930156141,0.9943877458572388,1.401774525642395,-13.630504608154297,-124.14239501953124,-49.51022720336914,-20.38496398925781,-14.64857292175293,-0.9783543944358826,0.2790518999099731,-0.1126324757933616,112.09519958496094,72.31114959716797,0.3940908908843994,183.1331453689099,0.9948910194379298,55.51026970945543,1.023588471290445,110.69342505931854,85.94165420532227,124.53648591041564
3477.685,-6.51860237121582,-184.27102661132807,-9.692215919494627,0.0921234115958213,-0.0085617816075682,0.9416807889938354,1.3398261070251465,-17.26482582092285,-124.43291473388672,-47.62052536010742,-18.92534065246582,-16.386367797851562,-0.975456714630127,0.2807696163654327,-0.1028825789690017,110.38956451416016,72.75983428955078,-0.3382059931755066,184.64084725405948,0.9462149520211576,53.79959111360398,1.02026085127594,109.049738407135,90.02466011047363,124.0947087407112
3501.253,-5.071598052978516,-185.9517974853516,-12.008596420288086,0.1701881736516952,-0.0029238529969006,0.8959562182426453,1.335651159286499,-20.8951416015625,-124.77316284179688,-47.65738677978516,-16.609346389770508,-16.639862060546875,-0.9594987630844116,0.2709512710571289,-0.0740319639444351,108.73828887939452,73.19414520263672,-1.0122172832489014,186.40815025859123,0.9119814188759054,53.1411508302883,0.9997665724225128,107.40263772010805,94.08928680419922,123.76094555854796
3523.142,-7.292336940765381,-186.302978515625,-12.818145751953123,0.2366501092910766,0.0192889869213104,0.9044790863990784,1.3325376510620115,-24.53460121154785,-125.14531707763672,-42.90227508544922,-16.150854110717773,-15.298311233520508,-0.9584370255470276,0.2582041025161743,-0.0662879347801208,107.13401794433594,73.5973892211914,-1.7449172735214231,186.8857480985893,0.9351244606881164,48.32694509909462,0.994819069375447,105.80148029327393,98.13199043273926,123.4003998041153
3533.158,-10.447833061218262,-185.6602020263672,-14.229811668395996,0.2806661427021026,0.0060599828138947,0.8218510746955872,1.2973384857177734,-28.166656494140625,-125.55309295654295,-40.546485900878906,-15.849708557128906,-15.36716079711914,-0.9835530519485474,0.2710374891757965,-0.0632057934999466,105.5442352294922,73.98783874511719,-2.5381617546081543,186.49760151879852,0.8684753283941192,46.166875692650166,1.0221706799101506,104.2468967437744,102.1544952392578,123.0149312019348
3555.94,-7.811895847320557,-184.15939331054688,-15.198759078979492,0.3619344234466553,0.0038437815383076,0.7895113229751587,1.354646921157837,-31.7895736694336,-125.99683380126952,-40.92338180541992,-14.333782196044922,-19.699451446533203,-0.9952759742736816,0.2689228653907776,-0.0477751642465591,104.0572738647461,74.4493179321289,-3.2148196697235107,184.95056133675004,0.8685271617158339,47.62613649804221,1.0320737564802227,102.70262694358826,106.2388916015625,122.78201413154602
3575.705,-5.790097236633301,-182.04443359375,-16.808956146240234,0.402011513710022,0.0098485928028821,0.7385637760162354,1.5159807205200195,-35.37210464477539,-126.50602722167967,-40.601104736328125,-9.556699752807615,-22.50638008117676,-0.9689661264419556,0.2740943729877472,-0.0668682903051376,102.9534683227539,74.9247817993164,-3.515644073486328,182.91047546601905,0.8409439358120017,47.39533057521584,1.0092048591558636,101.43748760223389,110.2968864440918,122.99038314819336
3598.172,-5.189868927001953,-177.8702850341797,-18.422101974487305,0.4645767509937286,0.0112114399671554,0.6981832385063171,1.760883092880249,-38.8838996887207,-127.0910186767578,-38.30970764160156,-8.528111457824707,-20.83136558532715,-0.9748334884643556,0.2506789267063141,-0.0599210858345031,101.90772247314452,75.37124633789062,-3.808778762817383,178.89702870304524,0.8386996413980364,44.43318778538873,1.008330695284935,100.14683938026428,114.25514602661131,123.28223991394044
3617.569,-2.5760293006896973,-175.0603790283203,-20.197229385375977,0.4884848594665527,-0.0026355043519288,0.6691340208053589,2.1349613666534424,-42.32728958129883,-127.76457214355467,-34.35477828979492,-3.515922784805298,-27.284059524536133,-0.9736533164978028,0.258493959903717,-0.0679841786623001,101.41613006591795,75.91328430175781,-3.606293916702272,176.24046160669994,0.8284713281764151,44.011730351215554,1.0096740843372491,99.28116869926453,118.24057388305664,124.15827822685242
3639.909,5.893240928649902,-171.4373016357422,-20.954206466674805,0.5464901924133301,0.0078564742580056,0.6153322458267212,2.782254695892334,-45.712196350097656,-128.53895568847656,-29.901973724365234,-2.857260465621948,-31.67650604248047,-0.9698898792266846,0.2429638803005218,-0.0662406608462333,101.13671112060548,76.54192352294922,-3.26746153831482,172.8136494882149,0.8230109521421217,43.654243837688185,1.002050722322171,98.35445642471312,122.25411987304688,125.27149415016174
3662.476,6.739284992218018,-165.82936096191406,-21.59537696838379,0.585839033126831,0.0256485063582658,0.5696715712547302,3.578667402267456,-48.98592758178711,-129.44163513183594,-25.312705993652344,6.3652448654174805,-34.8375358581543,-0.9426538944244384,0.2285116314888,-0.0719879269599914,101.8214874267578,77.19378662109375,-2.040369749069214,167.36533459964082,0.8175517828915936,43.53048738052439,0.9726233556866865,98.24282002449036,126.17971420288086,127.40126538276672
3673.024,12.906625747680664,-161.15673828125,-23.56639289855957,0.6165066957473755,0.0156314764171838,0.5279694199562073,4.665091037750244,-52.15770721435547,-130.52658081054688,-19.27579689025879,11.426902770996094,-30.176660537719727,-0.9383550882339478,0.1978693455457687,-0.106976106762886,103.1909408569336,77.73314666748047,-0.2961752116680145,163.38130295689064,0.8118353018717663,37.58671698753537,0.9649385664068956,98.52584981918336,129.89085388183594,130.23040559887886
3695.872,21.30481338500977,-153.64678955078125,-21.741735458374023,0.6563634872436523,0.045571144670248,0.4719157218933105,6.072458744049072,-55.18381881713867,-131.7436065673828,-14.231739044189451,10.81937313079834,-25.3755111694336,-0.9701164364814758,0.1874102652072906,-0.1001474931836128,104.59888458251952,78.17810821533203,1.3682050704956057,156.63311933743154,0.8096877207808509,31.040583085299744,0.9931153146677107,98.52642583847046,133.3619270324707,133.11181163787842
3722.432,26.829498291015625,-145.5753173828125,-19.86077880859375,0.6908145546913147,0.0500602461397647,0.4102477431297302,7.738391399383545,-58.05423355102539,-133.09559631347656,-11.23947811126709,22.858362197875977,-25.227977752685547,-0.9611221551895142,0.1769708842039108,-0.1178191676735878,107.35128784179688,78.53632354736328,4.377039432525635,149.3534249508129,0.8050055825644754,35.850822195215194,0.9843555492419126,99.61289644241332,136.59055709838867,137.4726357460022
3742.349,35.169654846191406,-135.6723175048828,-16.488706588745117,0.716237485408783,0.0748783200979232,0.3421409428119659,9.719354629516602,-60.735084533691406,-134.5702362060547,-12.074207305908203,23.83473014831543,-23.31505584716797,-0.9103302359580994,0.1690829247236251,-0.1336270272731781,110.3171157836914,78.81321716308594,7.648800373077393,141.1232078862853,0.797284969802921,35.46086113542119,0.9354925741824414,100.5977611541748,139.54830169677734,142.21903657913208
3752.784,39.92657852172852,-124.00656127929688,-12.785730361938477,0.7662156224250793,0.0884169340133667,0.2839970886707306,11.9122896194458,-63.19539260864258,-136.1372833251953,-14.47659397125244,10.016695976257324,-15.026820182800291,-0.9177966713905334,0.14460089802742,-0.1306879520416259,111.74445343017578,79.02299499511719,9.387622833251951,130.9016188351235,0.8219235248136085,23.145437911076264,0.9382640835791988,99.83216381072998,142.21838760375977,145.5249061584473
3772.612,43.28169631958008,-110.70570373535156,-6.887783527374268,0.8054554462432861,0.1075218468904495,0.2408695369958877,14.17169189453125,-65.403076171875,-137.6675262451172,-14.43038558959961,3.88606595993042,-14.684494972229004,-0.9169370532035828,0.1425984501838684,-0.1349121481180191,112.63043212890624,79.2638931274414,10.603812217712402,119.06510671796232,0.8475479675477476,20.95165696308702,0.9377148635072016,98.458740234375,144.6669692993164,148.2713384628296
3795.975,44.39223861694336,-96.67271423339844,-0.0595138370990753,0.812083899974823,0.1002092957496643,0.2179832011461258,16.288063049316406,-67.34529876708984,-138.9967041015625,-14.169238090515137,-7.760359764099121,-11.073234558105469,-0.918484091758728,0.1420936733484268,-0.1424814313650131,112.28961181640624,79.52216339111328,10.55899429321289,106.37804316950354,0.8467814591350441,19.58588816757552,0.9402683644063156,96.00154876708984,146.86746215820312,149.5556983947754
3812.578,45.49594879150391,-80.59302520751953,4.778789520263672,0.8347256779670715,0.1021997854113578,0.1658748537302017,18.19348526000977,-68.95804595947266,-140.06414794921875,-14.472689628601074,-9.91078758239746,-12.085651397705078,-0.8992400169372559,0.150483950972557,-0.1496417224407196,111.77594757080078,79.80402374267578,10.333122253417969,92.67121396538413,0.8571617237696342,21.30130102355421,0.9239430029263994,93.58246231079102,148.76206970214844,150.39727020263672
3835.656,44.5571517944336,-62.23604202270508,8.973938941955566,0.8503598570823669,0.1015527322888374,0.1536735743284225,19.80437469482422,-70.28126525878906,-140.8208465576172,-15.703940391540527,-12.75320053100586,-12.79061508178711,-0.9191146492958068,0.153679221868515,-0.1491024792194366,110.9391632080078,80.11760711669922,9.797643661499023,77.06618118745767,0.8700806924759019,23.934445925810483,0.9437269685103044,91.1347885131836,150.39887237548828,150.6184902191162
3858.383,35.5985221862793,-41.34095001220703,11.945322036743164,0.8515408039093018,0.0975831225514411,0.1126984506845474,20.701950073242188,-71.15278625488281,-141.016845703125,-14.829659461975098,-8.651796340942383,-13.00412368774414,-0.906618595123291,0.156979039311409,-0.146338552236557,110.53397369384766,80.39955139160156,9.684096336364746,55.84818393036896,0.8644912650316872,21.537864624178503,0.9316730476283804,89.83202362060547,151.55233764648438,150.70094203948975
3872.538,29.918476104736328,-20.1478271484375,12.476640701293944,0.8470331430435181,0.0781734064221382,0.1107446253299713,21.0499324798584,-71.64260864257812,-140.7516326904297,-11.034906387329102,-2.6020092964172363,-12.061814308166504,-0.8821799159049988,0.1531345546245575,-0.1542592346668243,110.87387084960938,80.61531066894531,10.25204849243164,38.166958411984815,0.8578115171325793,16.553760169835993,0.90856343054638,89.82393836975098,152.25791931152344,151.00368118286133
3895.121,23.76840209960937,0.920685887336731,11.935752868652344,0.8507449626922607,0.0907759144902229,0.1172606796026229,20.9116153717041,-71.78699493408203,-140.09791564941406,-11.019761085510254,4.999538898468018,-9.061184883117676,-0.8764075636863708,0.1703058928251266,-0.1513383686542511,111.91922760009766,80.70600891113281,11.53481674194336,26.612906594609296,0.863572420343923,15.117393792088016,0.9055371978249008,91.00761222839355,152.49300384521484,151.63273239135742
3918.548,9.029728889465332,23.54455947875977,11.791145324707031,0.860848069190979,0.1178270801901817,0.1064897328615188,20.00138092041016,-71.47030639648438,-138.94253540039062,-7.966232299804687,10.77023220062256,-8.722891807556152,-0.8947192430496216,0.1687425822019577,-0.1341995596885681,113.60103607177734,80.74742126464844,13.391716003417969,27.83726626187388,0.8753757377611614,15.985856254705556,0.9203293458062052,93.5996551513672,152.2177276611328,152.3342514038086
3939.68,-2.7622857093811035,45.48463821411133,10.946096420288086,0.8604828119277954,0.0884284973144531,0.0940648466348648,18.471683502197266,-70.68216705322266,-137.38514709472656,-5.525892734527588,15.741859436035156,-9.822710990905762,-0.911205232143402,0.1553326398134231,-0.1181540191173553,115.89508056640624,80.7699203491211,15.81230926513672,46.86469420204394,0.870114052370664,19.360456612080583,0.931871008407549,97.42339706420898,151.45208740234375,153.19745635986328
3962.146,-10.785225868225098,64.77930450439453,9.990779876708984,0.8527861833572388,0.0868986174464225,0.1402409225702285,16.67892837524414,-69.54620361328125,-135.70553588867188,-3.79803991317749,18.38785743713379,-9.005316734313965,-0.9326205849647522,0.151998370885849,-0.1090375259518623,118.41656494140624,80.74372863769531,18.43505096435547,66.426614181716,0.8685983885562156,20.82388383073054,0.951196006256151,101.73763656616212,150.28993225097656,154.14058685302734
3972.238,-21.11201477050781,81.34686279296875,8.883987426757812,0.8328717947006226,0.0695045739412307,0.2146903276443481,14.69771957397461,-68.08560180664062,-134.03207397460938,-0.9107364416122437,22.173154830932617,-5.128770351409912,-0.9172630310058594,0.1581442058086395,-0.1343272924423217,121.16839599609376,80.58001708984375,21.25908470153809,84.51008511726286,0.8629010655866787,22.776797872837445,0.9404386632714472,106.47067642211914,148.66561889648438,155.29115867614746
3994.762,-28.7490234375,97.1311492919922,7.465145111083984,0.8177831768989563,0.0625121816992759,0.2626807391643524,12.683612823486328,-66.2762451171875,-132.4717559814453,2.8061115741729736,27.0938663482666,-0.9910658597946168,-0.9352834224700928,0.1786188185214996,-0.1450400799512863,124.06193542480467,80.26123809814453,24.147518157958984,101.57113223215906,0.861207447719586,27.25681689784945,0.963169968110334,111.37832260131836,146.53748321533203,156.6192741394043
4018.349,-38.78354644775391,109.9208526611328,5.350685119628906,0.8042218685150146,0.0423785336315631,0.3165433704853058,10.680532455444336,-64.17408752441406,-131.12684631347656,6.139830589294434,31.0485897064209,1.95833158493042,-0.9719007015228271,0.1834717094898224,-0.1334127187728881,126.92320251464844,79.83422088623047,26.93433380126953,116.6849911345284,0.8653140813073255,31.71036904577803,0.9980239452708812,116.2426700592041,144.00830841064453,158.0611801147461
4039.55,-45.425514221191406,116.22756958007812,5.410961151123047,0.8014386892318726,0.0433527715504169,0.3038142323493957,8.776518821716309,-61.95884704589844,-130.0128936767578,9.585589408874512,33.39876937866211,5.334434509277344,-0.9618706107139589,0.1789295375347137,-0.1288863569498062,129.55926513671875,79.30884552001953,29.41938781738281,124.90638003453036,0.8581879299878653,35.15419621977374,0.9868244748512388,120.78274631500244,141.26769256591797,159.43228149414062
4062.526,-47.94713973999024,127.6011734008789,1.210315227508545,0.7693021297454834,0.0430389270186424,0.3134523034095764,7.1437153816223145,-59.50160598754883,-129.240478515625,11.626190185546877,31.7835693359375,9.89655303955078,-0.9485295414924622,0.1841986179351806,-0.1403515934944152,131.5641632080078,78.71443939208984,31.23686790466309,136.31746962688698,0.8318235765969979,35.260535163657046,0.9763892623997628,124.4204478263855,138.21604537963867,160.4773464202881
4072.862,-42.89354705810547,140.6696014404297,-2.0544533729553223,0.7155035138130188,0.0044424571096897,0.410602867603302,5.788933277130127,-56.720947265625,-128.67257690429688,12.802175521850586,26.258745193481445,15.40009593963623,-0.9373854994773864,0.1744764298200607,-0.1751197278499603,132.74313354492188,78.09834289550781,32.21437072753906,147.07825783336196,0.8249604406200354,33.023936049151615,0.9694330911803392,126.95420026779176,134.8192901611328,160.88694763183594
4094.889,-28.96769905090332,148.16549682617188,-2.548235893249512,0.6933291554450989,0.0076021021232008,0.4830731749534607,4.844563007354736,-53.76367568969727,-128.2447967529297,10.256282806396484,27.79648971557617,21.360963821411133,-0.9656428098678588,0.1583497822284698,-0.1816847622394561,133.5338592529297,77.38567352294922,32.841217041015625,150.99217047323248,0.8450578690873912,36.52570263379681,0.9952638055366554,128.68929624557495,131.14934921264648,161.0860137939453
4120.761,-20.626617431640625,157.4696044921875,-3.704995393753052,0.6786269545555115,0.0257386267185211,0.4316245317459106,4.198298931121826,-50.66942596435547,-127.95307159423828,9.129949569702148,30.014057159423828,28.067174911499023,-0.9629709124565125,0.170153260231018,-0.1894430369138717,133.96067810058594,76.54327392578125,33.159969329833984,158.857989023105,0.8046718317174525,42.09472548701494,0.9960691614741032,129.7623791694641,127.21269989013672,161.1130409240723
4142.003,-19.4259033203125,172.1713409423828,-5.780605316162109,0.6330626010894775,0.028461268171668,0.4613004624843597,3.667536497116089,-47.2729721069336,-127.70894622802734,14.882526397705078,24.137216567993164,35.67256546020508,-0.9989014863967896,0.170279175043106,-0.1777076572179794,133.69577026367188,75.69094848632812,32.64850997924805,173.36017927866132,0.783821674472197,45.57002021220978,1.0287755772825184,130.0282337665558,122.96392059326172,160.3574562072754
4162.191,-14.102474212646484,181.426986694336,-7.007323265075684,0.4985541403293609,-0.0489132292568683,0.6108438968658447,3.2430784702301025,-43.59926223754883,-127.55184936523438,28.843448638916016,16.976669311523438,45.11886978149414,-1.0022428035736084,0.1835455596446991,-0.1921430081129074,132.89773559570312,74.79601287841797,31.286476135253903,182.10912623821568,0.7899867094920863,56.17707931761879,1.0368695893636042,129.65465712547302,118.3952751159668,158.83832550048828
4172.175,-0.3387421369552612,188.0516662597656,-9.75538444519043,0.4387870132923126,-0.0256458669900894,0.6929420828819275,3.200392007827759,-39.8044548034668,-127.4588623046875,40.41601943969727,29.18460464477539,54.28001403808594,-1.005712866783142,0.191582590341568,-0.200373113155365,132.65304565429688,73.60169219970703,30.24374389648437,188.30483651511207,0.8205854518308289,73.69881749116901,1.0432217615688066,129.45265364646912,113.40614700317384,157.70260620117188
4194.675,3.4465811252593994,195.9320526123047,-17.28624725341797,0.4500099718570709,0.0262309499084949,0.718938946723938,3.3496220111846924,-35.81378936767578,-127.60052490234376,40.85606384277344,37.73604965209961,57.293067932128906,-0.9392441511154176,0.2425357699394226,-0.2095973789691925,132.72837829589844,72.22515869140625,29.523271560668945,196.72331459801663,0.8485695296323272,79.84812476912681,0.9924385302754952,129.37875628471377,108.03894805908205,157.1237964630127
4211.98,-6.050551414489746,197.8738555908203,-23.03622436523437,0.4239030480384826,-0.0017392509616911,0.7615426778793335,3.353006601333618,-31.80292701721192,-127.8095245361328,33.09468078613281,20.763973236083984,53.07198333740234,-1.0501360893249512,0.2648168802261352,-0.1530418992042541,132.04983520507812,71.18204498291016,28.18910789489746,199.30213127761985,0.8715756245799042,65.9017139098093,1.0937712782238571,128.6968286037445,102.98497200012208,155.99863243103027
4234.521,-8.565706253051758,188.9121551513672,-19.37507057189941,0.3496542572975158,-0.0014382097870111,0.789893627166748,3.25420355796814,-27.95966339111328,-127.9863739013672,46.22824478149414,-4.954555034637451,44.15990447998047,-1.0290697813034058,0.1802302300930023,-0.1052745729684829,131.01136779785156,70.66300201416016,26.18922615051269,190.09620471543843,0.8638241200223055,64.12250303013748,1.0500239456054858,127.75716423988342,98.62266540527344,154.17560005187988
4251.984,-6.861113548278809,187.9926300048828,-15.717830657958984,0.2944408655166626,0.0375777184963226,0.8771941065788269,3.160217761993408,-24.1252555847168,-128.0670166015625,55.4884033203125,-11.247722625732422,37.87273788452149,-0.8980826139450073,0.107452780008316,-0.134990394115448,130.29733276367188,70.29621887207031,24.2872314453125,188.77328734719703,0.9260545387989936,68.11621277032913,0.91450581622276,127.13711500167848,94.42147445678712,152.354248046875
4274.679,-21.44426918029785,189.349838256836,-10.52206802368164,0.2640197873115539,0.0813715308904647,0.8480601906776428,2.763435125350952,-20.28233528137207,-128.07679748535156,59.825775146484375,-8.88215446472168,36.58833312988281,-0.8868643641471863,0.1503313332796096,-0.1469905376434326,129.85166931152344,69.9148178100586,22.534996032714844,190.85054845103795,0.8919270492275116,70.6874964971611,0.911446174119198,127.08823418617249,90.19715309143066,150.6117935180664
4297.454,-21.307008743286133,188.3051147460937,-4.974893569946289,0.2191416025161743,0.053566038608551,0.810152530670166,2.3297126293182373,-16.48328399658203,-127.98477172851562,57.27554702758789,-13.89708423614502,32.29521942138672,-0.9701553583145142,0.1739340871572494,-0.1062427386641502,129.2539520263672,69.67771911621094,20.68106460571289,189.572029654056,0.8409753179474675,67.20564288102194,0.991333448169912,126.92423939704896,86.16100311279297,148.66583633422852
4312.357000000001,-18.45524406433105,183.9433441162109,2.5694820880889893,0.138722687959671,0.0412993915379047,1.0188684463500977,1.90854811668396,-12.751277923583984,-127.8065185546875,57.56559371948242,-20.988496780395508,25.22698974609375,-0.8805796504020691,0.2340110540390014,-0.138150155544281,128.60691833496094,69.5809326171875,18.769201278686523,184.88469951926749,1.0290979228742128,66.26247496907058,0.9215569215146636,126.69837021827698,82.33221054077148,146.57571983337402
4334.401,-16.969776153564453,176.9857177734375,8.59193229675293,0.015489830635488,0.0598576813936233,1.1097326278686523,1.519294023513794,-9.186962127685549,-127.55670928955078,51.44685363769531,-9.827587127685549,12.35089111328125,-0.8549726605415344,0.2714141309261322,-0.2065315991640091,128.79847717285156,69.49760437011719,17.876195907592773,178.0048844809404,1.1114537247367529,53.81361100374908,0.9204885562532,127.27918314933775,78.68456649780273,145.43290519714355
4356.946,-11.099969863891602,171.14378356933594,11.194926261901855,0.045123241841793,0.0722195580601692,0.9345894455909728,1.288179636001587,-5.723226547241211,-127.2229461669922,21.412904739379883,10.152169227600098,-2.4617838859558105,-0.9029271006584167,0.3096015155315399,-0.1779226213693618,129.63304138183594,69.3992691040039,18.38404655456543,171.86835182608934,0.9384610824806542,23.82518434985844,0.9709721451812026,128.34486174583435,75.12249565124512,145.60699272155762
4381.009,-0.7391735315322876,166.90274047851562,15.035627365112305,0.0378019846975803,0.0101293036714196,1.012148380279541,1.2407907247543335,-2.3736226558685303,-126.89583587646484,1.3872555494308472,3.2425360679626465,-10.882054328918455,-1.07241690158844,0.2952669560909271,-0.1179617866873741,130.0220947265625,69.57311248779297,18.88335418701172,167.58025315355914,1.0129047025966669,11.439301750063168,1.118559595770484,128.78130400180817,71.9467351436615,145.77919006347656
4401.891,9.190559387207031,160.45115661621094,18.612138748168945,-0.0792096629738807,0.0696330219507217,1.1350406408309937,1.4408414363861084,0.873660683631897,-126.43958282470705,4.862729072570801,2.2652974128723145,-18.947978973388672,-1.078487753868103,0.2649852633476257,-0.1622202098369598,130.8108673095703,69.87571716308594,19.71085929870605,161.78829299461293,1.1399299034556722,19.69272996762944,1.122349509517612,129.3700258731842,69.00205647945404,146.1504421234131
4412.405,14.290738105773926,154.12942504882812,16.547378540039062,-0.1155870258808136,0.067858412861824,1.1216599941253662,1.7640557289123535,3.98020339012146,-125.9983367919922,5.676586627960205,4.167360305786133,-16.0556583404541,-0.8451165556907654,0.3215816617012024,-0.2004047930240631,131.56385803222656,70.02465057373047,20.406219482421875,155.67247861467837,1.1296398838432602,17.532104620049807,0.9261743026623804,129.7998023033142,66.04444718360901,146.40455627441406
4434.6990000000005,25.137733459472656,150.21263122558594,15.770238876342772,-0.1113869026303291,0.1099225133657455,0.9216706156730652,2.3545496463775635,6.985660076141357,-125.60189819335938,-11.392988204956056,0.2285887002944946,-7.76362943649292,-0.9194322824478148,0.366375207901001,-0.1409295946359634,131.4368438720703,70.12042236328125,20.5373764038086,153.11577533817436,0.9348618747266292,13.78863209529319,0.9997237946632844,129.08229422569275,63.13476228713989,146.13927459716797
4456.817,27.958913803100582,145.88540649414062,12.890427589416504,-0.2034671604633331,0.0182379446923732,1.110453963279724,2.958463668823242,9.906357765197754,-125.16278839111328,-10.42164707183838,-7.121076583862305,-16.510149002075195,-1.1586129665374756,0.3105503022670746,-0.125244915485382,131.3810272216797,70.50772094726562,20.718467712402344,149.0986781042939,1.129087911801938,20.78233575597108,1.20603141970758,128.42256355285645,60.60136318206787,145.88125610351562
4476.8460000000005,31.825759887695312,138.51133728027344,13.57927131652832,-0.3087658882141113,0.1306152194738388,1.148135542869568,3.7130661010742174,12.693293571472168,-124.74122619628906,2.96990704536438,6.889944076538086,-18.364242553710938,-0.9536061882972716,0.217111736536026,-0.2378789782524109,132.48582458496094,70.69536590576172,21.82103538513184,142.76787508780396,1.1960819094373285,19.837769073347307,1.0065230632205855,128.77275848388672,58.00207233428955,146.5622615814209
4501.447,28.622896194458008,132.49075317382812,6.154364109039307,-0.3277339935302734,0.1348690688610077,1.0416536331176758,4.395634651184082,15.361181259155272,-124.3809585571289,-2.1673502922058105,12.701770782470703,2.2164969444274902,-0.7951614260673523,0.256517618894577,-0.2189612090587616,132.86135864257812,70.45399475097656,22.2686710357666,135.68694137872515,1.1002915648308815,13.074603129892983,0.8637285414881712,128.46572399139404,55.09281349182129,146.6496295928955
4521.879,26.65682983398437,127.23109436035156,8.438763618469238,-0.3306910991668701,0.1104219183325767,0.9681861400604248,5.059787273406982,17.90488624572754,-123.96497344970705,-9.38499355316162,12.591763496398926,10.311429977416992,-0.9946169257164,0.2791253328323364,-0.1869867146015167,132.7129669189453,70.14246368408203,22.32117080688477,130.26722795983295,1.0290451909034624,18.7871285757378,1.0498275152556131,127.65317964553832,52.23757743835449,146.2861442565918
4532.376,23.509878158569336,121.97348022460938,9.269180297851562,-0.3842498064041137,0.0581729225814342,1.072751522064209,5.650903701782227,20.322717666625977,-123.5595932006836,-7.687607288360596,11.350067138671877,-11.591985702514648,-1.0414782762527466,0.2129046618938446,-0.1868873536586761,133.44349670410156,70.20384979248047,23.26407241821289,124.5638870320288,1.1409767003468307,17.95264499731775,1.0793202851424908,127.79259300231934,49.88113212585449,146.82366561889648
4554.137,19.71367073059082,114.06480407714844,11.686519622802734,-0.4774899184703827,0.1096961945295333,1.154463291168213,6.224447727203369,22.57705307006836,-123.00904846191406,4.965695858001709,12.463220596313477,-10.7779541015625,-1.0312542915344238,0.1494598388671875,-0.2639859914779663,134.591796875,70.22606658935547,24.363733291625977,116.34424387878656,1.254119359546792,17.209134132835842,1.074947561948478,128.36734914779663,47.64901351928711,147.37278175354004
4581.801,11.580309867858888,105.26602172851562,7.484476566314697,-0.5281516909599304,0.1298593878746032,1.0364001989364624,6.63116455078125,24.68482208251953,-122.59899139404295,12.066034317016602,15.71756076812744,2.499228239059448,-0.8782767057418823,0.2703507542610168,-0.2599412798881531,135.33554077148438,69.93540954589844,24.900434494018555,106.16523111007514,1.1704413875280295,19.97190632939463,0.9550020791433936,128.70437622070312,45.250587463378906,147.49942588806152
4601.875,7.995632648468018,98.93023681640624,5.72212553024292,-0.5106965899467468,0.1061180979013443,0.9941009283065796,6.951682567596436,26.650333404541016,-122.17533111572266,-1.061281681060791,16.910165786743164,0.7201082706451416,-0.9769048690795898,0.3072021603584289,-0.2443728297948837,135.85206604003906,69.66738891601562,25.48420143127441,99.41762730312632,1.1226347194637436,16.958731723308375,1.052822098220899,128.90038347244263,43.01705551147461,147.65953254699707
4611.818,0.7963781952857971,89.64503479003906,6.666409015655518,-0.551988422870636,0.0601663738489151,1.1099448204040527,7.1116251945495605,28.40303421020508,-121.78095245361328,-5.31868839263916,11.428915977478027,-12.434292793273926,-1.0341517925262451,0.1948195546865463,-0.2766182422637939,136.73414611816406,69.69853973388672,26.52973175048828,89.89609273990307,1.2410836860853196,17.70650174108683,1.0880910995071236,129.6225209236145,41.29550552368164,148.31068420410156
4636.82,-5.806725025177002,77.6283187866211,8.340728759765625,-0.6176617741584778,0.1356908529996872,1.0975910425186155,7.1948089599609375,29.923398971557617,-121.36923217773438,7.947896957397461,11.216545104980469,-9.397814750671388,-0.9537866115570068,0.1572029888629913,-0.3332353830337524,137.85362243652344,69.66227722167969,27.532264709472656,78.2907509824709,1.266737609555145,16.6522933022874,1.022481051461838,130.6588134765625,39.73887825012207,148.90149688720703
4651.7480000000005,-8.578287124633789,65.38348388671875,5.231570720672607,-0.6204416155815125,0.1171229258179664,1.007526397705078,7.17567777633667,31.21668815612793,-121.04518127441406,10.227294921875,18.4456844329834,-6.935085296630859,-0.887554943561554,0.2854597568511963,-0.2934412360191345,138.96043395996094,69.43517303466797,28.50062561035156,66.15101138578962,1.189022716423084,22.20216754489889,0.977419464517939,131.78475618362427,38.21848487854004,149.54580688476562
4674.273,-10.603631019592283,57.4189453125,6.7428812980651855,-0.5785884857177734,0.1254755109548568,0.9618563652038574,7.138005256652832,32.330039978027344,-120.75511169433594,-6.691634178161621,14.076958656311035,-10.628174781799316,-0.987662672996521,0.2768839001655578,-0.2793258726596832,139.6983642578125,69.34947204589844,29.43909072875977,58.77787610827158,1.1294584573758102,18.86522812420528,1.063092278656287,132.56035900115967,37.01943206787109,150.1942024230957
4695.022,-10.894571304321287,49.37591171264648,7.659080505371094,-0.5706848502159119,0.0872636139392852,1.0035789012908936,7.074883460998535,33.258827209472656,-120.37847137451172,-11.718642234802246,8.81800365447998,-18.963512420654297,-1.0045297145843506,0.1973211020231247,-0.2651085257530212,140.56747436523438,69.48228454589844,30.615535736083984,51.14033491822044,1.1577852770267634,23.97287149271073,1.0574961443019435,133.49259090423584,36.22345733642578,150.9940071105957
4711.801,-6.346210479736328,40.70187377929688,8.475281715393066,-0.583169162273407,0.1301907151937484,0.997760772705078,7.130285739898682,34.01051712036133,-120.03778076171876,-3.4615371227264404,7.573514938354492,-16.220123291015625,-0.9379891157150269,0.2337534725666046,-0.2825896739959717,141.42152404785156,69.560546875,31.602970123291016,42.056477702658434,1.1629971855934826,18.2327388877601,1.007135140378864,134.29123830795288,35.55002975463867,151.64075088500977
4734.006,-1.6499427556991575,31.536582946777344,5.238641738891602,-0.5829755067825317,0.1251229643821716,0.9452959299087524,7.225732803344727,34.59480667114258,-119.81959533691406,-0.7829167246818542,7.222692012786865,-11.555699348449709,-0.9193243384361268,0.2775116264820099,-0.2705512046813965,142.04940795898438,69.56814575195312,32.30141067504883,32.01127523739891,1.117631689254642,13.64970424372348,0.9976812599363925,134.82367515563965,34.97333908081055,152.1210060119629
4756.648,4.171865463256836,21.96637916564941,4.389206886291504,-0.6006408929824829,0.1119211316108703,0.9845902919769288,7.399959087371826,34.98379135131836,-119.56243133544922,-3.515021562576294,1.8380857706069944,-9.081342697143556,-0.9442893266677856,0.2560531497001648,-0.2743157148361206,142.37008666992188,69.63906860351562,32.72621154785156,22.78577214367028,1.1587553085440714,9.909829517627776,1.0161174436727909,134.97012758255005,34.655277252197266,152.28864288330078
4779.994000000001,4.424456596374512,11.790608406066896,3.443373203277588,-0.641196608543396,0.1343566626310348,0.9916833639144896,7.560456275939941,35.184322357177734,-119.36563873291016,1.6941368579864502,0.0449975319206714,-5.887199401855469,-0.9269745349884032,0.2068938314914703,-0.2984351813793182,142.6863555908203,69.70010375976562,33.02399063110352,13.05569154719379,1.188537209289495,6.126274664808504,0.9955653687785118,135.12589931488037,34.51578140258789,152.38962936401367
4791.859,4.128550052642822,0.9576876163482666,2.2529783248901367,-0.6267262697219849,0.1228676885366439,1.0024356842041016,7.669816017150879,35.16385269165039,-119.31165313720705,1.9103202819824217,1.5018891096115112,-1.8847870826721191,-0.931594729423523,0.2426049262285232,-0.2908671200275421,142.82693481445312,69.68120574951172,33.13685989379883,4.799791916334358,1.1885956364599852,3.0752913397482744,1.005648831169783,135.15711879730225,34.51735305786133,152.44851303100586
4814.599,3.4221208095550537,-10.194891929626465,2.6041109561920166,-0.6381130814552307,0.149934783577919,1.0183066129684448,7.762069225311279,34.922332763671875,-119.27814483642578,-2.088719367980957,-0.2208097577095031,-1.5809520483016968,-0.955112874507904,0.2326542437076568,-0.2996715605258941,142.83932495117188,69.69068908691406,33.195533752441406,11.064724405248956,1.2110396781551434,2.6288619070441546,1.0277021184924928,135.0772557258606,34.76835632324219,152.4736785888672
4836.467,-3.2505245208740234,-21.34654998779297,1.4661102294921875,-0.6271366477012634,0.1439606696367263,1.0166176557540894,7.68086576461792,34.462432861328125,-119.31055450439452,-6.614117622375488,-2.840892553329468,-1.92647397518158,-0.9573681950569152,0.2353164851665496,-0.286105751991272,142.67446899414062,69.75112915039062,33.163631439208984,21.642333174756573,1.2031361133650562,7.451746399283373,1.0265399214936388,134.9936032295227,35.2886962890625,152.47418594360352
4859.125,-7.477385997772217,-32.54768753051758,3.258340835571289,-0.611392617225647,0.1471348404884338,1.0529812574386597,7.520350456237793,33.76636505126953,-119.33443450927734,-9.839816093444824,-3.643304347991944,-2.3319461345672607,-0.9725732803344728,0.2108785361051559,-0.2845609486103058,142.4671173095703,69.83985137939453,33.15114974975586,33.554136107857715,1.226466111313592,10.748656664878451,1.0350572332409484,134.94676685333252,36.073486328125,152.4855842590332
4881.65,-13.102690696716309,-43.51822662353516,4.3550944328308105,-0.6014534831047058,0.1464288979768753,1.0675288438796997,7.245925426483154,32.8504524230957,-119.36235809326172,-10.133941650390623,-4.714717388153076,-2.101890087127685,-0.9742714166641236,0.2103372514247894,-0.2807523906230926,142.2063751220703,69.94388580322266,33.08816146850586,45.65614306388631,1.2340200756132913,11.372918506787975,1.03550396305675,134.96044969558716,37.09343338012695,152.45051956176758
4892.188,-15.105761528015137,-54.660255432128906,4.457572937011719,-0.5601913332939148,0.1289857774972915,1.045135736465454,6.914100646972656,31.71160697937012,-119.41708374023438,-11.357004165649414,-8.564769744873047,-1.113861083984375,-0.9721096754074096,0.2356992661952972,-0.2478319853544235,141.68414306640625,70.10002136230469,32.78034210205078,56.88407080840487,1.1927951912760977,14.268059115229573,1.030520285132911,134.7700424194336,38.38841438293457,152.19742584228516
4916.492,-17.72464370727539,-64.50873565673828,5.356506824493408,-0.5325301885604858,0.1320835500955581,1.059208631515503,6.536581993103027,30.372243881225582,-119.46704864501952,-8.902177810668945,-13.285003662109377,-0.2352881133556366,-0.9851471781730652,0.200236514210701,-0.2381975203752517,141.04339599609375,70.33406066894531,32.28940963745117,67.11357639063529,1.1928777770631227,15.993606615498347,1.033125201995636,134.50681400299072,39.96181678771973,151.7564582824707
4937.612999999999,-22.66015625,-73.52857971191406,5.057215690612793,-0.5266096591949463,0.1196623146533966,1.071328043937683,6.049645900726318,28.863285064697266,-119.5362777709961,-0.4148045778274536,-18.335542678833008,2.527923583984375,-0.9829857349395752,0.1931702345609665,-0.2407497018575668,140.2761993408203,70.60757446289062,31.48238945007324,77.10713421122,1.1997418807530928,18.513632431577488,1.0303087467160237,134.226553440094,41.74428939819336,151.01866722106934
4959.014,-26.282997131347656,-84.00650787353516,4.570713996887207,-0.5153061747550964,0.1091739684343338,1.081387281417847,5.4825310707092285,27.1556396484375,-119.62416076660156,5.427951812744141,-21.806564331054688,6.951236248016357,-0.9703934192657472,0.2286828458309173,-0.2305462807416916,139.23370361328125,70.8597412109375,30.2663688659668,88.14068714137696,1.2028540483103976,23.522512497215,1.0232843298396697,133.75117254257202,43.7041015625,149.89052963256836
