Timestamp (ms),Wrist Gyroscope X (deg/s),Wrist Gyroscope Y (deg/s),Wrist Gyroscope Z (deg/s),Wrist Accelerometer X (g),Wrist Accelerometer Y (g),Wrist Accelerometer Z (g),Wrist Roll (deg),Wrist Pitch (deg),Wrist Yaw (deg),Arm Gyroscope X (deg/s),Arm Gyroscope Y (deg/s),Arm Gyroscope Z (deg/s),Arm Accelerometer X (g),Arm Accelerometer Y (g),Arm Accelerometer Z (g),Arm Roll (deg),Arm Pitch (deg),Arm Yaw (deg),Wrist Gyroscope Magnitude (deg/s),Wrist Accelerometer Magnitude (g),Arm Gyroscope Magnitude (deg/s),Arm Accelerometer Magnitude (g),Difference Roll (deg),Difference Pitch (deg),Difference Yaw (deg)
0.0,-2.672661,13.75599,4.632033,-0.935221,-0.288642,0.327728,-43.944675,66.840065,144.944641,12.96172,2.605564,4.099687,-0.958986,-0.126708,-0.282763,-157.529404,74.647461,75.509674,14.758933139428134,1.0321618889442683,13.842058467383564,1.007801557663511,-113.584729,7.807396000000011,-69.43496699999999
19.983,-2.1848065,13.2852685,4.4783345,-0.946467,-0.282304,0.294972,-44.1095885,66.96946349999999,144.784088,13.407799,2.5052475000000003,5.1148335,-0.9865725,-0.1038439999999999,-0.265633,-157.650429,74.65344250000001,75.2417525,14.188982290968749,1.0307782551494769,14.56732167535884,1.026971160637557,-113.5408405,7.683979000000008,-69.5423355
39.967,-1.8827063333333331,13.72261,4.131712,-0.945223,-0.2829453333333333,0.2763726666666666,-44.31370666666667,67.10286966666666,144.58259066666668,12.715739,2.995976,6.036794333333333,-0.9896476666666666,-0.0960746666666666,-0.2602266666666666,-157.841492,74.652771,74.91852066666667,14.454260700589897,1.024639659716798,14.391274312292932,1.0277892603828536,-113.52778533333333,7.549901333333338,-69.66407
59.951,-1.7467700000000002,13.75496525,4.279052,-0.94325075,-0.27775625,0.275582,-44.49742975,67.23678774999999,144.40485375,10.84712125,3.76149825,6.00707675,-0.97771225,-0.10259475,-0.2670705,-158.0465815,74.62770075,74.61549775,14.510705030435687,1.0211836027442005,12.957387065969174,1.018711724924119,-113.54915175,7.390913000000005,-69.789356
79.935,-2.4337436,12.999644,4.5550152,-0.9453232,-0.2809224,0.2769674,-44.6604666,67.359735,144.2677032,8.229055599999999,4.43228,5.5493466,-0.9653868,-0.103661,-0.2788032,-158.2724154,74.5814422,74.33662280000001,13.987923917061744,1.024336022964515,10.870037247094553,1.0101725104483292,-113.61194879999998,7.221707200000003,-69.9310804
99.918,-2.5697978,11.3270508,4.9813794,-0.948615,-0.2820426,0.2614172,-44.947082400000006,67.5966612,144.0278014,4.6489132,5.363753,5.291252,-0.9585894,-0.0974658,-0.2862186,-158.7048646,74.4996826,73.7927568,12.638041038286348,1.023600214388215,8.853224718352473,1.0051439234994957,-113.7577822,6.9030214,-70.23504460000001
119.916,-2.807272,9.4649668,5.166495,-0.94526,-0.2844962,0.2588322,-45.1750486,67.8065854,143.86156599999998,1.6066906,6.5954802,4.6365132,-0.94923,-0.1007943999999999,-0.2936168,-159.17606819999995,74.38427279999999,73.2710802,11.142667687412706,1.020513921106067,8.220648904222504,0.9987031236626828,-114.0010196,6.577687399999999,-70.59048580000001
139.886,-3.0000466,7.106330399999999,5.248005399999999,-0.9438572,-0.2884214,0.270348,-45.3161154,67.9760756,143.79481800000002,-0.4193329999999999,7.3759994,3.7530274,-0.9463836,-0.1054959999999999,-0.2939314,-159.629004,74.24648300000001,72.8090578,9.329618000463087,1.0232992519658168,8.286520498909065,0.9965776398609996,-114.3128886,6.270407399999999,-70.9857602
159.87,-2.6159758,4.8010104,4.9117608,-0.9441482,-0.2993052,0.2794476,-45.3834074,68.09946880000001,143.7996826,-1.0624698,7.0179146,3.2292086,-0.9569902,-0.102083,-0.2874098,-160.0431702,74.1179736,72.4002854,7.349722743308787,1.0291211723874114,7.797932776776109,1.0044180279749462,-114.6597628,6.018504799999997,-71.3993972
179.854,-0.8104740000000001,3.1947498,4.1866698,-0.9433238,-0.3065272,0.2814092,-45.3891432,68.1853682,143.8328826,-0.2786306,6.258403,3.0866212,-0.9713014,-0.1034752,-0.278643,-160.3957398,74.0101382,72.03811959999999,5.328367330009079,1.031023692177304,6.983729201075511,1.015763480395904,-115.0065966,5.824769999999998,-71.794763
199.837,0.9570137999999998,2.2323790000000003,3.145067,-0.94159,-0.3141036,0.283059,-45.3681486,68.2384414,143.85736079999998,0.9857458,5.6097052000000005,3.031808,-0.9776234,-0.1106814,-0.273348,-160.678711,73.917293,71.7203156,3.973768720939914,1.0321701396155385,6.452313303148622,1.0211351593386255,-115.3105624,5.678851599999999,-72.1370452
219.821,2.3848694,1.2627964,2.1406752,-0.9400956,-0.3181604,0.2826644,-45.3244292,68.2614608,143.87578739999998,1.2765048,4.8998740000000005,2.8133966,-0.9703694,-0.1141066,-0.2775904,-160.915027,73.8327944,71.444423,3.44452422183447,1.0319423144221191,5.792532274333101,1.0157231506626598,-115.5905978,5.571333599999997,-72.43136439999999
239.805,3.4583889999999995,-0.0354924,1.1471326,-0.9396404,-0.318172,0.2746974,-45.257276,68.25472859999999,143.8972412,0.7076486,4.159925199999999,2.3353898,-0.959392,-0.1104872,-0.2908604,-161.125705,73.7515656,71.2081254,3.643847882083103,1.0293765902054115,4.822840421227001,1.0085832654352342,-115.868429,5.496836999999999,-72.6891158
259.788,4.2221486,-1.6808590000000003,-0.066127,-0.9363656,-0.3124492,0.2646726,-45.1649764,68.2126708,143.92970259999998,0.6917949999999999,4.000221000000001,1.6044176,-0.9476554,-0.104501,-0.2964659999999999,-161.29746100000003,73.6655334,71.013765,4.544909081432978,1.021986606876411,4.365146527443926,0.9984304208637476,-116.1324846,5.4528626,-72.9159376
279.772,4.2438216,-3.4083046,-1.5967870000000002,-0.9295742,-0.3008572,0.261737,-45.05746,68.1288284,143.97599780000002,0.5264838000000001,3.7908896,0.8482160000000001,-0.9441788,-0.0986904,-0.2932186,-161.42543940000002,73.5814652,70.86907959999999,5.672414895119777,1.0114986432351158,3.920140244137523,0.9935746317250456,-116.3679794,5.452636800000002,-73.10691820000001
299.756,3.7045142000000006,-4.5512924,-3.2205012,-0.9256432,-0.2948849999999999,0.2633018,-44.9707574,68.00757899999999,144.0074798,0.7864728,2.9259596,0.000522,-0.9527942,-0.0929513999999999,-0.2866234,-161.48037720000002,73.5148866,70.7957062,6.693976094034161,1.0065288544371096,3.029815063408326,0.9993046200949738,-116.5096198,5.507307600000002,-73.2117736
319.74,3.7034214000000008,-5.1346208,-4.564489,-0.9241672,-0.2893972,0.2729435999999999,-44.895353,67.858548,144.0204346,1.5877994,1.8037484,-0.6316366,-0.958906,-0.0951854,-0.281464,-161.4466948,73.4694932,70.7975678,7.804756284272534,1.0061480813998702,2.4846689959836663,1.0038839377662938,-116.5513418,5.610945200000003,-73.22286679999999
339.724,3.980176,-5.6403858,-5.483314,-0.9230464,-0.2807971999999999,0.2810748,-44.8126252,67.6908386,144.02760619999998,3.4286612,0.946522,-0.8640325999999998,-0.9585612,-0.1003278,-0.2778752,-161.3312652,73.4401842,70.8454146,8.816035695618163,1.0049202790648817,3.6603516026103553,1.0030552668588706,-116.51864,5.749345600000001,-73.18219160000001
359.707,4.1360196,-6.2359536,-5.9450148,-0.9205468,-0.2787286,0.2787032,-44.7249756,67.51095439999999,144.030536,4.4387176,0.2202794,-0.8496298,-0.9538998,-0.0996464,-0.277945,-161.184079,73.4243014,70.9056502,9.557038056069263,1.001384799734068,4.524666589226455,0.998552781027623,-116.4591034,5.913347000000002,-73.12488579999999
379.691,5.1182804,-6.5631254,-5.913092400000001,-0.9159712,-0.270117,0.272592,-44.6049392,67.33327799999999,144.0405366,5.334795399999999,-0.2799566,-0.5545069999999999,-0.9474661999999998,-0.0954296,-0.2757663999999999,-161.03533339999998,73.4208436,70.949568,10.20960679948484,0.9931126982283732,5.370837520423953,0.991385957166814,-116.4303942,6.0875656,-73.0909686
399.675,5.6067426,-7.069978000000001,-5.6651864,-0.9080614,-0.2523862,0.2769854,-44.4284972,67.1567856,144.0986786,5.462255600000001,-0.566401,-0.0584209999999999,-0.9435078,-0.0887015999999999,-0.2683248,-160.9181184,73.43042899999999,70.95869139999999,10.654317831277783,0.982341698154751,5.491853907905178,0.9849229110942848,-116.48962120000002,6.273643399999997,-73.1399872
419.659,4.839027400000001,-7.292867599999999,-5.0926556,-0.9024704,-0.2486156,0.2806838,-44.2358252,66.985559,144.1927368,5.3264392,-0.8649764000000001,0.1639486,-0.9536568,-0.0841112,-0.2555936,-160.81255819999998,73.4557494,70.95863940000001,10.126067601457729,0.9772645164038036,5.398705202851473,0.9908905461818877,-116.57673300000002,6.470190399999998,-73.2340974
439.643,3.8484854,-6.823502,-4.600633,-0.9007862,-0.2541296,0.2905484,-44.061035,66.8235534,144.29316720000003,4.1064838,-1.6885282000000004,0.1448518,-0.9663454,-0.0855218,-0.2425774,-160.701639,73.5047682,70.98891760000001,9.084978999354163,0.9800081655012676,4.442445129185157,0.9999906026394249,-116.64060399999998,6.681214799999998,-73.3042496
459.626,3.7559592,-6.024859000000001,-3.892909,-0.902096,-0.2516049999999999,0.309541,-43.8724242,66.6783538,144.4147156,3.7872762,-2.4217458,0.8569534000000001,-0.9716192,-0.0915978,-0.2357237999999999,-160.6104372,73.5752698,71.004065,8.096968319329566,0.9863558688029386,4.576317609680915,1.003991900694383,-116.738013,6.896915999999999,-73.41065060000001
479.61,3.2779018,-5.8410492000000005,-2.8355194,-0.9066476,-0.2527116,0.3241143999999999,-43.654985,66.546411,144.584195,3.9609764,-2.548756,1.6029856000000002,-0.9704406,-0.0953564,-0.2403986,-160.5578432,73.64909800000001,70.97505960000001,7.27342190684964,0.9954512382069148,4.975445107997909,1.0043103544379497,-116.9028582,7.102686999999998,-73.6091354
499.594,3.1891658,-6.373230400000001,-1.6320444000000005,-0.9165244,-0.2620596,0.3259378,-43.3960616,66.4221726,144.803235,2.9595968,-2.5592274,1.830823,-0.9625036,-0.0937728,-0.2542377999999999,-160.5527864,73.71575299999999,70.9183976,7.311115725725122,1.0074361812126662,4.319811449682729,0.9999216854242337,-117.1567248,7.293580399999999,-73.88483740000001
519.578,4.1836924,-7.978890000000002,-0.6181942,-0.9267412,-0.2668592,0.32331,-43.047306000000006,66.29062660000001,145.10111999999998,1.2725807999999998,-2.5592286,1.8515352,-0.955195,-0.0864944,-0.2705528,-160.6066286,73.7738554,70.8374102,9.03040042295088,1.01714917318065,3.405480218181518,0.9965327826239336,-117.5593226,7.483228799999997,-74.2637098
539.562,5.4111858,-10.406416000000002,0.3203585999999999,-0.93763,-0.2622286,0.3227944,-42.5730704,66.14084620000001,145.5073364,-0.6492125999999999,-1.7058292000000002,1.6108616000000002,-0.953453,-0.0792354,-0.2841854,-160.72421880000002,73.8078582,70.7316804,11.733586636650008,1.0257241735619378,2.4343798705062367,0.9980542136554106,-118.1511484,7.667012,-74.77565600000001
559.545,5.5983736,-13.424418,0.8266663999999999,-0.9487144,-0.2635497999999999,0.3388586,-41.9882042,65.9496428,146.0244476,-2.5983554,-0.8789132000000002,0.9379366000000002,-0.9627156,-0.0771806,-0.2918348,-160.8641236,73.8193816,70.6438554,14.568464673423549,1.0413177520052943,2.8989074258180376,1.008932962089533,-118.8759194,7.869738799999996,-75.3805922
579.529,6.4279876,-17.142595800000002,1.213635,-0.9584114,-0.2723906,0.3587386,-41.274836,65.6992232,146.65994880000002,-4.319502,-1.2100390000000003,0.1172308000000002,-0.968127,-0.0741362,-0.294657,-160.9845124,73.8315658,70.6127672,18.348311237308916,1.058981791037164,4.487319352352097,1.014686558464455,-119.7096764,8.132342599999998,-76.04718160000002
599.513,8.394589,-21.3326572,1.1363645999999998,-0.962851,-0.276522,0.3756212,-40.4191872,65.3765898,147.4068054,-5.2715554,-1.7586692000000004,0.1226546000000002,-0.9696956,-0.0765094,-0.297709,-161.1085482,73.8522126,70.597435,22.95305452866276,1.0698774465210676,5.558530187126716,1.0172481966701734,-120.689361,8.4756228,-76.8093704
619.496,10.5960372,-26.1467054,0.8363150000000001,-0.9645332,-0.2794573999999999,0.39325,-39.4183746,64.96740639999999,148.26508180000002,-5.9305298,-2.181998,0.2740982000000002,-0.961421,-0.0832654,-0.3026862,-161.2356904,73.8764496,70.59171740000001,28.224557222344483,1.0784555136012797,6.325142591589163,1.0113764886275536,-121.8173158,8.909043200000001,-77.67336440000001
639.48,12.4826296,-31.4402262,0.4578268,-0.9610716,-0.2839357999999999,0.4037414,-38.2915542,64.46258019999999,149.2256592,-5.6734526,-3.487901,0.4981258000000002,-0.9598634,-0.0886106,-0.3039721999999999,-161.332773,73.92483059999999,70.611183,33.83065873755285,1.080409772689122,6.67844645878616,1.0107367033331478,-123.0412188,9.4622504,-78.6144762
659.464,13.7234364,-36.9294176,0.0706522,-0.9551052,-0.2852752,0.4098018,-37.0663206,63.85898519999999,150.2761536,-5.975483199999999,-5.0963996,0.2753528000000002,-0.9597142,-0.0865908,-0.3028464,-161.387546,74.0026764,70.6812866,39.39694890005316,1.0777501556879128,7.858467250095926,1.0100818057559693,-124.3212254,10.1436912,-79.594867
679.448,13.815400599999998,-42.2570056,-0.8059722,-0.950451,-0.290159,0.4266084,-35.80028900000001,63.14713439999999,151.3796142,-7.637372600000001,-6.6791332,-0.1432501999999998,-0.964729,-0.087483,-0.2955493999999999,-161.4045686,74.1114014,70.8247664,44.46537312565908,1.0814546109904752,10.146960192805189,1.0127708361571042,-125.6042796,10.964266999999998,-80.5548478
699.432,13.6320704,-47.6920998,-1.6213346000000002,-0.947072,-0.2970386,0.4567473999999999,-34.504483400000005,62.3201904,152.5242036,-9.290796,-8.8525238,-1.1709232,-0.9704944,-0.0872042,-0.2873047999999999,-161.3296174,74.2587966,71.097966,49.62860518500267,1.0926094867246576,12.88631557441772,1.0158779459325022,-126.825134,11.9386062,-81.42623760000001
719.415,13.664868000000002,-53.25300159999999,-2.540903,-0.9444148,-0.2939117999999999,0.4887521999999999,-33.1844198,61.375742200000005,153.6980042,-10.8564916,-11.6525652,-2.404322,-0.9783222,-0.083838,-0.2756234,-161.1317934,74.457373,71.5313278,55.03696017152868,1.103259794265666,16.106720643284454,1.0198585175819244,-127.9473736,13.081630799999996,-82.1666764
739.399,14.1280818,-59.4675966,-3.5966462,-0.9444262,-0.2921758,0.5181722,-31.844404399999995,60.3015418,154.8872254,-12.2173092,-14.974391,-3.414636,-0.9724124,-0.0840062,-0.2740361999999999,-160.80211799999998,74.709079,72.1296616,61.228535868627446,1.1161585793268445,19.625360351386718,1.0137745095545854,-128.95771359999998,14.407537199999998,-82.7575638
759.383,15.1400896,-66.4983316,-4.652608,-0.951285,-0.299992,0.5319786000000001,-30.4950072,59.0885558,156.07185980000003,-14.184345400000002,-18.0864792,-4.465736199999999,-0.9638186,-0.0802504,-0.2809004,-160.362085,75.0045686,72.88388979999999,68.3585925826538,1.1304598985134149,23.41493506475139,1.0071203776740296,-129.8670778,15.9160128,-83.18796999999999
779.367,16.166421999999997,-74.08208859999999,-5.8148534000000005,-0.9541298,-0.2989024,0.5514298,-29.1373022,57.7250336,157.2479768,-16.813665399999998,-20.4282912,-5.951168399999999,-0.9623352,-0.0808618,-0.2816843999999999,-159.78919379999996,75.32843319999999,73.82957160000001,76.04815298009429,1.141832362609258,27.11882797726172,1.0059690696346684,-130.6518916,17.6033996,-83.41840520000001
799.35,16.721072999999997,-82.0208588,-6.9774946,-0.9486618,-0.3001508,0.583882,-27.7886734,56.19770200000001,158.4078034,-20.1707424,-22.3971018,-7.2208266,-0.9720164,-0.0867547999999999,-0.2644514,-159.0813354,75.68303840000002,74.9817048,83.99822016836961,1.1536758225098938,30.99402127498122,1.0110770594539074,-131.292662,19.4853364,-83.4260986
819.334,17.494688000000004,-89.9772674,-8.2416038,-0.9433088000000002,-0.3027133999999999,0.6242524,-26.4611784,54.50262300000001,159.5396424,-23.67617,-24.1961108,-7.595138999999999,-0.9793906,-0.0829698,-0.2577968,-158.3271696,76.0667084,76.25306420000001,92.03204219283968,1.1709645398571045,34.69436467416715,1.016144244273735,-131.8659912,21.564085400000003,-83.28657820000001
839.318,17.869918000000002,-98.063185,-9.6829412,-0.9332862,-0.2959842,0.650621,-25.1757956,52.6410942,160.64021,-27.4765636,-24.7585502,-8.6150148,-0.9905069999999998,-0.0731474,-0.2401814,-157.5108244,76.45774839999999,77.66568020000001,100.14729937423978,1.1755583623968144,37.97585858509303,1.021832551880062,-132.33502879999998,23.8166542,-82.9745298
859.302,16.709705800000002,-105.7238662,-11.7102088,-0.9176044,-0.2920718,0.6803136000000001,-23.987346,50.6147134,161.6836822,-31.3703492,-25.0797814,-9.5681734,-0.9995022,-0.0738328,-0.2202594,-156.6149046,76.84999239999999,79.2375078,107.6748770249479,1.1790378982880747,41.2873368748118,1.0261433298760168,-132.6275586,26.235279,-82.4461744
879.286,16.541437600000002,-112.80666039999998,-13.5291098,-0.8953026,-0.3024594,0.7163425999999999,-22.887301,48.4319268,162.66092220000002,-35.317749000000006,-26.0121202,-9.6737356,-1.0040822,-0.0864398,-0.2109298,-155.6553526,77.2512406,80.95204020000001,114.81288516737166,1.1858309975666346,44.91720107247286,1.0296330821748687,-132.7680516,28.8193138,-81.708882
899.269,16.3951016,-119.625296,-14.826096799999998,-0.8712346,-0.2945004,0.7401496,-21.8611178,46.1090036,163.5933226,-36.5406394,-26.282604000000003,-10.166949399999998,-0.9972802,-0.0943837999999999,-0.2116446,-154.5726744,77.63883360000001,82.8148118,121.65041695729988,1.1805090614719906,46.144993887569306,1.0238503483046923,-132.71155660000002,31.52983,-80.7785108
919.253,14.335987800000002,-126.0024628,-15.9897786,-0.8389894,-0.2890246,0.7504128,-20.9498698,43.6583308,164.47213440000002,-37.43323360000001,-25.6277296,-10.2286674,-0.9897346,-0.1066371999999999,-0.1928506,-153.4021576,78.0087356,84.7816864,127.81945938527572,1.1621350193163271,46.50433462573901,1.0139711163447211,-132.4522878,34.3504048,-79.69044799999999
939.237,12.3995474,-131.2851654,-16.8570604,-0.8001256,-0.2979668,0.7749501999999999,-20.1525618,41.0953256,165.2878844,-38.0705116,-25.5525198,-10.0780036,-0.9936282,-0.1213055999999999,-0.1774778,-152.120453,78.370552,86.87097320000001,132.94248348499983,1.1530537724484664,46.94530091688346,1.016617144218727,-131.9678912,37.2752264,-78.4169112
959.221,12.277316,-135.40820920000002,-17.4079636,-0.7523268,-0.289917,0.8065684,-19.4126648,38.442756,166.0550598,-36.7739902,-25.4984438,-10.9501304,-1.0000736,-0.1320956,-0.1584006,-150.59554459999998,78.71522660000001,89.1777894,137.0735306454669,1.1404385405473634,46.069538170340486,1.0211205624394604,-131.1828798,40.2724706,-76.8772704
979.205,11.0735366,-138.7948364,-18.1668926,-0.7121076,-0.2843723999999999,0.8262892000000001,-18.756042,35.7213486,166.7672728,-34.0480046,-24.4154882,-12.3973334,-1.003327,-0.1272264,-0.136921,-148.8330172,79.02116679999999,91.6685762,140.41604541815812,1.1272616102290365,43.69298063438469,1.0205875690145163,-130.0769752,43.2998182,-75.0986966
999.188,10.3965202,-141.33003839999998,-19.2755424,-0.6679234000000001,-0.275882,0.8328066,-18.1770144,32.9472554,167.41355579999998,-31.227895,-23.9804978,-13.978949,-1.0036334,-0.1354894,-0.1193493999999999,-146.75295139999997,79.28648059999999,94.4216966,143.01683090192105,1.102632930396657,41.78105690395386,1.019745879319098,-128.575937,46.3392252,-72.9918592
1019.172,9.9912736,-142.8559814,-20.4689124,-0.6221599999999999,-0.2753953999999999,0.833954,-17.672293000000003,30.1398304,167.9903746,-26.8655186,-23.9216952,-16.6847284,-1.0073562,-0.1398138,-0.1140554,-144.252164,79.4979904,97.5121324,144.6604069700693,1.076292230789185,39.65329434826841,1.0233880234876898,-126.579871,49.35816,-70.4782422
1039.156,8.638617,-143.75293580000002,-21.6103556,-0.5712208000000001,-0.2632332,0.8556796,-17.2437056,27.3049558,168.5078032,-23.5847114,-23.828821800000004,-18.4949382,-1.0048558,-0.1455392,-0.0972212,-141.40549959999998,79.663269,100.8849686,145.62465355821476,1.0619663355262443,38.28986940718477,1.0199847054048017,-124.161794,52.3583132,-67.6228346
1059.14,8.0661362,-144.5746674,-21.8437308,-0.5240454,-0.2689362,0.8801080000000001,-16.8700422,24.4500252,168.9876006,-24.0319866,-24.2287004,-18.869146,-1.0038714,-0.1502514,-0.0768808,-138.3792148,79.8038726,104.4466826,146.4378557009097,1.0590280225733406,38.995012165466186,1.0179606713171978,-121.5091726,55.35384740000001,-64.540918
1079.124,9.3794988,-145.50043639999998,-21.3807658,-0.4791763999999999,-0.2574387999999999,0.8845636000000001,-16.4966736,21.5847218,169.4526336,-24.6858532,-24.5256524,-19.3657086,-0.9959182,-0.1587732,-0.0821906,-135.2620546,79.9037598,108.1127776,147.36176280339515,1.0384303156723422,39.82373216359424,1.0118385665993563,-118.765381,58.319038,-61.339856
1099.107,6.774922600000001,-146.362143,-21.1697082,-0.4465076,-0.2503718,0.8968149999999999,-16.2049202,18.704536,169.89830320000002,-26.2799676,-24.0735812,-18.6298638,-0.9963004,-0.1474254,-0.0746742,-132.253087,79.9808852,111.7009246,148.04030878467387,1.032633632668431,40.214995139333205,1.0099133486349017,-116.0481668,61.276349200000006,-58.1973786
1119.091,5.9535484,-147.7074952,-20.2242824,-0.4038592,-0.2538542,0.9130532,-15.951673999999995,15.8042808,170.349234,-29.9463432,-23.4242122,-17.5385562,-0.991252,-0.153801,-0.0714794,-129.4336182,80.0321562,115.1698866,149.20445863111505,1.0301506464165908,41.869775994425545,1.0056562930392074,-113.4819442,64.2278754,-55.179347400000005
1139.075,6.8442904,-149.1108522,-19.1587098,-0.3631053999999999,-0.2460038,0.9172204,-15.6972312,12.8880138,170.8084656,-31.723909,-22.161098,-16.804778999999996,-0.9880386,-0.1528749999999999,-0.0709211999999999,-126.8161742,80.050369,118.4692976,150.49234769944417,1.016689069135574,42.18911309857943,1.0023077657707735,-111.11894300000002,67.16235520000001,-52.33916800000001
1159.059,6.312613400000001,-150.432953,-18.7698918,-0.3229491999999999,-0.2489556,0.9224364,-15.479418,9.954456,171.2649292,-33.5035866,-20.58414,-15.579894599999998,-0.9859534,-0.1530273999999999,-0.0782418,-124.4818266,80.04150519999999,121.5176726,151.7307855196887,1.008545481669994,42.29574742631235,1.000821298429225,-109.0024086,70.0870492,-49.7472566
1179.043,4.6436748,-151.733426,-18.749038,-0.2757492,-0.2389901999999999,0.9195916,-15.3153582,6.998340799999999,171.7148652,-33.750793400000006,-19.4268056,-14.360964199999998,-0.9852848,-0.1489882,-0.0626386,-122.3382384,80.0259122,124.3767164,152.95791155501266,0.9893445546356638,41.50607333515611,0.9984524100127355,-107.0228802,73.0275714,-47.338148800000006
1199.026,5.5918368,-152.7539186,-18.8136204,-0.2118368,-0.2464738,0.922034,-15.155975800000002,4.021154,172.1574586,-32.66085840000001,-18.3228352,-12.917265,-0.9824696,-0.1602583999999999,-0.06087,-120.3641508,80.0003828,127.0410078,154.00967696547045,0.9776353415648802,39.614564193885,0.9973136049381458,-105.208175,75.9792288,-45.1164508
1219.01,6.729622999999999,-153.3128144,-19.4549198,-0.1552622,-0.2389283999999999,0.909673,-14.997076000000002,1.0255214,172.58111879999998,-29.6086974,-17.4431002,-12.3535522,-0.9817252,-0.1592496,-0.0530138,-118.467311,79.9624556,129.5648178,154.6887222437221,0.9532565751173186,36.51776222977158,0.9959695107811484,-103.470235,78.9369342,-43.01630100000001
1238.994,6.7832076,-153.572284,-20.1076712,-0.0965665999999999,-0.242369,0.896865,-14.8646608,-1.9849292,172.98415540000002,-27.802041600000003,-16.198995000000004,-11.766543799999996,-0.9815332,-0.1582536,-0.0530678,-116.7311402,79.9103286,131.8892702,155.03153472570884,0.934042112873697,34.260947288939256,0.9956243347829742,-101.8664794,81.8952578,-41.09488520000001
1258.978,6.24311,-153.0887482,-20.6278906,-0.0279663999999999,-0.228247,0.8749406000000001,-14.759767,-4.9989876,173.3691988,-24.01767,-14.5857892,-12.025521799999998,-0.9851368,-0.1696684,-0.0436204,-115.0674958,79.8248168,134.0622926,154.59835419085377,0.9046545562071304,30.564798271508543,1.0005921346727449,-100.3077288,84.8238044,-39.3069062
1278.961,5.9419208,-151.3505676,-21.0029166,0.039166,-0.2407187999999999,0.856937,-14.6915344,-7.995014999999999,173.73710640000002,-20.5188228,-13.2764832,-12.129901,-0.9870918,-0.1767036,-0.050952,-113.5245484,79.7115814,136.0426668,152.9163929778041,0.8909660701723944,27.284090483787125,1.0040769343950693,-98.833014,87.7065964,-37.6944396
1298.945,7.229657399999999,-148.5963774,-20.7717666,0.09492,-0.2349921999999999,0.8206749999999999,-14.6181552,-10.9458498,174.09504700000002,-18.3235598,-11.6069156,-13.1377474,-0.9918992,-0.1789676,-0.0519441999999999,-112.1135026,79.5579666,137.84516920000002,150.21523760993583,0.8589171066440812,25.358898640041645,1.0092530033267375,-97.4953474,90.5038164,-36.2498778
1318.929,7.5466292,-144.9006498,-20.1605258,0.1560224,-0.2320345999999999,0.8095341999999999,-14.555927400000002,-13.835064399999998,174.4472352,-16.534309,-8.7551466,-13.4025522,-0.9884624,-0.180116,-0.0558551999999999,-111.004944,79.371202,139.30490719999997,146.49094417497963,0.8564628806133747,23.01443832833418,1.0062899646904964,-96.4490166,93.2062664,-35.142328
1338.913,7.7246748,-140.0975308,-19.146565,0.2036884,-0.2286299999999999,0.7751402000000001,-14.5112206,-16.6354206,174.7973664,-15.5126566,-6.4959424,-14.172228,-0.983884,-0.186135,-0.0637812,-110.1346818,79.1461638,140.5028136,141.61066233981794,0.8334284437494319,21.99299499698996,1.0033653398211642,-95.6234612,95.7815844,-34.2945528
1358.897,7.833906600000001,-134.73692899999998,-17.951714,0.2410747999999999,-0.2241521999999999,0.7454546,-14.482854800000002,-19.3277926,175.1476928,-13.1121746,-3.6667584,-13.6941032,-0.9802238,-0.1824596,-0.0785484,-109.58803559999998,78.90881040000001,141.3247894,136.1531276339488,0.8149011158545802,19.310688811047264,1.0001500161781531,-95.1051808,98.236603,-33.822903399999994
1378.88,9.6212944,-128.35101,-16.2801144,0.2786829999999999,-0.2175387999999999,0.7240956000000001,-14.4361842,-21.8915222,175.5046966,-10.2473416,0.2237334,-11.8520884,-0.9750168,-0.1778868,-0.0896144,-109.47043,78.68061220000001,141.6533966,129.73663013516523,0.8057926420201416,15.669399029406987,0.9951543672133686,-95.0342458,100.5721344,-33.851299999999995
1398.864,10.8294074,-121.640979,-14.5113922,0.3056334,-0.1990928,0.7333132,-14.366299800000002,-24.3089154,175.8596008,-8.1929266,5.431097200000001,-10.561513799999998,-0.9713668,-0.1695952,-0.1060427999999999,-109.8656082,78.4437302,141.418396,122.98123572438128,0.8190225683713728,14.427974106451185,0.9917464733676244,-95.4993084,102.7526456,-34.441204799999994
1418.848,10.306318200000002,-114.5104646,-12.8711734,0.3184706,-0.1946235999999999,0.7194860000000001,-14.320099,-26.5689638,176.2154968,-7.4623238,11.9856692,-9.1623068,-0.9777718,-0.1507406,-0.1265939999999999,-110.9039534,78.19097,140.51358639999998,115.69154594195884,0.810531907414705,16.83123312669637,0.9973898245919696,-96.5838544,104.7599338,-35.70191039999999
1438.831,13.3240928,-106.9074816,-10.889916,0.3385496,-0.1940042,0.706263,-14.2320188,-28.6682054,176.57888780000002,-6.590851599999999,20.3313272,-5.922809199999999,-0.9664512,-0.1356966,-0.1512006,-112.732936,77.9293628,138.7831176,108.2835691205476,0.8068834404341186,22.178409756929984,0.9875743570351349,-98.5009172,106.5975682,-37.79577019999999
1458.815,17.0830856,-98.9711444,-8.658551200000002,0.3625958,-0.1722246,0.6933188,-14.069753,-30.6042634,176.9422882,-4.4794074,28.8860322,-0.8079711999999993,-0.9467156,-0.1227756,-0.1745053999999999,-115.4089538,77.670531,136.143463,100.8071909456146,0.8011416762697094,29.242447988748157,0.9704619569400336,-101.3392008,108.2747944,-40.7988252
1478.799,16.78361,-90.9801242,-6.449311,0.3929258,-0.15465,0.6705548,-13.919644,-32.385822,177.30869760000002,-3.2991096,37.095184,3.8765204,-0.9370226,-0.1157132,-0.1808199999999999,-118.7945556,77.3899584,132.74911779999996,92.73977666812794,0.7924336228408534,37.4428125353623,0.9612995214630038,-104.8749116,109.7757804,-44.5595798
1498.783,17.268405,-82.1017572,-4.5825684,0.4381294,-0.1608468,0.6273712,-13.7785582,-34.002735200000004,177.67550359999998,-1.3028898,42.55881359999999,10.1764472,-0.9209182,-0.1085512,-0.1846713999999999,-122.734323,77.1237688,128.7434094,84.02318894038987,0.7819358584973835,43.77796494225007,0.9455036859212342,-108.9557648,111.126504,-48.9320942
1518.767,19.532727200000004,-71.884578,-2.8496616,0.4937672,-0.1483302,0.5948186,-13.583485,-35.423471,178.0217224,0.7936492,44.1258484,16.7941084,-0.9169502,-0.1202166,-0.1751208,-126.874974,76.8965334,124.4831358,74.54556027921595,0.7871575845622273,47.22036057701586,0.9412316371585902,-113.291489,112.3200044,-53.5385866
1538.751,19.376050600000003,-61.04925380000001,-2.2485772,0.5516833999999999,-0.1421282,0.5742482000000001,-13.363164,-36.63441,178.3160432,3.4351192000000004,42.5397308,21.7820404,-0.9240666,-0.1226966,-0.157682,-130.9401686,76.7185776,120.2411024,64.08977161618643,0.8088980122821665,47.91540487611379,0.9454190340854788,-117.5770046,113.3529876,-58.0749408
1558.734,17.498755600000003,-49.556641,-2.588792,0.6023598,-0.152803,0.5400486,-13.1492686,-37.625026,178.540393,2.6756808,37.487368,23.2466302,-0.9330666,-0.1318426,-0.1375676,-134.600598,76.5812346,116.4232618,52.61909310099022,0.8233095261364343,44.19126432867095,0.9523237872593964,-121.4513294,114.2062606,-62.1171312
1578.718,15.968465999999998,-37.7594088,-4.0836916,0.649533,-0.159947,0.5268608,-12.9004904,-38.3835564,178.6567564,1.5983084000000003,30.05331660000001,23.3183826,-0.9384196,-0.1488848,-0.1252272,-137.7033202,76.502957,113.1958312,41.200016946629816,0.8515036485386542,38.07234423411998,0.958373560233712,-124.8028298,114.8865134,-65.46092519999999
1598.702,13.884104000000002,-26.0861658,-5.801729,0.6835052,-0.1743874,0.5126144,-12.6231656,-38.916848,178.66008900000003,-0.4413463999999996,20.7512226,19.9414714,-0.9421386,-0.1688644,-0.1224508,-140.0083008,76.48064719999999,110.8265762,30.11505353502375,0.8719884441855639,28.78316013985541,0.964953120943168,-127.3851352,115.3974952,-67.83351280000001
1618.686,11.2119132,-15.165838399999998,-7.448661799999999,0.7124332,-0.1878169999999999,0.49455,-12.3340438,-39.244259,178.5586882,-1.0817201999999997,9.950231000000002,15.6715446,-0.9424378,-0.193244,-0.1244836,-141.391864,76.5426756,109.4148224,20.277875001834584,0.887364633311042,18.595013463136784,0.9700661921094872,-129.05782019999998,115.7869346,-69.1438658
1638.67,4.661268600000001,-4.2675806,-8.8142202,0.728567,-0.19846,0.4927037999999999,-12.1156046,-39.3643532,178.3616362,-1.8079731999999995,-0.6099100000000007,9.2078052,-0.94838,-0.2156807999999999,-0.1291374,-141.7609254,76.6660368,109.0595658,10.845743260511489,0.9016392181041372,9.403426710575529,0.9811316425268324,-129.64532079999998,116.03038999999998,-69.3020704
1658.653,-2.2210036000000004,6.9244246,-9.349435799999998,0.7313874,-0.2199918,0.5160868,-11.987915999999998,-39.267672,178.0900726,-1.8787513999999996,-9.678612,1.8644166,-0.957816,-0.2288688,-0.1449234,-141.1620606,76.81998899999999,109.7012774,11.84451192791918,0.9217751928101776,10.034006494312306,0.9953869646207952,-129.17414459999998,116.087661,-68.3887952
1678.637,-4.688223800000001,17.7731458,-8.793043,0.725122,-0.2264489999999999,0.5310841999999999,-11.8828898,-38.9562828,177.7748628,-2.1542392,-18.1073104,-5.1257204000000005,-0.9631882,-0.2307884,-0.1567828,-139.65778519999998,77.0010864,111.2804002,20.37600940387477,0.9268934631200288,18.94171180415701,1.0027839451096334,-127.7748954,115.9573692,-66.4944626
1698.621,-8.433078600000002,28.275129400000004,-7.895137799999999,0.7102685999999999,-0.2167834,0.5471733999999999,-11.8384574,-38.4441276,177.430658,-1.5792935999999995,-25.0460764,-10.4094576,-0.9641834,-0.2316258,-0.1634992,-137.38609019999998,77.197496,113.6364014,30.54395125293241,0.9224289979879644,27.16904339199,1.0050035464921705,-125.5476328,115.6416236,-63.7942566
1718.605,-15.4323954,38.6000358,-6.939474,0.6761008,-0.2194639999999999,0.567312,-11.9237794,-37.7274368,177.06102919999998,-1.5872967999999996,-30.1325748,-17.156414599999998,-0.9642222,-0.2220488,-0.1624228,-134.35345160000003,77.34675,116.7736282,42.145911912543774,0.9094611835590566,34.71072078099183,1.0027019928743135,-122.4296722,115.0741868,-60.287401
1738.589,-21.3358794,48.4733584,-5.8462978,0.6374978,-0.2225219999999999,0.6054628,-12.1274944,-36.8174996,176.673694,-2.4948336,-32.322421199999994,-23.5495276,-0.9595038,-0.2219205999999999,-0.169909,-130.85216359999998,77.38735679999999,120.4108536,53.28288113749556,0.906920441754777,40.0692320503533,0.999382490941181,-118.7246692,114.2048564,-56.2628404
1758.572,-21.0556266,57.04406719999999,-3.2773644,0.6110306000000001,-0.2160644,0.6077174000000001,-12.351685800000002,-35.741139999999994,176.309131,-3.0767137999999994,-34.9412826,-27.348828200000003,-0.9523322,-0.217577,-0.1586,-126.9960892,77.3571306,124.4245406,60.89422083947811,0.8884608361354372,44.47828460556104,0.9896617250787464,-114.64440340000002,113.0982706,-51.8845904
1778.556,-22.4460422,65.32857800000001,-0.9098164000000002,0.5752744,-0.2069341999999999,0.6162559999999999,-12.6206738,-34.5057634,175.9585786,-2.0437571999999995,-36.6801822,-28.029418600000003,-0.9415346,-0.2175418,-0.1510792,-122.97331239999998,77.2863558,128.58968199999998,69.08310705105826,0.8680632787769563,46.20888460860936,0.978078096277102,-110.3526386,111.7921192,-47.3688966
1798.54,-26.2837278,72.9890958,1.236799,0.5348782000000001,-0.2006328,0.6520728,-12.9691248,-33.1029128,175.6107912,-1.9688456,-34.4641532,-29.5651034,-0.9441638,-0.2114752,-0.1373162,-119.105423,77.12207959999999,132.5960434,77.58719046680625,0.8669181886261934,45.45051757507719,0.9772526695936524,-106.1362982,110.2249924,-43.0147478
1818.524,-28.063567,79.719827,3.4063992,0.4998030000000001,-0.1998932,0.6853758,-13.3697206,-31.5597048,175.2734804,-3.555949,-30.5065066,-29.256021800000003,-0.9537162,-0.2034069999999999,-0.1300732,-115.713295,76.88112939999999,136.1504058,84.58379375024023,0.8714931539839427,42.4170547043111,0.983802843637728,-102.3435744,108.4408342,-39.12307460000001
1838.507,-25.5013408,85.2594236,6.0566056,0.4763496,-0.1896426,0.6834148,-13.730293800000002,-29.9035392,174.95446180000002,-3.2919474,-29.2936484,-26.6036544,-0.9565249999999998,-0.206539,-0.1061822,-112.6317094,76.63916,139.38283059999998,89.19736636580664,0.8543588508431104,39.70779749245517,0.9843135139491074,-98.9014156,106.5426992,-35.571631200000006
1858.491,-23.852304,91.1222196,7.578961,0.4498786,-0.1912695999999999,0.6963178,-14.0597576,-28.127531600000005,174.6274048,0.7250178000000005,-26.586968199999998,-16.983957999999998,-0.9435366,-0.194257,-0.1001182,-110.0477676,76.52914559999999,142.025781,94.49672989462948,0.8507839286322703,31.557049263578044,0.9685147141679368,-95.98801,104.65667720000002,-32.601623800000006
1878.475,-23.603134000000004,96.8239806,8.265924,0.405998,-0.1916498,0.7369167999999999,-14.3796848,-26.2246548,174.27591540000003,3.6507526,-22.8075798,-9.461894599999995,-0.9654428,-0.1981388,-0.0763776,-107.8741698,76.516821,144.18648360000003,100.00158325459104,0.8629081016923412,24.960792060775717,0.988520268845834,-93.494485,102.74147580000002,-30.089431800000007
1898.459,-24.4574482,101.2893782,8.716644800000001,0.3775288,-0.1911888,0.754744,-14.7196564,-24.236285,173.9045988,5.5461322,-19.7593056,-7.5532968,-0.9794276,-0.192884,-0.0657582,-106.0034316,76.5117994,145.99725940000002,104.5642616058072,0.8652858820129217,21.868745568115205,1.0004033196491302,-91.2837752,100.7480844,-27.907339400000005
1918.443,-21.175625,105.7162186,9.781341,0.35414,-0.2042194,0.7632046,-15.0068018,-22.1617366,173.5248594,11.7154668,-17.314012799999997,3.2324332,-0.9638178,-0.1896032,-0.0528048,-104.4378158,76.6930312,147.367984,108.25895159746324,0.865795567323788,21.153624416939245,0.9837085299773098,-89.431014,98.8547678,-26.1568754
1938.427,-14.4996756,110.829503,10.8905786,0.3198846,-0.2264129999999999,0.7628188,-15.183375800000002,-19.981807,173.1400388,19.9616846,-13.7499458,16.813386400000002,-0.963355,-0.1945796,-0.0428632,-103.2411086,77.10740039999999,148.1902924,112.30326811796272,0.8576021953794195,29.49948853469361,0.9837435289115756,-88.05773279999998,97.0892074,-24.9497464
1958.41,-11.9413844,115.4413362,10.608279,0.2643684,-0.214006,0.7792716,-15.3020246,-17.6996074,172.7196166,26.730194600000004,-9.2614686,19.5702068,-0.962938,-0.2027248,-0.0315826,-102.26781,77.5441298,148.64288040000002,116.54112728291172,0.8502666908218385,34.3987077980761,0.9845528919269904,-86.96578539999999,95.2437372,-24.0767362
1978.394,-18.533649200000003,117.9729982,10.2064978,0.2266989999999999,-0.1944418,0.8302482,-15.5593622,-15.373049,172.2745544,31.68421,-4.8808276,16.6742888,-0.9578672,-0.2037795999999999,-0.0196301999999999,-101.4695084,77.8987486,148.81294859999997,119.85531717161015,0.8823333405190353,36.135073659407794,0.9795004047799266,-85.9101462,93.2717976,-23.4616058
1998.378,-16.059118,120.16798880000002,12.224814599999998,0.183244,-0.2505788,0.8460025999999999,-15.797009400000002,-12.9915216,171.8532776,36.405568,-2.5848316,23.2382956,-0.9521196,-0.2114554,-0.0122283999999999,-100.8770508,78.3640532,148.6754334,121.85108491588916,0.9011595295796412,43.267367821442086,0.9753946138152906,-85.0800414,91.3555748,-23.177844200000003
2018.362,-5.3012586,121.7696152,14.1450244,0.1395614,-0.2497309999999999,0.8089746,-15.8337998,-10.5701826,171.4560242,39.3828376,-1.6615034000000002,25.12512,-0.9636452,-0.2199517999999999,-0.0049289999999999,-100.293805,78.85557700000001,148.4674896,122.70299199276576,0.8580692630412302,46.74441299225593,0.9884407725540666,-84.4600052,89.42575960000002,-22.9885346
2038.345,-7.686517,123.858641,13.747136800000002,0.098568,-0.2338738,0.8585058,-15.916565,-8.1062644,171.0371186,41.7194136,1.1942442,21.2143938,-0.957876,-0.2092082,-0.01158,-99.9056032,79.26042939999999,148.015268,124.85603415196272,0.8952345020072003,46.81865220869325,0.9805246548268124,-83.9890382,87.36669380000001,-23.021850600000004
2058.329,-16.3374688,124.45251,14.0735392,0.0436387999999999,-0.2199341999999999,0.9435412,-16.1930038,-5.6336520000000005,170.6165344,40.0686942,4.61939,14.160348199999998,-0.9887754,-0.1993096,-0.0010611999999999,-99.7695238,79.51961980000002,147.33907779999998,126.30678777367832,0.9698171958119324,42.74756694842943,1.0086635883399184,-83.57652,85.15327180000001,-23.27745660000001
2078.313,-12.0141928,123.9062116,16.5041798,-0.0013345999999999,-0.279186,0.9219592,-16.4127938,-3.1530568000000003,170.2370422,34.992735200000006,3.9680628,14.317520599999998,-0.9991472,-0.1607694,0.0071795999999999,-99.693927,79.7950182,146.70592059999998,125.5765824211277,0.963304401639378,38.016160186077286,1.0120244433314642,-83.2811332,82.94807500000002,-23.531121600000013
2098.297,-2.6742231999999992,124.244975,17.1918932,-0.039064,-0.2678916,0.8720228000000001,-16.461709,-0.6647166,169.86390980000002,29.6351022,5.4015392,16.960730199999997,-0.9920026,-0.1596364,0.0046078,-99.9683822,80.11417560000001,145.8279572,125.45726951545792,0.9130803191211604,34.56996206319546,1.0047756816486753,-83.5066732,80.7788922,-24.03595260000001
2118.281,-7.511131600000001,125.8099822,16.056182,-0.0780674,-0.2475618,0.9281708,-16.6190358,1.8528308,169.4558318,28.866103599999995,8.7040862,12.0613056,-0.9905266,-0.1698254,-0.0158063999999999,-100.6215912,80.3121416,144.5825624,127.05262570877456,0.9637854521285532,32.472883247404354,1.0051037031439494,-84.0025554,78.4593108,-24.87326940000001
2138.264,-15.639022,125.0100798,16.1809662,-0.1443346,-0.2128835999999999,0.9760092,-16.9617456,4.356174800000001,169.042932,28.243124,11.8014186,7.788262400000001,-1.003388,-0.1640718,-0.0166142,-101.5803726,80.41139240000001,143.039377,127.0193793398645,1.0093294122291097,31.584878747005757,1.016849578718937,-84.618627,76.0552176,-26.00355500000001
2158.248,-14.293849799999998,123.3121108,18.0774834,-0.1868644,-0.2851864,0.945696,-17.304925400000002,6.8435812,168.6576872,26.1207606,9.7205542,10.1997884,-0.9959294,-0.1415504,-0.0009963999999999,-102.4252136,80.56269560000001,141.6561678,125.4471451175104,1.0052813094593571,29.6785948400935,1.0059388044694766,-85.12028819999999,73.71911440000001,-27.0015194
2178.232,-5.505921399999999,122.562648,18.5459874,-0.2350002,-0.276057,0.90296,-17.4824876,9.3092566,168.2737364,22.3188076,11.415776,12.068337199999998,-0.9922476,-0.148011,-0.022819,-103.6498414,80.7433062,139.9668306,124.08010116000004,0.9730207206678796,27.82254260740556,1.0034855567409828,-86.1673538,71.43404960000001,-28.3069058
2198.216,-7.799002,122.902063,18.4730816,-0.2645876,-0.2699053999999999,0.8832508000000001,-17.7190614,11.7777218,167.87571699999998,20.5138248,11.6392612,9.4220252,-1.0123106,-0.1354671999999999,-0.0279557999999999,-104.9562974,80.8712908,138.2318148,124.5270904889865,0.9607223837943822,25.398109537450924,1.0217170057808769,-87.23723599999998,69.093569,-29.6439022
2218.2,-13.364296200000002,124.4536682,18.5333482,-0.3140121999999999,-0.2689866,0.8996422000000001,-18.0920052,14.273393000000002,167.45072620000002,16.498077799999997,17.1822148,11.6559858,-1.0362572,-0.1324782,-0.0480854,-107.1828004,80.995862,135.64840399999997,126.53380946158016,0.9901078429894596,26.519371815674543,1.0457971427194857,-89.0907952,66.722469,-31.802322200000003
2238.183,-17.4540362,124.8424622,19.0878752,-0.3547512,-0.2811557999999999,0.9175064,-18.5750854,16.7753464,167.008081,11.7850444,20.3353582,13.9654198,-1.0246874,-0.139023,-0.031623,-109.8986084,81.115143,132.66332400000002,127.493649753547,1.023090901052316,27.339477222919072,1.0345586867726548,-91.323523,64.3397966,-34.344757
2258.167,-12.5287052,125.4996904,21.1355704,-0.4008136,-0.309291,0.8642272,-18.958771,19.2910308,166.57898260000002,7.235234799999999,23.9650474,14.824792399999998,-0.9897542,-0.1462697999999999,-0.0499999999999999,-113.1785476,81.2129946,129.1988448,127.8821843753762,1.0015992800745217,29.093755158082896,1.0017525796371476,-94.2197766,61.9219638,-37.380137800000014
2278.151,-13.818714000000003,126.732007,22.3822906,-0.4332537999999999,-0.2771202,0.8089527999999999,-19.3844444,21.836151,166.144156,7.805841799999999,27.0522744,13.8748836,-0.9800976,-0.148464,-0.063917,-116.8221648,81.23925799999999,125.354132,129.43309231940916,0.9585974614457936,31.388996660184464,0.9933369255749832,-97.4377204,59.403107,-40.790024
2298.135,-21.3311262,128.9421404,23.398286,-0.4887457999999999,-0.2825752,0.8092179999999999,-19.989588,24.4259166,165.68074059999998,9.1765752,30.118864,13.1499438,-0.987902,-0.1743568,-0.0846232,-120.7456938,81.1806292,121.1957214,132.77263386568572,0.9866888933177872,34.121496494071145,1.0067332026353757,-100.7561058,56.75471259999999,-44.4850192
2318.118,-26.168236200000003,129.4316668,26.54713,-0.5351396,-0.2551746,0.8155795999999998,-20.7072784,27.0396,165.2324464,11.7297238,26.6690818,9.7663198,-0.9954128,-0.1772092,-0.0528354,-123.8435834,81.0594988,117.8155686,134.69255015657737,1.008294873491619,30.72795708984328,1.0124432440693356,-103.136305,54.0198988,-47.4168778
2338.102,-23.966380800000003,131.603255,30.3628546,-0.5638046,-0.2985686,0.7612144,-21.394522200000004,29.7107036,164.79829719999998,13.442514799999998,23.9104308,9.1274242,-0.9970742,-0.1579242,-0.0591576,-126.513577,80.9370088,114.8332306,137.17035785732418,0.993210047600446,28.90881833829521,1.0112352025562796,-105.1190548,51.2263052,-49.96506659999999
2358.086,-24.2419442,134.25804920000002,32.3899068,-0.6105566,-0.2621996,0.7395780000000001,-22.1200998,32.4465854,164.33459779999998,16.1913208,23.992174400000003,7.8605884,-1.0038304,-0.1396506,-0.0825062,-129.0324964,80.7687332,111.9481386,140.2212597864469,0.9942351885382654,29.992868347037813,1.016850547073148,-106.9123966,48.3221478,-52.3864592
2378.07,-28.342697800000003,136.9802218,34.1250076,-0.6605336,-0.2894332,0.736846,-22.970096,35.240736,163.826712,19.6182398,23.9341578,7.632467199999999,-0.9833994,-0.1433912,-0.1074778,-131.398889,80.564032,109.1470628,143.98404712557354,1.0310277599110511,31.874343883516737,0.9995933641489624,-108.428793,45.323296000000006,-54.67964919999999
2398.054,-29.2716352,137.67305919999998,35.4296844,-0.7253494,-0.2728414,0.7261002,-23.8943374,38.0497978,163.26741320000002,26.2748828,24.6520656,5.4036934,-0.9670624,-0.1353248,-0.1255094,-133.4126068,80.29974659999999,106.5665468,145.14118090139746,1.061977251203791,36.43204230978058,0.9845176973915502,-109.51826939999998,42.249948800000006,-56.7008664
2418.037,-30.6949308,137.9467866,35.2554854,-0.780165,-0.327758,0.6477915999999999,-24.9368274,40.85581119999999,162.6100188,32.127376,24.9608398,2.8140338,-0.9772394,-0.1098408,-0.1310705999999999,-135.0691436,79.9942062,104.2293244,145.6517901052793,1.0657000942195511,40.781498236261285,0.9920893853082794,-110.1323162,39.138395,-58.3806944
2438.021,-30.602030000000003,139.201883,34.8622884,-0.8306694,-0.300867,0.664527,-26.0965148,43.672718,161.8193572,32.9852638,24.2110664,1.1388997999999997,-0.9993804,-0.0897796,-0.1355204,-136.4743958,79.6675034,102.1293732,146.72773297284792,1.105499315926681,40.932877457311,1.012515352622606,-110.377881,35.9947854,-59.689984
2458.005,-30.307049800000005,137.90439460000002,35.692310799999994,-0.8492794,-0.2749073999999999,0.6697792,-27.3130732,46.4630852,160.9619354,32.9803314,22.040053,3.0960496,-0.9941638000000002,-0.1052057999999999,-0.12631,-137.7454164,79.3945894,100.1634766,145.63680979689164,1.1159989939922703,39.78758246767821,1.0076627102776403,-110.4323432,32.9315042,-60.798458800000006
2477.989,-30.5522172,135.9206696,36.1111204,-0.8663641999999999,-0.268967,0.6115695999999999,-28.624895,49.2106132,160.0161744,37.1951352,21.054900600000003,1.5634536,-1.0051062,-0.0765564,-0.1284708,-138.6174408,79.11925679999999,98.514888,143.91622360558117,1.0940509813417287,42.76951378004562,1.0161712956544482,-109.99254580000002,29.9086436,-61.501286400000005
2497.973,-31.86998,134.31758440000002,34.05605559999999,-0.9096456,-0.273952,0.5855442,-30.1607294,51.9006636,158.863498,37.7405666,20.8158598,3.4326086000000005,-0.9897966,-0.012652,-0.1293346,-139.5324096,78.8786838,96.8101378,142.18552678554107,1.1159600468014077,43.23694240233791,0.9982909501907348,-109.3716802,26.9780202,-62.05336020000001
2517.956,-27.3011224,130.82409980000003,31.759054400000004,-0.947242,-0.2862753999999999,0.5443932,-31.8314454,54.4885414,157.48465579999998,32.0461006,20.026486,8.1828088,-0.9833034000000002,-0.0127466,-0.144181,-140.83373120000002,78.701346,94.8273514,137.3642381013425,1.1294179772853803,38.66485568356455,0.9938994984524946,-109.0022858,24.2128046,-62.6573044
2537.94,-21.9623742,127.4475494,28.0806782,-0.9791072,-0.3180596,0.4524312,-33.67534,56.9433648,155.8177856,28.235481600000004,20.1551966,10.8910616,-0.971071,-0.0331816,-0.1773642,-142.3689576,78.5332566,92.6824098,132.3395187264115,1.124502916393479,36.36054996756216,0.9876932545386752,-108.6936176,21.5898918,-63.1353758
2557.924,-21.4802612,124.6454346,24.3677122,-1.0127316,-0.3283852,0.4380639999999999,-35.7804844,59.2744096,153.8624908,22.9401736,19.6563128,11.6889616,-0.9737042,-0.073767,-0.2317172,-144.0087648,78.36073300000001,90.537198,128.80866192032713,1.151243762768598,32.39219074060684,1.0036106317504214,-108.2282804,19.0863234,-63.3252928
2577.908,-22.089587,119.8188766,22.7476926,-1.0391895999999998,-0.3380288,0.4539517999999999,-38.1251106,61.48225660000001,151.6815978,17.2921078,17.51952,13.9118878,-0.978992,-0.1068368,-0.2363966,-145.77644379999998,78.2316742,88.3763536,123.94341677612688,1.1833219051047943,28.275275336537565,1.0127797343893683,-107.6513332,16.7494176,-63.3052442
2597.892,-19.523222800000003,112.790753,23.4673704,-1.0387369999999998,-0.3205846,0.4087234,-40.5515724,63.5455326,149.3896056,9.8959334,14.280947800000002,13.5888108,-0.9929518,-0.1155612,-0.2218836,-147.4916874,78.1471312,86.42214220000001,116.84873839411463,1.1613801525055092,22.057441984095917,1.0239824217327365,-106.94011500000002,14.6015986,-62.9674634
2617.875,-20.6633368,106.2141066,23.7236142,-1.036984,-0.3048338,0.4026519999999999,-43.1412346,65.4517008,146.9629668,0.9058718,12.2265666,11.9023624,-0.9698716,-0.0908089999999999,-0.2389538,-149.17730139999998,78.0654494,84.68416300000001,110.77553791003156,1.1534245077084324,17.08729835998671,1.0029935760023592,-106.0360668,12.6137486,-62.27880379999999
2637.859,-19.4844126,97.2374922,24.413834,-1.054613,-0.305355,0.3788318,-45.8067444,67.1818116,144.46918639999998,-5.59334,8.7530428,10.9804454,-0.9583616,-0.0916028,-0.267801,-150.74500460000002,78.0149108,83.2003128,102.13132484351534,1.1614490038246363,15.115270152948408,0.9992824450191248,-104.93826020000002,10.833099199999998,-61.26887359999999
2657.843,-19.4921206,87.10172560000001,23.2439376,-1.0609160000000002,-0.3031254,0.327198,-48.5048288,68.7095566,141.9522918,-6.735460600000001,7.7638734,9.9676158,-0.974661,-0.0762342,-0.2795838,-152.2016024,77.96277620000001,81.853215,92.23304181872858,1.150863283967805,14.317734611375837,1.016829788800997,-103.6967736,9.2532196,-60.09907679999999
2677.827,-19.3060928,76.9867308,20.93022,-1.0736392,-0.3181084,0.2987124,-51.219095800000005,70.02341299999999,139.42298879999998,-7.846022800000002,7.5388856,10.2355614,-0.9747983999999998,-0.0817836,-0.297715,-153.671106,77.91128540000001,80.5146744,82.08383548374358,1.158931915101556,14.938593877643813,1.0225236912152793,-102.4520102,7.887872400000001,-58.9083144
2697.811,-16.729892200000002,66.6142242,18.0415572,-1.0732792,-0.3364392,0.3029148,-53.829443600000005,71.11284020000001,136.95845020000002,-4.0589448,8.071526,12.2462022,-0.9625902,-0.1128552,-0.3375798,-155.1737914,77.848842,79.061583,71.01297025890663,1.1648506138163468,15.218213863046078,1.0262925073638216,-101.3443478,6.7360018,-57.8968672
2717.794,-12.2187844,54.5347106,15.2544424,-1.0781968000000002,-0.3427349999999999,0.3097168,-56.116823,71.9777816,134.7569152,5.6238422,9.668995,14.1191472,-0.9540164,-0.1204631999999999,-0.3546792,-156.65382979999998,77.7523776,77.4319184,57.93126414445272,1.1729876878968,18.0129781839593,1.0249175620194242,-100.5370068,5.7745960000000025,-57.32499680000001
2737.778,-8.2008422,40.8355144,12.2202616,-1.0642986,-0.3387802,0.2830666,-57.924571400000005,72.61547540000001,132.978195,14.5255416,11.827428,14.5738376,-0.9700982,-0.1114398,-0.3375606,-158.03352639999997,77.6210452,75.721161,43.40654147331186,1.152228377497083,23.73343957920319,1.0331778672327627,-100.108955,5.005569800000004,-57.25703400000001
2757.762,-5.9890192,28.918541000000005,7.7789008,-1.0471008000000002,-0.3476443999999999,0.2710266,-59.30727019999999,73.02717120000001,131.611807,22.9863666,12.9527234,14.3032274,-0.982351,-0.0962382,-0.3035962,-159.2295988,77.458562,74.0239182,30.53950985531514,1.136103926636802,30.012137661329856,1.0326886902618233,-99.9223286,4.431390800000003,-57.58788880000001
2777.745,-2.9428461999999995,18.3172754,3.1284676,-1.0382234,-0.3424548,0.3066901999999999,-60.1947228,73.228334,130.70319179999998,28.2998076,13.716313,13.638398,-0.984909,-0.0805044,-0.2887388,-160.2740936,77.273163,72.37266079999999,18.814096612926942,1.1354479279679188,34.278597586794454,1.0295128903155124,-100.0793708,4.044829000000002,-58.33053100000001
2797.729,0.5894490000000001,7.0681976,-0.5979266000000001,-1.033749,-0.3481878,0.340584,-60.5147004,73.2448974,130.31792879999998,31.058061,13.305179999999998,11.6713226,-0.9881782,-0.0732534,-0.276849,-161.0670044,77.0671738,70.9225204,7.117891798505673,1.1427463411124272,35.74703818703574,1.0288379777048475,-100.552304,3.822276400000004,-59.3954084
2817.713,4.5804912,-4.6556712,-3.9141686,-1.029185,-0.3420722,0.3326858,-60.1855538,73.07826539999999,130.5289548,32.1657342,11.951776,9.022236,-0.9863332,-0.0786714,-0.2709553999999999,-161.524002,76.8692474,69.7925368,7.614255694748688,1.1344227588335312,35.48070107282157,1.0258943412405392,-101.3384482,3.7909820000000014,-60.736418
2837.697,7.0686938,-15.5956244,-7.2553438,-1.0255348,-0.3505502,0.3309248,-59.3182098,72.73492139999999,131.2515714,32.118699,10.0278356,6.873850399999999,-0.9839758,-0.0663622,-0.2684236,-161.7610076,76.6975602,68.8904876,18.596503599339105,1.1331894334073715,34.342657608210935,1.0220878365441202,-102.4427978,3.962638800000002,-62.3610838
2857.681,10.473754,-26.3524204,-10.332094800000002,-1.0347596,-0.3474722,0.3461068,-57.9576538,72.22765519999999,132.42215259999998,30.1487584,7.341466200000001,4.8238908,-0.9790516,-0.0614478,-0.2868384,-161.81581419999998,76.5556992,68.21748339999999,30.181149195268212,1.1451001163964831,31.402462984257102,1.022053880821339,-103.8581604,4.328044000000003,-64.2046692
2877.665,14.6363598,-38.4513082,-13.033421,-1.053102,-0.3325708,0.358881,-56.0717904,71.54169019999999,134.0576874,28.6496472,4.9068536,3.242334,-0.9795396,-0.0610074,-0.2965411999999999,-161.711862,76.4465958,67.7390974,43.15780570707557,1.1612160572338122,29.24708920053168,1.0252591936287916,-105.64007159999998,4.904905600000004,-66.31859
2897.648,17.490716199999998,-51.3009136,-15.5844322,-1.0655924,-0.3239522,0.3663676,-53.7281654,70.64440019999999,136.1146332,25.1506428,1.4308497999999998,1.3562992,-0.9872504,-0.056243,-0.2927524,-161.4430754,76.39692540000001,67.5031736,56.3966613939159,1.1724578496271667,25.22779641433775,1.0312761972696354,-107.71491,5.752525199999999,-68.61145959999999
2917.632,22.3596836,-63.754413,-17.3851898,-1.0700744,-0.3364113999999999,0.3881548,-51.0482102,69.5335024,138.43357559999998,19.2223862,-2.8955354,-0.4674492000000002,-0.9888378,-0.0583642,-0.281827,-161.0246702,76.4233598,67.5432646,69.76263650442623,1.1869692499590545,19.444864752144312,1.0298703959622686,-109.97646,6.8898574,-70.89031099999998
2937.616,27.949506199999995,-76.3111742,-18.3285368,-1.0700934,-0.3273452,0.4136879999999999,-48.060400400000006,68.20190740000001,140.97199419999998,15.392164,-7.4551012,-1.8274506,-0.986299,-0.072728,-0.2778142,-160.4139616,76.5251084,67.8588498,83.30969610936975,1.1930601518911776,17.199907621861747,1.0272564475858206,-112.35356120000002,8.323201000000001,-73.1131444
2957.6,31.9015226,-88.745109,-18.8411878,-1.0672652,-0.3200272,0.4427493999999999,-44.893734,66.64702,143.63490000000002,12.120910399999998,-11.3686454,-3.434462000000001,-0.9864368,-0.065227,-0.2541377999999999,-159.6172056,76.7003082,68.4335798,96.16855969252664,1.198957650240925,16.96932810647532,1.0207341197942197,-114.7234716,10.0532882,-75.2013202
2977.583,34.8231188,-100.6080782,-19.1678598,-1.0671212,-0.327731,0.4767832,-41.6930412,64.8658088,146.2965668,6.8534446,-16.7628556,-5.9112242,-0.98718,-0.0500336,-0.2347076,-158.5607238,76.96719820000001,69.3850172,108.17597631345272,1.213868808254286,19.05008142487549,1.015930790470847,-116.8676826,12.1013894,-76.91154959999999
2997.567,39.3207106,-111.7752658,-19.16322,-1.0617586,-0.331962,0.5075824,-38.5152062,62.8636802,148.8727722,-0.1740338000000001,-22.86682,-8.347820800000001,-0.987519,-0.0556454,-0.2101448,-157.1604828,77.3316696,70.8316848,120.02940192935232,1.222771436903774,24.34353829632938,1.0111632028852713,-118.6452766,14.467989400000004,-78.04108740000001
3017.551,41.0831322,-122.3427722,-19.451818,-1.060628,-0.3206953999999999,0.5412701999999999,-35.476926000000006,60.6437828,151.31042459999998,-7.265942799999999,-27.7790284,-9.6207524,-0.9900804,-0.053589,-0.2014325999999999,-155.54095479999998,77.76905960000002,72.64746399999999,130.51417886363495,1.233187221541482,30.28245730390756,1.0117836091417574,-120.0640288,17.125276800000005,-78.66296059999999
3037.535,42.8690622,-132.7518908,-19.8470382,-1.0727906,-0.3228396,0.5714542,-32.6212688,58.2060876,153.5677458,-14.2273528,-30.9884594,-10.3609892,-0.9920628,-0.0388852,-0.1948655999999999,-153.8002872,78.2514174,74.7295884,140.90679873659346,1.2576426286804054,35.63779287334771,1.0117673942098748,-121.1790184,20.045329800000005,-78.8381574
3057.519,44.432647,-143.60399800000002,-20.6911266,-1.0716063999999998,-0.3066306,0.587791,-29.951930200000003,55.5449976,155.6423858,-22.1133068,-32.7365262,-10.1353786,-0.9980824,-0.0369932,-0.184255,-152.0372744,78.7588728,76.9934128,151.7382321005087,1.260103512041102,40.78485484391909,1.015621425069893,-122.08534419999998,23.213875200000004,-78.648973
3077.502,43.8535844,-153.37746280000002,-21.6898082,-1.04517,-0.3005817999999999,0.6373257999999999,-27.5193282,52.6629732,157.5233612,-31.1082246,-33.051550000000006,-10.7000978,-1.0105309999999998,-0.0446834,-0.1550106,-150.16966580000002,79.26053300000001,79.5416582,160.99139958223265,1.2605212900767997,46.63280699353311,1.0233268267317728,-122.6503376,26.59755980000001,-77.981703
3097.486,43.1137102,-162.0543976,-22.3977134,-1.0153478,-0.3046205999999999,0.6757066,-25.327264,49.5872368,159.2056,-41.3758794,-32.2916432,-11.57469,-1.0229144,-0.0529808,-0.1393352,-148.221503,79.72156820000001,82.37512380000001,169.18060572730258,1.257101536946304,53.74650747049105,1.0337190783065966,-122.894239,30.1343314,-76.83047619999999
3117.47,42.8004204,-169.04687800000002,-23.3355326,-0.9673202,-0.2905858,0.7107042,-23.3540742,46.349433,160.6791506,-48.0173692,-31.5021684,-13.23193,-1.028809,-0.0632952,-0.1119206,-146.0266146,80.1346938,85.588135,175.93541437041404,1.2350096908070478,58.93333802115715,1.0368126453358872,-122.6725404,33.7852608,-75.09101560000002
3137.454,41.0598488,-174.6926574,-23.895674000000003,-0.9027666,-0.2726784,0.748915,-21.6038664,42.976219,161.9658022,-54.5083092,-31.022307,-14.7936464,-1.0297564,-0.0814792,-0.0815732,-143.5438294,80.5026488,89.2188066,181.0371204169656,1.2042486126739445,64.4390508717601,1.0361907596248097,-121.939963,37.5264298,-72.7469956
3157.438,38.7405922,-178.67616579999998,-23.6984248,-0.8413458,-0.2710094,0.8066878000000001,-20.0635874,39.5004148,163.0916444,-60.94793460000001,-31.179921200000003,-16.5108888,-1.0260034,-0.103487,-0.0627454,-140.728125,80.8240432,93.3123248,184.35731894068388,1.1966846103860616,70.42334603673737,1.0331164122216432,-120.66453760000002,41.3236284,-69.7793196
3177.422,37.478154800000006,-182.3355744,-22.9289794,-0.7957458,-0.2621635999999999,0.8290898,-18.6818918,35.95410220000001,164.092746,-62.63077700000001,-30.532494199999995,-15.714345599999998,-1.0163096,-0.1204129999999999,-0.0590432,-137.83430779999998,81.1098708,97.5148668,187.55429047429524,1.1786988707242576,71.42680230370812,1.0251197945056958,-119.152416,45.1557686,-66.5778792
3197.405,36.938494,-185.321881,-21.8010632,-0.7376886,-0.2485344,0.8474522,-17.417444,32.3404778,164.99631960000002,-61.4645324,-30.199989800000004,-13.9026582,-1.0141578,-0.1269082,-0.0453484,-134.8699798,81.3823958,101.7613068,190.22076193995383,1.150708064557714,69.879983057359,1.0230729259982594,-117.4525358,49.041918,-63.23501280000001
3217.389,36.1078216,-187.7907072,-20.1527402,-0.678982,-0.2409454,0.8636877999999999,-16.2582098,28.682462800000003,165.82428579999998,-60.4114386,-28.8304276,-12.7884302,-1.0068853999999998,-0.143979,-0.0436102,-131.918071,81.6071868,105.969374,192.28951460998144,1.1247345722320443,68.14895022156016,1.0180618894341342,-115.6598612,52.924724000000005,-59.8549118
3237.373,33.2114902,-189.5218352,-18.643532800000003,-0.6202038,-0.2230882,0.8824881999999998,-15.229925599999998,24.994042,166.5861876,-59.303942000000006,-28.94508560000001,-13.295588,-1.0098048,-0.155346,-0.0306574,-128.67816480000002,81.7823638,110.4416198,193.3109164381188,1.1014565455127676,67.31677485884508,1.0221438206014848,-113.4482392,56.788321800000006,-56.1445678
3257.357,30.185343600000003,-190.9489928,-17.3629836,-0.5651278,-0.2232057999999999,0.8933576000000001,-14.3332854,21.276159,167.28960560000002,-56.7148506,-29.124426600000003,-13.275012,-1.0189698,-0.1510734,-0.0152646,-125.2058276,81.923767,115.0930998,194.09828958308307,1.0804064332297545,65.12320974091534,1.030221157573829,-110.8725422,60.647608000000005,-52.1965058
3277.341,30.83387800000001,-191.8182464,-16.0607182,-0.4937588,-0.1980128,0.9026268,-13.4815708,17.530400800000002,167.94497059999998,-57.2790092,-30.5225422,-14.618373,-1.0212282,-0.1550096,0.0051192,-121.3142886,82.0172606,120.1755904,194.9433619120944,1.0477318176038752,66.52974753034611,1.0329381485723332,-107.8327178,64.4868598,-47.76938020000001
3297.324,31.255599,-192.6065094,-13.782842,-0.432812,-0.181079,0.9221068,-12.6718874,13.762740400000002,168.57790519999998,-55.520678,-30.5043134,-16.9635706,-1.0125708,-0.1647166,0.0078374,-117.1833818,82.0155898,125.4612532,195.61223547032543,1.03459981741311,65.58064919689564,1.0259106238688438,-104.5114944,68.2528494,-43.11665200000001
3317.308,30.0084806,-193.9122254,-11.443658799999998,-0.3771384,-0.1574544,0.9178854,-11.9353842,9.9563044,169.1978516,-54.8853302,-30.465271,-17.598351400000002,-1.0001926,-0.1622542,0.0051728,-113.121338,81.9585662,130.6643568,196.55385367433476,1.004758114357421,65.193820107924,1.0132810174735538,-101.1859538,72.0022618,-38.533494800000014
3337.292,26.353659400000005,-194.752179,-8.8920574,-0.3086386,-0.1520273999999999,0.8814949999999999,-11.324907,6.1287006,169.81625979999998,-55.1366036,-28.6602868,-18.900261800000003,-1.0005532,-0.1511042,0.0136768,-109.3735108,81.8206648,135.55425859999997,196.7282269371229,0.9462576556021726,64.95134326640463,1.0119912253305954,-98.0486038,75.6919642,-34.26200120000001
3357.276,26.177904,-194.3266938,-6.4358384,-0.2223139999999999,-0.1458156,0.8812198,-10.7626858,2.312479,170.438379,-54.2528862,-28.1413538,-17.500567,-0.9879498,-0.1649062,0.0134084,-105.8353424,81.6538542,140.21522199999998,196.1875801292811,0.9204531708410808,63.57343234440322,1.0017078652526594,-95.0726566,79.34137519999999,-30.223157000000004
3377.259,24.4664,-193.0121278,-3.8409524,-0.1561148,-0.1416918,0.875051,-10.2720604,-1.4724302000000002,171.06939719999997,-51.2770568,-25.5963434,-16.248680999999998,-0.9895098,-0.1744916,0.0200091999999999,-102.7408432,81.4555144,144.3686186,194.5945505973448,0.9000903563350071,59.569530665944576,1.0049762837257603,-92.4687828,82.9279446,-26.7007786
3397.243,20.7535364,-191.1150788,-2.879184,-0.0875864,-0.1303442,0.8498833999999998,-9.8971364,-5.2124932,171.6849886,-47.637367,-23.333927,-16.436801199999998,-0.9848006,-0.16353,0.0287405999999999,-100.0608566,81.2217712,148.0313384,192.2601683093568,0.8642700859882632,55.5334072214405,0.998699306472534,-90.1637202,86.4342644,-23.6536502
3417.227,19.1620218,-187.6386934,-1.8633058,-0.0204916,-0.1494912,0.8115095999999999,-9.5962922,-8.877822,172.2918152,-43.717881600000005,-21.3837154,-14.870091399999998,-0.9869986,-0.159347,0.0279833999999999,-97.7467482,80.99882799999999,151.24772339999998,188.62379025146103,0.8254182911955368,50.88846700524757,1.0001703722299118,-88.15045599999999,89.87665,-21.0440918
3437.211,22.557437,-183.3631196,-1.5929576,0.038266,-0.1401406,0.8014294,-9.2519514,-12.4588604,172.8725708,-37.2784768,-18.0631652,-11.9193738,-0.974871,-0.1647238,0.0017891999999999,-96.0001982,80.80716240000001,153.76407160000002,184.75229121006396,0.8144892618744092,43.104921312476094,0.9886913563716838,-86.74824679999999,93.2660228,-19.108499199999997
3457.195,22.4734878,-178.772702,-0.6418052000000001,0.0922414,-0.1266837999999999,0.7703746,-8.9416488,-15.9512554,173.4450622,-31.4058678,-11.4944078,-12.3212074,-0.9842164,-0.1702148,-0.0115504,-95.0428908,80.58189239999999,155.3648774,180.1808773099751,0.7861515664180541,35.640736450550406,0.9988935938868364,-86.101242,96.5331478,-18.080184799999994
3477.179,20.718582,-173.4474914,0.4675174000000001,0.1475002,-0.1290038,0.7468524000000001,-8.7066922,-19.3298348,174.0176696,-27.6880628,-3.8961488,-11.396016200000002,-0.9786664,-0.1617124,-0.0486008,-95.08822,80.3594636,155.8793214,174.68116809079075,0.7721313339065059,30.19400573489956,0.993126809910678,-86.3815278,99.6892984,-18.1383482
3497.162,22.370687,-166.3816468,3.0792548,0.2026456,-0.1451492,0.6982684,-8.4871076,-22.5724078,174.62336420000003,-25.617855,5.8730816,-7.237036599999999,-0.973238,-0.164932,-0.081588,-96.349504,80.19027559999999,155.1224336,167.90706309996384,0.7414258478759423,27.26063610833436,0.990480373865126,-87.8623964,102.7626834,-19.500930600000004
3517.146,23.5591948,-158.62830820000002,6.2061014,0.2631764,-0.1152006,0.6761696,-8.285737399999999,-25.66729,175.269806,-22.9977946,16.8547436,-4.2588692,-0.9700314,-0.1668354,-0.0975582,-98.8481628,80.0331316,153.0581422,160.48829090187738,0.7346688531042268,28.829132923975333,0.9890968456457436,-90.5624254,105.7004216,-22.211663800000007
3537.13,20.2199892,-149.7730622,10.0599168,0.3266201999999999,-0.1157711999999999,0.6459545999999999,-8.2177718,-28.596572,175.98371600000002,-19.7457412,27.7185208,0.5591718,-0.963682,-0.1666614,-0.108243,-102.5422898,79.90141159999999,149.71429159999997,151.46623402605647,0.7330355182790531,34.037088065510616,0.9839591284311356,-94.324518,108.4979836,-26.2694244
3557.114,19.1876312,-139.40714280000003,13.262184,0.3819032,-0.1238674,0.5761974,-8.223668,-31.318627400000004,176.7513674,-14.7143264,36.0180892,6.494645800000001,-0.9427744,-0.1469436,-0.1176321999999999,-107.1562638,79.8137864,145.33407599999998,141.34497578328234,0.7022795958304355,39.44609708313804,0.9613809470512508,-98.9325958,111.1324138,-31.4172914
3577.098,20.7807286,-126.97110000000002,15.168382,0.4451375999999999,-0.1346778,0.5132394,-8.2310778,-33.804772400000004,177.5380098,-8.0773848,40.558628,11.8476134,-0.9266138,-0.1384824,-0.1165936,-112.2177872,79.75088500000001,140.3624206,129.55145205228226,0.6926039809725035,43.01874467863416,0.9441316523775484,-103.9867094,113.5556574,-37.175589200000005
3597.081,18.6302532,-112.823877,15.2370096,0.5067698,-0.1213542,0.4924806,-8.2839108,-36.010134,178.29387219999998,-1.4494475999999998,41.2882842,14.6072022,-0.923431,-0.1359273999999999,-0.105746,-117.1979508,79.67813559999999,135.33549799999997,115.36238562528834,0.7169934542421152,43.8200144527224,0.9393525889397228,-108.91404,115.6882696,-42.9583742
3617.065,13.081353399999998,-97.7943816,13.5723174,0.5578562,-0.1406722,0.4671366,-8.4293666,-37.9157888,106.9794586,2.1686352,37.896527,14.4423578,-0.9188032,-0.1317114,-0.1009005999999999,-121.59350279999998,79.5817,130.8252684,99.5945313704947,0.7410862370809757,40.61319288255516,0.9336638283132532,-113.1641362,117.4974888,23.84580980000002
3637.049,10.5289618,-81.836885,11.1830858,0.5970666,-0.164551,0.4282671999999999,-8.5801436,-39.5011336,35.5659882,3.334115,31.3471392,12.6060542,-0.9191034,-0.1362878,-0.0992268,-125.1202652,79.471904,127.1713392,83.26581646209472,0.7529796484848711,33.95102445215371,0.9344363981345334,-116.5401216,118.9730376,91.605351
3657.033,4.935812,-64.5972934,8.026762399999999,0.6300779999999999,-0.1637558,0.4067375999999999,-8.7695638,-40.7544074,-35.980188000000005,1.8082146,22.9495602,7.539134200000001,-0.9216378,-0.1415912,-0.1029982,-127.5512344,79.33902900000001,124.6608122,65.28094261981119,0.7676260309365491,24.22375895476767,0.9381220237844968,-118.7816706,120.0934364,160.6410002
3677.017,-4.0344894,-46.529861200000006,4.888636,0.6651518000000001,-0.1617546,0.388463,-9.0509036,-41.6596916,-107.6703644,-0.3363946000000001,12.642341,2.2175334,-0.9285548,-0.1527919999999999,-0.102309,-128.7450958,79.2227494,123.4507278,46.95959805993312,0.7870800277185288,12.839758629635751,0.946586785956808,-119.6941922,120.882441,231.1210922
3697.0,-11.0237878,-28.478552200000003,1.7217246,0.6913536,-0.1677152,0.3876389999999999,-9.3751614,-42.2177926,-179.51165759999998,-2.4656928,2.5413408000000004,-1.6085324,-0.9331568,-0.156625,-0.1088369999999999,-128.870001,79.1594346,123.37210380000002,30.58620879523644,0.8101618251096505,3.88914264685242,0.952448684486592,-119.4948396,121.37722720000002,302.8837614
3716.985,-15.9483196,-10.4485574,-0.8912000000000001,0.703174,-0.1738922,0.3849238,-9.70398,-42.4282006,-179.4955168,-3.2102796000000007,-7.2910894,-4.459469199999999,-0.9357652,-0.1609108,-0.1090981999999999,-127.9949172,79.1662598,124.3270812,19.08705024996893,0.82027952754124,9.129772466754972,0.9557464163317172,-118.2909372,121.5944604,303.822598
3736.968,-22.0377412,7.2893104,-3.7408046,0.7070812,-0.1660898,0.4055259999999999,-10.0521088,-42.298671,-107.6332488,-4.402876000000001,-16.3142228,-7.953342600000001,-0.9342874,-0.1640022,-0.113873,-126.1817426,79.2149292,126.2623458,23.511480224798834,0.8318659638027511,18.676049934405043,0.955383026609014,-116.1296338,121.5136002,233.8955946
3756.952,-26.950250600000004,23.6765408,-5.567853400000001,0.6950598,-0.1797026,0.435118,-10.4174952,-41.8549218,-35.8956542,-5.611320600000001,-23.5468844,-9.4911082,-0.9347726,-0.171407,-0.1111424,-123.6647932,79.30338900000001,128.93858640000002,36.30283161326065,0.8394812826661473,26.00045804763937,0.9568347853404576,-113.247298,121.1583108,164.8342406
3776.936,-29.1187794,38.2205572,-6.1849526,0.6746354,-0.1798508,0.4662454,-10.779101,-41.1419114,35.7590332,-7.509409600000001,-27.3385982,-11.8143312,-0.9326388,-0.1791236,-0.116176,-120.7261564,79.3635072,132.08254240000002,48.4455152216238,0.8395617941610731,30.71430620712291,0.95676395120134,-109.9470554,120.5054186,96.32350920000002
3796.919,-33.7762908,51.6222312,-5.856232400000001,0.6482829999999999,-0.1786726,0.4714816,-11.1975728,-40.1661736,107.3524292,-9.4905284,-31.717149,-16.962839,-0.9312428,-0.1829708,-0.1056608,-117.1792952,79.3400438,135.8844604,61.9676369744339,0.8212731854981752,37.19926850005694,0.9549113418852664,-105.9817224,119.5062174,28.5320312
3816.903,-38.3960736,65.0166534,-5.3050254,0.6210049999999999,-0.1981014,0.4873969999999999,-11.6773786,-38.928209,178.8873506,-9.6370254,-35.0651432,-21.0780934,-0.9345348,-0.1859842,-0.1044294,-113.229045,79.2220048,140.1009674,75.69390320050218,0.8139086007138393,42.03239878446001,0.958567115357626,-101.55166640000002,118.1502138,-38.7863832
3836.887,-39.2241666,77.2277892,-3.7209448,0.590543,-0.2006068,0.5230686,-12.1657818,-37.4561456,178.3937624,-8.385095000000002,-37.664906,-22.9991828,-0.9434504,-0.2048716,-0.0889376,-109.0074768,79.0266006,144.56884159999998,86.69782062075632,0.8139931715691477,44.92123519690522,0.969526134996102,-96.841695,116.4827462,-33.8249208
3856.871,-37.979289,88.39213860000001,-1.8864154,0.5715593999999999,-0.1898747999999999,0.5738456,-12.6279944,-35.7646912,177.8796602,-6.1005472,-36.1901746,-23.4593662,-0.946937,-0.2020708,-0.0815474,-104.98063340000002,78.77231739999999,148.7941804,96.22450375184322,0.8318842227394145,43.55786124482715,0.9716852724150964,-92.352639,114.5370086,-29.0854798
3876.855,-36.9249068,99.0627076,0.3415837999999997,0.5258425999999999,-0.2144536,0.5749218,-13.0679264,-33.8450458,177.35003999999998,-0.9811728000000002,-35.5139974,-23.3937,-0.9549868,-0.208672,-0.0653124,-101.046878,78.4735152,152.8227662,105.72126303976984,0.8081063436472702,42.53788794804776,0.9796986788559022,-87.9789516,112.318561,-24.5272738
3896.838,-34.8816496,108.2830796,2.2451934,0.4874748,-0.2104861999999999,0.5946162,-13.4768124,-31.751091599999995,176.81029999999998,5.8057824,-33.1006642,-21.1407088,-0.9535502,-0.2264456,-0.0589154,-97.4833572,78.1533736,156.3397982,113.78486586484392,0.7971853901872011,39.70252697655035,0.98183838692351,-84.0065448,109.9044652,-20.470501800000005
3916.822,-34.7703306,116.24246680000002,4.9062262,0.4636165999999999,-0.1909422,0.6462032,-13.9013826,-29.501821,176.2796664,14.6355236,-28.1594834,-13.0480118,-0.951044,-0.2102466,-0.0429699999999999,-94.4121046,77.95748280000001,159.1776522,121.43046583665884,0.817910662130431,34.313345338715834,0.9749537135923736,-80.510722,107.4593038,-17.102014200000006
3936.806,-31.5276646,123.7738846,7.623995199999999,0.4203571999999999,-0.2181108,0.6905330000000001,-14.2920142,-27.083008,175.7628634,24.2200398,-22.11195,-0.7129506000000007,-0.9694764,-0.2081374,-0.036305,-91.8254286,77.9747986,161.32855239999998,127.95348157402296,0.8373221129036782,32.80330713928284,0.9922316868860416,-77.5334144,105.0578066,-14.434311000000005
3956.79,-26.331678,130.2917846,10.7505324,0.3530204,-0.2401614,0.6785304,-14.610486,-24.5170492,175.2716312,32.066062599999995,-17.636065199999997,6.6599738,-0.977931,-0.2261906,-0.0109733999999999,-89.4710098,78.113475,163.081009,133.35996530980327,0.8016884710349026,37.19702162031869,1.0038085692984096,-74.8605238,102.6305242,-12.190622200000002
3976.774,-25.7778972,135.4410918,12.3686078,0.3262402,-0.2130376,0.7156088,-14.9315516,-21.848421,174.77885759999998,37.947705,-10.9701756,8.9629944,-0.9754762,-0.2207334,0.0099082,-87.63209839999999,78.29000699999999,164.18577880000004,138.42605170610054,0.8148089602767264,40.50565807484544,1.000187593938877,-72.70054680000001,100.138428,-10.5930788
3996.758,-28.491302800000007,139.9782562,14.656234799999998,0.2861086,-0.2195248,0.797706,-15.321417200000004,-19.0653494,174.296341,41.0546424,-4.1670078,14.920568799999998,-0.9812872,-0.2077306,0.0273756,-86.3336654,78.58896179999999,164.67424,143.5982999988052,0.8754336818086222,43.88018903688397,1.003407192786438,-71.0122482,97.6543112,-9.622100999999995
4016.741,-19.5010188,142.912558,17.7519654,0.2240743999999999,-0.2614226,0.818196,-15.5724306,-16.2004182,173.8542176,42.1352674,0.0910550000000002,19.8370526,-0.9980722,-0.2140642,0.0473125999999999,-85.2918564,78.9812684,164.8768798,145.32522576588042,0.8876912790729219,46.5714258503827,1.0218659795947995,-69.7194258,95.1816866,-8.977337799999997
4036.725,-13.314849,144.9185914,19.264832,0.1608136,-0.2431827999999999,0.8088496,-15.7214202,-13.2863888,173.42623600000002,42.3159184,4.397901200000001,14.9907312,-0.9864374,-0.2113471999999999,0.0637124,-84.63615420000001,79.2772644,164.6807128,146.79855956119317,0.8597886737919731,45.10765463766736,1.01083413722547,-68.914734,92.5636532,-8.745523199999997
4056.709,-18.1267766,146.2214266,19.3296158,0.1248157999999999,-0.227386,0.8541384000000001,-15.978659399999998,-10.3427118,172.98583680000002,42.7335218,8.900243800000002,10.43009,-0.986921,-0.2132114,0.0576439999999999,-84.51819,79.4868714,163.9303192,148.6032290154595,0.8926565875409199,44.87933825869777,1.01133327447828,-68.53953059999999,89.8295832,-9.055517599999996
4076.693,-17.7968976,146.2066164,21.5455726,0.0688071999999999,-0.2372302,0.9474542,-16.253653,-7.380568599999999,172.5793122,41.5229246,10.0411412,10.048614400000002,-0.9867614,-0.19339,0.0561454,-84.56595300000001,79.70058279999999,163.03679200000002,148.8533370199792,0.9791231075107562,43.8856746022607,1.0070998255243222,-68.3123,87.0811514,-9.542520199999997
4096.677,-7.2496786,145.220151,24.1313312,-0.0004918,-0.2815688,0.9005324,-16.353494599999998,-4.4297552,172.2245668,35.8590602,10.3603546,11.1393662,-1.000001,-0.1626038,0.0675972,-84.76094359999999,79.9450194,162.1095612,147.38986139402598,0.943525216647886,38.95246622747612,1.0153873040486965,-68.407449,84.3747746,-10.115005599999996
4116.66,-6.0957232,144.80932639999995,23.7319736,-0.0474482,-0.2515882,0.8805582,-16.4408484,-1.485059,171.8613556,31.2607898,12.4207046,6.116225399999999,-0.9944024,-0.1796268,0.0620804,-85.3680114,80.0790618,160.85770580000002,146.8676459425419,0.9170227356231252,34.1894588261331,1.0124010551496674,-68.927163,81.5641208,-11.003649799999994
4136.644,-12.4432094,145.333185,23.888106,-0.0841218,-0.2524268,0.9250122,-16.666391400000002,1.4671004,171.4909088,30.4763592,14.6460832,3.982571399999999,-0.9883324,-0.1793353999999999,0.0463819999999999,-86.3346114,80.16864319999999,159.25862139999998,147.8080164628553,0.9625192656473532,34.046689973400426,1.0055413509681836,-69.66821999999999,78.7015428,-12.232287399999995
4156.628,-8.3891856,144.3697114,25.9458956,-0.1386554,-0.2595,0.9602698,-16.8269786,4.409850799999999,171.15620099999998,29.7869602,14.5530862,4.387004199999999,-0.9860548,-0.1648288,0.0550211999999999,-87.277342,80.26724540000001,157.6969606,146.92236556507194,1.004332444333648,33.44100958033163,1.0012491869469458,-70.45036339999999,75.85739459999999,-13.4592404
4176.612,-1.6623046,143.72858279999997,26.0268352,-0.2040532,-0.2903752,0.8939284000000001,-16.882697999999998,7.3393546,170.8199462,24.7563928,15.829478,7.551250999999999,-0.9966978,-0.146664,0.0466541999999999,-88.5151778,80.4237122,155.9405702,146.07554525247403,0.961802188358833,30.33929382641225,1.0085105095131532,-71.63247980000001,73.0843576,-14.879376000000002
4196.596,-0.2887589999999996,143.9713684,25.0288576,-0.253465,-0.263738,0.8749410000000001,-16.9285484,10.2682568,170.4585754,25.2506796,18.3350162,4.402598399999999,-1.0000524,-0.1499078,0.0331598,-90.1094206,80.5078676,153.81367500000002,146.13104397591113,0.9483269438068288,31.514322331089417,1.0117691058648903,-73.18087220000001,70.23961080000001,-16.644900400000004
4216.579,-1.9366494,145.6306916,25.0087824,-0.3037662,-0.27356,0.8852981999999999,-17.0337054,13.226281599999998,170.079004,21.6430288,23.2856856,5.574077599999998,-1.0274168,-0.1612332,0.0079017999999999,-92.491069,80.59065419999999,150.96439819999998,147.7751269460574,0.9751214697593732,32.275597447460186,1.0400210883187513,-75.4573636,67.3643726,-19.11460580000001
4236.563,-0.2133311999999996,145.50519719999997,26.0987258,-0.354162,-0.2424892,0.9312908,-17.1301924,16.1804992,169.7106874,13.7029796,28.1649408,8.842891599999998,-1.0078584000000002,-0.1623266,0.0078424,-95.6898956,80.69407220000001,147.44818719999998,147.82743794977765,1.0254434594482915,32.5458487680821,1.0208770654470989,-78.5597032,64.513573,-22.26250020000001
4256.547,1.0752232000000002,145.433307,27.421839,-0.4261806,-0.2681492,0.8998356000000001,-17.218043,19.1369646,169.3585696,8.068133399999999,31.7272332,9.960799599999998,-0.9797428,-0.1371569999999999,0.0036224,-99.5132172,80.7829364,143.41533199999998,147.99986535138467,1.031134328933122,34.218849071217136,0.989303350132102,-82.29517419999999,61.645971800000005,-25.94323760000001
4276.531,0.9529094000000002,144.5818636,27.8899812,-0.4956476,-0.2377504,0.8385614,-17.319114199999998,22.0742888,169.012076,8.0963212,33.743913199999994,9.787924199999996,-0.977044,-0.1372834,-0.0224244,-103.6465378,80.82639040000001,139.0680482,147.25037986270175,1.0026849044719284,36.05558979087222,0.9868964300102214,-86.3274236,58.7521016,-29.944027800000004
4296.514,-5.359244200000001,145.2856722,26.6863168,-0.530991,-0.2483424,0.8293216000000001,-17.5900264,25.018867,168.6142426,7.251253,34.2621158,12.373615999999998,-0.9807348,-0.151105,-0.0451736,-107.9601212,80.8806108,134.555745,147.8134214114234,1.0155785080166475,37.14269271442331,0.9933348494304424,-90.3700948,55.8617438,-34.058497599999995
4316.498,-7.7534486,146.2012606,25.849017,-0.5991032000000001,-0.2483295999999999,0.8340723999999999,-17.9592816,27.9810968,168.1593476,9.8242026,31.9058704,11.074410999999998,-0.9898412,-0.1383935999999999,-0.0354159999999999,-111.8620422,80.8808,130.4050218,148.67110091099832,1.0565363235252063,35.17303088595528,1.0000963367568148,-93.9027606,52.8997032,-37.7543258
4336.482,-9.5240274,146.6826174,25.7933598,-0.6384144,-0.2316664,0.8082274,-18.4098,30.948944600000004,167.6600098,11.13426,27.0880996,9.447568399999998,-1.0071494,-0.1530526,-0.0380378,-115.142517,80.84761820000001,126.8558138,149.23737720491803,1.0556864104112926,30.773258429353863,1.0194223298103493,-96.732717,49.89867360000001,-40.804196000000005
4356.466,-10.7342092,148.1121798,26.043571199999995,-0.658653,-0.2446526,0.7745824,-18.9237848,33.936446800000006,167.11460259999998,18.2674636,23.2018604,11.3457822,-1.0229832,-0.1761526,-0.0432488,-117.8939606,80.8493044,123.69679420000004,150.76706753501034,1.0457803610154095,31.63468549121755,1.0389392786252911,-98.9701758,46.9128576,-43.4178084
4376.45,-14.156875000000005,151.1157442,25.2020548,-0.6824730000000001,-0.2522588,0.741797,-19.5861616,36.9706668,166.4695068,28.2253402,20.89039,10.665516199999995,-1.0182602,-0.1656214,-0.0509858,-120.1155228,80.8384232,120.8719222,153.85554530476847,1.0390701069299608,36.69920243779554,1.032900689729482,-100.5293612,43.8677564,-45.597584600000005
4396.434,-17.3843008,153.8542116,23.6916714,-0.7309596,-0.2514382,0.7039432,-20.4380564,40.0341856,165.6787994,40.84170279999999,21.372629,8.719408999999997,-0.9961014,-0.1502679999999999,-0.0626873999999999,-122.0311784,80.7724046,118.1011566,156.63533329069796,1.0454946839069246,46.913346195773,1.009320653224098,-101.593122,40.738219,-47.5776428
4416.417,-22.5090162,155.69227619999998,22.411804,-0.7816292,-0.2552882,0.6743422000000001,-21.550495,43.1048406,164.7162414,47.9160022,21.6850396,5.676664199999999,-0.972156,-0.1412474,-0.0688416,-123.57700359999998,80.637581,115.5601562,158.89943246331424,1.0634160399640022,52.89998795579763,0.9847727058734518,-102.0265086,37.5327404,-49.15608520000001
4436.401,-24.9749258,157.1382052,20.584263799999995,-0.8460364,-0.3140413999999999,0.5968836,-22.8887708,46.1711988,163.552417,52.1457086,22.0148066,2.2791291999999985,-0.9793052,-0.112988,-0.0820242,-124.7953584,80.43452319999999,113.2634856,160.43651195529276,1.0819748716989133,56.648222081031015,0.9892082350428952,-101.9065876,34.2633244,-50.2889314
4456.385,-28.3992776,157.9495942,16.7346204,-0.9043242,-0.2753112,0.5828396,-24.5302136,49.2062026,162.11064459999997,52.6482538,23.7311152,0.5500759999999978,-0.9734572,-0.0777422,-0.1098624,-126.0698838,80.1733246,110.8992462,161.35253575967943,1.110540640804847,57.75211719435627,0.9827169057396132,-101.5396702,30.967122,-51.21139840000001
4476.369,-31.776851600000004,156.8470674,14.991000199999998,-0.929918,-0.2646461999999999,0.6023738,-26.473399800000003,52.1877036,160.417862,48.6360102,23.5222736,2.945426999999998,-0.9786124,-0.0800682,-0.0805438,-127.5019578,79.9437364,108.4548814,160.734255641369,1.1391397161125056,54.10577033644461,0.9851804148497066,-101.028558,27.756032800000003,-51.9629806
4496.353,-31.283940800000003,154.3121338,14.686400799999998,-0.9625086,-0.2423698,0.5865077999999999,-28.6784844,55.09469220000001,158.4567232,36.3582974,22.293837,6.605826199999998,-0.9950218,-0.0676334,-0.0584569999999999,-129.1976868,79.7762742,105.9893754,158.13478415056332,1.152890855409496,43.15759374425342,0.999029469094781,-100.5192024,24.681582,-52.467347800000006
4516.336,-31.3593634,151.039212,14.099701,-0.9954042,-0.256978,0.5445376000000001,-31.238606200000003,57.87560880000001,156.1468262,26.3029888,18.6341852,10.782751799999998,-1.0005894,-0.0587684,-0.0882754,-131.0872392,79.7046646,103.5335344,154.90337247046497,1.163352230270523,33.990407680126864,1.0061935293352269,-99.848633,21.8290558,-52.6132918
4536.32,-30.4163146,146.94114380000002,13.5686548,-1.05021,-0.2762806,0.5314094,-34.14001879999999,60.5085136,153.46409,13.533311,14.4013398,13.4704942,-0.9886078,-0.0650902,-0.1453862,-133.0735536,79.7260802,101.2406312,150.6683786604874,1.2089946089394774,23.91659065690632,1.001358708708982,-98.9335348,19.2175666,-52.2234588
4556.304,-28.214221200000004,138.9050676,14.4630828,-1.0763392,-0.3024452,0.4537744,-37.2779204,62.955364200000005,150.5108246,0.1312964000000001,10.4427156,14.7717608,-0.991515,-0.1076196,-0.1831531999999999,-135.0708588,79.8019042,99.208699,142.47750996898688,1.2066028255209085,18.090673425263997,1.0140163056871423,-97.7929384,16.84654,-51.3021256
4576.288,-28.0604756,131.067383,15.105996799999996,-1.0976986,-0.3181092,0.3596944,-40.71282419999999,65.2056092,147.27279979999997,-6.493280599999999,10.2600506,15.1533358,-0.9893942,-0.1383009999999999,-0.2342507999999999,-137.27334279999997,79.85597820000001,97.1038344,134.8860271365737,1.1981301018495278,19.417901975560035,1.0261098805173257,-96.5605186,14.650369,-50.1689654
4596.272,-30.225372000000004,121.856171,15.0456406,-1.1345902,-0.3377297999999999,0.3372893999999999,-44.4992484,67.20929500000001,143.7439728,-5.198538,8.591797199999998,15.2424806,-0.9794858,-0.143452,-0.310426,-139.355432,79.90831899999999,95.0952392,126.44710682488544,1.2309023028235997,18.253136478554804,1.0374657633780693,-94.8561836,12.699024,-48.64873359999999
4616.255,-27.6575746,108.8072544,15.080459199999998,-1.147161,-0.3407324,0.3425961999999999,-48.3676338,68.9264604,140.1124634,-1.3372842000000005,9.7778994,15.757586999999996,-0.9613638000000002,-0.1374572,-0.3268034,-141.48170439999998,79.9324462,92.9625182,113.27568270597072,1.244768687180554,18.59293397424567,1.0246537464108745,-93.1140706,11.0059858,-47.1499452
4636.239,-24.0286054,94.0247562,14.509282399999998,-1.1149922,-0.3261212,0.2827543999999999,-52.145102,70.3593674,136.55258479999998,7.614706,12.3920524,17.8499524,-0.9771732,-0.1229995999999999,-0.2935519999999999,-143.7941892,79.92164140000001,90.4576644,98.12516461999591,1.1956223040198104,23.02536668183696,1.0277009006040618,-91.6490872,9.562274000000002,-46.09492039999999
4656.223,-23.4320306,82.3529102,12.275437599999998,-1.091211,-0.328379,0.264549,-55.9157388,71.5280106,133.0221268,13.989095,13.6184684,18.1837956,-0.999861,-0.0962379999999999,-0.2701638,-146.1005064,79.882637,87.82910460000001,86.49709963183791,1.1698548574772,26.679727939081445,1.0401789513326252,-90.1847676,8.3546264,-45.1930222
4676.207,-21.9331342,70.6561144,9.4657268,-1.0874414,-0.3509212,0.3065134,-59.562664,72.43114159999999,129.618547,15.0446366,12.181753,16.735038999999993,-1.0067587999999998,-0.0896366,-0.2658903999999999,-148.1429748,79.8398224,85.4466172,74.58517856647751,1.1830574590538532,25.58901574720273,1.0451295164950418,-88.5803108,7.408680800000002,-44.1719298
4696.191,-16.8900582,58.367560000000005,7.508805199999999,-1.062148,-0.3662216,0.3232598,-62.8249038,73.10265039999999,126.5352966,16.078643999999997,11.1874194,14.204019199999996,-1.0002998,-0.1133396,-0.2320198,-149.8502014,79.76434780000001,83.38302619999999,61.22440919996317,1.1690909000187284,24.195770439153225,1.033091836382536,-87.0252976,6.661697400000006,-43.152270400000006
4716.174,-13.4887632,46.9462118,5.509517799999999,-1.026482,-0.3623826,0.2928328,-65.6431968,73.5875106,123.86446380000002,16.1728064,10.2855244,12.123505199999997,-0.99937,-0.1139556,-0.2227071999999999,-151.265677,79.66972960000001,81.6133926,49.15534885874222,1.127269929459045,22.67886807954276,1.0302061796568682,-85.6224802,6.082219000000007,-42.251071200000005
4736.158,-11.828559,36.6345628,2.6239945999999987,-1.0234268,-0.3827805999999999,0.2776334,-68.02790680000001,73.90750879999999,121.6269638,17.385145799999997,9.9903558,9.144873799999996,-0.984226,-0.0921464,-0.2434253999999999,-152.3993898,79.5378434,80.10743419999999,38.58615486446471,1.1273880021936369,22.038131053149165,1.0180607562783863,-84.37148299999998,5.630334600000007,-41.519529600000006
4756.142,-9.4919776,24.5016264,-0.4570688000000015,-1.0273884,-0.3681648,0.2862674,-69.7024948,74.0644728,120.0867736,18.0918054,10.4438574,6.458126199999997,-0.973701,-0.094393,-0.2691808,-153.2713442,79.35444340000001,78.8531984,26.279959035204225,1.1282824419073267,21.865383006893115,1.0146240579340902,-83.5688494,5.289970600000004,-41.2335752
4776.126,-7.1882756,10.6734942,-3.209393600000001,-1.0310446,-0.3611758,0.290021,-70.52423259999999,74.0659316,119.3845886,20.968542,12.2093718,4.9609099999999975,-0.95888,-0.100309,-0.2965062,-153.9757906,79.12806859999999,77.70921639999999,13.262540926184164,1.1303154896469392,24.766088536232346,1.0086766957352786,-83.451558,5.062137000000004,-41.675372200000005
4796.109,-3.3753388,-4.787313599999999,-6.224088800000001,-1.0474272000000002,-0.3708154,0.296274,-70.3751268,73.8996932,119.613504,25.8381606,14.9922988,4.376593199999998,-0.9626752,-0.0952638,-0.3248896,-154.6289156,78.84756780000001,76.51734,8.546962320603493,1.149950469912944,30.19162358234747,1.0204763517463988,-84.2537888,4.947874600000003,-43.096164
4816.093,3.227279,-21.4530154,-9.5580392,-1.0708966000000002,-0.375621,0.2895401999999999,-69.122783,73.5322692,120.8484268,31.8025198,16.173332,3.875915799999998,-0.9698048,-0.0963908,-0.3317123999999999,-155.12339179999998,78.539502,75.36432199999999,23.706609054126968,1.1712148355227578,35.88871210980279,1.0294880537147773,-86.0006088,5.007232800000002,-45.4841048
4836.077,8.971292799999999,-38.1592422,-12.435958,-1.0804872,-0.3627665999999999,0.2974738,-66.8732872,72.9598328,122.9996078,37.0851622,16.862123599999997,3.5192687999999976,-0.986354,-0.0920629999999999,-0.3196568,-155.4581574,78.22668920000001,74.26526039999999,41.12499132108549,1.1779400906352748,40.89041110809036,1.0409372118774696,-88.58487019999998,5.266856400000004,-48.7343474
4856.061,14.0033942,-53.8456892,-15.241832400000002,-1.1008286000000005,-0.3601334,0.3364968,-63.896006,72.1784272,125.8118912,38.5401816,14.886367000000002,2.5372387999999977,-0.9987522,-0.0698272,-0.3058128,-155.6154908,77.9577026,73.31949460000001,57.68679874506194,1.2061300795452208,41.39308035104289,1.0468539838528197,-91.7194848,5.779275400000006,-52.492396600000006
4876.045,21.1620298,-69.877675,-17.4675722,-1.1205322000000002,-0.3582116,0.3690797999999999,-60.25628880000001,71.1561098,129.17706760000002,35.9278202,11.259974199999998,0.6606423999999975,-1.0119404,-0.054735,-0.2784696,-155.54375599999997,77.7394424,72.6632096,75.07221221746383,1.2329346537345118,37.65676209778094,1.0509826884879312,-95.2874672,6.583332600000006,-56.513858000000006
4896.029,27.136562,-85.1145158,-18.7750128,-1.1233386,-0.3380378,0.394557,-56.15306460000001,69.873871,132.9182922,28.809234,5.491512,-2.3131914000000022,-1.0165084,-0.0449934,-0.2468053999999999,-155.14774459999998,77.6073562,72.485895,91.28732060197878,1.2376729740637469,29.419033331602414,1.0470084234538324,-98.99468,7.733485200000004,-60.4323972
4916.012,30.545853,-99.5963838,-19.5666434,-1.1240854000000002,-0.3397964,0.4293292,-51.905184,68.324068,136.76987300000002,17.60232,-1.0387315999999998,-5.446983200000003,-1.008231,-0.0377164,-0.2398367999999999,-154.47565919999997,77.57075640000001,72.82249920000001,105.99689776345944,1.2503412101977447,18.455087610204423,1.037050609577083,-102.5704752,9.246688400000002,-63.9473738
4935.996,36.4070124,-113.914476,-20.3195498,-1.1379904,-0.3670986,0.4603804,-47.6183028,66.4817736,140.57792360000002,4.886642,-8.390528399999999,-8.301571000000003,-0.9868104,-0.0419572,-0.2392745999999999,-153.5281188,77.6366896,73.70273139999999,121.30483295534027,1.2813015434776782,12.774831424931271,1.0162713743804654,-105.909816,11.154916,-66.8751922
4955.98,43.6105094,-128.9988434,-21.1358538,-1.147306,-0.366172,0.4726928,-43.33723740000001,64.32382,144.26923219999998,-4.9510190000000005,-14.896345,-9.798372800000005,-0.9644758,-0.0542452,-0.2400801999999999,-152.34881259999997,77.7947188,75.02155780000001,137.80167794522745,1.2937663909654786,18.504642472232906,0.9953866650406364,-109.0115752,13.4708988,-69.24767440000001
4975.979,45.4087042,-143.7770294,-21.808041600000003,-1.1423164,-0.3396724,0.4981908,-39.2913204,61.8498522,147.71415100000002,-13.731520799999998,-20.5868946,-11.158713400000002,-0.9592752,-0.0560836,-0.2246684,-150.92573220000003,78.0386046,76.7687592,152.34623486860085,1.2916881087303391,27.145750634227845,0.986828338406716,-111.6344118,16.188752400000002,-70.94539180000001
4995.948,45.52090439999999,-157.8676758,-22.3021394,-1.1410114000000002,-0.339072,0.5241414,-35.583200000000005,59.06670099999999,150.8626068,-22.586630000000003,-24.1470346,-11.450750600000005,-0.9677656,-0.0450114,-0.2060369999999999,-149.44041439999998,78.34371940000001,78.76009979999999,165.8063364944322,1.3006156401135274,34.99078198660181,0.990478433910764,-113.8572144,19.277018400000003,-72.10250699999999
5015.931,45.514952,-170.05978699999997,-23.3714164,-1.1282354,-0.320602,0.5699622,-32.2422214,55.9988572,153.67612319999998,-31.321184,-25.844003800000003,-11.330141,-0.9922502,-0.0247244,-0.1671216,-147.97395620000003,78.6848556,80.908609,177.5898789756608,1.3040543200518913,42.158050176166256,1.006529375896183,-115.7317348,22.6859984,-72.76751420000001
5035.915,42.5952842,-180.6705566,-24.9775962,-1.1029194,-0.2934088,0.6280138,-29.3177604,52.67385879999999,156.1544038,-42.5505172,-26.5110438,-11.163355600000004,-1.021563,-0.0169592,-0.1386552,-146.5987702,79.04462880000001,83.1899216,187.2967927385913,1.30265930304291,51.36148815605975,1.0310692711552798,-117.2810098,26.370770000000004,-72.96448219999999
5055.899,40.0247016,-189.3099486,-26.057810400000005,-1.0594688,-0.2930056,0.6670999999999999,-26.800239999999995,49.135933,158.2993408,-53.8941386,-24.7391894,-11.947859400000002,-1.0416662,-0.0405464,-0.1112943999999999,-145.2851472,79.3597046,85.63313600000001,195.24149881607147,1.2858261273612384,60.49261948243976,1.0483791901057369,-118.4849072,30.2237716,-72.66620479999999
5075.883,38.0223274,-195.209848,-26.957932400000004,-0.998242,-0.2959504,0.7105084,-24.6555222,45.43611080000001,160.1341246,-61.952342,-22.576505200000003,-12.989481800000002,-1.0423686,-0.073511,-0.0955681999999999,-143.969745,79.608429,88.2355638,200.6970658888138,1.260514147598003,67.20504373752853,1.049318562800735,-119.3142228,34.1723182,-71.8985608
5095.867,34.80983619999999,-199.02335520000003,-27.3276766,-0.9246788,-0.2999596,0.754543,-22.8568098,41.6228592,161.69412219999998,-69.2016218,-21.6694972,-13.428164,-1.0276104,-0.1082972,-0.0783107999999999,-142.6229066,79.81874839999999,91.0115556,203.88433613127415,1.230585951346187,73.7478620507872,1.0362644445857632,-119.7660968,38.1958892,-70.6825666
5115.85,30.4563182,-202.1106872,-27.323188800000004,-0.8566462000000001,-0.2847212,0.7786616,-21.364686,37.7247488,163.0407224,-72.1931106,-21.32438,-14.134908600000005,-1.023198,-0.1385112,-0.0651481999999999,-141.1722718,79.99648119999999,93.9502642,206.2107510411529,1.1921504775062752,76.5922322537905,1.034583871753605,-119.8075858,42.271732400000005,-69.09045819999999
5135.834,26.2838706,-204.3845612,-26.446234600000004,-0.7630734,-0.2746512,0.810985,-20.1181104,33.765402800000004,164.2376156,-71.74089339999999,-20.606177,-13.433471200000003,-1.0151442000000002,-0.1590098,-0.0434087999999999,-139.6861298,80.155432,96.912375,207.75777731568155,1.146913669669169,75.8408100224854,1.0284387133938124,-119.5680194,46.3900292,-67.3252406
5155.818,22.3048252,-205.5163696,-25.131063200000003,-0.6799902000000001,-0.270757,0.846007,-19.0834588,29.7684954,165.3206936,-71.0983504,-21.1963764,-13.2936506,-1.0128878,-0.1657378,-0.0074765999999999,-138.10763260000002,80.3139418,99.9543488,208.24517698695632,1.1186705811784092,75.37229562887505,1.026385216809576,-119.0241738,50.5454464,-65.36634480000001
5175.802,20.1142154,-206.062213,-24.302442000000003,-0.6012252,-0.2707874,0.8496174,-18.211024200000004,25.7480908,166.3004728,-72.1185318,-22.66386,-14.664241200000005,-1.0140424,-0.1574954,0.009414,-136.2930666,80.4602324,103.256047,208.463008648485,1.0754753755881907,77.00502028477746,1.0262433499979036,-118.0820424,54.7121416,-63.0444258
5195.786,18.1257604,-205.671182,-24.0881846,-0.5166270000000001,-0.2536626,0.8424428,-17.476475599999997,21.7284016,167.1884948,-71.2973984,-24.5956604,-16.308749600000006,-1.0227609999999998,-0.1579,0.0210502,-134.121155,80.5880752,106.9028198,207.8687541038311,1.0202735138381278,77.16372750610194,1.0350920654903308,-116.6446794,58.8596736,-60.28567499999999
5215.769,16.2319216,-204.385562,-23.7813772,-0.4240014000000001,-0.2521006,0.8635889999999999,-16.8604822,17.7230858,167.997696,-72.9240616,-25.8871472,-16.039110200000003,-1.0128646,-0.1747816,0.0287602,-131.7302646,80.71479339999999,110.8008818,206.40369942036665,0.994544046607952,79.02731304051028,1.028236575276215,-114.8697824,62.9917076,-57.196814200000006
5235.753,15.084885999999996,-202.6840666,-22.992888800000003,-0.3594624,-0.2618874,0.8640488,-16.349550999999998,13.7544004,168.74915779999998,-71.78934799999999,-27.968745,-19.313820400000004,-1.017386,-0.1835684,0.034862,-128.8038654,80.7884766,115.2165938,204.5410901860929,0.9717914159293444,79.42911834827063,1.0344017544061688,-112.4543144,67.03407619999999,-53.532564
5255.737,13.903964799999995,-200.7593688,-22.778975,-0.2920852000000001,-0.2518792,0.8567116,-15.9269288,9.8226476,169.4457766,-68.3007128,-29.6116194,-20.87950780000001,-1.0142872,-0.1816916,0.0171736,-125.4624912,80.8192916,119.9796142,202.52537149746124,0.9395273604457935,77.31616401793872,1.0305752248775244,-109.5355624,70.99664399999999,-49.4661624
5275.721,13.4000358,-197.931314,-21.8280628,-0.2345464,-0.2479132,0.8367357999999999,-15.56769,5.9451786,170.1087282,-64.906949,-29.029828,-20.10258,-1.0119724,-0.174456,0.0167686,-122.17972140000002,80.817839,124.6130844,199.58163830074304,0.9036590991567782,73.89016622565268,1.0270366206926216,-106.6120314,74.8726604,-45.4956438
5295.705,12.7440526,-194.8540954,-21.0070322,-0.1790876000000001,-0.2431196,0.8476092,-15.2649574,2.1299290000000006,170.7442078,-62.361439,-27.1044814,-20.661356000000005,-1.0003286,-0.1729426,0.008268,-119.0606218,80.7449248,129.028006,196.39710988880591,0.8997893444037665,71.0668250161241,1.0152018571184354,-103.7956644,78.6149958,-41.7162018
5315.688,14.2993214,-191.8052702,-19.5981592,-0.1386004000000001,-0.2638682,0.8310030000000002,-14.980413000000002,-1.6254298000000005,171.36896059999998,-58.7363802,-24.3459076,-21.660275,-0.9884532,-0.1744866,-0.0101071999999999,-116.2327348,80.59109480000001,133.0759354,193.3334428210082,0.8828377449228143,67.17032893281315,1.0037865598132103,-101.2523218,82.2165246,-38.2930252
5335.672,19.8272726,-188.951715,-18.311672,-0.0908572000000001,-0.2283849999999999,0.7981528,-14.621002,-5.333623200000001,171.984308,-54.263255400000006,-21.459212200000003,-20.359175600000004,-0.9714762,-0.1851842,-0.0366633999999999,-113.8420838,80.3955276,136.5921692,190.8695593111472,0.8351422819883328,61.80206069349059,0.9896481192806056,-99.2210818,85.7291508,-35.39213880000001
5355.656,20.8296106,-185.2049102,-16.270432200000002,-0.028474,-0.2164721999999999,0.7682477999999999,-14.287596400000002,-8.9664566,172.60208740000002,-48.867587400000005,-15.598156800000002,-19.7662416,-0.96597,-0.182547,-0.0454455999999999,-112.1493896,80.1443696,139.2934998,187.0814218566678,0.798671186567839,54.973156184119496,0.9841172443709948,-97.8617932,89.1108262,-33.3085876
5375.64,20.090323,-180.9967774,-14.5910622,0.0236177999999999,-0.2127431999999999,0.7795146,-14.0065166,-12.5074682,173.2179382,-42.554667,-9.3633414,-19.662328800000004,-0.9721012,-0.1796938,-0.0684486,-111.1482864,79.8386566,141.168103,182.6919637081876,0.8083690254062434,47.80354609747223,0.9909368373624224,-97.1417698,92.3461248,-32.049835200000004
5395.624,22.684118,-176.7915162,-11.9740794,0.0727789999999999,-0.2102608,0.7499146000000001,-13.722624200000002,-15.9587118,173.8594116,-37.2523682,-1.8914874,-15.821709600000002,-0.9678744,-0.169271,-0.0966557999999999,-111.0948486,79.547313,141.9764098,178.64262645631442,0.7822264979855899,40.51719580325695,0.9873073833867546,-97.3722244,95.5060248,-31.8830018
5415.611,27.9994048,-171.071988,-9.385753800000002,0.1467125999999999,-0.1890808,0.7001646,-13.3831242,-19.2982342,174.5205412,-29.8551236,5.4921046,-10.091447800000005,-0.9752004,-0.1465872,-0.1098717999999999,-111.9314894,79.3148118,141.7324248,173.60208559179415,0.7399368912417869,31.989512919216875,0.9922577486718056,-98.5483652,98.613046,-32.78811640000001
5435.591,27.5060034,-163.03263239999998,-6.934385800000001,0.2175545999999998,-0.1747694,0.67936,-13.0785884,-22.4744282,175.1811124,-23.929625,16.228279800000003,-4.1927160000000026,-0.972316,-0.1390384,-0.1186134,-113.9356504,79.0999374,140.1810484,165.4820387738125,0.7344415271194297,29.215798557704517,0.9893428218722364,-100.857062,101.5743656,-35.000064
5455.575,27.066212599999997,-154.024115,-4.3327962000000015,0.2737419999999999,-0.1663258,0.6621642000000001,-12.815896,-25.4793728,175.849954,-18.632284,25.4428858,2.969449799999997,-0.964452,-0.1222908,-0.138811,-116.9968336,78.9184768,137.4471312,156.4441785077104,0.7355680675989681,31.675228128668905,0.9820342121278872,-104.1809376,104.3978496,-38.4028228
5475.559,29.8531456,-143.5923964,-1.6388788000000012,0.3446131999999999,-0.1684626,0.6134928,-12.5332646,-28.2881912,176.5278166,-14.707433400000005,33.164683600000004,11.432346199999994,-0.955568,-0.1225988,-0.1399972,-120.9372038,78.77976840000001,133.7354416,146.6719895884372,0.7235408218371925,38.03818312091416,0.9735193292345456,-108.4039392,107.0679596,-42.792375
5495.543,32.01316799999999,-131.5896346,0.6902571999999987,0.4119083999999999,-0.1550415999999999,0.5459522,-12.2228682,-30.8680976,177.1950926,-10.4265498,39.9504834,15.864419799999997,-0.9485732,-0.116209,-0.1387651999999999,-125.419821,78.59857020000001,129.37983400000002,135.42950680911414,0.7012633117495596,44.23159368840544,0.9656870239214564,-113.1969528,109.4666678,-47.81525859999999
5515.527,26.1084642,-118.1197692,1.8198441999999984,0.4510021999999999,-0.1504748,0.4986262,-12.020169,-33.1764636,177.81756879999998,-7.242232799999999,43.4444526,17.184060799999994,-0.9189466,-0.1129374,-0.1559837999999999,-130.0616104,78.336563,124.7929506,120.98447673836598,0.6889657010086351,47.27750356375788,0.938908225458037,-118.0414414,111.51302660000002,-53.02461819999999
5535.51,19.3064092,-103.2161942,1.7959479999999983,0.4977101999999999,-0.1802454,0.4534074,-11.942665600000002,-35.1938826,178.3754118,-3.227852800000001,41.361282,20.062429,-0.915155,-0.1134882,-0.1642348,-134.4835572,78.08411559999999,120.343265,105.02164353383858,0.6969807155007661,46.08335642899758,0.9366756723088734,-122.54089159999998,113.2779982,-58.0321468
5555.494,16.4508202,-86.09599219999998,0.7861949999999986,0.5626239999999999,-0.200211,0.422736,-11.876608999999998,-36.8788878,178.8299346,-0.5044332000000005,36.3730442,20.7918228,-0.9174576,-0.116479,-0.1729116,-138.3958466,77.8517226,116.3541306,87.65710159897606,0.7316665467226172,41.8993161349325,0.9408476107496474,-126.5192376,114.7306104,-62.475804
5575.478,12.316341799999998,-67.4053936,-0.5368674000000014,0.5841253999999999,-0.2065449999999999,0.4019179999999999,-11.8258424,-38.2000068,179.1598388,2.1312114,29.344917,18.0866134,-0.8960204,-0.1175858,-0.1921503999999999,-141.4971284,77.640988,113.1371902,68.52348202120591,0.7385129644590945,34.53681803596617,0.923905164937376,-129.671286,115.8409948,-66.0226486
5595.462,5.341373399999998,-48.7924632,-2.7598306000000017,0.5990969999999999,-0.2272278,0.4094944,-11.8296356,-39.1660392,179.3427856,4.5974708,18.8301948,15.622067999999995,-0.9022278,-0.1368206,-0.1966739999999999,-143.6228762,77.52741699999999,110.8651154,49.16148288917125,0.7604178799404968,24.89501923195529,0.9334964070381846,-131.7932406,116.6934562,-68.4776702
5615.446,-1.0161838000000016,-30.4727114,-4.762073800000001,0.6420121999999999,-0.2343681999999999,0.4345298000000001,-11.8726118,-39.7817282,179.3820222,6.0309286,10.1244244,11.704944599999996,-0.920326,-0.155227,-0.1972826,-144.86102619999997,77.48648080000001,109.4705032,30.85929546278915,0.8098915144685244,16.609689861604352,0.9539474786736216,-132.9884144,117.268209,-69.911519
5635.429,-2.513263600000002,-13.2361692,-5.293614800000001,0.6682627999999999,-0.22389,0.4472518,-11.880013600000002,-40.062464,179.3167756,4.359048199999999,2.801424599999999,5.288259399999999,-0.926053,-0.1537322,-0.1952348,-145.25924099999995,77.483693,108.9705566,14.475324751621038,0.8347071789358708,7.4037131549714115,0.9588140462346596,-133.3792274,117.546157,-70.34621899999999
5655.413,-6.196923600000002,2.684836,-5.415839800000001,0.6629097999999999,-0.2127288,0.4517243999999999,-11.9048078,-40.03233780000001,179.1630586,2.2604732,-4.7700972,-1.6242860000000028,-0.9284026,-0.164645,-0.1864156,-144.75199619999998,77.5210938,109.4398912,8.65687745035108,0.8299143804277883,5.522849934151941,0.9611400208268926,-132.8471884,117.5534316,-69.7231674
5675.397,-12.2723576,15.360127,-4.619440200000001,0.6751593999999999,-0.215007,0.465102,-12.0222704,-39.755195400000005,178.9622406,0.2283115999999999,-12.3862534,-7.437075200000004,-0.9468334,-0.1737394,-0.1681037999999999,-143.414661,77.61019900000001,110.8002824,20.19612562547042,0.8475777815996357,14.449272888493775,0.977209165963132,-131.3923906,117.3653944,-68.16195819999999
5695.381,-16.509790400000004,28.1602696,-4.043619000000001,0.6883617999999999,-0.2064952,0.4958986,-12.1972484,-39.22966759999999,178.71068119999998,-0.944156,-18.8397814,-13.519835400000002,-0.9429394,-0.1731104,-0.1640149999999999,-141.27890340000002,77.71252280000002,113.0024704,32.892625581029215,0.8731538563187131,23.208074952378432,0.97262677471141,-129.081655,116.9421904,-65.70821079999999
5715.365,-16.2782394,39.8758464,-3.455005800000001,0.6686627999999999,-0.1983006,0.5189552,-12.3469434,-38.489447,178.4148224,-2.4108506000000003,-24.878876400000003,-17.928836600000004,-0.9405058,-0.1683208,-0.154372,-138.49027420000002,77.8341766,115.9032424,43.20881008727432,0.8693374302716061,30.760589613521667,0.9678397418634348,-126.1433308,116.3236236,-62.51157999999998
5735.349,-17.788250400000003,50.4940726,-3.553129000000001,0.6464262,-0.1999656,0.5255444,-12.4946412,-37.543052,178.0600618,-3.5354228,-30.6069002,-21.550502200000004,-0.9412465999999998,-0.1723298,-0.143868,-135.06576539999998,77.9612762,119.4766524,53.65349891402993,0.8567671735081591,37.59927790928604,0.9676470035108876,-122.5711242,115.5043282,-58.5834094
5755.332,-19.9942676,59.967102,-2.5450732000000014,0.6261213999999999,-0.1997212,0.5478554000000001,-12.6801676,-36.4205004,177.682135,-3.6767176,-35.2509012,-25.0434316,-0.9505814,-0.1742458,-0.1335756,-131.06949160000002,78.0569764,123.636482,63.26374520001303,0.8556062789487698,43.397209058028025,0.9756070098963824,-118.38932400000002,114.4774768,-54.045653
5775.316,-19.900775000000003,70.35433880000001,-2.971867200000002,0.5983539999999999,-0.2179081999999999,0.5779400000000001,-12.834886,-35.0958964,177.2405,-3.0107726,-36.8448296,-25.8914232,-0.9437434,-0.1771734,-0.1350123999999999,-126.8963226,78.10065159999999,127.9637082,73.17517221189334,0.8599570550575418,45.13282635979544,0.9696753925231268,-114.0614366,113.19654799999998,-49.2767918
5795.3,-16.6385712,79.369989,-2.6791972000000017,0.5453597999999998,-0.2187243999999999,0.6084704000000001,-12.9052128,-33.5887376,176.75726939999998,-0.5701937999999999,-36.450512,-26.525052400000003,-0.9496825999999998,-0.184356,-0.131041,-122.7058106,78.0652588,132.2589048,81.13948054476364,0.8458687263917256,45.08373709947356,0.976245829266256,-109.80059780000002,111.6539964,-44.4983646
5815.284,-16.358377,86.7666076,-1.1951940000000014,0.5304275999999999,-0.190628,0.613554,-12.9757046,-31.915426,176.27210080000003,2.2611182000000003,-37.5211342,-25.877435400000003,-0.9639394,-0.2051696,-0.111859,-118.4008668,77.9860946,136.6120558,88.303279560751,0.8331512372563339,45.63540106156573,0.9918599535809074,-105.4251622,109.9015206,-39.660045
5835.268,-17.69588,94.6851456,0.6426031999999985,0.509216,-0.2053824,0.6469161999999999,-13.091045599999998,-30.0866562,175.7939758,5.2177866,-35.4403656,-23.860199,-0.967924,-0.20453,-0.1179052,-114.3815264,77.8679656,140.61582320000002,96.32670400849524,0.8485183761759081,43.04130466405967,0.9962986634855232,-101.2904808,107.9546218,-35.178152600000004
5855.252,-13.0283348,103.6374404,2.7484715999999985,0.4485995999999999,-0.2352367999999999,0.646937,-13.1214632,-28.0621468,175.3177796,8.644365,-31.8015732,-20.7392228,-0.9636872,-0.2023302,-0.1097105999999999,-110.8144792,77.7274108,144.08889140000002,104.48928488826232,0.8216479995493203,38.93816208549426,0.9907910703212056,-97.693016,105.7895576,-31.228888200000007
5875.235,-10.0577256,112.1009994,4.797585999999998,0.4078167999999998,-0.2010793999999999,0.6620062000000001,-13.1086368,-25.86343040000001,174.85065,13.053216,-27.931144,-18.372776,-0.968008,-0.21016,-0.0905709999999999,-107.6218094,77.5672394,147.0891478,112.6534897024992,0.8031187186867457,35.890028573930785,0.9946908161358482,-94.5131726,103.4306698,-27.7615022
5895.219,-15.407742000000002,120.626097,6.884281999999999,0.3888505999999999,-0.1731314,0.6869644,-13.2118504,-23.4935284,174.38920280000002,16.2329066,-24.312187200000004,-12.0817012,-0.9778934,-0.2102332,-0.0677985999999999,-104.878714,77.48156139999999,149.5647032,121.80085028294135,0.8081456289887856,31.63158559127647,1.0025318699711048,-91.6668636,100.9750898,-24.8244996
5915.203,-15.187430600000004,129.7466414,9.5780038,0.3261329999999999,-0.2319068,0.707298,-13.337598600000002,-20.934845,173.94221199999998,22.5510062,-17.450814000000005,-1.5697470000000024,-0.9662992,-0.1965078,-0.0698882,-102.877008,77.5496614,151.15567,130.98315601482054,0.8126585742974967,28.55771166496089,0.9885513744266,-89.5394094,98.4845064,-22.786542
5935.187,-3.710986000000001,138.8791808,13.236430199999996,0.2568567999999999,-0.2490631999999999,0.6480546,-13.261269,-18.175546,173.530719,33.2079644,-12.454759600000004,10.954442799999995,-0.9633008,-0.2065238,-0.0397941999999999,-101.2704344,77.82841499999999,152.1237334,139.55787817680076,0.7402585074699514,37.119937410291136,0.9859939602252744,-88.0091654,96.003961,-21.406985599999995
5955.171,-1.1611630000000013,147.2046356,12.8130226,0.2203317999999999,-0.1854552,0.7316426,-13.1421976,-15.254467,173.0845214,40.826468,-5.232703000000003,17.931278399999997,-0.9566336,-0.2448016,-0.0176183999999999,-100.3033888,78.2018494,152.283377,147.76578287881625,0.7862827910065436,44.89668601466638,0.9876163607545592,-87.1611912,93.4563164,-20.8011444
5975.154,-7.496417000000001,153.34153740000002,14.073130999999998,0.1614315999999999,-0.1536472,0.800305,-13.1753186,-12.202542,172.6438292,45.0596046,-0.875859800000003,17.876289999999994,-0.9770364,-0.2146112,-0.0004561999999999,-99.6377516,78.5627456,152.04713740000005,154.16833778755174,0.8307561113656643,48.48398541025374,1.0003290969520182,-86.462433,90.7652876,-20.596691799999995
5995.138,0.3513399999999984,157.63875739999995,18.997572,0.0926411999999999,-0.2263924,0.7822592,-13.103418,-9.0406602,172.2904234,45.572039,4.804523999999997,20.8871182,-0.9711594,-0.1862496,0.0034372,-99.562956,78.97248520000001,151.19865420000002,158.7797500196635,0.8196129371232741,50.36036036591546,0.9888636448228644,-86.459538,88.0131454,-21.091769200000005
6015.122,10.469328199999998,163.67074300000002,20.6746816,0.0420833999999999,-0.1849344,0.693506,-12.8439042,-5.7541568000000005,171.95466900000002,41.7402484,6.867715999999997,22.3152778,-0.981186,-0.1935174,0.037535,-99.7482846,79.3999374,150.16210640000003,165.30324076191835,0.7189730988673498,47.82661897773593,1.000791600146484,-86.9043804,85.1540942,-21.792562600000004
6035.106,0.7159455999999977,170.7507752,18.7590192,0.0011561999999999,-0.1418582,0.7848278,-12.7916672,-2.338163600000001,171.5632536,37.6365954,13.643560999999996,16.660276399999997,-0.9811712,-0.2189962,0.041356,-100.7145048,79.68345500000001,148.4167512,171.77962804374988,0.7975460872943456,43.36155993259951,1.006164289795598,-87.9228376,82.0216186,-23.146502400000003
6055.09,-10.610014200000002,175.9486938,19.6726038,-0.1092114000000001,-0.1570868,0.8913388000000001,-13.0013656,1.1816124,171.161148,34.9505472,15.2588366,12.038075599999996,-0.9803056,-0.185264,0.0303322,-101.8347182,79.8641344,146.5691286,177.36269785815207,0.9116404165073202,39.99110036140844,0.9981191619462078,-88.8333526,78.68252199999999,-24.592019400000005
6075.073,0.1533247999999979,177.01452339999997,24.8259642,-0.2012134000000001,-0.2071337999999999,0.8603837999999999,-13.006831599999998,4.7414138,170.8476838,31.8670524,17.762407,14.910482599999998,-0.9585184,-0.182614,0.0340168,-103.35742639999998,80.08548139999999,144.3765352,178.74700976934724,0.9075524925559072,39.41236636466906,0.976351647111224,-90.3505948,75.3440676,-26.47114860000001
6095.057,3.739125799999998,179.5595154,24.370561599999995,-0.2396236000000001,-0.1490542,0.7727912,-12.9473442,8.3465104,170.5164644,30.7862228,19.7851364,13.389488599999998,-0.9716752,-0.1957444,0.03871,-105.11167,80.2504366,141.9703644,181.24437896147413,0.8227046025227038,38.96821193777532,0.991951122045033,-92.1643258,71.9039262,-28.546100000000006
6115.041,-10.215831800000002,183.6892182,23.3201202,-0.3060794000000001,-0.1685142,0.8372586,-13.2058878,12.0348072,170.1352936,33.604436199999995,25.820526799999996,8.002574199999998,-1.0059852,-0.1899104,-0.0032309999999999,-107.4740618,80.2596086,138.890863,185.44519435249745,0.9072395482891824,43.12770490503632,1.0237590644327406,-94.268174,68.2248014,-31.24443060000001
6135.025,-17.062192800000002,185.8730042,24.640677199999995,-0.4251418000000001,-0.1586061999999999,0.913235,-13.6492996,15.7702614,169.7356262,33.243231,28.621697199999996,6.469007999999997,-1.0405998,-0.1445118,-0.0108343999999999,-110.0932344,80.19631960000001,135.55616759999998,188.2738831764836,1.0197546969789746,44.34142557960798,1.0506421790136926,-96.4439348,64.4260582,-34.17945860000001
6155.009,-12.166937400000004,186.0551118,28.3594838,-0.4706690000000001,-0.1955899999999999,0.8356302,-14.0127296,19.5347784,169.3741424,28.1398144,35.178166999999995,12.503965199999996,-1.0294782,-0.1254952,0.005622,-113.7176256,80.1577606,131.3040572,188.59692286463337,0.9788067157580398,46.75148910643539,1.0371142735409054,-99.704896,60.6229822,-38.07008520000001
6174.992,-13.897328600000003,189.4415894,26.918954999999997,-0.5235954,-0.193981,0.7736997999999999,-14.449848,23.356621,168.93417960000002,24.7985506,37.918094,14.210219,-1.0174724000000002,-0.1299364,-0.0148945999999999,-117.7183886,80.0956514,126.7367096,191.84859049496973,0.9541447226611904,47.48347384597675,1.0258437512193952,-103.2685406,56.7390304,-42.19747
6194.976,-21.8969564,193.0505616,25.615079599999994,-0.6142958000000001,-0.2116305999999999,0.8004004,-15.112008800000002,27.2383272,168.39494000000002,24.4665396,41.1711194,15.277772599999995,-0.9978078,-0.1452472,-0.0710283999999999,-122.0832506,79.9586092,121.805243,195.96971280423216,1.0309159233779253,50.27010014178144,1.0108225306428622,-106.9712418,52.720282,-46.58969700000001
6214.96,-27.3058714,194.232257,25.410045,-0.7245638,-0.191429,0.8330748,-15.9761028,31.1260946,167.7560942,28.5402266,38.98687399999999,12.242361999999998,-0.9891064,-0.1597,-0.0720532,-125.77968,79.7476854,117.46514299999998,197.78132029878205,1.1205585146285222,49.84371882203681,1.0045034714480583,-109.80357720000002,48.6215908,-50.29095120000001
6234.944,-31.0818098,192.5105712,27.163181,-0.7813542000000001,-0.2006737999999999,0.7915834,-16.9886472,34.979773,167.06191399999997,32.637856799999994,34.2641754,10.433277399999998,-0.9599664,-0.1593024,-0.0641307999999999,-128.7053942,79.52044240000001,113.821895,196.8863563740068,1.1302161912747668,48.45736981765128,0.9752053646711344,-111.716747,44.5406694,-53.240019
6254.928,-35.1802984,192.0618132,26.560779,-0.835337,-0.2113913999999999,0.7188236,-18.2090612,38.80792699999999,166.22657759999998,42.6362922,27.5895592,8.332986799999997,-0.9725246,-0.1364324,-0.1121153999999999,-130.6622224,79.3010226,110.95936299999998,197.05549590476176,1.1221326104698677,51.46334480407448,0.9884269119626804,-112.4531612,40.4930956,-55.2672146
6274.912,-42.095561200000006,191.7855254,23.8394918,-0.9062894,-0.2207716,0.692957,-19.760999,42.599016600000006,165.159973,53.25332619999999,26.1041958,8.278985999999998,-0.9839566000000002,-0.0924222,-0.1482834,-132.1987946,79.07588820000001,108.306624,197.7929356548895,1.1620197845854088,59.88227950668327,0.9993499989753142,-112.4377956,36.4768716,-56.853349
6294.895,-45.1649786,189.4609586,20.7680242,-0.9913764,-0.2279516,0.684669,-21.6342114,46.2971428,163.80413819999998,58.8274934,23.334951,6.917411599999997,-0.970162,-0.057289,-0.1753236,-133.204889,78.860721,106.0777238,195.87404359623852,1.2261976749205326,63.66352567320836,0.9875397209641544,-111.5706776,32.5635782,-57.7264144
6314.879,-41.5068014,183.0629392,18.8997748,-1.0601256,-0.2534871999999999,0.6296082000000001,-23.7031574,49.8281776,162.1768036,57.0042534,26.3124398,11.980276599999996,-0.9369348,-0.0503546,-0.2317444,-134.78353579999998,78.665587,103.3022736,188.6585692686464,1.2587805741456453,63.91679295249836,0.9664822151098076,-111.0803784,28.8374094,-58.87452999999999
6334.863,-37.8817854,175.174713,15.305190599999998,-1.118251,-0.2862893999999999,0.530036,-26.0113268,53.155156,160.2290618,58.368213,30.371677,15.309206199999997,-0.9416756,-0.0414564,-0.3018796,-136.7929352,78.43015600000001,100.0581512,179.87623133428818,1.270190962355409,67.55485805684012,0.9897488881693578,-110.7816084,25.275,-60.1709106
6354.847,-37.661235600000005,165.698526,11.957801599999998,-1.1710094000000002,-0.2842932,0.4971648,-28.6149474,56.2289978,157.97454520000002,55.8894578,34.3644312,18.520379,-0.9617894,-0.0730928,-0.332798,-139.2376466,78.1349776,96.41604,170.34482441388215,1.3035560888637054,68.17294230984281,1.020360679450262,-110.6226992,21.905979800000004,-61.55850519999999
6374.831,-36.0408528,154.4754822,11.638500799999996,-1.1978324,-0.2926532,0.5137952,-31.419996200000003,59.047963,155.495413,51.465952400000006,37.2063304,21.8639794,-0.9764814,-0.1289248,-0.3524466,-142.062436,77.79676500000001,92.4721892,159.05053402093745,1.3358270327789596,67.16464005320549,1.046114780725595,-110.6424398,18.748802,-63.0232238
6394.814,-32.6510538,140.6276872,14.143915399999996,-1.1981528,-0.295867,0.5038782,-34.2763554,61.6028138,152.9271878,49.6413774,39.382608,25.092273599999995,-1.0013758,-0.1448188,-0.3206388,-145.1250916,77.42563600000001,88.31791059999999,145.0596017653223,1.3330418801643409,68.153344433477,1.0613836336238278,-110.8487362,15.8228222,-64.6092772
6414.798,-29.8796152,127.71172359999998,16.801253599999995,-1.1564694000000002,-0.3037116,0.4460434,-37.2078488,63.9144272,150.2653714,46.4329614,39.112033,24.3112596,-1.0197472,-0.1088856,-0.282134,-147.9896852,77.01960580000001,84.4275984,132.23221193005273,1.2761727640858351,65.39731166573722,1.0636446867968643,-110.7818364,13.105178600000006,-65.837773
6434.782,-30.1142428,118.4963702,18.1185024,-1.1288361999999998,-0.31139,0.4056,-40.3819094,66.00832899999999,147.3866178,37.7416154,38.6591766,23.6562296,-1.0265364,-0.1058844,-0.2691728,-150.7566712,76.5802366,80.8109556,123.59829084259864,1.2392522981743628,58.979476661627146,1.0665094856344035,-110.3747618,10.5719076,-66.5756622
6454.766,-33.4660892,109.8170016,19.205917,-1.1110874000000002,-0.3133164,0.399757,-43.8734156,67.9083756,144.27808520000002,26.865856200000003,37.9963966,17.943014599999998,-1.0070784,-0.0907344,-0.2672928,-153.10466,76.0685928,77.8434004,116.39854043143173,1.2216742757366714,49.8743637240555,1.0458896098641384,-109.2312444,8.160217200000002,-66.43468479999999
6474.75,-37.184985,98.758217,21.4503472,-1.0811526,-0.3329616,0.393803,-47.4716524,69.6183898,141.1769988,10.920549800000002,36.9382606,13.099631999999996,-0.9709456,-0.0920384,-0.2744126,-155.2000732,75.5133088,75.4586912,107.68484540300858,1.1978460562068567,40.685302783968766,1.013167656546872,-107.7284208,5.894919000000004,-65.71830759999999
6494.734,-36.3275382,87.2461824,21.1218884,-1.0556022,-0.3697646,0.4010056000000001,-51.037349,71.10614919999999,138.1296966,2.656081400000001,36.9080154,10.887552999999995,-0.9507076,-0.0915608,-0.29576,-157.1251678,74.90970480000001,73.4136076,96.83863146817278,1.18820341494601,38.571948090521325,0.99985113811727,-106.0878188,3.803555600000004,-64.71608899999998
6514.718,-30.534310999999995,73.82917339999999,18.4808064,-1.0569188,-0.3813582,0.4499303999999999,-54.347279400000005,72.3201584,135.2620514,0.8284621999999999,35.6692588,11.309489799999998,-0.9452384,-0.100753,-0.3082862,-158.89646899999997,74.3092546,71.55759259999999,82.00384868020687,1.2103506894056946,37.42842412518206,0.9993333682780736,-104.5491896,1.989096200000003,-63.7044588
6534.701,-20.505287,56.7824204,15.405983999999998,-1.0553240000000002,-0.412995,0.4895232,-57.0572342,73.237062,132.8447754,1.4197741999999998,32.125582800000004,10.481201799999996,-0.952321,-0.116516,-0.307815,-160.3444946,73.758713,70.01694180000001,62.30613456508886,1.2344661106483403,33.82195175017203,1.0075918516552225,-103.2872604,0.5216510000000028,-62.8278336
6554.685,-5.8022288,38.5717844,11.5836418,-1.0373024000000002,-0.464927,0.4738897999999999,-58.86244739999999,73.85547919999999,131.09331360000002,6.522688,27.3439524,11.3177876,-0.9687658,-0.149674,-0.2998462,-161.4801758,73.303496,68.6867598,40.68942329645801,1.231553866836039,30.30395201549665,1.0250937640918902,-102.6177284,-0.551983199999998,-62.406553800000005
6574.669,9.6325132,23.1846798,4.782455599999997,-1.0340834,-0.4630995999999999,0.4682286,-59.8315238,74.1817518,129.91464839999998,21.2743542,21.8517176,13.182640599999996,-0.9946028,-0.1398866,-0.3091478,-162.2822572,72.9535372,67.39622940000001,25.557514932846534,1.225980317759498,33.224655331334525,1.0508926457408674,-102.4507334,-1.2282145999999985,-62.51841900000001
6594.652,21.5031812,8.411845,-1.688097800000003,-1.0505634,-0.4451851999999999,0.4615872,-59.9531654,74.23276200000001,129.39078360000002,30.739619,15.3760248,12.320269799999998,-1.0139152,-0.123123,-0.3074958,-162.69494939999998,72.7255754,66.3157866,23.151579043478296,1.230827389572738,36.51212624403252,1.0666475392263743,-102.741784,-1.5071866,-63.07499700000001
