Timestamp (ms),Wrist Gyroscope X (deg/s),Wrist Gyroscope Y (deg/s),Wrist Gyroscope Z (deg/s),Wrist Accelerometer X (g),Wrist Accelerometer Y (g),Wrist Accelerometer Z (g),Wrist Roll (deg),Wrist Pitch (deg),Wrist Yaw (deg),Arm Gyroscope X (deg/s),Arm Gyroscope Y (deg/s),Arm Gyroscope Z (deg/s),Arm Accelerometer X (g),Arm Accelerometer Y (g),Arm Accelerometer Z (g),Arm Roll (deg),Arm Pitch (deg),Arm Yaw (deg),Wrist Gyroscope Magnitude (deg/s),Wrist Accelerometer Magnitude (g),Arm Gyroscope Magnitude (deg/s),Arm Accelerometer Magnitude (g),Difference Roll (deg),Difference Pitch (deg),Difference Yaw (deg)
0.0,1.6026214361190796,0.2248503714799881,0.8025079965591431,-0.972665548324585,-0.1064576730132103,0.2050226628780365,-25.36629676818848,76.58794403076172,-163.8367462158203,-1.862505316734314,0.602660059928894,0.4345693290233612,-0.9950200915336608,-0.1273989677429199,-0.002275685314089,-92.2919464111328,83.21145629882812,137.31533813476562,1.8063699071907835,0.9997228602640604,2.005237069382296,1.0031453824253318,-66.92564964294434,6.623512268066406,301.15208435058594
20.095,2.744946002960205,0.0609827376902103,0.613215982913971,-0.973978579044342,-0.092661403119564,0.2057111412286758,-25.25691032409668,76.59871673583984,-163.7694091796875,-0.5808560848236084,0.6162133812904358,0.53653883934021,-0.9923845529556274,-0.1193135231733322,-0.0097757885232567,-92.43387603759766,83.22227478027344,137.20542907714844,2.813268791844204,0.999768714098879,1.0024902237321531,0.999579103322106,-67.17696571350098,6.623558044433594,300.97483825683594
42.092,1.5077085494995115,0.3304833173751831,0.1665293276309967,-0.9712709784507751,-0.0900881811976432,0.2085340917110443,-25.20780372619629,76.60917663574219,-163.76551818847656,0.708355188369751,0.7445244193077087,0.699005126953125,-0.9932922124862672,-0.1086816936731338,-0.0099178878590464,-92.57421112060548,83.24227142333984,137.07118225097656,1.552461371583351,0.9974816596699788,1.242856327715549,0.9992694803830992,-67.36640739440918,6.633094787597656,300.8367004394531
62.283,-1.1383211612701416,0.8849046230316162,0.0015787109732627,-0.971535623073578,-0.0975119248032569,0.2142980843782425,-25.25436782836914,76.62360382080078,-163.80877685546875,0.6321645975112915,0.5912119150161743,0.6160316467285156,-0.9958412647247314,-0.1191545575857162,-0.0036417362280189,-92.65743255615234,83.2547607421875,136.97998046875,1.4418161291879306,0.9996567967797676,1.062383450819313,1.0029510932068195,-67.4030647277832,6.631156921386719,300.78875732421875
72.45899999999999,-0.6028168797492981,0.49094358086586,0.2564514875411987,-0.9794588685035706,-0.106284275650978,0.2132364213466644,-25.27711677551269,76.6324234008789,-163.829833984375,-0.5683146119117737,0.9598159193992616,-0.0177388004958629,-0.9947914481163024,-0.1197894737124443,-0.0075270528905093,-92.83828735351562,83.25342559814453,136.81231689453125,0.8186459280825664,1.0080207308035287,1.1155907682872388,1.0020060876975003,-67.56117057800293,6.621002197265625,300.64215087890625
92.358,1.4040818214416504,0.506016194820404,0.8334738612174988,-0.9755522012710572,-0.1018066108226776,0.1952472925186157,-25.2255859375,76.65589904785156,-163.80194091796875,-1.545642971992493,1.406415581703186,-0.0227489452809095,-0.9946209788322448,-0.1197722479701042,-0.006614432670176,-93.10610961914062,83.2515640258789,136.5850830078125,1.709437576531015,1.0000940898974733,2.0898647085011723,1.001828345394845,-67.88052368164062,6.595664978027344,300.38702392578125
114.566,1.340693116188049,0.6119733452796936,0.4018236398696899,-0.9754096269607544,-0.0950686410069465,0.2023542821407318,-25.18983268737793,76.67543029785156,-163.78970336914062,-1.0800186395645142,1.255639910697937,-0.016478456556797,-1.0001945495605469,-0.1142752990126609,-0.0024436563253402,-93.3187255859375,83.25344848632812,136.41761779785156,1.5275574112566008,1.0007043731149157,1.6563041347152403,1.006704501028626,-68.12889289855957,6.5780181884765625,300.2073211669922
137.264,1.0487523078918457,1.2581628561019895,0.1976654082536697,-0.9775448441505432,-0.0979837775230407,0.2062027305364608,-25.2011775970459,76.70235443115234,-163.80995178222656,-1.5450154542922974,1.1311992406845093,-0.0299455411732196,-0.9992347955703736,-0.1158322468400001,-0.0070396307855844,-93.5393295288086,83.2540054321289,136.25091552734375,1.6498262906752572,1.0038497442663852,1.9150930033717424,1.0059507157352026,-68.3381519317627,6.5516510009765625,300.0608673095703
152.175,0.5381932854652405,1.507865309715271,0.2914707660675049,-0.9740821123123168,-0.0998512655496597,0.2039934694766998,-25.230934143066406,76.73455810546875,-163.838623046875,-1.7812902927398682,1.2831512689590454,0.1223264187574386,-0.9930896759033204,-0.1253727674484253,-0.0088423741981387,-93.79479217529295,83.25138854980469,136.04725646972656,1.6273490751017674,1.0002097641734131,2.198735099725866,1.0010113000285754,-68.56385803222656,6.5168304443359375,299.8858795166016
174.529,1.3395349979400637,1.4041866064071655,0.498322993516922,-0.9755555391311646,-0.1009785160422325,0.1959645748138427,-25.23613166809082,76.77022552490234,-163.8631134033203,-1.0416065454483032,1.3247268199920654,0.1122522726655006,-0.9974278211593628,-0.123188279569149,-0.0105926776304841,-94.04854583740234,83.24993896484375,135.8297576904297,2.00360171745465,1.0001536807978857,1.6889185640064497,1.0050620953280966,-68.81241416931152,6.479713439941406,299.69287109375
198.34,1.3834013938903809,1.4725308418273926,0.1645126491785049,-0.9720863103866576,-0.0976668745279312,0.2050801962614059,-25.25133514404297,76.79975128173828,-163.9046173095703,-0.9035583734512328,1.2108039855957031,0.2560869455337524,-0.9914474487304688,-0.1180717200040817,-0.0107883904129266,-94.28270721435548,83.25395202636719,135.6339111328125,2.027118868860548,0.9982727583780984,1.5323330412939231,0.998511574307769,-69.0313720703125,6.454200744628906,299.5385284423828
218.626,1.323569416999817,1.1220499277114868,0.2415659129619598,-0.9715421199798584,-0.09492889046669,0.2063229382038116,-25.24173355102539,76.8232192993164,-163.91978454589844,-0.8211642503738403,2.1057732105255127,0.4365988969802856,-0.988347828388214,-0.1205420643091201,-0.0190651286393404,-94.7017593383789,83.25804901123047,135.25558471679688,1.7519092819549,0.997734804429137,2.302001332993393,0.9958540547076352,-69.46002578735352,6.434829711914063,299.1753692626953
232.222,-0.2861248552799225,1.5200037956237793,0.0244009848684072,-0.9693496227264404,-0.098709151148796,0.2032143920660019,-25.307249069213867,76.85218811035156,-163.97674560546875,-0.2361636012792587,2.2302563190460205,-0.1420044153928756,-0.9900369048118592,-0.118518941104412,-0.0142168588936328,-95.0952377319336,83.25135803222656,134.88723754882812,1.5468918448237423,0.9953282256337168,2.247216444672156,0.9972070654416556,-69.78798866271973,6.399169921875,298.8639831542969
254.506,-0.4476165175437927,1.7096412181854248,-0.1870842725038528,-0.9732596278190612,-0.1044314205646514,0.201427161693573,-25.41360664367676,76.88253784179688,-164.07249450683594,-0.3363591134548187,1.9924135208129885,-0.6116440296173096,-0.99252849817276,-0.1182678341865539,-0.0119844116270542,-95.42884826660156,83.23583221435547,134.56256103515625,1.7771421346405782,0.999356355966968,2.1111507549412525,0.9996217916843848,-70.0152416229248,6.353294372558594,298.6350555419922
277.08,1.3605270385742188,1.6096057891845703,0.2173561453819275,-0.9711586833000184,-0.098164826631546,0.2027275264263153,-25.432870864868164,76.9146957397461,-164.12803649902344,-0.6477506160736084,1.6700540781021118,-0.4508658051490783,-0.9923981428146362,-0.1167133077979087,-0.007007504813373,-95.69100952148438,83.225341796875,134.31541442871094,2.1187515930857272,0.9969372955745808,1.8471441358654068,0.9992623155121872,-70.25813865661621,6.310646057128906,298.4434509277344
300.265,0.855070948600769,2.171215057373047,-0.0532976388931274,-0.9716867208480836,-0.0910704433917999,0.2039826214313507,-25.4863338470459,76.95561981201172,-164.21957397460938,-0.6011383533477783,1.639879584312439,-0.2234082967042923,-0.9936858415603638,-0.1186193227767944,-0.0075341970659792,-95.94922637939452,83.21834564208984,134.07150268554688,2.3341297716313987,0.9970345124307814,1.7608190247571522,1.0007691340059317,-70.46289253234863,6.262725830078125,298.29107666015625
321.981,-0.6942071914672852,2.752138376235962,-0.301643431186676,-0.9751082062721252,-0.0997950509190559,0.2069901227951049,-25.6279296875,77.00119018554688,-164.3695068359375,-0.0068336557596921,1.78011953830719,-0.3014155030250549,-0.992823839187622,-0.1178626269102096,-0.0100855557247996,-96.22652435302734,83.20955657958984,133.7965087890625,2.8543261947811227,1.0018183353592165,1.8054704580739869,0.9998462346359576,-70.59859466552734,6.208366394042969,298.166015625
333.32800000000003,-0.3056429028511047,2.745835781097412,-0.3118854463100433,-0.9734487533569336,-0.1025900319218635,0.2030391097068786,-25.77256774902344,77.04712677001953,-164.53257751464844,-0.7479285001754761,2.135950803756714,-0.4284420609474182,-0.9924232959747314,-0.1264355927705764,-0.0116323279216885,-96.57360076904295,83.19241333007812,133.46646118164062,2.7803424703511075,0.9996759825725828,2.30331184971392,1.0005125029530986,-70.80103302001953,6.145286560058594,297.99903869628906
354.466,0.2758063971996307,2.0396673679351807,-0.1398778110742569,-0.9752659201622008,-0.0964600071310997,0.20584337413311,-25.84797477722168,77.08170318603516,-164.6383819580078,-0.4420366287231445,1.846869707107544,-0.3911080360412597,-0.9950553178787231,-0.1227094233036041,-0.0171206761151552,-96.89087677001952,83.17860412597656,133.16624450683594,2.0629779307076443,1.001408828940538,1.938888751842271,1.00273915140323,-71.04290199279785,6.096900939941406,297.8046264648437
374.543,-0.2257620692253112,2.061091184616089,0.1286836713552475,-0.9725666046142578,-0.0967022851109504,0.2083436697721481,-25.91071319580078,77.11689758300781,-164.70620727539062,0.4808535277843475,1.7439807653427124,-0.4546777606010437,-0.9903303980827332,-0.1201428845524787,-0.0138237420469522,-97.1534652709961,83.16493225097656,132.90158081054688,2.0774082098799243,0.9993218786210536,1.8653205866695368,0.9976871783878328,-71.24275207519531,6.04803466796875,297.6077880859375
396.993,-0.57716965675354,2.219720363616944,0.0170728601515293,-0.9758999347686768,-0.0973726511001586,0.2053018510341644,-25.999855041503903,77.15542602539062,-164.7792510986328,1.0216834545135498,2.281719446182251,-0.282749593257904,-0.9929523468017578,-0.1253545135259628,-0.0122999930754303,-97.48217010498048,83.15077209472656,132.55369567871094,2.2935942945269305,1.0020034759928904,2.5159546984793844,1.000909290050854,-71.48231506347656,5.9953460693359375,297.3329467773437
419.447,-0.4935727417469024,1.953268051147461,-0.1343496441841125,-0.9789612293243408,-0.0986833125352859,0.2019994109869003,-26.09527015686035,77.1891860961914,-164.8612060546875,1.005773663520813,2.5033137798309326,-0.3209401667118072,-0.9971495866775512,-0.1182764917612075,-0.0145131666213274,-97.85610961914062,83.13923645019531,132.15869140625,2.0191384197031543,1.0044437499094792,2.716829610618324,1.0042446209564326,-71.76083946228027,5.950050354003906,297.0198974609375
439.599,0.7881998419761658,1.470320463180542,-0.0056169615127146,-0.9796539545059204,-0.092911809682846,0.210661232471466,-26.11300277709961,77.21218872070312,-164.9199981689453,1.014017105102539,2.090442657470703,-0.4265788495540619,-0.996549427509308,-0.1135761886835098,-0.0153291374444961,-98.1630859375,83.12915802001953,131.83563232421875,1.6682724014966297,1.006346177924886,2.362234261986007,1.003117786982064,-72.05008316040039,5.916969299316406,296.75563049316406
461.958,0.7966183423995972,1.0895256996154783,-0.0047165602445602,-0.97760009765625,-0.0904840528964996,0.2153938561677932,-26.10490798950196,77.22608184814453,-164.95274353027344,0.9698128700256348,1.7081632614135742,-0.2362506985664367,-0.993921995162964,-0.1125174164772033,-0.0200444664806127,-98.43270874023438,83.12393188476562,131.5657501220703,1.349699699751993,1.0051287619210376,1.9784269314492124,1.0004713299819858,-72.32780075073242,5.897850036621094,296.5184936523437
472.452,-1.0481394529342651,0.2982292473316192,-0.4824187755584717,-0.9869678020477296,-0.0925206169486045,0.2261629402637481,-26.13358688354492,77.21685028076172,-164.96780395507812,1.1757426261901855,1.9691756963729856,-0.0552437528967857,-0.9960626363754272,-0.1229707449674606,-0.0170397218316793,-98.7202377319336,83.11580657958984,131.2727508544922,1.1917486613261454,1.0167670246365292,2.2941393851422256,1.003769361866121,-72.58665084838867,5.898956298828125,296.2405548095703
501.817,-0.8802430629730225,-2.000738859176636,0.1206979751586914,-0.9865158200263976,-0.1043765544891357,0.2114777117967605,-26.06635475158692,77.17605590820312,-164.87515258789062,2.0883536338806152,3.9461898803710938,0.5457969903945923,-0.9876315593719482,-0.138168916106224,-0.0367157571017742,-99.39766693115234,83.1023178100586,130.5832061767578,2.1891440870209897,1.0143129452374022,4.497947290354722,0.9979252443269444,-73.33131217956543,5.926261901855469,295.45835876464844
521.9399999999999,1.6883249282836914,-4.177121639251709,0.866027295589447,-0.9845704436302184,-0.100518099963665,0.1991291344165802,-25.81340217590332,77.1097412109375,-164.64601135253906,3.551525592803955,4.250864028930664,0.4040175676345825,-0.9833772778511048,-0.139639139175415,-0.0488188713788986,-100.13512420654295,83.08153533935547,129.8052215576172,4.587895980651151,1.0095222925047307,5.553954377176273,0.9944411707015198,-74.32172203063965,5.971794128417969,294.45123291015625
531.855,3.147731304168701,-6.777268886566162,0.5973452925682068,-0.9902727603912354,-0.0914176553487777,0.2208142727613449,-25.417329788208008,76.98673248291016,-164.3173828125,5.278515815734863,4.83133602142334,-0.459651380777359,-0.98984956741333,-0.1260512620210647,-0.0402769371867179,-100.86438751220705,83.04959869384766,128.99696350097656,7.496426303420499,1.018703229963205,7.170482296241747,0.9986557557209604,-75.44705772399902,6.0628662109375,293.31434631347656
554.594,3.379962205886841,-9.107375144958496,0.3591817021369934,-0.9909769892692566,-0.0999755263328552,0.2343436330556869,-24.967098236083984,76.81169891357422,-163.9326934814453,6.689183235168457,6.306332111358643,0.466647207736969,-0.987226128578186,-0.1279331743717193,-0.0466613695025444,-101.84027862548828,83.02693939208984,127.9079360961914,9.72097927368335,1.0232044944586738,9.205039742928903,0.9965739357700214,-76.8731803894043,6.215240478515625,291.8406295776367
575.2890000000001,4.875377178192139,-11.866270065307615,1.105808973312378,-0.987190842628479,-0.0961089730262756,0.238893836736679,-24.33741950988769,76.59172821044922,-163.3680877685547,7.211833477020264,7.485803604125977,0.2281012535095214,-0.98784339427948,-0.1307242512702942,-0.0501636900007724,-102.9766616821289,82.99021911621094,126.6461944580078,12.876353574592091,1.020222014904826,10.39710670723679,0.9977172932681264,-78.63924217224121,6.398490905761719,290.0142822265625
592.325,5.1860880851745605,-14.546146392822266,1.1710163354873655,-0.9914979934692384,-0.0920862033963203,0.2449826449155807,-23.619359970092773,76.32257080078125,-162.6984405517578,7.889194488525391,7.771549701690674,0.0054883016273379,-0.9954319596290588,-0.1234874576330185,-0.0374113544821739,-104.06214141845705,82.95142364501953,125.41986083984376,15.487322679100608,1.0254582566927373,11.074132226277712,1.003759706248366,-80.44278144836426,6.628852844238281,288.1183013916016
614.202,5.161102771759033,-17.31107521057129,1.1175419092178345,-0.99290269613266,-0.103962130844593,0.2445050477981567,-22.87771224975586,76.00105285644531,-161.99905395507812,8.843372344970703,9.145309448242188,1.191340088844299,-0.9874824285507202,-0.1373521238565445,-0.0543001778423786,-105.42118072509766,82.91500854492188,123.8990478515625,18.09859681537696,1.0278358852638063,12.777371034105098,0.9984666553961858,-82.5434684753418,6.9139556884765625,285.8981018066406
636.802,7.150849342346191,-20.01513862609864,1.7015272378921509,-0.9814541339874268,-0.1013887152075767,0.2445180118083953,-22.008432388305664,75.63404083251953,-161.2459259033203,9.31065559387207,10.293441772460938,0.3537589013576507,-0.9907159805297852,-0.1309566050767898,-0.0539354793727397,-106.88253784179688,82.85528564453125,122.2582778930664,21.32218599206393,1.0165239528861008,13.884105893828194,1.0007881006614234,-84.87410545349121,7.221244812011719,283.5042037963867
659.2710000000001,8.726890563964844,-21.791467666625977,2.225426197052002,-0.9812346696853638,-0.0872424468398094,0.2661100029945373,-21.025165557861328,75.23051452636719,-160.39645385742188,8.478198051452637,8.973702430725098,-0.8856686949729919,-1.0011188983917236,-0.112941212952137,-0.0350760966539382,-108.0106201171875,82.78944396972656,120.96231842041016,23.579211262032267,1.0204152366644152,12.377058881338169,1.0080799069799151,-86.98545455932617,7.558929443359375,281.35877227783203
679.391,8.755303382873535,-23.506248474121094,1.1234784126281738,-0.9833008646965028,-0.0908758044242858,0.2915895283222198,-20.119447708129883,74.77479553222656,-159.6140594482422,6.413054466247559,8.742923736572266,-0.5296206474304199,-0.9982376098632812,-0.1089065074920654,-0.0362984910607337,-109.1428451538086,82.73101806640625,119.7035903930664,25.108987601990616,1.0296423919836564,10.855711910361345,1.0048166666476834,-89.02339744567871,7.956222534179687,279.3176498413086
701.7520000000001,9.969552040100098,-26.845048904418945,1.7825965881347656,-0.987136960029602,-0.0815135315060615,0.3079119920730591,-19.09563636779785,74.25629425048828,-158.72019958496094,6.004626274108887,9.040240287780762,0.6774075627326965,-0.9881983995437622,-0.1049616485834121,-0.0474230125546455,-110.4117431640625,82.68999481201172,118.3207550048828,28.691919928037905,1.0372529240920334,10.873838428015224,0.9948879166287824,-91.31610679626463,8.433700561523438,277.0409545898437
712.938,9.028575897216797,-29.354368209838867,1.515103101730347,-0.9792452454566956,-0.0896397456526756,0.2855097353458404,-18.151525497436523,73.69865417480469,-157.87071228027344,7.69504976272583,10.240528106689451,0.7004922032356262,-0.9911054372787476,-0.1231899410486221,-0.0606561414897441,-111.81295013427734,82.6246109008789,116.76954650878906,30.748815475388245,1.0239493853347792,12.828596808751822,1.0005722946791422,-93.66142463684082,8.925956726074219,274.6402587890625
734.231,10.908048629760742,-31.22900009155273,1.7341227531433103,-0.9809208512306212,-0.1039052531123161,0.2936394810676574,-17.2066707611084,73.102783203125,-157.06097412109375,8.010823249816895,9.774226188659668,-0.9535413980484008,-0.995451271533966,-0.1375070363283157,-0.0522345080971717,-112.94905853271484,82.52249145507812,115.47185516357422,33.12466080355232,1.0291871369411028,12.673516793876887,1.0062603355367536,-95.74238777160645,9.419708251953123,272.532829284668
754.4250000000001,13.916224479675291,-35.02580261230469,2.85171127319336,-0.9867867827415466,-0.0721131488680839,0.332952082157135,-16.058805465698242,72.42878723144531,-156.0855712890625,8.928354263305664,10.473159790039062,-2.027116537094116,-0.9975969791412354,-0.1260048747062683,-0.0547804981470108,-114.08319091796876,82.3983383178711,114.15428924560548,37.7968306818244,1.0439375220030431,13.9108514223156,1.0070143316848552,-98.02438545227052,9.96955108642578,270.239860534668
776.818,12.082512855529783,-38.04132843017578,2.1371054649353027,-0.9831129908561708,-0.0746262073516845,0.3566619753837585,-15.020430564880373,71.68217468261719,-155.1815643310547,8.53510856628418,11.030603408813477,-0.6612105965614319,-0.9893094897270204,-0.1182911917567253,-0.0689227655529975,-115.40022277832033,82.2919921875,112.66168975830078,39.97120220114475,1.048469354963943,13.96278945102984,0.99873741299835,-100.37979221343994,10.609817504882812,267.84325408935547
799.216,11.594274520874023,-42.68198013305664,1.6218502521514893,-1.0115858316421509,-0.094875767827034,0.3836125135421753,-14.058127403259276,70.83643341064453,-154.3351593017578,8.305925369262695,11.802046775817873,-0.2367608249187469,-0.9844489693641664,-0.126294732093811,-0.0760569870471954,-116.8084945678711,82.17636108398438,111.08942413330078,44.25843454059841,1.0860321664877413,14.433736869798162,0.9954269425304472,-102.75036716461182,11.339927673339844,265.4245834350586
822.979,16.205846786499023,-51.68141174316406,4.233901023864746,-1.0124740600585938,-0.0746711641550064,0.351005494594574,-12.81778049468994,69.85059356689453,-153.349365234375,9.20216941833496,15.079090118408203,0.9389913082122804,-0.9589561223983764,-0.1714577972888946,-0.1360923051834106,-118.75485229492188,82.00425720214844,108.95502471923828,54.32792751167506,1.074190095971555,17.69012677963935,0.983623777908314,-105.93707180023192,12.153663635253906,262.3043899536133
831.7189999999999,16.309070587158203,-56.6984748840332,5.980677604675293,-0.985235035419464,-0.0634613186120987,0.3357605040073395,-11.53635025024414,68.78125,-152.2593536376953,14.24949836730957,18.662389755249023,-1.5404099225997925,-0.9690059423446656,-0.1876343786716461,-0.1323627680540084,-120.69659423828124,81.73881530761719,106.72266387939452,59.29984268278726,1.0428089614254576,23.53095531053565,0.9958408902659536,-109.16024398803712,12.957565307617188,258.98201751708984
858.188,13.999725341796877,-59.40229797363281,6.253425598144531,-0.9888246655464172,-0.0617922097444534,0.400548905134201,-10.363919258117676,67.63224792480469,-151.30206298828125,18.252206802368164,22.72102737426757,-5.837597846984863,-0.9991390705108644,-0.14901103079319,-0.105309784412384,-122.54795837402344,81.37925720214844,104.4978485107422,61.34925138830579,1.0686589361355163,29.72315068632115,1.015663979971893,-112.18403911590576,13.74700927734375,255.79991149902344
880.501,13.477895736694336,-62.67818832397461,7.174370288848877,-0.969363272190094,-0.0521578006446361,0.4499975144863128,-9.224316596984863,66.39933776855469,-150.319580078125,18.37364196777344,22.669776916503903,-3.820156335830689,-1.0024588108062744,-0.1092039942741394,-0.0967137664556503,-124.4114227294922,81.06907653808594,102.26470947265624,64.51108861355812,1.069992220851643,29.429629610889872,1.0130166495919968,-115.18710613250732,14.66973876953125,252.58428955078125
902.636,14.343141555786133,-63.81733322143555,7.534903526306152,-0.93375164270401,-0.051296591758728,0.4574529826641083,-8.154394149780273,65.13909149169922,-149.4658203125,17.573314666748047,21.6125545501709,-2.177537441253662,-1.0175060033798218,-0.1120030283927917,-0.0719434097409248,-126.07591247558594,80.79862213134766,100.2689971923828,65.84187497585258,1.041050768179337,27.940393194597608,1.0261768850876951,-117.92151832580566,15.659530639648438,249.7348175048828
921.635,11.184494972229004,-62.89330291748047,5.622549533843994,-0.93178528547287,-0.0674817487597465,0.502784013748169,-7.340816497802734,63.87592697143555,-148.8125762939453,17.818500518798828,20.711328506469727,-2.472900390625,-1.0219660997390747,-0.1187712475657463,-0.0498417615890502,-127.4374008178711,80.53323364257812,98.5710220336914,64.12701102432814,1.060928541005543,27.43306992633695,1.0300512217664324,-120.09658432006836,16.657306671142578,247.38359832763672
931.577,12.538474082946776,-67.5629653930664,7.731032371520996,-0.9485943913459778,-0.0443467609584331,0.5045071244239807,-6.445652484893799,62.538848876953125,-148.09515380859375,17.889543533325195,20.186336517333984,0.0915423408150672,-0.9838405251502992,-0.1278409957885742,-0.1023250445723533,-128.9544219970703,80.28518676757812,96.7048110961914,69.150101131979,1.075325714886008,26.972807229169728,0.9973745103415088,-122.50876951217651,17.746337890625,244.7999649047852
952.753,10.399107933044434,-70.54608154296875,9.836654663085938,-0.9261033535003662,-0.0301129147410392,0.4739235341548919,-5.573723793029785,61.16538619995117,-147.34805297851562,18.90033721923828,19.386863708496094,-1.5112015008926392,-0.972128927707672,-0.1594555079936981,-0.1326275318861007,-130.1758575439453,79.99137878417969,95.1124038696289,71.98368455303684,1.0407582453311088,27.11746598465696,0.994007431224634,-124.60213375091551,18.82599258422852,242.46045684814453
973.965,7.751531600952148,-71.36958312988281,10.29640007019043,-0.9264713525772096,-0.0391980707645416,0.5097229480743408,-4.821131229400635,59.768043518066406,-146.66342163085938,20.376934051513672,22.36272430419922,-7.019833564758301,-0.9938522577285768,-0.1752464920282364,-0.1155209243297576,-131.05270385742188,79.5748519897461,93.8460693359375,72.52392358869749,1.0581602618183614,31.05783223153649,1.0157749392057245,-126.23157262802124,19.806808471679688,240.50949096679688
991.746,9.53303337097168,-75.24674987792969,11.399930953979492,-0.9074246287345886,-0.0354929231107234,0.5621746778488159,-4.049633502960205,58.27572250366211,-145.9886016845703,17.882673263549805,21.96121406555176,-7.367593765258789,-0.9808313250541688,-0.1188230365514755,-0.1305037140846252,-131.9796905517578,79.17608642578125,92.60106658935548,76.70013375607158,1.0680447429014712,29.26373804170868,0.9965842772253188,-127.9300570487976,20.90036392211914,238.58966827392572
1014.292,10.226163864135742,-76.89031219482422,10.67958164215088,-0.8760472536087036,-0.0256311148405075,0.5699893236160278,-3.343367099761963,56.748191833496094,-145.3976287841797,15.944659233093262,22.96381378173828,-4.6697678565979,-0.9890090227127076,-0.1088040918111801,-0.1196384876966476,-133.11187744140625,78.8125,91.18209075927734,78.29909323130796,1.0454681122059994,28.34388176126083,1.0021429763962533,-129.7685103416443,22.064308166503903,236.57971954345703
1036.49,9.006416320800781,-77.2679672241211,10.408647537231444,-0.8636409640312195,-0.0159547887742519,0.5774787664413452,-2.720099210739136,55.21767807006836,-144.8683624267578,17.5197696685791,23.59919548034668,-3.075284004211426,-0.9971878528594972,-0.1521867364645004,-0.1307043135166168,-134.2099151611328,78.44054412841797,89.7664566040039,78.4843566415993,1.0390437891293238,29.552017329892017,1.017166669832481,-131.48981595039368,23.22286605834961,234.6348190307617
1058.863,5.138215065002441,-77.47874450683594,10.829818725585938,-0.8420112133026123,-0.0208947956562042,0.6021789908409119,-2.216712951660156,53.67773818969727,-144.3778076171875,22.02901268005371,21.669544219970703,-3.914182424545288,-0.9967873692512512,-0.1461277455091476,-0.1361941844224929,-134.9683837890625,78.08305358886719,88.6037368774414,78.40052345513281,1.03539316823274,31.14750985892536,1.0166057413653165,-132.75167083740234,24.40531539916992,232.9815444946289
1071.36,4.702728748321533,-78.65391540527344,10.1236572265625,-0.823482871055603,-0.0408732742071151,0.6318099498748779,-1.7994312047958374,52.10767364501953,-143.96469116210938,24.49687385559082,18.89749526977539,-4.563124179840088,-0.9831523895263672,-0.1519620269536972,-0.122209146618843,-135.3583526611328,77.75869750976562,87.76251220703125,79.44207010080447,1.0387388874145824,31.273539269621427,1.002305419612499,-133.55892145633698,25.651023864746094,231.72720336914065
1094.355,4.552151679992676,-80.93998718261719,9.547113418579102,-0.8178096413612366,-0.0140731232240796,0.6581146121025085,-1.4100600481033323,50.49285507202149,-143.58416748046875,23.1533432006836,20.6810302734375,-3.673731803894043,-0.9603158235549928,-0.1482745707035064,-0.1487899422645568,-135.96014404296875,77.41098022460938,86.73043060302734,81.62812618618112,1.0498216538838916,31.26145581873023,0.9830209947943652,-134.55008399486542,26.91812515258789,230.3145980834961
1116.263,1.271636962890625,-81.82671356201172,9.882598876953123,-0.7961543798446655,0.0107505759224295,0.6634848713874817,-1.0886452198028564,48.86574935913086,-143.20753479003906,20.62734031677246,18.917495727539062,-5.324173927307129,-0.987028419971466,-0.102879948914051,-0.1617886275053024,-136.45851135253906,77.08259582519531,85.85945129394531,82.43114625848446,1.0364311583451025,28.49044824416812,1.005477471507928,-135.3698661327362,28.216846466064453,229.0669860839844
1138.849,-4.232512950897217,-79.74615478515625,7.2183661460876465,-0.7637578248977661,-0.0308703407645225,0.6665216088294983,-0.996561586856842,47.28117370605469,-142.96034240722656,18.57950210571289,15.45930290222168,-6.602084159851074,-1.0089569091796875,-0.1425031721591949,-0.1245301440358161,-136.5464630126953,76.79133605957031,85.46208190917969,80.18396459839458,1.014164704605789,25.05544771047977,1.0265519740521871,-135.54990142583847,29.510162353515625,228.42242431640625
1161.6409999999998,-5.328257083892822,-78.69202423095703,6.450544357299805,-0.7527838349342346,-0.0288457609713077,0.6979169845581055,-0.952626407146454,45.7158203125,-142.74371337890625,15.891536712646484,14.775030136108398,-5.80338191986084,-0.9872386455535888,-0.1539930701255798,-0.1388895362615585,-136.6869354248047,76.51116180419922,85.0639419555664,79.13554526016154,1.0269389940006104,22.46156041596554,1.008783580459227,-135.73430901765823,30.79534149169922,227.80765533447263
1171.4640000000002,-2.7741403579711914,-80.31966400146484,7.57338285446167,-0.730923593044281,-0.0055691576562821,0.7294936180114746,-0.8277791142463684,44.112918853759766,-142.49134826660156,15.074318885803224,13.487844467163086,-4.79757022857666,-0.9788579344749452,-0.1547561734914779,-0.1588639616966247,-136.848876953125,76.25678253173828,84.66366577148438,80.72360502290631,1.0326864253514876,20.78878828453912,1.0036683154529822,-136.02109783887863,32.14386367797852,227.155014038086
1193.827,-4.512475490570068,-80.28167724609375,5.895880699157715,-0.712783694267273,-0.0115768080577254,0.7384763360023499,-0.7866455316543579,42.515411376953125,-142.2990264892578,14.848834037780762,11.09341526031494,-5.4837164878845215,-0.9722148180007936,-0.1685920357704162,-0.152923509478569,-136.79893493652344,76.02657318115234,84.48578643798828,80.62426152044844,1.0264218996755488,19.329326965490587,0.998504144516572,-136.01228940486908,33.51116180419922,226.7848129272461
1216.323,-9.055219650268556,-80.38128662109375,5.579000949859619,-0.7107996344566345,-0.0131919020786881,0.7294032573699951,-0.8503361344337463,40.93443298339844,-142.1206817626953,15.793665885925291,9.131614685058594,-7.107348442077637,-0.9855550527572632,-0.1636225134134292,-0.1690710335969925,-136.56341552734375,75.8022232055664,84.48076629638672,81.08189374561726,1.018547622100262,19.57908758726314,1.013250266870261,-135.71307939291,34.86779022216797,226.60144805908203
1236.4489999999998,-14.694711685180664,-79.3736343383789,4.319928169250488,-0.6931024789810181,-0.0020007630810141,0.7739717960357666,-1.0415935516357422,39.363868713378906,-141.9681854248047,13.145503044128418,5.250528812408447,-8.033750534057617,-0.9850813150405884,-0.1492991000413894,-0.1745480746030807,-136.15814208984375,75.62678527832031,84.70722961425781,80.83792525158444,1.0389549511318426,16.27616203951631,1.0115050414421602,-135.116548538208,36.262916564941406,226.6754150390625
1259.843,-11.18043613433838,-80.65061950683594,2.624630928039551,-0.6762100458145142,-0.0318162143230438,0.7897733449935913,-1.2093799114227295,37.77312088012695,-141.8675537109375,12.838507652282717,7.229825019836426,-7.22389554977417,-0.9612496495246888,-0.1808740049600601,-0.1621516346931457,-135.8484344482422,75.42515563964844,84.83573150634766,81.46418394913722,1.0401991319053692,16.40982374887743,0.9914683288009196,-134.63905453681946,37.65203475952149,226.7032852172852
1278.918,-7.788232326507568,-82.71736907958984,3.553394317626953,-0.6379282474517822,-0.0246456526219844,0.795890212059021,-1.2895753383636477,36.13779067993164,-141.7363739013672,13.606253623962402,4.918722152709961,-5.12192440032959,-0.9667682647705078,-0.2197502702474594,-0.1780944019556045,-135.48619079589844,75.26759338378906,84.99497985839844,83.15916258234739,1.020294607817477,15.347901317699478,1.007297709244459,-134.1966154575348,39.12980270385742,226.7313537597656
1329.877,-14.10107135772705,-82.3875961303711,4.444630146026611,-0.6170008778572083,0.0143529940396547,0.7977544665336609,-1.4579689502716064,34.51649475097656,-141.56631469726562,14.746649742126465,1.903420329093933,-6.046827793121338,-0.9827670454978944,-0.1744222790002823,-0.1938403248786926,-134.99661254882812,75.15481567382812,85.26655578613281,83.70370927690013,1.008617013830757,16.051505036158797,1.016773459860843,-133.53864359855652,40.63832092285156,226.83287048339844
1329.956,-23.153139114379883,-79.64801025390625,2.606263875961304,-0.6040084362030029,-0.015085007995367,0.8133193254470825,-1.849776029586792,32.95420455932617,-141.44557189941406,14.395803451538086,-1.5939030647277832,-8.468095779418945,-1.0076696872711182,-0.1535643190145492,-0.1670690327882766,-134.20181274414062,75.07865142822266,85.86539459228516,82.98593856580356,1.013184126216116,16.77761395802387,1.0329047683287582,-132.35203671455383,42.12444686889648,227.3109664916992
1344.698,-16.636390686035156,-80.87818908691406,-0.496248185634613,-0.608975887298584,-0.0648189038038253,0.8773123025894165,-2.174046516418457,31.362533569335938,-141.40069580078125,10.61392879486084,0.1313290894031524,-9.178756713867188,-0.9531128406524658,-0.1801740229129791,-0.1421043276786804,-133.47393798828125,74.95915985107422,86.49183654785156,82.57298121842743,1.0699205568060517,14.03290086206204,0.9803470841973618,-131.2998914718628,43.59662628173828,227.8925323486328
1370.603,-6.687379360198975,-87.39903259277344,2.353026390075684,-0.5745238661766052,-0.0339329242706298,0.8856703639030457,-2.2402050495147705,29.641786575317383,-141.26766967773438,6.946063041687012,4.209096908569336,-3.923274278640747,-0.9330658912658693,-0.2301099747419357,-0.1938406527042389,-133.32432556152344,74.81697082519531,86.59437561035156,87.6860802753338,1.0562391346907307,9.019776584276478,0.9803758241410844,-131.08412051200867,45.17518424987793,227.862045288086
1380.348,-6.716695785522461,-88.96857452392578,1.9405102729797363,-0.5321491956710815,-0.02407081797719,0.901923418045044,-2.30733585357666,27.88277816772461,-141.13955688476562,13.511797904968262,0.3853174149990082,-4.660037517547607,-0.9740845561027528,-0.2066023051738739,-0.195683553814888,-132.8452911376953,74.73316192626953,86.89617919921875,89.24285313241688,1.047486526285434,14.298010414038645,1.0147991368614182,-130.53795528411865,46.85038375854492,228.0357360839844
1391.302,-8.455886840820312,-90.53536987304688,2.4185831546783447,-0.5064687728881836,-0.0323452055454254,0.9289135336875916,-2.4103593826293945,26.091197967529297,-141.00006103515625,19.624589920043945,-3.577049493789673,-4.128321647644043,-0.9890273213386536,-0.2027000486850738,-0.1674083471298217,-132.02902221679688,74.72496032714844,87.41820526123047,90.96155652136926,1.0585070539682797,20.370637011083325,1.0233708549592286,-129.61866283416748,48.63376235961914,228.41826629638672
1414.513,-11.20803928375244,-93.51966094970705,5.384505748748779,-0.4577669501304626,0.0108960326761007,0.942919373512268,-2.5154500007629395,24.2343978881836,-140.77955627441406,14.87131690979004,-5.999054431915283,-4.063754558563232,-0.99345463514328,-0.1860590875148773,-0.1596262156963348,-131.19781494140625,74.75835418701172,88.0367202758789,94.3426734351566,1.0482205154949946,16.542636483364223,1.023254916857021,-128.6823649406433,50.523956298828125,228.81627655029297
1435.249,-13.086915969848633,-92.4389419555664,3.470499038696289,-0.4027889668941498,-0.0376130640506744,0.9259077906608582,-2.708200693130493,22.39214324951172,-140.6112823486328,7.469026565551758,-12.14361572265625,-7.292514801025391,-1.0071905851364136,-0.1543072462081909,-0.127992108464241,-130.0167999267578,74.8457260131836,89.1067123413086,93.42520924806134,1.010425124017316,16.013573391958346,1.0269496486434515,-127.30859923362732,52.45358276367188,229.7179946899414
1451.298,-7.902245998382568,-93.25270080566406,2.292812824249268,-0.3733927607536316,-0.0679927840828895,0.9440631866455078,-2.8261964321136475,20.53191566467285,-140.46990966796875,3.012209892272949,-9.0493803024292,-3.701874256134033,-0.982042133808136,-0.1780360639095306,-0.1132792532444,-129.21157836914062,74.9355239868164,89.8756103515625,93.61500248366548,1.017497161101608,10.230765626351165,1.0044579542432048,-126.38538193702698,54.40360832214356,230.34552001953125
1474.723,-6.173622608184815,-96.23844146728516,3.849012851715088,-0.3278864324092865,-0.0187667533755302,0.9625914692878724,-2.8711540699005127,18.6053524017334,-140.2813720703125,-1.5974053144454956,-11.61259651184082,0.3524429202079773,-0.9893391132354736,-0.1760216951370239,-0.1466608345508575,-128.59463500976562,75.10755157470703,90.62272644042967,96.51303607333584,1.0170762214977462,11.727246799545108,1.0155219931284691,-125.72348093986513,56.50219917297363,230.9040985107422
1496.214,-16.048982620239258,-94.88092803955078,1.3758652210235596,-0.2944173812866211,-0.0330019779503345,0.9400529265403748,-3.1419665813446045,16.708707809448242,-140.14564514160156,-1.7658443450927734,-18.151779174804688,-2.1333718299865723,-0.9784735441207886,-0.1524018049240112,-0.1105667054653167,-127.43511962890624,75.33793640136719,91.94537353515624,96.23852323211104,0.9856318935837198,18.361823679225044,0.9964244994207274,-124.29315304756165,58.62922859191895,232.0910186767578
1518.653,-17.64639663696289,-93.08308410644533,-0.3373423218727112,-0.2778607010841369,-0.0523374527692794,0.9378135204315186,-3.465313196182251,14.856452941894531,-140.04080200195312,-4.22938871383667,-16.03072166442871,-2.902024745941162,-0.9983804225921632,-0.1780616492033004,-0.1131655052304267,-126.3694076538086,75.51142883300781,93.21460723876952,94.74159414364271,0.9795100700214894,16.831325366743044,1.0204292482609283,-122.90409445762634,60.65497589111328,233.25540924072263
1541.358,-15.500879287719728,-93.07643127441406,-0.9658090472221376,-0.2396799772977829,-0.0565122552216053,0.9695502519607544,-3.748570680618286,12.996628761291504,-139.93955993652344,-3.810078859329224,-14.418724060058594,2.616618633270264,-0.9679800868034364,-0.2005492448806762,-0.11514812707901,-125.60206604003906,75.73519897460938,94.15414428710938,94.36329850417948,1.000333853063496,15.141433139118542,0.995220849480155,-121.85349535942078,62.73857021331787,234.0937042236328
1551.229,-17.424007415771484,-91.79586791992188,-1.0239403247833252,-0.1998563706874847,-0.0679473727941513,0.948234796524048,-4.076732635498047,11.161187171936035,-139.83302307128906,-2.207479476928711,-19.49996566772461,6.0548481941223145,-0.9981427788734436,-0.1817712932825088,-0.0991569310426712,-124.60261535644533,76.08527374267578,95.30322265625,93.44049365979032,0.9714466756919822,20.537351663185937,1.0193929110272433,-120.52588272094728,64.92408657073975,235.13624572753903
1574.806,-18.334041595458984,-90.05314636230469,0.5309953689575195,-0.1875687390565872,-0.0549172908067703,0.9503815174102784,-4.408166408538818,9.374409675598145,-139.68533325195312,-2.4941627979278564,-21.642290115356445,5.489914894104004,-0.994266927242279,-0.1945214867591858,-0.0902771949768066,-123.36040496826172,76.43761444091797,96.70982360839844,91.90205768673812,0.9702695343748028,22.46661378677988,1.0171309175085024,-118.9522385597229,67.06320476531982,236.3951568603516
1596.241,-22.637205123901367,-89.47911834716797,2.6350245475769043,-0.1768218874931335,-0.0372271351516246,0.9542635083198548,-4.808899402618408,7.612686634063721,-139.48365783691406,-4.175408840179443,-22.738845825195312,1.5373154878616333,-0.99077570438385,-0.1995643675327301,-0.0953996703028678,-121.85015869140624,76.71918487548828,98.42945098876952,92.33579495718013,0.9712212326752072,23.17007741363568,1.0151667499873844,-117.04125928878784,69.10649824142456,237.9131088256836
1618.616,-24.71498680114746,-86.1133041381836,1.4969475269317627,-0.1540368050336837,-0.0855381190776825,0.923802614212036,-5.283706188201904,5.9278669357299805,-139.3017120361328,-10.46292781829834,-23.43741226196289,-4.244018077850342,-0.9689547419548036,-0.1823513358831405,-0.1051602214574813,-120.1582489013672,76.89892578125,100.45392608642578,89.60230228110541,0.9404548777827276,26.01531936212297,0.991556339212277,-114.87454271316528,70.97105884552002,239.7556381225586
1641.261,-19.4484806060791,-84.92162322998047,2.2379038333892822,-0.1321747750043869,-0.0805006772279739,0.9277397394180298,-5.649337291717529,4.270999431610107,-139.09410095214844,-9.289703369140623,-21.286821365356445,1.3093111515045166,-0.9655920267105104,-0.1970041245222091,-0.1139100492000579,-118.80706024169922,77.1299819946289,102.09203338623048,87.14891682325886,0.9405591710663698,23.26245146622927,0.9920454054298284,-113.15772294998168,72.8589825630188,241.1861343383789
1651.484,-17.829113006591797,-83.202392578125,2.229974269866944,-0.0851001515984535,-0.0929681658744812,0.9170206785202026,-5.9927496910095215,2.637957811355591,-138.88087463378906,-9.767743110656738,-19.24602699279785,3.439532995223999,-0.9682270884513856,-0.1861934214830398,-0.1281928867101669,-117.71910858154295,77.37158966064453,103.47273254394533,85.12043342565003,0.9256414211247236,21.85517667987428,0.9942661118723164,-111.72635889053343,74.73363184928894,242.3536071777344
1674.92,-16.188127517700195,-79.26914978027344,-0.0942988321185112,-0.0546398125588893,-0.1219085752964019,0.9189302921295166,-6.325084209442139,1.0764080286026,-138.71310424804688,-7.668319702148437,-19.87087821960449,3.592822551727295,-0.9813319444656372,-0.1898170113563537,-0.0852596014738082,-116.4043426513672,77.62378692626953,105.01561737060548,80.90526850388969,0.9285903788218504,21.60007643877471,1.0031510766940537,-110.07925844192503,76.54737889766693,243.7287216186524
1698.435,-14.026196479797363,-77.92716217041016,1.5389264822006226,-0.0408197417855262,-0.0945428386330604,0.9382128715515136,-6.597683906555176,-0.4473776221275329,-138.50729370117188,-5.1678786277771,-16.457767486572266,3.374949216842652,-0.9734179973602296,-0.1768888533115387,-0.1021551564335823,-115.330322265625,77.83387756347656,106.26500701904295,79.19435009103177,0.9438474410629988,17.577126112359135,0.9946194950817324,-108.73263835906982,78.2812551856041,244.77230072021484
1718.554,-11.046514511108398,-76.29705810546875,-0.6978800892829895,-0.0244720429182052,-0.1225292906165123,0.9548011422157288,-6.82811164855957,-1.938264966011048,-138.3427734375,-4.362655162811279,-15.131579399108888,3.347663164138794,-0.9541007280349731,-0.1950519829988479,-0.0844603478908538,-114.2572784423828,78.01849365234375,107.49136352539062,77.09574304079585,0.9629421213759612,16.099823099701194,0.9774901665359568,-107.42916679382324,79.9567586183548,245.83413696289065
1741.462,-3.87705135345459,-75.40091705322266,2.515549898147583,0.0059619238600134,-0.1293930113315582,0.8906995058059692,-6.9304280281066895,-3.40671706199646,-138.1112060546875,-5.369592666625977,-14.369380950927734,6.050358295440674,-0.9479667544364928,-0.1813896596431732,-0.0973928049206733,-113.39793395996094,78.24393463134766,108.5221176147461,75.54242391500526,0.9000687226876397,16.489950570622582,0.9700662526820736,-106.46750593185423,81.65065169334412,246.6333236694336
1761.304,-0.4430235028266907,-72.5551528930664,3.1968092918396,0.0421012416481971,-0.1002221629023552,0.9317614436149596,-6.948381423950195,-4.824175834655762,-137.8726043701172,-7.639819145202637,-15.327564239501951,6.150203227996826,-0.9790668487548828,-0.1860884428024292,-0.0883969068527221,-112.44497680664062,78.47628784179688,109.6925277709961,72.6268963319285,0.938081224784176,18.19686956135935,1.0005072793421237,-105.49659538269044,83.30046367645264,247.56513214111328
1771.138,-2.649022102355957,-69.94386291503906,2.008485555648804,0.0828266665339469,-0.1264996230602264,0.9438847899436952,-7.028328895568848,-6.202788352966309,-137.6612091064453,-13.105199813842772,-13.534872055053713,3.8595871925354,-1.005290150642395,-0.1730818003416061,-0.0774152427911758,-111.6357421875,78.65882110595703,110.80791473388672,70.02281979329165,0.9559188815012276,19.23110597454556,1.023014524043778,-104.60741329193117,84.86160945892334,248.46912384033203
1792.645,-0.5226929187774658,-68.10014343261719,2.845233678817749,0.099459059536457,-0.1252470314502716,0.9423402547836304,-7.070984363555908,-7.538733005523682,-137.4354248046875,-19.917160034179688,-10.909820556640623,-1.3178993463516235,-0.9793249368667604,-0.1434307843446731,-0.0678869783878326,-111.01425170898438,78.73509979248047,111.86827850341795,68.16155880052519,0.9558159232805546,22.747622009615355,0.9920979607384758,-103.94326734542848,86.27383279800415,249.30370330810547
1814.729,3.5975828170776367,-68.63511657714844,2.2423787117004395,0.1093789190053939,-0.1169817820191383,0.9726252555847168,-7.027832508087158,-8.877495765686035,-137.220703125,-17.54117774963379,-9.4580717086792,3.079462766647339,-0.9679819345474244,-0.1960913687944412,-0.0707236677408218,-110.57882690429688,78.85167694091797,112.69412994384766,68.76590791934021,0.9857222595885706,20.16509678186377,0.9901730594722146,-103.55099439620972,87.729172706604,249.91483306884768
1831.309,3.322762966156006,-67.46272277832031,2.620115041732788,0.1379528492689132,-0.1257907301187515,0.932064652442932,-7.00466775894165,-10.198582649230955,-137.0000457763672,-13.709294319152832,-8.238937377929688,4.840173244476318,-0.9661603569984436,-0.1899034976959228,-0.0869365632534027,-110.28787994384766,78.9908447265625,113.29944610595705,67.59530102918154,0.9505781465712244,16.7108383058166,0.98847718228739,-103.283212184906,89.18942737579346,250.29949188232425
1853.937,3.725744247436523,-66.05028533935547,4.51530647277832,0.1485998183488845,-0.0979964882135391,0.9118936061859132,-6.969670295715332,-11.482827186584473,-136.74716186523438,-14.273754119873049,-2.63836932182312,4.2423930168151855,-0.9903579950332642,-0.1899296641349792,-0.0860331580042839,-110.52052307128906,79.08052062988281,113.38095092773438,66.30919511011045,0.929104497200534,15.122795636457315,1.0120691379154505,-103.55085277557372,90.56334781646729,250.12811279296875
1876.6,-0.9386026859283448,-62.166690826416016,4.393786430358887,0.1814351081848144,-0.1114516630768776,0.9188910126686096,-7.038773536682129,-12.696372032165527,-136.5033416748047,-10.850068092346191,-4.680672645568848,2.587976217269897,-0.9879326224327089,-0.187076985836029,-0.0743111297488212,-110.39148712158205,79.15667724609375,113.7573471069336,62.32883588279854,0.943239558568119,12.09670595346849,1.0082315255440135,-103.3527135848999,91.85304927825928,250.26068878173828
1898.347,2.78380823135376,-59.86117935180664,4.627441883087158,0.192734807729721,-0.1439188122749328,0.9688706994056702,-7.053653717041016,-13.852115631103516,-136.25497436523438,-12.814276695251465,0.027111530303955,2.428441047668457,-0.9707245230674744,-0.185190737247467,-0.0630704313516616,-110.7232437133789,79.1973876953125,113.70101165771484,60.10427272698226,0.9982834080580888,13.04238276464624,0.99024218661786,-103.66958999633788,93.04950332641602,249.9559860229492
1920.738,3.270352363586426,-61.69138717651367,8.128713607788086,0.2144104391336441,-0.1162742972373962,0.9536740779876708,-7.067901134490967,-15.038506507873535,-135.93258666992188,-16.527624130249023,6.095534324645996,2.462356805801392,-0.9721952080726624,-0.212431713938713,-0.0943028032779693,-111.77916717529295,79.1729736328125,112.97502899169922,62.31050024885028,0.9843707612648632,17.787104855282205,0.9995918038842004,-104.711266040802,94.21148014068604,248.9076156616211
1930.955,-4.524935722351074,-59.5235595703125,8.942220687866211,0.2567894756793976,-0.1130526959896087,0.8784408569335938,-7.251537799835205,-16.203458786010742,-135.59439086914062,-10.045272827148438,1.0877529382705688,3.2825963497161865,-0.9821372628211976,-0.1975188106298446,-0.0847490429878234,-112.22830200195312,79.2115707397461,112.7289581298828,60.36134937228004,0.922160553277164,10.623848239773244,1.0053803677523718,-104.97676420211792,95.41502952575684,248.32334899902344
1953.387,-12.899218559265137,-53.76587677001953,6.7733964920043945,0.2775992155075073,-0.1461367607116699,0.9109427332878112,-7.608908176422119,-17.253856658935547,-135.30410766601562,-12.2174654006958,1.5640225410461426,-0.4051288962364197,-0.9865928292274476,-0.1836881637573242,-0.076727345585823,-112.61176300048828,79.18663787841797,112.59319305419922,55.704921185892665,0.9634489818415668,12.32382881853952,1.00647594991048,-105.00285482406616,96.44049453735352,247.89730072021484
1975.914,-10.88115406036377,-54.84124374389648,6.110653877258301,0.2933695912361145,-0.165636733174324,0.9836798310279846,-7.930736064910889,-18.30961799621582,-135.01625061035156,-9.719582557678224,5.720359802246094,1.3709605932235718,-0.9932678937911988,-0.1823842227458953,-0.0473612174391746,-113.32808685302734,79.16993713378906,112.06670379638672,56.24323621441505,1.039772693625848,11.361000585813189,1.010983777545589,-105.39735078811646,97.47955513000488,247.08295440673828
1998.366,-9.249420166015623,-56.72357177734375,7.051104545593262,0.3064894080162048,-0.1757640391588211,0.9252492785453796,-8.244827270507812,-19.405174255371094,-134.6917266845703,-11.270760536193848,7.88120698928833,-2.4349818229675293,-0.9747427105903624,-0.1758181452751159,-0.0772538185119628,-114.20806884765624,79.05824279785156,111.40375518798828,57.90365656761109,0.9904115216092212,13.96683941163548,0.9934805103934896,-105.96324157714844,98.46341705322266,246.0954818725586
2018.206,-7.505184173583984,-56.3596305847168,7.06845235824585,0.3192647695541382,-0.1246502101421356,0.8911622762680054,-8.501180648803711,-20.49601173400879,-134.37017822265625,-6.9188432693481445,7.953683376312256,5.62169075012207,-0.9831475615501404,-0.2077216953039169,-0.0911087691783905,-115.32085418701172,79.07439422607422,110.41948699951172,57.29484067406028,0.954797292942386,11.947170306245663,1.0089738541226534,-106.819673538208,99.570405960083,244.789665222168
2040.734,-14.592626571655272,-53.71108627319336,6.436460494995117,0.3457885384559631,-0.1210366636514663,0.8714615106582642,-8.896428108215332,-21.54324150085449,-134.06317138671875,-7.447271823883057,3.940621852874756,-0.0145515799522399,-1.0287680625915527,-0.1711240410804748,-0.0812755301594734,-115.83527374267578,79.04545593261719,110.0543212890625,56.02904213539468,0.9453384324326252,8.425590184351222,1.0460654261788755,-106.93884563446044,100.58869743347168,244.11749267578125
2050.855,-16.09360122680664,-53.0335578918457,3.755703210830689,0.3509258031845093,-0.1700917482376098,0.96211576461792,-9.325678825378418,-22.556072235107425,-133.7985382080078,-10.760852813720703,7.959743976593018,-2.702263832092285,-0.9780958890914916,-0.1445857882499694,-0.0925149247050285,-116.71778869628906,78.93781280517578,109.38922882080078,55.54878549278162,1.0381458792893916,13.654878515376977,0.9930436192407248,-107.39210987091064,101.4938850402832,243.1877670288086
2076.375,-8.72265911102295,-56.86187744140625,4.2144646644592285,0.383777379989624,-0.1880876123905182,0.9262164235115052,-9.635687828063965,-23.654428482055664,-133.4967803955078,-10.589048385620115,11.711565017700195,3.292043685913086,-0.9823997020721436,-0.1560743451118469,-0.0922531336545944,-118.16934204101562,78.89540100097656,108.1466064453125,57.68118931277849,1.0200680813107084,16.128429945496343,0.9989889971879674,-108.53365421295166,102.54982948303224,241.6433868408203
2096.152,-7.742263793945312,-57.64390182495117,3.3990540504455566,0.3946796059608459,-0.1519111692905426,0.8821137547492981,-9.90864086151123,-24.775278091430664,-133.2092742919922,-12.967217445373535,12.745285034179688,-0.0241031944751739,-0.9817376732826232,-0.1594956964254379,-0.1169341132044792,-119.5791473388672,78.77611541748047,106.9889144897461,58.2607555280353,0.978250311032168,18.18217808300393,1.0014595963649917,-109.67050647735596,103.55139350891112,240.19818878173828
2117.528,-10.38644027709961,-56.07119369506836,1.03454327583313,0.4176723957061767,-0.1712048947811126,0.8417325019836426,-10.233098983764648,-25.88234519958496,-132.96397399902344,-7.042069911956787,12.555809020996094,6.229989051818848,-0.9916135668754578,-0.1673720031976699,-0.1070005148649215,-121.14451599121094,78.75666046142578,105.53868103027344,57.0344385771369,0.9551308554473528,15.686040048476118,1.0113159563891134,-110.91141700744627,104.63900566101074,238.50265502929688
2138.336,-7.949501991271973,-55.493255615234375,-0.4837425351142883,0.4305729866027832,-0.1886917650699615,0.8723503947257996,-10.505167007446287,-26.969615936279297,-132.7434844970703,-9.339624404907228,16.203248977661133,1.5368714332580566,-0.9787179231643676,-0.152250275015831,-0.0989210158586502,-122.79151916503906,78.61894226074219,104.04622650146484,56.06184092167557,0.99095554399555,18.76528271194388,0.9954166397765696,-112.28635215759276,105.58855819702148,236.7897109985352
2161.001,-2.4390439987182617,-56.91429901123047,-0.7833551168441772,0.4538556635379791,-0.2020621001720428,0.8815991282463074,-10.678374290466309,-28.08320999145508,-132.5143280029297,-10.116626739501951,16.599607467651367,4.315186500549316,-1.0031185150146484,-0.1637538820505142,-0.1041565984487533,-124.57923126220705,78.51146697998047,102.43569946289062,56.971923021840496,1.0119442072446905,19.912657763368404,1.0217194752241057,-113.90085697174072,106.59467697143556,234.9500274658203
2180.962,-0.3838122487068176,-58.20149993896485,-0.226115807890892,0.4719331562519073,-0.1666995584964752,0.866150438785553,-10.803656578063965,-29.223194122314453,-132.27191162109375,-8.327157020568848,17.77737045288086,4.292464733123779,-0.9884017705917358,-0.1661523729562759,-0.1212689131498336,-126.40579986572266,78.37313079833984,100.7576675415039,58.20320468278496,1.000363048788395,20.09481768390253,1.0095795265576764,-115.60214328765868,107.5963249206543,233.02957916259768
2190.99,-8.399181365966797,-56.15011596679688,-0.7744417190551758,0.4746751487255096,-0.1520530879497528,0.8116879463195801,-11.081550598144531,-30.330358505249023,-132.0460968017578,-10.173778533935549,18.4381103515625,0.034488596022129,-0.993704319000244,-0.1604925096035003,-0.1443169713020324,-128.06790161132812,78.14496612548828,99.28176879882812,56.78011562756239,0.9525092968434152,21.05874812179536,1.0168743813492207,-116.9863510131836,108.4753246307373,231.327865600586
2213.128,-11.154982566833496,-53.42665100097656,-2.148647785186768,0.4855774343013763,-0.1754994094371795,0.8006826043128967,-11.415105819702148,-31.38511085510254,-131.8470001220703,-9.610725402832031,21.261035919189453,-0.6313184499740601,-0.9745503664016724,-0.1624065041542053,-0.1447116285562515,-129.80322265625,77.8607406616211,97.72052764892578,54.62103404871878,0.952721428469408,23.34087089444142,0.99853179452866,-118.38811683654784,109.24585151672365,229.5675277709961
2230.66,-7.890705108642578,-51.953460693359375,-2.440041303634644,0.4989665746688843,-0.2068281173706054,0.8118109703063965,-11.700526237487791,-32.402442932128906,-131.6436309814453,-8.929950714111328,21.30862045288086,-2.249353170394897,-0.9631781578063964,-0.1669305264949798,-0.1519086211919784,-131.34498596191406,77.53925323486328,96.3347396850586,52.6058847154141,0.975080798847809,23.213377932704137,0.9892695252274089,-119.64445972442628,109.9416961669922,227.9783706665039
2253.259,-3.711756706237793,-51.77848434448242,-1.711746335029602,0.5233054161071777,-0.1875770390033722,0.7995104193687439,-11.904349327087402,-33.4196891784668,-131.4239501953125,-9.515786170959473,23.905187606811523,-2.25870418548584,-0.9650444388389589,-0.1791483759880066,-0.1638841480016708,-132.97885131835938,77.16830444335938,94.87068939208984,51.93956732948013,0.9737816052727448,25.82847122006663,0.995119552375178,-121.07450199127196,110.58799362182616,226.2946395874024
2275.777,-8.863568305969238,-48.89311981201172,-0.7137449979782104,0.5471829175949097,-0.1548943370580673,0.7350062131881714,-12.208032608032228,-34.40109634399414,-131.19610595703125,-6.467199325561523,24.517032623291016,-0.2518190741539001,-0.9621925950050354,-0.1898020207881927,-0.1727242618799209,-134.6035919189453,76.80461120605469,93.3517074584961,49.6951651570699,0.9293199311246648,25.35691165371223,0.9958278303099232,-122.39555931091309,111.20570755004884,224.5478134155273
2290.742,-15.300110816955566,-43.82174682617188,-2.704822540283203,0.5628671050071716,-0.1933129578828811,0.7403404116630554,-12.630244255065918,-35.28423309326172,-131.0187225341797,-3.2355239391326904,21.67034912109375,-2.8526611328125,-0.9700436592102052,-0.1755008697509765,-0.1698623895645141,-135.76904296875,76.44780731201172,92.2367172241211,46.49467658649375,0.9498911530938716,22.095481930237423,1.0003191927809043,-123.13879871368408,111.73204040527344,223.2554397583008
2313.6510000000003,-11.72301959991455,-42.185813903808594,-1.3624101877212524,0.5792613625526428,-0.2138982117176056,0.7550848722457886,-13.010292053222656,-36.121681213378906,-130.803466796875,-2.0992586612701416,21.493783950805664,-0.79286128282547,-0.9749388098716736,-0.1780737191438675,-0.1603258103132248,-136.93301391601562,76.12435150146484,91.10863494873048,43.8055732160459,0.9754226445068686,21.6106053701564,1.003952338458513,-123.92272186279295,112.24603271484376,221.91210174560547
2336.52,-8.780385971069336,-40.97916793823242,-0.5902992486953735,0.5935896635055542,-0.1997856497764587,0.7628053426742554,-13.330571174621582,-36.92673110961914,-130.5769500732422,-2.609090805053711,19.0975284576416,-2.1076748371124268,-0.963786244392395,-0.1822723895311355,-0.1782750785350799,-137.86155700683594,75.80610656738281,90.22754669189452,41.91343264293462,0.9869827684866778,19.389823135821626,0.996939894122046,-124.53098583221436,112.73283767700195,220.80449676513672
2358.273,-9.841551780700684,-38.81156921386719,-0.1035788506269455,0.6041301488876343,-0.1898460835218429,0.7268463373184204,-13.675281524658203,-37.6974983215332,-130.3451385498047,-1.0108681917190552,17.310138702392578,0.104608379304409,-0.9559133648872375,-0.170936718583107,-0.1931356340646743,-138.78857421875,75.54058837890625,89.32595825195312,40.04003964625052,0.9640126401125562,17.339945193400105,0.9900965084654956,-125.1132926940918,113.23808670043944,219.6710968017578
2381.332,-11.560401916503906,-34.69001007080078,-0.7763358354568481,0.6058283448219299,-0.1972511857748031,0.6971495747566223,-14.043752670288086,-38.39396667480469,-130.1418914794922,-2.4710280895233154,12.684377670288086,-1.8638622760772705,-0.9642900228500366,-0.1662430018186569,-0.1983680129051208,-139.37826538085938,75.31929016113281,88.80438995361328,36.57379373968171,0.9444329215262376,13.056546223481162,0.9984196774732198,-125.33451271057127,113.7132568359375,218.94628143310547
2390.701,-10.820025444030762,-32.17427062988281,-0.9923256039619446,0.6160452961921692,-0.208863228559494,0.7260037064552307,-14.38964557647705,-39.02802658081055,-129.9528350830078,-0.8166880011558533,10.727742195129396,-1.1989835500717163,-0.9646427631378174,-0.1694419980049133,-0.2083213776350021,-139.8646240234375,75.1323013305664,88.34986114501953,33.95940740470439,0.974790765750028,10.825386526574198,1.001321151050853,-125.47497844696044,114.16032791137695,218.3026962280273
2413.779,-7.183157444000244,-30.486616134643555,-1.347437024116516,0.631659984588623,-0.2318467646837234,0.7062929272651672,-14.673287391662598,-39.63618469238281,-129.76626586914062,0.5196933150291443,12.774697303771973,-1.5248764753341677,-0.9500821828842164,-0.157133936882019,-0.2037997245788574,-140.40206909179688,74.91429901123047,87.80570983886719,31.35039235385045,0.9754983124176116,12.87587746950523,0.9843178125445552,-125.72878170013428,114.55048370361328,217.5719757080078
2436.478,-4.955426216125488,-28.248998641967773,-2.8684563636779785,0.6354717016220093,-0.2281192988157272,0.7080175876617432,-14.877150535583496,-40.20380401611328,-129.63133239746094,0.4915392994880676,7.952231407165527,0.2798536717891693,-0.9617160558700562,-0.1763752698898315,-0.1996671855449676,-140.76011657714844,74.79168701171875,87.44309997558594,28.823431703523536,0.978341250532198,7.972321701591382,0.9979343630371772,-125.88296604156494,114.99549102783205,217.07443237304688
2458.092,-4.890476703643799,-25.33877182006836,-2.39137864112854,0.6501712203025818,-0.2091637998819351,0.638588011264801,-15.07721996307373,-40.74243927001953,-129.50071716308594,2.5427021980285645,6.907721519470215,1.640007257461548,-0.9566494226455688,-0.1658262759447097,-0.209911823272705,-141.1290740966797,74.70159912109375,87.05963897705078,25.916959920940165,0.9350223307611064,7.54132447670419,0.9933475953519304,-126.05185413360596,115.44403839111328,216.56035614013672
2480.6110000000003,-8.272090911865234,-19.274145126342773,-4.087859153747559,0.6456423997879028,-0.2168731093406677,0.6635507941246033,-15.290078163146973,-41.15478515625,-129.45314025878906,2.799144744873047,2.2133989334106445,-0.2202202975749969,-0.9662010073661804,-0.1696926802396774,-0.2079760134220123,-141.1588592529297,74.66254425048828,87.02628326416016,21.368920208245527,0.9508878537148128,3.575310213203575,1.0027931065385622,-125.86878108978271,115.81732940673828,216.4794235229492
2490.678,-5.253403186798096,-16.773487091064453,-4.304384708404541,0.6489009857177734,-0.2415966093540191,0.7029144763946533,-15.43662929534912,-41.49993515014648,-129.42141723632812,4.062620162963867,-0.5869030952453613,-0.6906977891921997,-0.927902340888977,-0.1678480952978134,-0.2111582905054092,-141.0172576904297,74.65492248535156,87.14064025878906,18.09629359717379,0.9866763258749174,4.162499401528382,0.9663144213823542,-125.58062839508057,116.15485763549805,216.5620574951172
2513.94,-1.7388675212860107,-17.073518753051758,-4.062736034393311,0.6617397665977478,-0.2284403443336486,0.733801007270813,-15.501378059387209,-41.841793060302734,-129.39210510253906,5.341691017150879,-2.421347379684448,1.833709716796875,-0.954599916934967,-0.1842154860496521,-0.1978486478328704,-140.86366271972656,74.71183013916016,87.23172760009766,17.636170983310162,1.0141737661208643,6.144841526133153,0.992139321951333,-125.36228466033936,116.55362319946288,216.62383270263672
2537.858,-4.119058609008789,-15.878307342529297,-4.132648944854736,0.6696279048919678,-0.210008293390274,0.6742373108863831,-15.606032371520996,-42.18529510498047,-129.37322998046875,6.266600131988525,-0.9020757079124452,3.4821722507476807,-0.9707191586494446,-0.1766682267189026,-0.20917609333992,-140.8839874267578,74.76565551757812,87.12691497802734,16.916443928606217,0.9731911249564512,7.225617024235474,1.0085940636976,-125.27795505523682,116.9509506225586,216.5001449584961
2557.791,-7.430572032928467,-11.861266136169434,-4.877483367919922,0.6624681353569031,-0.2096659392118454,0.6339144110679626,-15.75273609161377,-42.46513366699219,-129.39662170410156,5.918390274047852,-3.343130588531494,2.561342239379883,-0.9432999491691588,-0.1669136136770248,-0.2125064730644226,-140.76800537109375,74.84278106689453,87.16368103027344,14.822040314812057,0.940569676838712,7.263906637282083,0.9812410252468764,-125.01526927947998,117.30791473388672,216.560302734375
2580.3950000000004,-5.629998207092285,-7.514522075653076,-5.628130435943604,0.67640221118927,-0.2399018704891204,0.6454892158508301,-15.847929954528809,-42.66103744506836,-129.4580078125,7.02396821975708,-8.428834915161133,3.399352550506592,-0.9352383613586426,-0.1697895377874374,-0.2029467225074768,-140.4210968017578,75.01028442382812,87.41876983642578,10.94718110023464,0.9652612012018468,11.48638260471209,0.9719499225142196,-124.573166847229,117.67132186889648,216.87677764892572
2600.28,-0.1863579452037811,-5.486823081970215,-7.155668258666992,0.6672090888023376,-0.2434708923101425,0.7151210904121399,-15.782692909240724,-42.79356384277344,-129.58392333984375,8.551304817199707,-10.890241622924805,4.490158557891846,-0.9795086979866028,-0.1685569286346435,-0.1809841692447662,-139.95645141601562,75.24383544921875,87.76685333251953,9.01906564144402,1.00789097502408,14.556225491429988,1.010249472724125,-124.1737585067749,118.0373992919922,217.35077667236328
2610.527,0.1791181117296219,-6.352708339691162,-6.072670936584473,0.6727165579795837,-0.2016676962375641,0.7069901823997498,-15.70443630218506,-42.94518280029297,-129.69512939453125,8.832905769348145,-9.353492736816406,3.151985645294189,-0.9596747756004332,-0.171647161245346,-0.1852586567401886,-139.47764587402344,75.42803955078125,88.12818145751953,8.790126213608595,0.9965202181066356,13.245492222488435,0.9923503377257988,-123.77320957183838,118.37322235107422,217.8233108520508
2630.4120000000003,-6.27631425857544,-3.761472225189209,-5.322507858276367,0.6636236310005188,-0.169249415397644,0.6441766619682312,-15.74399471282959,-43.06560516357422,-129.81373596191406,9.33820629119873,-8.09047794342041,2.35962986946106,-0.9479488730430604,-0.1754717826843261,-0.198017805814743,-139.01377868652344,75.57169342041016,88.4680404663086,9.048197824687572,0.9402155391500876,12.578783057625587,0.9841790811847754,-123.26978397369383,118.63729858398438,218.28177642822263
2654.276,-9.04172134399414,0.851253867149353,-6.315037250518799,0.6595873832702637,-0.2073011100292205,0.6812779307365417,-15.818406105041504,-43.08131408691406,-129.97842407226562,8.229472160339355,-7.629611015319824,1.8543822765350344,-0.9515534043312072,-0.1578393429517746,-0.2034436464309692,-138.60304260253906,75.7045669555664,88.73283386230469,11.061512260275082,0.9706538442191042,11.374265247057384,0.9857770826869974,-122.78463649749756,118.78588104248048,218.7112579345703
2670.588,-0.8175609111785889,0.8950770497322083,-5.80372953414917,0.6639106869697571,-0.23332579433918,0.7031599283218384,-15.751930236816406,-43.08405685424805,-130.12002563476562,7.513564586639404,-4.781314849853516,1.898199796676636,-0.9579546451568604,-0.15912826359272,-0.1895869523286819,-138.33192443847656,75.79994201660156,88.86963653564453,5.928983494158152,0.9948126513943402,9.105920434482982,0.9894150387703424,-122.57999420166016,118.8839988708496,218.98966217041016
2693.972,3.8560092449188232,1.0792187452316284,-5.200084686279297,0.6640095114707947,-0.1961331367492675,0.6889190673828125,-15.578048706054688,-43.08919143676758,-130.26344299316406,6.211973667144775,-1.047967553138733,3.0198378562927246,-0.9462945461273192,-0.1636774241924286,-0.1978714168071746,-138.35342407226562,75.84659576416016,88.7515869140625,6.563109106318073,0.9767222328064384,6.986148689516301,0.9805186203279652,-122.77537536621094,118.93578720092772,219.01502990722656
2715.245,-0.6448580026626587,3.3639471530914307,-5.295981407165527,0.6651623845100403,-0.1861561238765716,0.6471865773200989,-15.483930587768556,-43.06856155395508,-130.42408752441406,7.72019100189209,-2.5160117149353027,3.6693308353424072,-0.9451728463172911,-0.1696125566959381,-0.1900848448276519,-138.28350830078125,75.92424774169922,88.70821380615234,6.307091354771466,0.94654401170106,8.910423830244097,0.9789036607540168,-122.7995777130127,118.9928092956543,219.1323013305664
2730.318,-4.326679229736328,7.243200778961182,-5.500030040740967,0.6729488968849182,-0.1999864280223846,0.6728511452674866,-15.446328163146973,-42.96635818481445,-130.61434936523438,8.994413375854492,-4.009353160858154,2.787338972091675,-0.967201292514801,-0.1612451523542404,-0.1819472908973693,-138.05941772460938,76.02143096923828,88.7975082397461,10.071466682188284,0.9724111542447202,10.234434194891994,0.9972879002900495,-122.6130895614624,118.98778915405272,219.41185760498047
2754.298,-2.3778562545776367,8.53721809387207,-5.327343940734863,0.6695801615715027,-0.2144355624914169,0.7068692445755005,-15.371249198913574,-42.82326889038086,-130.80612182617188,8.134807586669922,-4.221126556396484,1.068534016609192,-0.9658843874931335,-0.1671100407838821,-0.175069510936737,-137.7183074951172,76.09803771972656,89.00401306152344,10.340158925889636,0.9969876288890794,9.2268504280664,0.9957448214243472,-122.3470582962036,118.92130661010742,219.8101348876953
2775.307,-0.971788763999939,8.148201942443848,-3.207268714904785,0.6684224009513855,-0.1959340721368789,0.7124148607254028,-15.294234275817873,-42.67710113525391,-130.948486328125,7.413512229919434,-2.7644712924957275,0.803337574005127,-0.961319386959076,-0.1798136383295059,-0.176831305027008,-137.43612670898438,76.14249420166016,89.16551971435547,8.810456339276032,0.996350139509274,7.95284957534131,0.9938496962369224,-122.1418924331665,118.81959533691406,220.11400604248047
2797.751,-4.041023254394531,9.290205955505373,-0.9616701006889344,0.6794954538345337,-0.1719117313623428,0.6838222742080688,-15.301518440246582,-42.51655578613281,-131.04782104492188,7.759963035583496,-2.6568949222564697,-0.4040623307228088,-0.965075671672821,-0.1825180053710937,-0.1775615364313125,-137.07948303222656,76.16756439208984,89.41545867919922,10.17657137845669,0.9792244981948176,8.212148519641104,0.9981041897313314,-121.77796459197998,118.68412017822266,220.4632797241211
2819.804,-7.662388801574707,12.27200698852539,-0.141143336892128,0.6819319128990173,-0.1852287352085113,0.6796741485595703,-15.39218521118164,-42.297325134277344,-131.13983154296875,7.2048540115356445,-4.808457851409912,-1.4080655574798584,-0.9758096933364868,-0.1775901615619659,-0.176917627453804,-136.56582641601562,76.21332550048828,89.84656524658203,14.468388960574105,0.9804579370871728,8.775752779704312,1.0074932605218443,-121.17364120483398,118.51065063476562,220.9863967895508
2830.247,-6.400535583496094,14.639399528503418,1.7229880094528198,0.6762956976890564,-0.2085641026496887,0.6704676151275635,-15.497543334960938,-42.0238037109375,-131.1880645751953,6.985180377960205,-5.650504112243652,-1.550273895263672,-0.9680984020233154,-0.1675119400024414,-0.173547625541687,-136.0154571533203,76.27205657958984,90.31224060058594,16.070082824660982,0.9748854694586642,9.117252370394205,0.9976941136313454,-120.51791381835938,118.29586029052734,221.50030517578125
2853.803,-4.952591896057129,16.587425231933594,2.5565805435180664,0.6787052154541016,-0.2013123482465744,0.6976637244224548,-15.566840171813965,-41.702632904052734,-131.23721313476562,7.166788578033447,-7.3386383056640625,-0.9112818837165833,-0.9777388572692872,-0.1680144071578979,-0.1626700162887573,-135.38401794433594,76.3677978515625,90.82718658447266,17.49876985360323,0.9939326453116224,10.29800492207984,1.0053176852250516,-119.81717777252196,118.07043075561523,222.06439971923828
2872.813,-6.109560012817383,18.47185707092285,2.0749716758728027,0.6813521385192871,-0.2180628776550293,0.6889176964759827,-15.655561447143556,-41.35382461547852,-131.30372619628906,8.473053932189941,-9.336305618286133,-1.6940497159957886,-0.9877796173095704,-0.1566287726163864,-0.1480380892753601,-134.55722045898438,76.48966217041016,91.51946258544922,19.56634188228587,0.9931765944653408,12.721204737606657,1.0110175174841711,-118.90165901184082,117.84348678588869,222.82318878173828
2896.093,-5.465439796447754,20.911651611328125,2.3749923706054688,0.6526511907577515,-0.2056185007095337,0.6663881540298462,-15.72026538848877,-40.95790481567383,-131.3835906982422,5.906106472015381,-9.938032150268556,-3.3611793518066406,-0.9739511013031006,-0.1495600193738937,-0.146879032254219,-133.65452575683594,76.59376525878906,92.36288452148438,21.744166896954024,0.955146960662522,12.039273371494009,0.99625418304797,-117.93426036834715,117.55167007446288,223.74647521972656
2916.496,-6.201491355895996,24.640310287475582,1.514621019363403,0.6428079605102539,-0.2142648249864578,0.6668514609336853,-15.77443504333496,-40.493770599365234,-131.50814819335938,4.039618492126465,-9.481273651123049,-4.652833938598633,-0.9533519744873048,-0.1544627845287323,-0.155018925666809,-132.7469940185547,76.66112518310547,93.257568359375,25.45383002482388,0.950685205665482,11.307605019171191,0.9781460046322858,-116.97255897521973,117.1548957824707,224.7657165527344
2938.684,-1.4735544919967651,26.263412475585938,1.4172942638397217,0.643182635307312,-0.2276622503995895,0.6892242431640625,-15.731050491333008,-39.99384307861328,-131.64303588867188,4.379244327545166,-9.914738655090332,-3.773404598236084,-0.955211877822876,-0.1700869649648666,-0.1559998691082,-131.830810546875,76.73677825927734,94.13786315917967,26.34287229468267,0.9698165084091624,11.476863933194824,0.9826979527538664,-116.099760055542,116.73062133789062,225.7808990478516
2960.393,3.1764848232269287,28.236400604248047,1.130229115486145,0.636883556842804,-0.2298630625009536,0.701858401298523,-15.583415985107422,-39.45475769042969,-131.7970428466797,6.355617046356201,-14.017047882080078,-1.8700838088989256,-0.957679033279419,-0.1654540598392486,-0.1526739299297332,-130.7183074951172,76.89458465576172,95.15522003173828,28.43697931864886,0.9752245423246776,15.503828972894569,0.9837852944522404,-115.13489151000977,116.3493423461914,226.952262878418
2970.345,5.248547554016113,30.29151153564453,0.3834760785102844,0.6132312417030334,-0.2053022533655166,0.7373177409172058,-15.353851318359377,-38.86421585083008,-131.99501037597656,7.452400207519531,-15.004952430725098,-0.7647860646247864,-0.9819579720497132,-0.1693917959928512,-0.1344853937625885,-129.52284240722656,77.08378601074219,96.23712158203124,30.74524315148026,0.980733920137799,16.77115869658398,1.0054955795811076,-114.1689910888672,115.94800186157228,228.2321319580078
3000.043,5.181663036346436,32.987457275390625,0.3241210281848907,0.5957788228988647,-0.2065175622701645,0.7196037769317627,-15.124783515930176,-38.225582122802734,-132.20362854003906,6.535624504089356,-12.15820598602295,-1.4712799787521362,-0.9765928983688354,-0.1634488552808761,-0.1565561294555664,-128.5357208251953,77.21373748779297,97.13922882080078,33.39351769069668,0.9567818482366952,13.881679481708774,1.0024764531435038,-113.41093730926514,115.4393196105957,229.34285736083984
3020.1,8.561969757080078,35.79486083984375,0.9149379730224608,0.5729641914367676,-0.2016821056604385,0.7149590253829956,-14.831255912780762,-37.52693176269531,-132.41049194335938,5.88501501083374,-8.973873138427734,-2.171542167663574,-0.951015830039978,-0.1714647263288498,-0.1636450439691543,-127.7403793334961,77.27949523925781,97.86156463623048,36.815981586254246,0.9381524632963556,10.948944979689792,0.9801076276498016,-112.90912342071532,114.80642700195312,230.27205657958984
3030.284,11.013381958007812,38.22587585449219,1.4903864860534668,0.5768933892250061,-0.2035117447376251,0.7309992909431458,-14.495108604431152,-36.78063201904297,-132.61141967773438,7.010641574859619,-8.893049240112305,-3.040111541748047,-0.962688446044922,-0.1864486038684845,-0.1468558758497238,-126.8232192993164,77.32811737060547,98.6834487915039,39.808710339244,0.9531961897411512,11.725088411798092,0.9915133757567182,-112.32811069488524,114.10874938964844,231.29486846923828
3052.628,11.008248329162598,40.967918395996094,1.6047329902648926,0.5621547698974609,-0.210453599691391,0.7608402371406555,-14.159993171691896,-35.96955490112305,-132.81752014160156,7.231483459472656,-8.503907203674316,-5.097084999084473,-0.9754995703697203,-0.1820251643657684,-0.1275711804628372,-125.79195404052734,77.34550476074219,99.61681365966795,42.45146684094144,0.9691163858865356,12.271555167998166,1.0005033624823936,-111.63196086883544,113.31505966186523,232.4343338012696
3070.13,12.571072578430176,42.89360046386719,2.5436501502990723,0.5560542941093445,-0.1992493122816085,0.7676197290420532,-13.801512718200684,-35.11960983276367,-133.00790405273438,4.802547931671143,-5.3356146812438965,-6.17076301574707,-0.9618252515792848,-0.1862351298332214,-0.1361048221588134,-125.0036392211914,77.29886627197266,100.35225677490234,44.77011260442778,0.9685745788821482,9.466338619509449,0.9890985091356844,-111.20212650299072,112.41847610473631,233.36016082763672
3093.647,11.877552032470703,45.35239410400391,3.519527196884156,0.5446195602416992,-0.1873152405023574,0.7625541687011719,-13.46524429321289,-34.22207260131836,-133.18324279785156,5.534304618835449,-4.926983833312988,-6.014450073242188,-0.9671289324760436,-0.1934841275215149,-0.1333057582378387,-124.23471069335938,77.24678039550781,101.03656005859376,47.013859285731314,0.955607830088187,9.543443141304603,0.995261224410144,-110.76946640014648,111.46885299682616,234.2198028564453
3110.026,9.143869400024414,47.560794830322266,4.76769495010376,0.5279324054718018,-0.1737003475427627,0.7959843873977661,-13.18777847290039,-33.266510009765625,-133.34059143066406,6.506767272949219,-4.389944076538086,-8.976788520812988,-0.9907737374305724,-0.2018006145954132,-0.124575950205326,-123.32659912109376,77.13968658447266,101.8425750732422,48.66590662500758,0.9708118151653884,11.924443864887564,1.0187616277632323,-110.13882064819336,110.40619659423828,235.18316650390625
3132.406,9.722493171691896,47.3432731628418,6.074863433837891,0.5258328914642334,-0.1754174679517746,0.8062920570373535,-12.92396640777588,-32.31378173828125,-133.4581756591797,5.397474765777588,-2.538938522338867,-10.910100936889648,-0.9599400758743286,-0.1887592673301696,-0.1078938394784927,-122.49060821533205,76.98561096191406,102.59387969970705,48.71156282634373,0.9784571523831664,12.434196601330642,0.98425407841169,-109.56664180755617,109.29939270019533,236.05205535888672
3155.281,7.91924524307251,48.77018737792969,7.167059421539307,0.5073551535606384,-0.1623463183641433,0.8074157238006592,-12.703712463378906,-31.32894897460937,-133.5555419921875,2.6873466968536377,-1.9610021114349363,-9.0283784866333,-0.9631388187408448,-0.1826146841049194,-0.1240919083356857,-121.90290069580078,76.85527038574219,103.14559936523438,49.92606897053055,0.967308497828626,9.621797111145373,0.9881211002355134,-109.19918823242188,108.18421936035156,236.70114135742188
3178.617,5.312563419342041,49.52311325073242,7.327096939086914,0.4950582683086395,-0.1615345478057861,0.8514012098312378,-12.534834861755373,-30.31966209411621,-133.65037536621094,1.1604968309402466,-2.9933083057403564,-10.16732120513916,-0.986724317073822,-0.1922743767499923,-0.1276233047246933,-121.2321319580078,76.71365356445312,103.81446075439452,50.34330566901797,0.9980281154645214,10.662132431943856,1.013351874606373,-108.69729709625244,107.03331565856934,237.46483612060547
3200.987,5.491426467895508,49.07490158081055,7.8497209548950195,0.4824360311031341,-0.1755013465881347,0.8261853456497192,-12.38689136505127,-29.326398849487305,-133.71978759765625,0.632473349571228,-2.292410373687744,-10.19692611694336,-0.9606208801269532,-0.1812787652015686,-0.1066019460558891,-120.61222839355467,76.57209777832031,104.45196533203124,50.001198474519214,0.9726908409803904,10.4705525209375,0.9833709579562486,-108.22533702850342,105.89849662780762,238.1717529296875
3209.963,4.73453950881958,50.3900146484375,7.889513969421387,0.4528137445449829,-0.1766893863677978,0.8384220600128174,-12.254499435424805,-28.298429489135746,-133.79112243652344,0.0989769399166107,-0.1682341694831848,-8.61280345916748,-0.9745744466781616,-0.195303738117218,-0.1236417889595031,-120.25605010986328,76.4267349243164,104.82880401611328,51.223177091078746,0.9691289786297872,8.615014950460868,1.0016117981621973,-108.00155067443848,104.72516441345216,238.61992645263672
3232.51,4.235584735870361,50.227535247802734,7.105484008789063,0.4535352885723114,-0.1805751621723175,0.8764374852180481,-12.12578582763672,-27.27733993530273,-133.8761749267578,1.622630596160889,2.614952802658081,-7.195671081542969,-0.9654014706611632,-0.1976229548454284,-0.121814452111721,-120.1271743774414,76.27721405029297,104.94916534423828,50.90415875076575,1.0032169818485257,7.826147872707271,0.9929217454461624,-108.00138854980467,103.5545539855957,238.8253402709961
3256.025,4.457427978515625,49.641746520996094,7.037244319915772,0.4431472420692444,-0.1832689046859741,0.8696891665458679,-11.99980640411377,-26.27412986755371,-133.954833984375,1.2348623275756836,0.2746973931789398,-6.235287189483643,-0.9726898670196532,-0.192640870809555,-0.112561397254467,-119.87224578857422,76.17505645751953,105.21234130859376,50.33581696423202,0.993139575279135,6.3623226860340685,0.9979509760809158,-107.87243938446044,102.44918632507324,239.16717529296875
3278.081,5.26243782043457,49.157859802246094,7.805637836456299,0.4231409132480621,-0.1866826862096786,0.8817145228385925,-11.870384216308594,-25.27360916137696,-134.0107421875,0.2675349712371826,0.6358973979949951,-7.833183765411377,-0.989087462425232,-0.2053621113300323,-0.1027191281318664,-119.56981658935548,76.04087829589844,105.54151916503906,50.05113799091026,0.9956501180532006,7.863504839721027,1.0153909711933051,-107.69943237304688,101.3144874572754,239.55226135253903
3299.836,4.791924476623535,48.99663162231445,8.112324714660645,0.4079000055789947,-0.1909196376800537,0.8787600994110107,-11.759711265563965,-24.277402877807617,-134.05477905273438,-1.061927080154419,1.1035236120224,-8.201175689697266,-0.9827138781547546,-0.2200422585010528,-0.1114221364259719,-119.32118225097656,75.88664245605469,105.8428955078125,49.89431092618218,0.987447231461042,8.342945294027624,1.0131929995464488,-107.5614709854126,100.1640453338623,239.89767456054688
3309.914,3.4703521728515625,49.96833801269531,9.338704109191896,0.3904328048229217,-0.1764919012784958,0.8693857192993164,-11.679195404052734,-23.26077651977539,-134.07742309570312,-0.1515846252441406,-0.5439086556434631,-8.54317569732666,-0.9658554792404176,-0.2142799198627472,-0.119384191930294,-118.95932006835938,75.74185180664062,106.2420425415039,50.9518355154515,0.9692361400713356,8.561814382459312,0.9965165709199076,-107.28012466430664,99.00262832641602,240.31946563720703
3335.208,2.5411081314086914,50.625,6.699510097503662,0.3704253733158111,-0.2101219743490219,0.9272932410240172,-11.60912036895752,-22.227428436279297,-134.15216064453125,-0.4533568024635315,0.7846255302429199,-8.88542366027832,-0.9816531538963318,-0.2209593653678894,-0.1025564894080162,-118.65119934082033,75.58263397216797,106.5930633544922,51.12955398868706,1.0204111701413874,8.931512930947518,1.011426610890821,-107.0420789718628,97.81006240844728,240.74522399902344
3354.984,6.528613090515137,49.08625030517578,8.031928062438965,0.3558485209941864,-0.2032604813575744,0.9162441492080688,-11.472569465637209,-21.22371292114257,-134.1906280517578,-1.0797357559204102,1.494814395904541,-6.449400901794434,-0.9702770709991456,-0.2210286557674408,-0.1139418557286262,-118.52384185791016,75.45610046386719,106.7718505859375,50.16567179165659,1.0037162617659836,6.707836564264468,1.0016356661301182,-107.05127239227296,96.67981338500977,240.9624786376953
3377.817,6.404993057250977,49.032135009765625,7.676855087280273,0.3315424025058746,-0.1777572333812713,0.8953064680099487,-11.326544761657717,-20.224279403686523,-134.2372283935547,1.0816619396209717,2.140264749526977,-5.137524127960205,-0.95665043592453,-0.2215310335159301,-0.1232809722423553,-118.46533203125,75.34300231933594,106.83805847167967,50.0410661727987,0.9711290698661948,5.669645484072672,0.9896738116582908,-107.13878726959229,95.56728172302246,241.0752868652344
3400.485,1.8086258172988887,51.62811279296875,6.914164066314697,0.3098762631416321,-0.1835389137268066,0.879706621170044,-11.271546363830566,-19.17774200439453,-134.30612182617188,2.1880905628204346,0.3918423950672149,-8.423234939575195,-0.9821882247924804,-0.2276680320501327,-0.1286446303129196,-118.1572494506836,75.18897247314453,107.14950561523438,52.12042615564862,0.9505753892464572,8.711611080675961,1.0164034054679925,-106.88570308685304,94.36671447753906,241.45562744140625
3410.748,4.964773178100586,53.0015754699707,6.298008441925049,0.2977031469345093,-0.1936696469783783,0.9252263307571412,-11.15045166015625,-18.10197257995605,-134.3912811279297,3.1217641830444336,3.156378746032715,-7.808211326599121,-0.9617955088615416,-0.2231663465499878,-0.1080322861671447,-118.00721740722656,75.02578735351562,107.2739028930664,53.60485878484847,0.9910493726256844,8.981998804485388,0.9932395451013823,-106.85676574707033,93.12775993347168,241.6651840209961
3440.827,7.722723484039307,50.91546630859375,5.375125408172607,0.2867613136768341,-0.2050886452198028,0.9646690487861632,-10.97701644897461,-17.068145751953125,-134.4825439453125,1.1834111213684082,2.3956897258758545,-1.9750299453735352,-0.956754744052887,-0.2394565343856811,-0.1205460578203201,-118.0591049194336,74.96240997314453,107.22042846679688,51.777573722472354,1.0270734039521026,3.322729966453451,0.993604762560912,-107.08208847045898,92.03055572509766,241.70297241210932
3460.871,5.921926975250244,50.58271789550781,6.229307651519775,0.2696922719478607,-0.1808736026287078,0.8969532251358032,-10.843039512634276,-16.04966926574707,-134.55300903320312,3.01179313659668,2.0975096225738525,-2.792269468307495,-0.978207230567932,-0.2272829413414001,-0.1257693320512771,-118.04808044433594,74.89555358886719,107.19352722167967,51.30774641917149,0.953925715010244,4.611638895022353,1.0121091078756312,-107.20504093170166,90.94522285461426,241.7465362548828
3470.876,-0.4607479870319366,56.19538879394531,4.562255382537842,0.2443735301494598,-0.1663252711296081,0.8924049735069275,-10.816320419311523,-14.924575805664062,-134.67935180664062,1.223899006843567,0.5702512264251709,-9.231980323791504,-0.9895659685134888,-0.2250939309597015,-0.1349103897809982,-117.77345275878906,74.73036193847656,107.47510528564452,56.38216193607446,0.9400899716484304,9.330196993583016,1.023771896989652,-106.95713233947754,89.65493774414062,242.1544570922852
3492.74,0.6215291023254395,57.79613494873047,2.293164253234864,0.2095768600702285,-0.2033822536468505,0.9577508568763732,-10.772173881530762,-13.757822036743164,-134.85316467285156,2.0959041118621826,5.520152568817139,-9.522543907165527,-0.9735870957374572,-0.2315493673086166,-0.1191468983888626,-117.76016998291016,74.51387786865234,107.45907592773438,57.844948921485056,1.0012859258088047,11.2046303327256,1.0078109574137422,-106.9879961013794,88.27169990539551,242.312240600586
3511.242,4.0850510597229,57.23130035400391,4.36917781829834,0.1938925832509994,-0.1994536370038986,0.917997419834137,-10.675973892211914,-12.601581573486328,-134.98016357421875,2.22212553024292,8.453336715698242,-4.042744159698486,-0.9488674402236938,-0.2592084407806396,-0.1366772204637527,-118.11369323730467,74.34730529785156,107.05753326416016,57.54301953476773,0.9592160079856682,9.630188151947268,0.9930856445857492,-107.43771934509276,86.94888687133789,242.0376968383789
3532.204,2.8148646354675293,59.953739166259766,4.43927526473999,0.1742912977933883,-0.165113940834999,0.9221625924110411,-10.586774826049805,-11.39199924468994,-135.11758422851562,4.357898712158203,5.571664810180664,-5.972404956817627,-0.9521592855453492,-0.2613371312618255,-0.1445129513740539,-118.1842041015625,74.17243194580078,106.9121322631836,60.18373092296661,0.952902889483928,9.257664441459056,0.9978919752865186,-107.5974292755127,85.56443119049072,242.0297164916992
3554.919,-2.827439308166504,64.03919219970703,3.8846004009246826,0.1467290669679641,-0.17437344789505,0.9241470694541932,-10.61416244506836,-10.099702835083008,-135.27902221679688,2.383021116256714,6.337368965148926,-11.974796295166016,-0.9819164872169496,-0.2498218119144439,-0.1502143144607544,-118.16248321533205,73.8952407836914,106.90245819091795,64.21917681586433,0.9518315630429948,13.756336043862838,1.024273042623696,-107.54832077026369,83.99494361877441,242.18148040771484
3570.7490000000003,-1.414042592048645,67.38226318359375,5.980080604553223,0.1275865733623504,-0.1766495406627655,0.9022319316864014,-10.625304222106934,-8.737640380859375,-135.41079711914062,4.228088855743408,15.48847198486328,-12.517264366149902,-0.9691064953804016,-0.2423288524150848,-0.1201303377747535,-118.5846176147461,73.53401184082031,106.390869140625,67.66188197376847,0.9281733956935458,20.35807964936876,1.0061421222447515,-107.95931339263916,82.27165222167969,241.8016662597656
3592.422,-3.880815267562866,70.32154083251953,6.080618381500244,0.1110832020640373,-0.1653085052967071,0.9246606826782228,-10.678163528442385,-7.319833278656006,-135.5529022216797,-1.578587293624878,14.82079792022705,-11.49594497680664,-0.9656542539596558,-0.2820411026477813,-0.159314215183258,-119.11947631835938,73.1698226928711,105.88658905029295,70.69054924176285,0.9458666701999748,18.822984347482368,1.0185363719242495,-108.441312789917,80.4896559715271,241.43949127197263
3614.822,-8.754032135009766,73.57896423339844,5.090898513793945,0.0868702456355094,-0.2085783779621124,0.9424322843551636,-10.850499153137209,-5.840616226196289,-135.72654724121094,0.4673972427845001,9.87384033203125,-14.347818374633787,-0.9535704851150512,-0.2619016170501709,-0.141700878739357,-119.2092514038086,72.81886291503906,105.7977066040039,74.27256764080705,0.9691387877517704,17.423291170054195,0.9989836165481166,-108.3587522506714,78.65947914123535,241.52425384521484
3637.247,-2.831547498703003,73.33447265625,6.868827819824219,0.0494052693247795,-0.1947217732667923,0.9257927536964417,-10.90426540374756,-4.353046417236328,-135.8681640625,4.196503162384033,12.550732612609863,-14.864520072937012,-0.9400240182876588,-0.2613846957683563,-0.1236605122685432,-119.32241821289062,72.43894958496094,105.59710693359376,73.70985915483818,0.9473382038206092,19.9018965152539,0.983493282353322,-108.41815280914308,76.79199600219727,241.4652709960937
3660.842,-1.7687596082687378,74.80027770996094,6.691134452819824,0.0341431125998497,-0.1643592119216919,0.91064190864563,-10.923542022705078,-2.843532085418701,-136.02037048339844,2.1108763217926025,14.66878890991211,-12.182965278625488,-0.9302470684051514,-0.2632690668106079,-0.1533311754465103,-119.70970153808594,72.0778579711914,105.15167236328124,75.11977992715923,0.9259850908428716,19.184728559707573,0.9788670283442564,-108.78615951538086,74.92139005661011,241.1720428466797
3670.971,-8.697834014892578,80.41915130615234,5.459659099578857,0.0177665054798126,-0.172151118516922,0.8425948619842529,-11.096132278442385,-1.234899401664734,-136.21978759765625,3.4468488693237305,13.260052680969238,-12.79219913482666,-0.9536162614822388,-0.2531661093235016,-0.1805718094110489,-120.01062774658205,71.72438049316406,104.78632354736328,81.07219061328034,0.8601847230484007,18.74433575603835,1.003037004016971,-108.91449546813963,72.9592798948288,241.0061111450196
3692.347,-8.335440635681152,88.51925659179688,0.664009153842926,-0.0135352294892072,-0.2411373555660247,0.8599346280097961,-11.305688858032228,0.5167075991630554,-136.5502471923828,5.805356979370117,14.06673812866211,-11.716351509094238,-0.9523468017578124,-0.2421946376562118,-0.1588389128446579,-120.29943084716795,71.39539337158203,104.38719940185548,88.91332445877686,0.8932065780865295,19.20542069112084,0.9954157290104626,-108.99374198913574,70.87868577241898,240.93744659423828
3712.53,9.373906135559082,89.11173248291016,-0.3460915088653564,-0.0466687567532062,-0.2580256462097168,0.9602094888687134,-11.164580345153809,2.2763142585754395,-136.90609741210938,11.168438911437988,18.91617202758789,-1.2954975366592407,-0.9493731260299684,-0.2767333388328552,-0.110287494957447,-120.91625213623048,71.1954116821289,103.51880645751952,89.60407781834779,0.9953680070568612,22.00531539795126,0.9950145751663554,-109.75167179107666,68.91909742355347,240.4249038696289
3734.929,18.549823760986328,82.08303833007812,0.1234182193875312,-0.0910325348377227,-0.1675687134265899,1.074420928955078,-10.788881301879885,3.9058096408844,-137.21531677246094,10.76072883605957,19.687923431396484,0.4494311511516571,-0.914255917072296,-0.2852790951728821,-0.1695644259452819,-121.68927764892578,70.98823547363281,102.53302001953124,84.15305327269834,1.0912133286828551,22.441247792477142,0.9726253845086076,-110.9003963470459,67.08242583274841,239.7483367919922
3757.383,7.124670505523682,79.96633911132812,1.601557731628418,-0.1006719022989273,-0.1229097992181778,0.8897275328636169,-10.639209747314451,5.500604629516602,-137.4785919189453,14.037113189697266,16.12026023864746,-5.184769630432129,-0.9300429821014404,-0.2659468054771423,-0.1773972511291504,-122.05618286132812,70.73180389404297,101.90738677978516,80.29907414066456,0.9038012687487864,21.99511702589333,0.9834517967891544,-111.41697311401369,65.23119926452637,239.38597869873047
3780.805,-0.9724078178405762,88.60295104980469,5.635735988616943,-0.1154279485344886,-0.1037735939025878,0.8543181419372559,-10.646085739135742,7.275481224060059,-137.69198608398438,12.613670349121094,13.012737274169922,-10.971071243286133,-0.988788366317749,-0.2643681168556213,-0.1716864258050918,-122.10874938964844,70.42436981201172,101.6421127319336,88.7873303564854,0.8683041274446788,21.18491008402273,1.0378194271552434,-111.4626636505127,63.14888858795166,239.334098815918
3790.917,7.079964637756348,91.25575256347656,3.4219465255737305,-0.1814321130514145,-0.1999396234750747,0.989855945110321,-10.550500869750977,9.102092742919922,-137.964599609375,8.444334983825684,23.607959747314453,-16.236831665039062,-0.9742147922515868,-0.2897822856903076,-0.1246015429496765,-122.48448944091795,69.91743469238281,101.10520935058594,91.59392989288224,1.026015719544249,29.87101034897709,1.0240086811385642,-111.933988571167,60.81534194946289,239.0698089599609
3816.954,19.475570678710938,86.8372573852539,5.77176570892334,-0.2018231898546219,-0.2008039951324463,0.9759313464164734,-10.207480430603027,10.846345901489258,-138.16961669921875,-4.177419185638428,23.87388610839844,-4.658069133758545,-0.9153257608413696,-0.2566270232200622,-0.1591562628746032,-123.50543975830078,69.59916687011719,100.15476989746094,89.18139045144454,1.0166104648991752,24.68017173814222,0.9638513337225988,-113.29795932769775,58.75282096862793,238.3243865966797
3837.297,22.178749084472656,84.92145538330078,7.614002227783203,-0.1737803369760513,-0.0944084599614143,0.8659465312957764,-9.755306243896484,12.541805267333984,-138.30859375,-6.5023603439331055,20.234006881713867,-2.3468265533447266,-0.9247274398803712,-0.2486205697059631,-0.215634673833847,-124.52637481689452,69.34432220458984,99.26636505126952,88.09950922277962,0.8882431862361697,21.38231323788616,0.9815453827042602,-114.77106857299805,56.80251693725586,237.5749588012696
3860.84,5.481820583343506,92.90421295166016,4.481865882873535,-0.1784616708755493,-0.0708351880311966,0.8914406299591064,-9.647878646850586,14.367666244506836,-138.52651977539062,1.1757172346115112,16.76685333251953,-3.1863625049591064,-0.9756422638893129,-0.271038293838501,-0.1764450073242187,-125.11758422851562,69.12458038330078,98.65706634521484,93.17365648544364,0.9118840872484816,17.107384011092787,1.027848444287188,-115.46970558166504,54.756914138793945,237.18358612060547
3881.666,3.779299974441528,94.24929809570312,-0.0855563059449195,-0.2871657907962799,-0.169640451669693,1.0195527076721191,-9.657240867614746,16.228261947631836,-138.85581970214844,7.193986415863037,20.378087997436523,-4.971118450164795,-0.9220567941665648,-0.263799250125885,-0.1312548965215683,-125.61441040039062,68.8416748046875,98.02174377441406,94.32507948425491,1.0727207455661047,22.17502941663116,0.9679910246983646,-115.95716953277588,52.613412857055664,236.8775634765625
3890.834,15.942301750183104,87.76579284667969,2.1271259784698486,-0.3437924385070801,-0.1777426600456237,0.9060359597206116,-9.429415702819824,18.000146865844727,-139.12083435058594,-0.0021564774215221,23.895492553710938,7.457547187805176,-0.8565106391906738,-0.2633124887943268,-0.2010839134454727,-126.84242248535156,68.68115997314453,96.7693328857422,89.2273278991838,0.9852344159039452,25.032170882550133,0.918356511409608,-117.41300678253174,50.681013107299805,235.89016723632807
3914.66,13.85251808166504,88.70467376708984,3.6088945865631104,-0.341357558965683,-0.089878611266613,0.8182680606842041,-9.196738243103027,19.799802780151367,-139.3385772705078,2.712865114212036,17.41921043395996,9.604554176330566,-0.9546468257904052,-0.2582253515720367,-0.2370164096355438,-127.84446716308594,68.63523864746094,95.70539093017578,89.85229838721777,0.89115978755895,20.075756279566587,1.0169600152526757,-118.64772891998292,48.83543586730957,235.0439682006836
3930.807,-2.931182146072388,96.3528289794922,1.2509315013885498,-0.3269473910331726,-0.0285586416721344,0.9256234169006348,-9.288614273071287,21.69573211669922,-139.61619567871094,-2.598904848098755,16.820613861083984,-0.7087240219116211,-1.0294986963272097,-0.2512553930282593,-0.2106348872184753,-128.56080627441406,68.45431518554688,95.05580139160156,96.405520125903,0.982083958952778,17.03495367802321,1.0804461550575988,-119.27219200134276,46.758583068847656,234.6719970703125
3951.966,-0.6061461567878723,93.89662170410156,-2.524111032485962,-0.4268380403518677,-0.2094661593437194,1.0469605922698977,-9.468798637390137,23.53253173828125,-140.0089569091797,-7.22346830368042,10.84006118774414,3.2973992824554443,-0.9356216192245485,-0.2366587519645691,-0.1293827295303344,-129.16146850585938,68.42639923095703,94.6139907836914,93.93249766247496,1.149866629817461,13.437196988816169,0.9737222755706644,-119.69266986846924,44.89386749267578,234.6229476928711
3974.669,9.180356979370115,85.15892028808594,0.4227749109268188,-0.4846741855144501,-0.1881394237279892,0.9100900888442992,-9.428399085998535,25.247039794921875,-140.31565856933594,-17.689245223999023,16.372220993041992,11.121901512145996,-0.8426311016082764,-0.2704781889915466,-0.2339510321617126,-130.52044677734375,68.3745346069336,93.6100845336914,85.65336769518495,1.0481266520213195,26.545351948799865,0.9153789977748314,-121.0920476913452,43.12749481201172,233.9257431030273
3994.807,5.109648704528809,84.21216583251953,4.150250911712647,-0.4929584264755249,-0.1088158786296844,0.7704119682312012,-9.408245086669922,26.98543357849121,-140.5247344970703,-17.626413345336914,10.427563667297363,5.31199312210083,-0.970923125743866,-0.3507891893386841,-0.2760509252548218,-131.41287231445312,68.28821563720703,93.09827423095705,84.46905922713734,0.9210773618263828,21.157547173182856,1.0686200844056664,-122.0046272277832,41.30278205871582,233.6230087280273
4010.643,-10.32085418701172,92.59894561767578,4.462924480438232,-0.4578040540218353,-0.0403493717312812,0.8562991619110107,-9.66273593902588,28.83177757263184,-140.74058532714844,-10.649282455444336,6.154314994812012,-4.778517246246338,-1.00570547580719,-0.3020802736282348,-0.2288852632045745,-131.65667724609375,68.14733123779297,93.13030242919922,93.27916410202724,0.9718337709543932,13.19534148644423,1.074748556405685,-121.99394130706789,39.31555366516113,233.87088775634768
4031.89,-1.2619075775146484,89.67321014404297,3.104719877243042,-0.5300601124763489,-0.2080785930156707,1.0087072849273682,-9.845810890197754,30.585548400878903,-141.0179901123047,-3.290789127349853,5.219618320465088,7.487300395965576,-0.939246416091919,-0.2762541174888611,-0.1440981179475784,-132.06729125976562,68.21891021728516,92.8165054321289,89.73581399746719,1.1583396783221076,9.70223560378973,0.989577907578326,-122.22148036956789,37.63336181640625,233.8344955444336
4054.514,10.95758819580078,80.44427490234375,1.8390512466430664,-0.5865212678909302,-0.215435117483139,0.907040238380432,-9.805896759033203,32.18643569946289,-141.3152313232422,-11.864230155944824,9.05668830871582,16.612716674804688,-0.841149091720581,-0.2670614421367645,-0.2746005654335022,-133.23818969726562,68.31440734863281,91.8880615234375,81.20795658751909,1.1014270205395311,22.333067761321868,0.924261369372823,-123.43229293823242,36.12797164916992,233.2032928466797
4076.935,10.774484634399414,76.44794464111328,4.630695819854736,-0.5901760458946228,-0.1020720601081848,0.7820509672164917,-9.67700481414795,33.74856185913086,-141.50222778320312,-9.775089263916016,2.114706039428711,13.846978187561035,-0.969432294368744,-0.2518266141414642,-0.2946368157863617,-134.05313110351562,68.48529052734375,91.31890106201172,77.34223362926396,0.9850533924243858,17.081075981258135,1.04404332772722,-124.37612628936768,34.73672866821289,232.82112884521484
4100.601000000001,-1.9493257999420168,83.35372161865234,0.2086856514215469,-0.5502354502677917,-0.0895399302244186,0.7682216763496399,-9.877464294433594,35.40209197998047,-141.8230743408203,-4.458698272705078,-5.1622419357299805,4.471652030944824,-1.0305075645446775,-0.2611840367317199,-0.2169091999530792,-134.07479858398438,68.65486907958984,91.47490692138672,83.37677331520584,0.9491791157887136,8.156249381663452,1.0849942592712485,-124.19733428955078,33.252777099609375,233.29798126220703
4110.866,4.74044132232666,82.44686889648438,-0.2215744256973266,-0.611774742603302,-0.1767736077308654,0.9450042247772216,-10.000003814697266,36.9887924194336,-142.18492126464844,-5.536275863647461,-4.582550048828125,8.69195556640625,-0.9475286602973938,-0.2280915528535843,-0.1686144322156906,-134.26768493652344,68.89134979248047,91.46210479736328,82.5833340934515,1.1395394810730868,11.27830691889526,0.9890738826394888,-124.26768112182616,31.902557373046875,233.6470260620117
4131.967000000001,17.0061092376709,72.32508850097656,-3.2504773139953613,-0.6888777017593384,-0.2106084823608398,0.8846184015274048,-9.936473846435549,38.39824676513672,-142.54966735839844,-11.750784873962402,-1.694242238998413,22.25613212585449,-0.8327879309654236,-0.2574157118797302,-0.2654764354228973,-135.2706298828125,69.20318603515625,90.72109985351562,74.36862094221249,1.140814681332803,25.224726343848456,0.9111949980377784,-125.33415603637695,30.80493927001953,233.2707672119141
4152.473,19.432188034057617,66.93025970458984,1.0948694944381714,-0.6959996819496155,-0.1135139763355255,0.7349270582199097,-9.705633163452148,39.762393951416016,-142.809326171875,-13.626455307006836,-5.276738166809082,17.716028213500977,-0.9656704664230348,-0.2643267512321472,-0.3045173287391662,-136.057373046875,69.507080078125,90.25861358642578,69.70271397244635,1.018537559936421,22.9647970941717,1.0464792805598495,-126.35173988342284,29.744686126708984,233.0679397583008
4174.533,10.2264404296875,71.54351806640625,-0.2319966852664947,-0.6596795916557312,-0.0611138977110385,0.6979216933250427,-9.666032791137695,41.20215225219727,-143.1025390625,-9.16016960144043,-10.460538864135742,2.082404136657715,-1.0318045616149902,-0.2638751864433288,-0.2379028648138046,-135.89402770996094,69.70204162597656,90.71277618408205,72.27107916478154,0.962292451468992,14.059444777217085,1.0912600700459167,-126.22799491882324,28.499889373779297,233.81531524658203
4194.409000000001,12.643522262573242,71.69083404541016,1.6373248100280762,-0.684050440788269,-0.11150623857975,0.8080228567123413,-9.58017349243164,42.602989196777344,-143.35626220703125,-7.568960666656494,-12.079524993896484,4.590309143066406,-0.941092312335968,-0.2151218354701995,-0.1841679960489273,-135.72366333007812,69.9751205444336,91.1404266357422,72.81562451743622,1.0645466564478996,14.97581475848583,0.9827766761592404,-126.14348983764648,27.37213134765625,234.49668884277344
4216.753,19.658918380737305,67.16370391845703,-2.149729013442993,-0.7184665203094482,-0.1650146842002868,0.786048412322998,-9.459210395812988,43.90719604492188,-143.73570251464844,-12.965654373168944,-7.827388763427734,17.376129150390625,-0.8798179626464844,-0.2615963816642761,-0.238619789481163,-136.3343048095703,70.31061553955078,90.85677337646484,70.01469510594109,1.077634489668363,23.05007749291452,0.948394284159962,-126.87509441375732,26.403419494628903,234.59247589111328
4236.82,21.88724136352539,63.452247619628906,2.950326442718506,-0.7183810472488403,-0.0871271044015884,0.702597439289093,-9.143465995788574,45.17892074584961,-143.8490753173828,-15.056718826293944,-8.78950309753418,11.884811401367188,-0.9629056453704834,-0.2386896163225174,-0.2755989134311676,-136.80772399902344,70.59110260009766,90.77409362792967,67.18588757028162,1.0086156964192738,21.099973662583206,1.029618752699745,-127.66425800323486,25.412181854248047,234.6231689453125
4259.366,12.189446449279783,68.56424713134766,-0.5183521509170532,-0.7019562125205994,-0.0767071768641471,0.7176060080528259,-9.103045463562012,46.51611328125,-144.1533203125,-6.763044357299805,-15.57032871246338,3.65959405899048,-1.032140851020813,-0.2210303097963333,-0.1907245814800262,-136.43643188476562,70.90446472167969,91.39104461669922,69.64127568030855,1.0067695357291284,17.365671132137813,1.07263460701926,-127.3333864212036,24.388351440429688,235.5443649291992
4269.494,13.57435417175293,67.24431610107422,0.0663239508867263,-0.744005560874939,-0.0767217725515365,0.7684391736984253,-9.022924423217772,47.81330490112305,-144.3709259033203,-6.990900993347168,-12.72361660003662,-0.7736878395080566,-0.9461450576782228,-0.1885096430778503,-0.1776024550199508,-136.01095581054688,71.11646270751953,92.03555297851562,68.60076922271234,1.072347550316874,14.538284250781196,0.9809531016982308,-126.9880313873291,23.303157806396484,236.406478881836
4291.776,18.24905586242676,60.80106735229492,-0.3209395408630371,-0.7937837243080139,-0.0765363723039627,0.7227518558502197,-8.848430633544922,49.00603485107422,-144.61593627929688,-14.660234451293944,-17.301477432250977,14.869154930114746,-0.8812440633773804,-0.200940191745758,-0.2487226873636245,-136.28280639648438,71.56156158447266,92.1166000366211,63.48149992901212,1.076253066149727,27.11743652783853,0.9374598845316432,-127.43437576293944,22.55552673339844,236.732536315918
4310.177000000001,13.77851104736328,57.79169845581055,-1.1158452033996582,-0.8092144727706909,-0.0764034166932106,0.6148251295089722,-8.790205001831055,50.1756591796875,-144.85325622558594,-20.399688720703125,-12.86514663696289,12.325357437133787,-0.9308947324752808,-0.2240390926599502,-0.264029860496521,-136.7314453125,71.89836883544922,92.12911224365234,59.42198993308451,1.0191542988672853,27.08456634035792,0.9932121048516932,-127.94124031066896,21.72270965576172,236.98236846923828
4331.768,9.09854221343994,58.65169525146485,-1.0554029941558838,-0.8088510036468506,-0.0804236754775047,0.6130657196044922,-8.840741157531738,51.35114288330078,-145.0987091064453,-20.61556625366211,-16.63393783569336,4.586533069610596,-0.9917978644371032,-0.1997323483228683,-0.2317831814289093,-136.6713104248047,72.2131576538086,92.67913055419922,59.36260356285366,1.018114674401662,26.883559018096445,1.037920737851341,-127.83056926727296,20.86201477050781,237.77783966064453
4349.412,14.687280654907228,57.6015625,-3.77317214012146,-0.8367772698402405,-0.1075484007596969,0.7152014374732971,-8.865375518798828,52.451171875,-145.50479125976562,-18.289813995361328,-19.794158935546875,6.714936256408691,-0.9655492305755616,-0.2055098265409469,-0.191660463809967,-136.45529174804688,72.60855865478516,93.33732604980467,59.56419262842741,1.1060180622354798,27.774383753347927,1.0056109281714278,-127.58991622924805,20.15738677978516,238.8421173095703
4371.8,25.706026077270508,48.64665222167969,-1.3342483043670654,-0.8615049123764038,-0.1057545393705368,0.6805667281150818,-8.582104682922363,53.39389419555664,-145.70220947265625,-18.278181076049805,-16.314659118652344,16.9732608795166,-0.8928717970848083,-0.2480443567037582,-0.2568516135215759,-136.887939453125,73.034912109375,93.31536865234376,55.037049045166576,1.1029713541445296,29.805227569854587,0.9616230032037884,-128.30583477020264,19.64101791381836,239.017578125
4394.325,21.046974182128903,45.76658630371094,-1.688781499862671,-0.864973247051239,-0.0755481719970703,0.6172180771827698,-8.37637710571289,54.29970932006836,-145.9447479248047,-16.46332550048828,-11.324834823608398,13.637718200683594,-0.9626466035842896,-0.2643920183181762,-0.2710594534873962,-137.35076904296875,73.34127807617188,93.22408294677734,50.40245556589977,1.0652907580598163,24.19256761979385,1.034439389267256,-128.97439193725586,19.04156875610352,239.16883087158203
4409.253,14.7259521484375,46.66007995605469,-0.6776959300041199,-0.847104549407959,-0.0827237665653228,0.5472173690795898,-8.294370651245117,55.24291610717773,-146.11607360839844,-10.620543479919434,-14.21055507659912,5.111594676971436,-1.0288026332855225,-0.2161433547735214,-0.2120763808488845,-137.13954162597656,73.62248992919922,93.69014739990234,48.93338328745552,1.0118676732680036,18.462508484373377,1.072440767306959,-128.84517097473145,18.379573822021484,239.8062210083008
4432.865,12.642619132995604,48.53440475463867,-0.5316689014434814,-0.8301762938499451,-0.0736272260546684,0.5856959819793701,-8.250362396240234,56.19181060791016,-146.29678344726562,-10.522564888000488,-20.907400131225582,4.589797019958496,-1.028564691543579,-0.1743586063385009,-0.1675984859466552,-136.57325744628906,74.0221176147461,94.5234603881836,50.15682341665829,1.018652752705118,23.8518340752608,1.05661511478213,-128.32289505004883,17.830307006835938,240.8202438354492
4454.227000000001,16.26236915588379,45.50050354003906,-0.200530543923378,-0.829233705997467,-0.0553198605775833,0.6387969851493835,-8.091428756713867,57.04999923706055,-146.4235076904297,-18.967140197753903,-24.199085235595703,8.551547050476074,-0.9477914571762084,-0.1554376929998397,-0.1689328998327255,-136.2193145751953,74.51410675048828,95.3177719116211,48.31977530430366,1.048212962318516,31.91358786594488,0.9751963122096016,-128.12788581848145,17.464107513427734,241.7412796020508
4476.71,13.199573516845703,43.9493408203125,-2.2588324546813965,-0.8252471685409546,-0.0720018595457077,0.544318675994873,-8.0853853225708,57.90399169921875,-146.6621551513672,-24.43889617919922,-20.321718215942383,12.523689270019531,-0.9283481240272522,-0.1649018079042434,-0.1962050050497055,-136.38137817382812,74.9820327758789,95.69522094726562,45.94426649349104,0.9912113689822742,34.16247459769045,0.9630780080769996,-128.29599285125732,17.078041076660156,242.3573760986328
4496.665,3.47371792793274,46.969459533691406,-3.1311252117156982,-0.8359827995300293,-0.0621428415179252,0.4923141598701477,-8.323721885681152,58.83551406860352,-146.95269775390625,-25.539506912231445,-22.572324752807617,5.832423686981201,-0.9976229667663574,-0.1783015727996826,-0.1773290038108825,-136.01864624023438,75.39785766601562,96.635009765625,47.20170325551142,0.9721636723672802,34.580246154858244,1.028828756535853,-127.69492435455322,16.56234359741211,243.58770751953125
4519.545,-2.4773271083831787,52.11219787597656,-4.027241230010986,-0.8209022283554077,-0.0692958608269691,0.5076612830162048,-8.760356903076172,59.84246063232422,-147.349609375,-23.76642799377441,-31.77698516845703,4.974921703338623,-1.003854274749756,-0.1597088575363159,-0.1285577863454818,-134.98126220703125,75.95299530029297,98.2151336669922,52.326255254810334,0.9676788532980783,39.99212087316641,1.0245767070058562,-126.22090530395508,16.11053466796875,245.5647430419922
4529.633,-1.5378504991531372,54.12433242797852,-5.743347644805908,-0.8448770642280579,-0.0765520185232162,0.5642107725143433,-9.273746490478516,60.851680755615234,-147.87060546875,-24.397878646850582,-28.147937774658203,5.722812652587891,-0.983240246772766,-0.1761127114295959,-0.1042337492108345,-134.0507049560547,76.45597076416016,99.6940460205078,54.44992550133719,1.0188283766267177,37.687046422996566,1.0043115773879143,-124.77695846557616,15.604290008544922,247.5646514892578
4551.818,2.39566707611084,50.39234924316406,-3.942911386489868,-0.8953268527984619,-0.0545486584305763,0.5220186114311218,-9.634040832519531,61.81767654418945,-148.29830932617188,-23.97307777404785,-27.666650772094727,12.06228733062744,-0.9410900473594666,-0.1660618036985397,-0.1789890080690384,-133.5872802734375,77.00411224365234,100.67807006835938,50.603108928071705,1.037829061145934,38.54414091080786,0.9722469156012754,-123.95323944091795,15.18643569946289,248.97637939453125
4571.5560000000005,-5.158753395080566,51.85016250610352,-5.485355377197266,-0.9021456241607666,-0.0522432662546634,0.4163559973239898,-10.25870418548584,62.84932708740234,-148.87144470214844,-18.78998756408692,-27.255674362182617,9.1697416305542,-0.9871809482574464,-0.1617511808872223,-0.1759622544050216,-132.81227111816406,77.506103515625,101.86184692382812,52.39409520274919,0.9949615080841212,34.3514130592469,1.0157029014904797,-122.55356693267822,14.656776428222656,250.73329162597656
4594.825,-11.523680686950684,55.36350631713867,-4.541167736053467,-0.9071391820907592,-0.0634220913052558,0.3920144438743591,-11.062982559204102,63.95208358764648,-149.47508239746094,-16.076627731323242,-30.12947463989257,4.416332244873047,-1.0184850692749023,-0.1548794955015182,-0.1300655156373977,-131.33729553222656,77.98932647705078,103.70549774169922,56.73213597873455,0.9902520798038988,34.4346800737946,1.0383720589560996,-120.27431297302246,14.037242889404297,253.18058013916016
4614.112,-6.253166198730469,56.36238861083984,-6.07249641418457,-0.926149845123291,-0.0906473621726036,0.4430878162384033,-11.908530235290527,65.02906799316406,-150.24923706054688,-18.720109939575195,-31.71459197998047,6.445034503936768,-0.9773188233375548,-0.1364936381578445,-0.1181597933173179,-129.8130340576172,78.51653289794922,105.63349151611328,57.03241315364938,1.030678074274244,37.38711449635233,0.9938532751187464,-117.90450382232666,13.487464904785156,255.88272857666016
4636.728,4.078180313110352,50.59432601928711,-5.629286289215088,-0.9624210000038148,-0.076667197048664,0.4446143805980682,-12.513065338134766,65.98967742919922,-150.99949645996094,-21.12531089782715,-25.763607025146484,14.227295875549316,-0.927525281906128,-0.1404954940080642,-0.166198655962944,-129.2728271484375,79.0505599975586,106.61219024658205,51.06962153901376,1.0629270848869383,36.22786435061352,0.9527140838968956,-116.75976181030272,13.060882568359377,257.61168670654297
4656.544,7.104384422302246,43.971229553222656,-5.118348598480225,-0.989266037940979,-0.0766066387295723,0.3928298056125641,-13.027714729309082,66.84204864501953,-151.6983184814453,-20.87955474853516,-20.02123641967773,14.241086959838867,-0.9329469799995422,-0.1792203783988952,-0.2099999189376831,-129.1644744873047,79.47349548339844,107.15553283691406,44.83457146909756,1.067160309934028,32.24304998084703,0.9729388354246852,-116.1367597579956,12.631446838378906,258.8538513183594
4679.784,3.689619541168213,39.72747039794922,-2.606807470321656,-1.0094895362854004,-0.0818928629159927,0.3589050471782684,-13.50479793548584,67.63238525390625,-152.29417419433594,-16.550331115722656,-14.565435409545898,6.034260272979736,-0.9835925102233888,-0.2113150507211685,-0.1907254755496978,-128.7300262451172,79.69581604003906,107.94184112548828,39.98350462085367,1.074517751252312,22.857770358278003,1.0239553134060564,-115.22522830963136,12.063430786132812,260.2360153198242
4689.81,2.9420669078826904,35.691001892089844,0.0524699240922927,-1.007806658744812,-0.0846954211592674,0.3916253447532654,-13.84570026397705,68.3311538696289,-152.72720336914062,-10.52294921875,-12.47024154663086,1.4070323705673218,-0.9949989914894104,-0.1802135109901428,-0.1631387621164322,-128.0127410888672,79.8399658203125,108.88890075683594,35.81209470059736,1.0845358391629305,16.37739675844528,1.0242627389069758,-114.16704082489014,11.508811950683594,261.61610412597656
4719.559,10.004512786865234,28.9516830444336,0.088867001235485,-1.012576699256897,-0.1050494685769081,0.397983580827713,-14.005570411682127,68.88758087158203,-153.1190948486328,-10.651200294494627,-6.743045330047607,3.553623676300049,-0.9729470014572144,-0.1675399094820022,-0.1727111488580703,-127.98609924316406,79.94401550292969,109.11744689941406,30.63165233140064,1.093040664081045,13.097517675852917,1.002259761665456,-113.98052883148192,11.056434631347656,262.2365417480469
4728.8730000000005,14.565547943115234,21.869691848754883,1.0524897575378418,-0.991767168045044,-0.0832173973321914,0.3659876883029938,-13.925226211547852,69.31999206542969,-153.34962463378906,-11.11635971069336,-2.700554370880127,4.148669242858887,-0.9616483449935912,-0.1544204354286193,-0.1831861734390258,-128.4191131591797,80.00714874267578,108.88827514648438,26.29726873902319,1.0604122966187253,12.168726458189848,0.9910450970799012,-114.49388694763184,10.687156677246094,262.23789978027344
4748.969,15.005023956298828,18.39001846313477,0.6415454745292664,-0.9553340673446656,-0.0923854485154151,0.3490656018257141,-13.8370361328125,69.67915344238281,-153.56390380859375,-7.610237121582031,-1.0807244777679443,2.3749945163726807,-0.9885936975479126,-0.1739348471164703,-0.1464193165302276,-128.6636962890625,80.0291976928711,108.76001739501952,23.74352761489809,1.0212957679852808,8.045139737528011,1.0144010282556215,-114.82666015625,10.35004425048828,262.3239212036133
4771.598,12.06568431854248,17.092632293701172,0.4757049977779388,-0.9388670325279236,-0.0960437208414077,0.3730435967445373,-13.799148559570312,69.99299621582031,-153.7713623046875,-2.5135769844055176,-1.8908753395080569,2.3518199920654297,-0.9772757887840272,-0.1768362075090408,-0.1277964860200882,-128.67922973632812,80.06458282470703,108.75458526611328,20.92761601442718,1.0148188144456882,3.927408316074544,1.0013345861742244,-114.8800811767578,10.07158660888672,262.5259475708008
4791.9580000000005,11.956416130065918,14.014909744262695,0.203901395201683,-0.9576634764671326,-0.0892138108611106,0.3960590064525604,-13.72068691253662,70.23628997802734,-153.9322967529297,0.6733872890472412,-0.124977208673954,3.2491142749786377,-0.979210078716278,-0.164500892162323,-0.125076338648796,-128.86862182617188,80.09803009033203,108.50953674316406,18.423223322591927,1.0401640134131085,3.32051401376478,1.0007782033355483,-115.14793491363524,9.861740112304688,262.4418334960937
4809.164,9.602981567382812,11.440807342529297,0.8478416800498962,-0.9562738537788392,-0.0686841458082199,0.3725064396858215,-13.598331451416016,70.44436645507812,-153.9988250732422,1.994717478752136,1.0269932746887207,2.363208770751953,-0.9863165020942688,-0.1426778137683868,-0.1182615086436271,-129.0967559814453,80.11530303955078,108.2008819580078,14.960887779366445,1.0285612489851268,3.258583848921813,1.0035751019589252,-115.4984245300293,9.670936584472656,262.19970703125
4831.419999999999,2.252289056777954,11.734657287597656,-0.0718628168106079,-0.946561336517334,-0.0726283416152,0.3513411283493042,-13.692763328552246,70.66004180908203,-154.11814880371094,1.0315595865249634,-0.4006884098052978,0.7450843453407288,-1.007360816001892,-0.1359350532293319,-0.0959648415446281,-129.0586700439453,80.13814544677734,108.18209838867188,11.949064897182978,1.012271617830421,1.3340978464774145,1.0210109711090989,-115.36590671539308,9.478103637695312,262.3002471923828
4857.548000000001,-1.0223267078399658,11.205720901489258,0.073284737765789,-0.9461840391159058,-0.0805237665772438,0.3562079668045044,-13.850339889526367,70.86034393310547,-154.20428466796875,-2.4608049392700195,-1.471968650817871,0.2346713840961456,-0.9945818185806274,-0.1334811151027679,-0.094453640282154,-128.96022033691406,80.16668701171875,108.3060302734375,11.252497654850924,1.014215178587106,2.877033770507379,1.007934368946102,-115.1098804473877,9.30634307861328,262.51031494140625
4876.616,-0.2595489025115967,9.143529891967772,-0.6086122989654541,-0.949411928653717,-0.0774919390678405,0.3629637658596039,-13.995856285095217,71.01290130615234,-154.29981994628906,-4.4685378074646,-0.8084125518798828,0.1568814218044281,-0.9800858497619628,-0.1299747973680496,-0.1116000637412071,-129.0066680908203,80.17940521240234,108.32798767089844,9.167437670830122,1.0193776072768372,4.543783970578361,0.994945372913275,-115.0108118057251,9.16650390625,262.6278076171875
4897.032,0.5495132803916931,6.921599864959717,-1.2449719905853271,-0.956926167011261,-0.06331168115139,0.3472404778003692,-14.11337184906006,71.12911224365234,-154.42677307128906,-4.935693740844727,-0.4285448491573334,-0.1379620432853698,-0.9828975200653076,-0.1230800747871398,-0.1220724135637283,-129.11598205566406,80.18217468261719,108.29531860351562,7.054109780353521,1.0199470611282273,4.956183704882272,0.9980670888840156,-115.002610206604,9.053062438964844,262.7220916748047
4908.995,-5.615628242492676,5.993640899658203,-1.7834181785583496,-0.9631161093711852,-0.064606100320816,0.3386991322040558,-14.377415657043455,71.22880554199219,-154.58660888671875,-3.00640082359314,-0.0679905787110328,0.0144862942397594,-0.9904096722602844,-0.1468046605587005,-0.1220627948641777,-129.17852783203125,80.17312622070312,108.2672882080078,8.404736295181982,1.0229778543471666,3.007204429967436,1.0086437692062216,-114.8011121749878,8.944320678710938,262.85389709472656
