Timestamp (ms),Wrist Gyroscope X (deg/s),Wrist Gyroscope Y (deg/s),Wrist Gyroscope Z (deg/s),Wrist Accelerometer X (g),Wrist Accelerometer Y (g),Wrist Accelerometer Z (g),Wrist Roll (deg),Wrist Pitch (deg),Wrist Yaw (deg),Arm Gyroscope X (deg/s),Arm Gyroscope Y (deg/s),Arm Gyroscope Z (deg/s),Arm Accelerometer X (g),Arm Accelerometer Y (g),Arm Accelerometer Z (g),Arm Roll (deg),Arm Pitch (deg),Arm Yaw (deg),Wrist Gyroscope Magnitude (deg/s),Wrist Accelerometer Magnitude (g),Arm Gyroscope Magnitude (deg/s),Arm Accelerometer Magnitude (g),Difference Roll (deg),Difference Pitch (deg),Difference Yaw (deg)
0.0,53.495754,50.437721,-7.067133,-0.503702,0.56347,0.495085,47.210995,37.821575,-35.313789,53.487297,-14.177303,-41.805542,-0.815288,0.532281,-0.147575,115.758286,57.61972,115.218468,73.86273596707643,0.9035061167081272,69.35120909280373,0.9847821924314024,68.547291,19.798145,150.53225700000002
19.986,54.693918,54.0790635,-6.705779,-0.5114609999999999,0.550253,0.4302829999999999,48.1142635,38.2578145,-34.8211955,50.0709475,-23.6195485,-42.6153185,-0.841724,0.5122329999999999,-0.180523,116.0404015,58.157173,115.0058635,77.20710619641561,0.8657448692420879,69.86449903740848,1.0017337430644933,67.92613800000001,19.8993585,149.82705900000002
39.972,55.27354666666667,59.73620866666667,-6.777050666666667,-0.5206149999999999,0.555709,0.4163276666666666,49.08259966666666,38.740034666666666,-34.23865633333333,49.46607333333333,-22.617956666666668,-42.235475,-0.8678716666666667,0.4712103333333333,-0.2057206666666666,116.48024766666668,58.65891633333333,114.95630666666666,81.66705579802841,0.8678601252149514,68.86435742290453,1.0087424848476774,67.397648,19.918881666666664,149.194963
59.958,52.17802325,65.091671,-6.58545075,-0.54917625,0.5518685,0.4133455,50.039257,39.26268275,-33.565796,50.35936825,-19.20872675,-44.42790525,-0.8681465,0.47168275,-0.21450425,117.10314375,59.15262875,115.0912725,83.68297261349204,0.8814805143771259,69.84897936833616,1.011026723374746,67.06388675,19.889946,148.6570685
79.943,48.235292,70.0288544,-7.387714,-0.5643738,0.5282644000000001,0.3910108,50.979544,39.836788,-32.8237848,49.7078606,-19.6942188,-43.6983758,-0.8828722000000001,0.4702714,-0.2240415999999999,117.6742142,59.6324928,115.1824204,85.35374719980055,0.8662970092009092,69.05274583337966,1.0250917762431615,66.69467019999999,19.7957048,148.0062052
99.929,45.6997344,79.2628908,-8.037399,-0.6146986,0.5041758,0.3664254,52.9216232,40.9527128,-31.333995200000004,47.4685472,-17.030574,-44.0922906,-0.9202182,0.4627989999999999,-0.241412,118.835057,60.5704224,115.4224746,91.845910986219,0.8753942996802982,66.9883087889443,1.0579528362626758,65.9134338,19.6177096,146.75646980000002
119.915,43.7728454,86.493921,-9.0847312,-0.6834278,0.502456,0.3703918,54.9653892,42.1474858,-29.6532944,47.772001,-6.1358028,-42.8192178,-0.9192024,0.4593535999999999,-0.255636,120.3639008,61.3615548,116.073332,97.36422703099323,0.925594768381974,64.44608264703392,1.0589091304237204,65.39851159999999,19.214069,145.7266264
139.901,39.4131888,89.88015899999999,-10.9162048,-0.7483494,0.4888982,0.3659176,57.0196326,43.3781018,-27.8375782,47.3742752,2.6710705999999997,-40.61695,-0.9131158,0.4611556,-0.2729492,122.1676498,61.998481000000005,117.0428312,98.74718203819928,0.9658902445067764,62.459532468455286,1.0587474757474702,65.1480172,18.6203792,144.88040940000002
159.887,35.4799784,90.0815232,-13.7971576,-0.8062296,0.4651303999999999,0.3378032,59.0538734,44.6091574,-25.9754474,44.0181824,10.1738644,-35.045728399999994,-0.9215746,0.449009,-0.2915274,124.0837388,62.4392776,118.209387,97.79504715033292,0.990183548060944,57.17788888823916,1.0657847110917475,65.0298654,17.830120200000003,144.1848344
179.872,36.607675400000005,87.387648,-15.19514,-0.8702644000000002,0.4761854,0.3109313999999999,61.1397118,45.7764456,-24.0960784,41.5465842,18.6605202,-31.534506,-0.9248348,0.4208938,-0.299901,126.1893968,62.7197684,119.642607,95.95631923319728,1.039610983294463,55.39637841489581,1.059439289421758,65.049685,16.9433228,143.7386854
199.858,36.9117306,82.07539059999999,-18.0975234,-0.9106776,0.478938,0.270668,63.2027008,46.8941168,-22.294662,40.9776242,24.52228,-28.8116704,-0.9074658,0.381224,-0.3245066,128.4733324,62.8639548,121.2806716,91.79523926240996,1.0639438261533172,55.77293476869458,1.0364026484861952,65.2706316,15.969838,143.5753336
219.844,34.666303600000006,75.65898440000001,-22.6280248,-0.9255892,0.4642914,0.2453426,65.1500786,47.9800154,-20.6238292,38.6080084,24.2045802,-26.5565838,-0.911405,0.3621698,-0.343037,130.67671380000002,62.95064,122.87860859999998,86.24419999093408,1.0641780220646169,52.74174967138581,1.0389900968854515,65.52663520000002,14.9706246,143.5024378
239.83,34.9150212,68.6076058,-26.3317136,-0.9331336,0.4826522000000001,0.211166,67.0165382,49.0404266,-19.0997466,33.3163454,23.2021418,-24.5973846,-0.9120474,0.359322,-0.35018,132.69213280000002,62.9946204,124.3870574,81.35982681961084,1.071579460968621,47.46945948796685,1.0409461042391963,65.6755946,13.9541938,143.48680399999998
259.815,37.6370988,62.08008120000001,-29.521972,-0.9132814,0.5148688,0.1850592,68.86190020000001,50.081443,-17.7081854,28.816771400000004,20.913356,-23.8541706,-0.9026452,0.3492452,-0.3694552,134.5380342,63.0312278,125.8048828,78.37113319742379,1.0646218597718349,42.857860750584585,1.0359718681572003,65.676134,12.9497848,143.5130682
279.801,35.47005360000001,57.2873552,-34.4525588,-0.8828388,0.5212378,0.1844858,70.5961896,51.153888,-16.428159200000003,23.6936932,18.651276600000003,-22.5354762,-0.895761,0.3501538,-0.3883218,136.1856874,63.0560744,127.1154556,75.67657878145191,1.0416948695927806,37.64450695421844,1.0372026191302643,65.58949779999999,11.9021864,143.54361479999997
299.787,32.0660798,53.902012,-38.4129916,-0.8577024,0.5430472,0.1969142,72.22043120000001,52.2510194,-15.220925,18.0288938,15.513496200000002,-19.655678,-0.9008812,0.3621562,-0.386463,137.5283142,63.0665274,128.2168914,73.54738809128291,1.0340835897330738,30.85539261845127,1.0450347841487766,65.30788299999999,10.815508000000005,143.4378164
319.773,29.8201268,51.4710114,-39.6368326,-0.8461681999999999,0.568462,0.1799098,73.8070616,53.3319856,-14.0187596,12.0305986,13.8433992,-16.9316158,-0.9108792,0.357675,-0.3801879999999999,138.6149414,63.0603932,129.1690094,71.4813505431132,1.035141151858663,24.961062030364257,1.0498453400199668,64.8078798,9.7284076,143.18776899999995
339.759,26.917414200000003,50.8208108,-40.12425399999999,-0.8386340000000001,0.555528,0.1646176,75.38818799999999,54.3916444,-12.7673492,7.610506799999999,11.0738488,-13.8015534,-0.9221728,0.3476582,-0.37076,139.4400176,63.057765,129.928949,70.12316134231453,1.019321980028764,19.262212158813927,1.0529633776571148,64.05182959999999,8.666120600000003,142.69629819999997
359.744,23.8518608,50.9113732,-39.6715006,-0.8460661999999999,0.5502444000000001,0.1493156,76.9907302,55.41658259999999,-11.4159574,3.8597774,7.3629524,-10.070056,-0.93915,0.3421648,-0.3453993999999999,139.961618,63.0743354,130.437738,68.80920828339805,1.0202411787989936,13.058214941765682,1.0575349726507397,62.9708878,7.657752800000003,141.8536954
379.73,24.6235886,50.628631600000006,-37.2851914,-0.861794,0.5649946000000001,0.1306716,78.704274,56.35974280000001,-9.9627922,1.8924062,3.5798782000000005,-5.447696599999999,-0.948308,0.3372651999999999,-0.322917,140.192688,63.0991196,130.66867059999998,67.52603165420875,1.0387409992446242,6.7877925276399855,1.0570294541232237,61.488414,6.7393768000000005,140.6314628
399.716,25.8273236,49.1268822,-33.7639396,-0.8748891999999999,0.5803854,0.1025274,80.5100892,57.194339,-8.438482,0.1209231999999999,-2.5482108,0.4107692,-0.9525878,0.3328494,-0.3073427999999999,140.04594120000002,63.1482804,130.51791699999998,64.96541246189577,1.0548887109835616,2.583937312939987,1.054832610654904,59.535852,5.953941400000001,138.95639899999998
419.702,26.1304238,47.7476022,-31.083754,-0.87335,0.5896446,0.0814811999999999,82.37198479999999,57.9354874,-6.8564338000000005,0.0181357999999999,-8.295451199999999,6.5074692,-0.9539956,0.3328433999999999,-0.2906502,139.5549164,63.2102212,129.9861604,62.680398264126936,1.0569106692443784,10.543338888026492,1.0513657177704436,57.1829316,5.2747338,136.84259419999998
439.688,26.5734376,46.74300100000001,-28.902451000000003,-0.8739768,0.5986114,0.0628572,84.2967254,58.5931198,-5.2229738,2.0408688,-13.590363,13.550813,-0.9448506,0.3502436,-0.2803812,138.7485902,63.253174,129.05777740000002,61.04430687766465,1.0611889948261055,19.29993898673132,1.0459573858311628,54.45186480000001,4.6600542,134.2807512
459.673,27.892048,45.9283816,-27.0716114,-0.8785742000000001,0.596004,0.0543188,86.28948360000001,59.178665,-3.545619,2.6986784,-17.486219799999997,20.7604998,-0.9346128,0.371718,-0.2658277999999999,137.63202819999998,63.2460306,127.76939699999998,60.16855259869672,1.063044648617865,27.27726342480745,1.0403556010810342,51.34254460000001,4.0673656000000005,131.315016
479.659,28.2397786,44.6867624,-25.4405716,-0.8941972,0.5895195999999999,0.0406842,88.3113464,59.7001204,-1.850234,1.6339906,-19.8933896,27.568659000000004,-0.9217266,0.3979452,-0.2468346,136.2358612,63.16275879999999,126.1918198,58.66527518477859,1.0718102422544953,34.03597852444612,1.033860545290205,47.9245148,3.4626384000000017,128.0420538
499.645,27.087603,43.5447884,-24.135796,-0.9018986,0.5754338,0.0173194,90.3318176,60.1691016,-0.1384088,-0.4693087999999999,-20.0834688,32.8463068,-0.9083776,0.4019757999999999,-0.2390658,134.65982060000002,62.990524400000005,124.4573378,56.67824522371877,1.069974347580707,38.50254329508711,1.021707817674427,44.328003,2.821422800000001,124.5957466
519.63,25.6116002,41.767012,-22.3438484,-0.9109608,0.5559934,-0.0025702,92.3105302,60.5829696,1.5527718,-3.4018254,-21.1621832,36.792877,-0.9025158,0.3967618,-0.2276162,132.914917,62.7627756,122.5944288,53.84872252463346,1.0672323298646085,42.5808197640625,1.0118121513854834,40.6043868,2.179806000000002,121.041657
539.616,24.763133600000003,38.101974,-19.598445,-0.921896,0.5443969999999999,-0.0148472,94.1742708,60.92527,3.1277434,-6.4174984,-21.3678882,37.551013,-0.8978634,0.3746246,-0.2120128,131.119107,62.5145524,120.7361922,49.48810215401425,1.0707384217318625,43.67893667625015,0.9957166782516802,36.944836200000005,1.5892824000000003,117.6084488
559.602,22.5619102,32.2440772,-16.160907599999998,-0.9301724,0.5469322,-0.0258438,95.8010178,61.1848274,4.479516,-8.742845599999999,-24.5416248,37.839276,-0.9026254,0.349867,-0.2053486,129.224385,62.287513,118.8102492,42.54286357085242,1.0793625095939918,45.940608454977934,0.9895997059094752,33.4233672,1.102685600000001,114.3307332
579.588,17.4332038,23.6913504,-12.0357692,-0.9322804,0.5623842,-0.0229096,97.0024048,61.3574874,5.4651854,-12.116808,-28.097378600000003,34.9956424,-0.911436,0.3248258,-0.2142896,127.2696852,62.1295944,116.8840774,31.78138478329073,1.0890122048930213,46.48628515260474,0.9910335085706232,30.2672804,0.7721070000000012,111.418892
599.574,10.5917284,13.2519846,-7.4622382,-0.9278056,0.5763576,-0.0197614,97.6654922,61.44743580000001,5.9955448,-13.934447999999998,-31.8620426,31.684472200000005,-0.8994534,0.3070422,-0.2282318,125.3057494,62.0426782,114.97523800000002,18.533343068414368,1.0924293237546674,47.04534385357909,0.9774359753373312,27.6402572,0.5952424000000007,108.9796932
619.559,3.1211538,1.2314512,-2.2864416,-0.9295786,0.5964208,-0.0078795999999999,97.7065398,61.4515228,5.991269,-14.357789399999998,-33.654841999999995,27.5360566,-0.8832138,0.2967394,-0.2553537999999999,123.41749260000002,62.00863360000001,113.1516312,4.060281799511758,1.1044891273103417,45.79332833042516,0.9660882212289104,25.7109528,0.5571108000000009,107.1603622
639.545,-7.443939,-11.721195,2.9236676,-0.9370048,0.6261582000000001,0.0147327999999999,97.0253082,61.36838300000001,5.409640400000001,-15.264832399999998,-36.289769,22.7608232,-0.880003,0.290302,-0.2815539999999999,121.5620392,62.0509402,111.3779632,14.189660753486525,1.1270621731058674,45.47546058057146,0.9684798325876488,24.536731,0.6825572000000009,105.96832279999998
659.531,-18.7959412,-25.5306344,8.5686406,-0.9456044,0.6561098000000001,0.0484744,95.5998352,61.1901328,4.2331672,-15.049063399999998,-34.502055,16.626899200000004,-0.8743316,0.2779662,-0.3169532,119.9005052,62.142885,109.8167418,32.84086326807334,1.151953783105364,41.14996823142401,0.9706597169406176,24.30067,0.9527522000000004,105.5835746
679.517,-29.0219292,-38.706874,14.4375822,-0.94599,0.6723074,0.0774716,93.5261872,60.902092800000005,2.523841,-10.846739199999998,-29.0610866,11.4426112,-0.8626466,0.2871562,-0.3495722,118.598665,62.2404748,108.56721480000002,50.4870106970441,1.1631406488474727,33.06254461955222,0.9740731813897968,25.0724778,1.3383820000000015,106.0433738
699.502,-37.504415,-50.8972368,20.7314046,-0.953645,0.6866244,0.1142329999999999,90.887378,60.463256,0.3478578,-4.748901399999999,-23.177933,7.293729799999999,-0.8681702,0.3229522,-0.3550377999999999,117.6798128,62.3268448,107.6154144,66.53496069778956,1.1806527986624011,24.758173136457767,0.9920027515494704,26.7924348,1.8635888000000025,107.2675566
719.488,-45.6224706,-62.4861882,27.0136214,-0.9621282,0.7107804,0.1642458,87.7895706,59.854618,-2.2038318,0.4306438000000007,-16.660229,2.6918274,-0.8730321999999999,0.3440988,-0.3403638,117.1567734,62.4255958,106.9958908,81.94918718667209,1.207425415119725,16.88178364884203,0.9982167714222796,29.3672028,2.570977800000001,109.1997226
739.474,-52.5090184,-74.13033800000001,33.3056588,-0.9705656,0.7404066,0.2097436,84.32115920000001,59.0408286,-5.0611418,4.853136800000001,-8.1469324,-1.1078684000000003,-0.883254,0.3553756,-0.3231652,117.0625168,62.5130354,106.76392839999998,96.75624493244764,1.2386250017531053,9.547398426870148,1.0054179191174184,32.7413576,3.472206800000002,111.8250702
759.46,-59.61155140000001,-85.84676420000001,39.6493698,-0.9789122,0.7551474,0.2488256,80.536055,57.9738976,-8.1582308,11.336796800000002,-4.867431999999999,-3.5248022000000008,-0.8854146,0.391661,-0.2804497999999999,117.2303542,62.6128424,106.6866258,111.78227278715708,1.2611228608866625,12.831176349354688,1.0079729376993214,36.6942992,4.638944800000002,114.8448566
779.446,-66.532926,-98.0170684,45.4732726,-0.9922948,0.7554728,0.2863279999999999,76.50436099999999,56.63289100000001,-11.4083144,15.4526294,-4.7071252,-4.212149,-0.8808966,0.4009202,-0.2336698,117.4773772,62.7272246,106.6109574,126.89284637364575,1.279598314015332,16.693800712253047,0.9956492364741912,40.9730162,6.0943336000000015,118.0192718
799.431,-71.60652139999999,-111.2171996,51.0279204,-1.0105868,0.7636537999999999,0.3397426,72.33751600000001,55.0005042,-14.7512042,15.7792702,-4.5694152,-5.8382512,-0.8845064,0.3770044,-0.2156078,117.7564436,62.884352,106.5662354,141.7766132132646,1.3114411312916183,17.43416474594927,0.9853784109067744,45.4189276,7.883847800000002,121.3174396
819.417,-75.3904814,-125.6313812,56.7585404,-1.0310858,0.7674516,0.3747323999999999,68.10952,53.0316626,-18.1282728,16.280280400000002,-7.078619000000001,-6.930173600000001,-0.8908028,0.3702734,-0.2119241999999999,117.9772688,63.08785760000001,106.445572,157.1257475281562,1.33885931184496,19.05732622840681,0.9876962517803944,49.8677488,10.056195000000002,124.5738448
859.389,-76.4585188,-143.3711792,63.5681862,-1.0413354,0.7460039999999999,0.4311555999999999,63.23525779999999,50.029164,-22.0388906,18.475184,-10.873452599999998,-7.8149536,-0.8827997999999999,0.3850124,-0.2123053999999999,118.1236708,63.3318404,106.1931762,174.47668732253695,1.351590372383778,22.817490989336576,0.986226960644942,54.888413000000014,13.3026764,128.23206679999998
879.374,-76.33285040000001,-160.47195440000002,70.1331338,-1.0449158,0.7430928,0.491014,58.6028594,46.60946800000001,-25.757415400000003,17.3763566,-11.453036,-9.2654378,-0.880457,0.382187,-0.2284518,118.271199,63.601725,105.96328739999998,191.040855985711,1.373000614237838,22.78065275476821,0.9866416050122964,59.66833960000001,16.992257000000002,131.7207028
899.36,-75.13474240000001,-176.58042,76.72454239999999,-1.0341072,0.7413756,0.5484434,54.2859228,42.7707198,-29.2312016,16.134463399999998,-12.580879,-11.001408,-0.8913198,0.3902294,-0.2380336,118.3881592,63.9074624,105.7269044,206.6700985855965,1.385570512233412,23.229946267717548,1.0016935485593188,64.10223640000001,21.1367426,134.958106
919.346,-72.94919560000001,-191.04549580000003,82.7807542,-0.9993064,0.7241336,0.5964076,50.336749,38.5395912,-32.4141708,14.7440112,-15.561464,-11.5205632,-0.9017954,0.4157344,-0.222443,118.3404404,64.24219819999999,105.3466446,220.6187205793645,1.3706512237136332,24.336565175353236,1.0176202253559623,68.00369140000001,25.702607,137.7608154
939.332,-68.3589194,-202.9437074,88.38663340000001,-0.9434066,0.7117450000000001,0.6521882,46.8202536,33.9629838,-35.2849804,11.3995766,-18.94679,-10.078677,-0.91559,0.4319333999999999,-0.1954414,118.0236574,64.5809998,104.7519088,231.67064379972385,1.3497949496748756,24.300430614161893,1.0310523027322716,71.2034038,30.618016,140.0368892
959.318,-64.11349720000001,-209.2821168,92.0036102,-0.8655252000000001,0.703106,0.6768978,44.4417036,29.7669926,-37.2526482,7.0222436,-22.834083,-7.262727,-0.9265088,0.4320984,-0.1730356,117.3818972,64.90676260000001,103.9008026,237.43253615571896,1.304485550213524,24.969069968766537,1.0368552949314385,72.94019360000001,35.139770000000006,141.15345080000003
979.303,-58.2536516,-213.7039094,95.0258286,-0.7799756,0.6847133999999999,0.7143834,42.4257124,25.401245,-38.9831268,4.978027600000001,-26.8211204,-2.9493166,-0.9406334,0.4194568,-0.167985,116.45496699999998,65.1924956,102.7802398,241.0243907132516,1.2599754040974291,27.4381436453834,1.0435296644019276,74.02925460000002,39.7912506,141.76336659999998
999.289,-50.21896,-216.44346920000004,97.2818284,-0.6862692000000001,0.6540566,0.7186770000000001,40.7803594,20.9064006,-40.4969688,4.571646800000001,-29.522600800000003,-0.5470962000000004,-0.9339894,0.4078392,-0.1716308,115.3711824,65.45215440000001,101.49326,242.5561243087051,1.189643678250425,29.87947835408385,1.0335018838287815,74.590823,44.5457538,141.9902288
1019.275,-41.8161642,-217.2666168,99.8865236,-0.5913868000000001,0.6458518,0.7174118,39.48487,16.322819799999998,-41.8172684,4.299357400000001,-29.1771464,0.8035427999999998,-0.918997,0.3918364,-0.1938659999999999,114.3001192,65.6741562,100.2184324,242.756445766148,1.1320523775677165,29.50315283374642,1.0176813235635014,74.8152492,49.3513364,142.0357008
1039.261,-34.147671200000005,-216.0401428,101.288089,-0.4890358000000001,0.6130262,0.7107534,38.4894506,11.7038874,-42.9714882,4.070250000000001,-25.253762,0.3132425999999997,-0.897359,0.3770886,-0.2332489999999999,113.4189652,65.86185,99.1500272,241.03668542920937,1.0583607755296112,25.58158617329267,1.0009266122608391,74.9295146,54.157962600000005,142.1215154
1059.247,-25.335732,-213.905066,102.5612932,-0.3994274,0.5961684,0.7204078,37.790565400000006,7.085482599999999,-44.0025894,3.6840936,-18.8725584,-2.0202986000000003,-0.8848065999999999,0.3595513999999999,-0.2693456,112.8480376,66.03575900000001,98.426016,238.5709442478202,1.0168315530756116,19.334622123231,0.9923240301861482,75.0574722,58.95027640000001,142.42860539999998
1079.233,-18.9620472,-210.557669,102.8482682,-0.3102752,0.5767372,0.6939352000000001,37.3175376,2.4961536,-44.928022,3.840978200000001,-9.7538442,-6.468307999999999,-0.8656615999999999,0.3513605999999999,-0.2966668,112.718794,66.21472320000001,98.184976,235.0996756281635,0.9541711373741716,12.317856899380384,0.9802221519477918,75.4012564,63.7185696,143.112998
1099.218,-15.4586252,-206.74841300000003,102.593283,-0.2316205999999999,0.5594876,0.6902864,36.9962632,-2.036384,-45.7804704,2.6685874000000007,0.0375279999999996,-9.3062786,-0.8559060000000001,0.35448,-0.314479,113.0151258,66.3683762,98.4365356,231.3206801991788,0.9182427734118468,9.681404259870607,0.9783292864250768,76.0188626,68.4047602,144.217006
1119.204,-12.7262224,-202.6111204,101.0018768,-0.157286,0.528288,0.678547,36.7981934,-6.4877224,-46.5945718,1.6895610000000003,9.9287522,-12.6259524,-0.8577422,0.353466,-0.3239722,113.777551,66.4977096,99.2170868,226.747881938156,0.8742157216322525,16.15083312491314,0.9826585781387552,76.97935760000001,72.985432,145.8116586
1139.189,-10.9463986,-198.4603392,99.3927674,-0.0930886,0.5062023999999999,0.6753014,36.69602139999999,-10.8555676,-47.3815224,0.8965456000000007,18.4699178,-15.1235582,-0.8660838,0.3482316,-0.3164728,114.9431226,66.5956376,100.4529984,222.2279282383734,0.8490808783959747,23.888567771643896,0.9856578660979884,78.2471012,77.4512052,147.8345208
1159.175,-10.8433614,-194.4150664,97.056102,-0.0373385999999999,0.480402,0.6729366000000001,36.6555604,-15.1317046,-48.1632532,1.2367818000000006,25.1260402,-16.287142999999997,-0.8851165999999999,0.3523374,-0.3031034,116.4254758,66.6478242,102.0260254,217.56535446895447,0.8276617185019012,29.96862613559848,0.9997223165088792,79.76991540000002,81.77952880000001,150.1892786
1179.161,-9.470961,-190.3276916,94.424202,0.0173506,0.450063,0.6380974,36.703195400000006,-19.310896,-48.9542108,1.5148844000000008,29.4389772,-16.2805306,-0.8972960000000001,0.3621732,-0.2782764,118.0969022,66.6434068,103.7984924,212.6740680369495,0.781041637287104,33.67497483213639,1.0068501840945356,81.39370679999999,85.95430280000001,152.7527032
1199.147,-8.1102376,-185.1607086,91.4396608,0.0880346,0.4218535999999999,0.6199551999999999,36.8317148,-23.3633772,-49.754535,2.2276052000000006,31.8571966,-15.392725,-0.9188324,0.3608854,-0.254529,119.838101,66.5849946,105.63517299999998,206.66754832435987,0.7550198677102211,35.451081549985794,1.0194489997365832,83.0063862,89.94837179999999,155.389708
1219.133,-5.3186786,-179.504834,89.5197786,0.1539262,0.3992602,0.6002091999999999,37.0596224,-27.2889736,-50.5482606,3.039637600000001,31.4135078,-12.8748286,-0.9301092,0.3672406,-0.239521,121.4673094,66.4734498,107.34042359999998,200.65907537913824,0.7371248646702402,34.085320601680905,1.0282699507687658,84.40768699999998,93.7624234,157.8886842
1239.119,-3.5212848,-173.861609,87.485579,0.2162504,0.3842047999999999,0.5728798,37.373797,-31.0915034,-51.3475678,4.272025400000001,28.9574834,-9.2676792,-0.9353248,0.3792548,-0.2318376,122.8896652,66.3090058,108.8005784,194.6637744000584,0.7228892232501741,30.703027922887888,1.035574892314332,85.5158682,97.40050920000002,160.1481462
1259.104,-2.5807274,-166.9229766,85.9040344,0.2872964,0.3729996,0.5229786,37.7427012,-34.7483932,-52.123854,4.2547458,27.2525892,-5.693904000000001,-0.9264718,0.3802198,-0.2312118,124.12408,66.0883408,110.0603166,187.748351250054,0.7036863925862713,28.164286298214453,1.0278015318953948,86.3813788,100.836734,162.1841706
1279.09,-2.1093278,-159.7661314,84.75094,0.3509126,0.3549996,0.5019308,38.152656,-38.2674944,-52.8810898,2.981114200000001,24.1935484,-1.9987768000000004,-0.9265874,0.3797285999999999,-0.2365926,125.10132760000002,65.831836,111.0694704,180.8656624049284,0.7078833921116953,24.45833057984135,1.0289480443013048,86.94867160000001,104.0993304,163.95056019999998
1299.083,-0.1765227999999998,-152.7393156,84.1305146,0.4051172,0.351416,0.4858398,38.6164964,-41.6631462,-53.5969338,1.2531754000000008,20.9210086,1.1792915999999998,-0.919961,0.3768474,-0.2482114,125.8321366,65.5534882,111.8471528,174.37681376007572,0.723639041273949,20.99165972719332,1.0246712172681147,87.2156402,107.2166344,165.4440866
1319.062,-0.0463613999999997,-146.4434416,82.3531494,0.4446512,0.3435868,0.460106,39.1281418,-44.935819200000005,-54.307666,-0.3946785999999992,17.994014399999998,3.928779,-0.915348,0.3650438,-0.2529952,126.3487718,65.2661072,112.4258148,168.01108580427285,0.7262672442232818,18.42215052200872,1.0174111795363172,87.22063,110.2019264,166.7334808
1339.048,1.1109528000000002,-139.864282,80.0997986,0.4919784,0.3298536,0.4157304,39.7141906,-48.0802192,-55.03863679999999,-3.5908877999999995,15.34223,5.9547438,-0.9149284,0.359167,-0.2541604,126.65112,64.9309768,112.8720642,161.18073498796286,0.7236559327357719,16.844508609298384,1.0152302300186495,86.93692940000001,113.011196,167.91070100000002
1359.033,3.5788006,-134.1572524,77.18353119999999,0.5312250000000001,0.3114287999999999,0.396848,40.4168914,-51.0972304,-55.8223518,-7.329700799999999,10.5998136,8.4436314,-0.929518,0.3679219999999999,-0.252016,126.6374268,64.614788,113.054567,154.81690370806814,0.7325818952161185,15.406994301009252,1.0309618686760438,86.22053539999999,115.7120184,168.8769188
1379.019,5.9840426,-128.4255036,73.36005159999999,0.574241,0.3051452,0.3702406,41.28646,-53.97699720000001,-56.7021834,-12.915196599999998,5.651415,10.5110496,-0.9409068,0.3744376,-0.2380874,126.2774216,64.32991100000001,112.9807434,148.02234936490805,0.7482943411869423,17.5847365181437,1.0402858898489202,84.99096159999999,118.3069082,169.6829268
1399.005,7.697509399999999,-122.7839082,68.62490220000001,0.620631,0.2747834,0.3179296,42.3465842,-56.713162,-57.7404988,-20.4001534,0.1603595999999999,13.884131,-0.9543364,0.3814692,-0.2185746,125.4901292,64.0600554,112.6022202,140.87056813184464,0.7495118315495227,24.677136535060235,1.050738583415856,83.14354499999999,120.7732174,170.34271900000002
1418.991,11.0543352,-117.0725846,64.0267226,0.6771214,0.2554586,0.3011368,43.629425000000005,-59.30048359999999,-58.9442754,-28.137339399999995,-6.1714906,16.963397399999998,-0.9812226,0.4045978,-0.196232,124.2473632,63.811607200000005,111.8941346,133.89402375959676,0.783859591359422,33.429837212989945,1.07935358819045,80.6179382,123.1120908,170.83841
1438.976,13.5578356,-111.66710659999998,59.6170204,0.7233066000000001,0.2563308,0.2549764,45.1713172,-61.7314942,-60.358431,-36.0217192,-15.007457,21.2073012,-0.9918766,0.4278612,-0.159059,122.4693008,63.6268958,110.7309692,127.30886349326352,0.8086351966054658,44.41325977585995,1.09187186133447,77.2979836,125.35839,171.0894002
1478.948,17.94741,-100.697232,54.686348800000005,0.7944954,0.2237768,0.1726677999999999,47.2761442,-64.2875184,-62.2029906,-44.9355466,-23.997603,25.8462214,-0.9886372,0.4460388,-0.1296334,120.1241606,63.43241880000001,109.1336578,115.98551117810013,0.8432752611076882,57.12368561852603,1.0923181508721898,72.84801639999999,127.7199372,171.3366484
1498.934,24.1513984,-88.6633498,50.3707826,0.8512596,0.2059454,0.1308978,49.541876,-66.608771,-64.080178,-51.5668082,-34.0412728,32.5970394,-1.0035242,0.4493818,-0.1073175999999999,117.2078108,63.1829788,107.042041,104.7935846422344,0.8855453960233547,69.86065372886772,1.104772324701628,67.6659348,129.79174980000002,171.122219
1518.92,27.8569034,-75.8725456,45.3235818,0.8935525999999999,0.2091478,0.0884486,51.88145959999999,-68.662221,-65.9447594,-52.1343712,-44.7193528,37.6463584,-0.9988016000000002,0.463483,-0.0837391999999999,113.873512,62.877832,104.489424,92.6654051415214,0.9219556421290342,78.32663324854137,1.1042795755913446,61.9920524,131.540053,170.4341834
1538.905,28.560198,-60.92503860000001,38.16741760000001,0.9331356,0.1871372,0.006262,54.16032700000001,-70.3928652,-67.7218682,-51.6841202,-55.461178,43.206728,-0.978182,0.4691842,-0.0532982,110.1561628,62.4823754,101.4886946,77.35823811633436,0.9517360938071014,87.25830556721644,1.0861926793975736,55.9958358,132.8752406,169.2105628
1558.903,30.8172708,-43.988859000000005,29.6136952,0.9607696,0.1478622,-0.0223768,56.2479294,-71.76180120000001,-69.25021219999999,-50.2647714,-64.7003732,50.3896462,-0.9760206,0.4674108,-0.0440519999999999,106.1582792,61.92341700000001,98.1287794,61.33265719892557,0.9723385087772878,96.18628790152322,1.0830649317030814,49.9103498,133.6852182,167.3789916
1578.877,30.0456098,-30.1034446,19.6855194,0.9547776,0.1470264,-0.0305396,57.701398600000005,-72.44248660000001,-70.18975220000002,-43.8163816,-72.5769608,56.2342188,-0.9657472,0.4670966,-0.0220028,102.1129134,61.19462059999999,94.549069,46.86657357954496,0.9665141979954978,101.73287521508388,1.0730009372070652,44.411514800000006,133.6371072,164.7388212
1598.863,26.9988748,-15.2075484,7.522004000000001,0.9501696,0.129024,-0.0445752,58.7587092,-72.739592,-70.785727,-34.9510236,-76.6555512,60.023414,-0.9265528,0.4989558,-0.0024121999999999,98.279457,60.2863068,90.9824248,31.887133972504238,0.9599252105217364,103.44301720599113,1.0523605847095947,39.5207478,133.0258988,161.7681518
1618.848,25.361649,0.9902773999999994,-5.3272492,0.9369172,0.1180822,-0.0436089999999999,59.364056600000005,-72.641211,-70.9506928,-29.5699348,-78.28542479999999,63.647621400000006,-0.9037098,0.5015036,0.0179322,94.7005294,59.212275,87.55177,25.934021542503825,0.9453353851907164,105.13804492223755,1.0336918434552147,35.3364728,131.85348600000003,158.5024628
1638.834,24.0885088,17.3076096,-17.261127,0.9129854,0.1278908,-0.0196076,59.491131,-72.174257,-70.64509899999999,-25.8513828,-79.40301199999999,63.659752000000005,-0.8823570000000001,0.5209973999999999,0.034008,91.383635,58.03728099999999,84.2985292,34.31845147415336,0.9221078328024114,105.00331581452932,1.0252554366204356,31.892503999999995,130.211538,154.94362819999998
1658.82,21.0992384,33.6288244,-28.633166,0.8892244,0.1459716,-0.0026614,59.1275368,-71.3506304,-69.8849458,-23.3959118,-77.7714216,61.54967799999999,-0.8608674000000001,0.5440134000000001,0.0421294,88.41487579999999,56.809996,81.3513414,48.94827766908276,0.9011297490438768,101.9025297455466,1.0192242864584224,29.287339,128.1606264,151.2362872
1678.806,17.162489,48.771976,-38.9169058,0.8614431999999999,0.1620738,0.0299544,58.341416200000005,-70.19908319999999,-68.75262319999999,-25.2556526,-62.6112782,59.4846176,-0.8483677999999999,0.5513088,0.0307732,86.05540160000001,55.588655800000005,79.14249279999999,64.71307617990178,0.8770687370736913,89.98021936574678,1.0122333263000778,27.713985399999995,125.78773900000002,147.89511599999997
1698.792,14.0202254,62.68543199999999,-47.815146600000006,0.8333824,0.1856408,0.0548102,57.260052400000006,-68.7507616,-67.3590792,-33.2485328,-40.586778800000005,51.617868,-0.8460156000000001,0.5374014,0.031278,84.5141404,54.4286796,78.35704960000001,80.07695267474232,0.8555658298917974,73.60133044706618,1.0027566870628788,27.254088000000003,123.1794412,145.7161288
1718.777,10.7635614,75.0349536,-55.8828994,0.8062099999999999,0.2174228,0.0715808,56.0023506,-67.0261994,-65.830237,-37.0993214,-5.5225652000000025,42.2716552,-0.8540849999999999,0.5386056,0.0005414,83.89713900000001,53.4953224,78.79889219999998,94.17535219533951,0.8380758014574098,56.51328346571659,1.0097313864044832,27.8947884,120.5215218,144.6291292
1738.763,7.887322399999999,86.39755720000001,-63.5689728,0.7794304,0.2452728,0.0854052,54.67361,-65.0321876,-64.25740820000001,-44.6120544,36.3051402,31.9690396,-0.8400972,0.5311087999999999,0.0115802,84.26530460000001,52.8188554,80.645549,107.55353107925352,0.8215622575624077,65.80515250097505,0.9939687942371832,29.5916946,117.851043,144.9029572
1758.749,6.1757946,96.5164154,-71.38116699999999,0.7475462,0.2686562,0.1132812,53.3833406,-62.772299800000006,-62.7291016,-45.4497122,57.2991866,23.7161442,-0.8409113999999999,0.524335,-0.0169141999999999,85.1676148,52.34797519999999,83.172429,120.20328565762516,0.8023927375084597,76.88516514776855,0.9911333235426,31.7842742,115.120275,145.90153059999997
1778.735,6.1095694,105.7952942,-79.345028,0.7157448000000001,0.2859705999999999,0.1276392,52.2249382,-60.25970980000001,-61.3168458,-50.1168418,84.08809099999999,5.451577400000001,-0.8201096,0.5352205999999999,-0.0380122,87.3711228,52.4582542,88.6010208,132.38430640162284,0.7812564036013018,98.04195314343087,0.9800437612807704,35.1461846,112.717964,149.9178666
1798.72,5.9316198,114.522914,-88.2218872,0.6883596000000001,0.3041183999999999,0.1517092,51.2172684,-57.4865302,-60.0372886,-51.459928000000005,95.1665854,-7.587247799999998,-0.7879082000000001,0.540227,-0.0624187999999999,89.6214402,52.8882576,93.8611512,144.6851178443473,0.7676865385659437,108.45445816396524,0.9573612953058422,38.4041718,110.3747878,153.8984398
1818.706,7.7609978,124.0090696,-96.4326888,0.6527692,0.3134385999999999,0.1639872,50.3633424,-54.4533676,-58.8488242,-55.418703400000005,85.0503134,-17.814073999999998,-0.7725852,0.5471804,-0.0652946,91.5770052,53.4666534,98.8294572,157.28237631440751,0.742457531581733,103.06371683794868,0.9489771684252262,41.2136628,107.920021,157.6782814
1838.692,9.8453558,133.633615,-105.6834854,0.6122938,0.3210762,0.1952218,49.6740464,-51.1453354,-57.762615200000006,-53.1082688,65.80847680000001,-22.822051,-0.7781492,0.5455479999999999,-0.1161808,93.1297212,54.101483,103.213202,170.65718026232832,0.718404603910721,87.59046663602035,0.9574114977653444,43.4556748,105.2468184,160.97581720000002
1858.678,13.608310999999995,141.70661460000002,-113.9328644,0.5553433999999999,0.338433,0.2568827999999999,49.180243,-47.5955796,-56.7769134,-50.1464296,56.7715712,-30.5501736,-0.7642561999999999,0.5486774000000001,-0.0963682,94.2875108,55.0486044,107.373703,182.3366346625232,0.6992366983707304,81.67612138890144,0.9457384725601682,45.1072678,102.644184,164.1506164
1878.663,14.1397256,148.1664824,-121.8043564,0.5060894,0.3870464,0.3028266,48.8069208,-43.8252686,-55.8909484,-41.0982736,27.0129974,-27.2302892,-0.7672774,0.5541214,-0.0768631999999999,94.0919572,55.70298379999999,108.4692934,192.32664814021751,0.7054327368451794,56.21617891095499,0.9495646823692212,45.2850364,99.5282524,164.36024179999998
1898.649,15.4134138,156.0578002,-128.1769944,0.4499454,0.4039276,0.312527,48.520199,-39.843509,-55.0297408,-30.5350856,4.870183000000001,-23.003795200000003,-0.7800958,0.5684754,-0.0613702,93.457634,56.2925986,108.7739854,202.536298528562,0.6806478492964773,38.5393919082328,0.9672021707124318,44.937435,96.1361076,163.8037262
1918.635,16.2265706,162.34560240000002,-132.58331,0.3797022,0.4368594,0.3811404,48.3225426,-35.7011532,-54.1955856,-21.6692728,-8.4988116,-17.9376406,-0.7698744,0.5769211999999999,-0.0488063999999999,92.5952988,56.7869582,108.58801739999998,210.232562422218,0.6930280662176389,29.38615545776417,0.963289534597859,44.2727562,92.4881114,162.783603
1938.621,18.6750406,165.6437042,-133.12215120000002,0.2988012,0.4896105999999999,0.4798454,48.2325722,-31.5002732,-53.3646712,-12.5212658,-17.134259199999995,-12.7152906,-0.7668264,0.5799916,-0.0412122,91.6535172,57.1836562,108.0834306,213.32627832178676,0.7478317355227444,24.739513952571556,0.9623468341696564,43.420945,88.6839294,161.4481018
1958.607,14.2679534,168.078531,-134.1872604,0.2503196,0.5392552,0.5036166,48.1181106,-27.2516302,-52.5497566,-6.098161999999999,-15.1794838,-6.5614592,-0.7611138,0.5673168,-0.0551558,91.117125,57.2847534,107.5740038,215.54625473665723,0.7791570783011343,17.62546609443197,0.9508862867800334,42.9990144,84.5363836,160.12376039999998
1978.593,14.46345,172.419513,-132.33437659999998,0.169866,0.5565148,0.5211266,48.0336006,-22.9737916,-51.6657912,0.743252,-10.4280294,-0.5965471999999998,-0.7536453999999999,0.5419791999999999,-0.0613464,90.869873,57.2717452,107.2416276,217.83036307909484,0.7811121006632787,10.47148935274234,0.9303151202505308,42.8362724,80.2455368,158.9074188
1998.578,16.210097400000002,174.2217408,-129.1767074,0.0877182,0.5787142,0.600152,48.031946600000005,-18.7179678,-50.737252,8.034117,-5.5385082,5.3060082,-0.7556634,0.514714,-0.0719762,90.9294616,57.1524848,107.0956422,217.4916181368953,0.8383239415624965,11.10746740124064,0.9171358946535676,42.897515,75.8704526,157.8328942
2018.564,16.609698,174.4594972,-126.03913579999998,0.023438,0.643975,0.6622604,48.1000276,-14.5126778,-49.7812072,16.427785399999998,-1.1304676,9.0771086,-0.7546288000000001,0.4929838,-0.0805794,91.2991514,56.967768,107.1155152,215.8653793088156,0.9240357016247588,18.802765506150863,0.9049810454126872,43.1991238,71.4804458,156.89672240000002
2038.55,11.0958856,175.08595599999998,-123.7420334,-0.0365633999999999,0.707052,0.6731522,48.12193620000001,-10.3342182,-48.7959968,25.550796,1.2890625999999998,11.5317802,-0.7630578,0.4857318,-0.0802316,91.9163068,56.7411872,107.214502,214.68651912881936,0.9769305488561608,28.062195445143757,0.9080912384285182,43.7943706,67.0754054,156.0104988
2058.535,5.4681248,175.5116274,-119.3754456,-0.0983698,0.7370472,0.6784432,48.0872286,-6.210263599999999,-47.7576286,33.792333,3.307647,12.877869,-0.7642154,0.490721,-0.0845762,92.7504926,56.4856504,107.377002,212.3316480264385,1.0065785454727914,36.31393407826614,0.9121323429440488,44.663264,62.695914,155.1346306
2078.522,1.6004569999999998,173.6558352,-115.9485992,-0.1491829999999999,0.7431650000000001,0.7313006,48.04456040000001,-2.1612696,-46.7125664,42.2575184,4.1984452,13.7181084,-0.7605284,0.5062523999999999,-0.0934334,93.7707288,56.2037366,107.5601792,208.8132855401223,1.053257020994572,44.62635209713978,0.9183815873306042,45.7261684,58.3650062,154.2727456
2098.507,-1.4819197999999996,169.8043886,-110.8630464,-0.2110272,0.7979388000000001,0.7533136,48.0115946,1.765654,-45.6628114,49.0592508,4.584287,13.983472,-0.7634787999999999,0.5329974,-0.1076674,94.9295148,55.9050596,107.7461808,202.79630551664889,1.1174614926834123,51.21877844629305,0.9373251172773296,46.917920200000005,54.1394056,153.4089922
2138.479,-8.3837008,166.44088140000002,-105.95842439999998,-0.2681446,0.7841922,0.7431928,47.9409914,6.3199606,-44.383069,55.0383736,1.7413262000000005,13.6735522,-0.772023,0.5664187999999999,-0.1195576,96.1135604,55.6075216,107.8196504,197.484280745692,1.1131911206175875,56.73817775743338,0.9649579209686812,48.172569,49.287561,152.20271939999998
2158.465,-8.2482486,163.49146420000002,-100.9443268,-0.3138832,0.7343422,0.7220256,47.9589188,10.7706606,-43.0777734,58.2468138,-2.0686220000000004,12.9751046,-0.7643603999999999,0.5872318,-0.1356182,97.250328,55.3242606,107.7565034,192.3206946335534,1.07661603972746,59.71033289315758,0.97338599958631,49.2914092,44.5536,150.8342768
2178.45,-1.9476726,161.4449828,-96.0008132,-0.3823729999999999,0.7383021999999999,0.7359258,48.204284,15.1196908,-41.72006760000001,62.1251922,-13.3197954,12.5581116,-0.7810927999999999,0.603553,-0.1375044,98.1318786,55.0844932,107.291066,187.84150775297343,1.1103540123579865,64.76621513059764,0.9966391754492696,49.9275946,39.9648024,149.0111336
2198.436,-0.8191025999999999,160.6332794,-90.8065292,-0.4333768,0.7586470000000001,0.7057928,48.594906,19.3785726,-40.2549302,64.5831658,-28.6492338,11.914907799999998,-0.7919594,0.6142456000000001,-0.1436452,98.6271026,54.90447780000001,106.293956,184.5251937411752,1.1231670391883302,71.65004487060601,1.0124876749130134,50.032196600000006,35.525905200000004,146.5488862
2218.422,-3.5482402,161.75032660000002,-87.329875,-0.4811784,0.7509586,0.6804816,49.06659560000001,23.5908428,-38.6823226,66.30107960000001,-40.0977684,12.1045528,-0.8011618,0.6240742,-0.1230874,98.8092194,54.756041,104.8809036,183.85392362209515,1.1218407549554794,78.42311129554581,1.0229757303688294,49.7426238,31.165198200000003,143.5632262
2238.408,-3.173322,162.59173900000002,-83.7072814,-0.5491732,0.7343632,0.6575882,49.6650628,27.0131924,-37.187091800000005,64.9765184,-50.609162000000005,14.033891399999998,-0.8035678,0.6208843999999999,-0.106217,98.6523254,54.6035524,103.0892684,182.90175647854943,1.1284071755761391,83.5475034310109,1.0210292348650942,48.9872626,27.590360000000004,140.2763602
2258.394,-4.9444668,162.0764742,-79.8149428,-0.6340814,0.727531,0.6262366,50.3759066,30.351027800000004,-35.56551900000001,61.08810900000001,-57.50402319999999,14.1110762,-0.8111908,0.6091652,-0.0842986,98.2146774,54.476288,101.0532272,180.73089479999496,1.150448980601278,85.0740396178777,1.017948431335124,47.8387708,24.125260200000003,136.6187462
2278.379,-5.6971606,160.847626,-75.5278366,-0.7094084,0.6968868,0.5695286,51.231817,33.58749400000001,-33.7888974,53.751091800000005,-47.829478400000006,5.699903400000001,-0.7950392,0.573121,-0.0587095999999999,97.9472686,54.5671556,99.2544784,177.78883691113558,1.1459818132164057,72.17567299635955,0.9818359472487244,46.7154516,20.9796616,133.04337579999998
2298.365,-4.134024200000001,158.0822238,-71.081633,-0.7894222,0.6791406,0.5480167999999999,52.2815514,36.7014942,-31.878035800000003,45.2941268,-30.5589558,-1.9992695999999996,-0.8063553999999999,0.5354182,-0.0344734,98.0128494,54.7781044,98.076123,173.37727125429723,1.1767505162537384,54.67544952804976,0.9685401877609208,45.731298,18.0766102,129.95415880000002
2318.351,-2.0184868,152.940909,-66.5665962,-0.8544902000000001,0.6595302000000001,0.5097158,53.5281806,39.6552888,-29.8344518,36.3291652,-22.5304088,-8.0876332,-0.8122536,0.4971244,-0.0337926,98.1483794,55.0977402,97.2037032,166.8115933152187,1.1937100918471455,43.50675091984864,0.9529063540574592,44.6201988,15.4424514,127.038155
2338.337,1.6703642,146.7371096,-62.0673224,-0.8959284000000001,0.6441687999999999,0.4488406,55.0119194,42.4299454,-27.6788948,30.7409598,-10.0813266,-19.2711644,-0.8395579999999999,0.466698,-0.0295607999999999,98.56879560000002,55.616217000000006,96.8173858,159.3327397625127,1.1912594280963154,37.65657356654892,0.9610091047771816,43.5568762,13.1862716,124.4962806
2358.322,6.8942166,141.15856639999998,-57.533248,-0.9185596,0.6324173999999999,0.3976692,56.785903,45.0279762,-25.3584964,25.6654616,9.726843,-25.757700600000003,-0.8542932000000001,0.4596802,-0.024253,99.4850522,56.2041206,97.1573012,152.58881255210167,1.1839950587749763,37.64022494734807,0.9704179335973137,42.69914920000001,11.1761444,122.5157976
2378.308,12.0890068,135.51678780000003,-53.6412412,-0.9374998,0.6193753999999999,0.3727986,58.846817,47.4447684,-22.8822796,25.4755436,19.1237948,-28.3889756,-0.8878686,0.467931,-0.0208786,100.6965222,56.7245148,98.0060836,146.24748414423155,1.18385411148805,42.66915495865138,1.003845599464838,41.8497052,9.2797464,120.8883632
2398.294,16.338869,129.3496262,-50.873216,-0.9535092,0.6180216,0.3325548,61.16008380000001,49.673551200000006,-20.2627846,26.798099200000003,21.236876,-33.5970032,-0.9097606,0.4751044,-0.0142072,102.0628538,57.3204866,99.005136,139.95130776259842,1.1839439123346345,47.93643339875452,1.0264455098754928,40.90277,7.6469353999999985,119.2679206
2418.28,20.3547354,123.9995424,-48.2329062,-0.958957,0.6015306,0.2805014,63.736429,51.7269416,-17.4902322,29.3306014,22.4139136,-40.2534902,-0.9273442,0.4789043999999999,-0.029103,103.5880828,58.0438462,100.1319656,134.59797550153348,1.1662412383324987,54.61694951785062,1.044109033684701,39.8516538,6.316904600000001,117.6221978
2438.266,25.356113200000003,118.6481508,-45.6857582,-0.9680862,0.5961650000000001,0.2503834,66.5792336,53.596941400000006,-14.566298400000004,30.740407800000003,29.592451200000006,-42.313397,-0.9068032,0.4910102,-0.0448774,105.43332660000002,58.7428208,101.5958098,129.643760618009,1.1641715701953042,60.09250706547607,1.0321807211264122,38.854093000000006,5.145879400000001,116.1621082
2458.251,28.5941964,111.9599916,-44.0003532,-0.9731754,0.602117,0.2280635999999999,69.5961374,55.2808014,-11.5670496,33.935467,26.145500200000004,-43.9954092,-0.9234488,0.4970876000000001,-0.064303,107.2996902,59.4559616,102.9979612,123.64747821350258,1.1668882750714056,61.40683294138962,1.05070863901664,37.7035528,4.175160200000002,114.5650108
2478.237,28.809452799999995,102.852913,-42.5758758,-0.9757692,0.5912862000000001,0.2035459999999999,72.6266556,56.7820252,-8.605918800000001,36.639192,23.9434564,-40.8531394,-0.9359626,0.494372,-0.0942442,109.1815292,60.0941056,104.3429228,114.98439669519522,1.158954647988902,59.87235166274495,1.062690750979042,36.55487359999999,3.3120804000000006,112.9488416
2518.209,29.8016032,88.8161676,-38.1609984,-0.9718006,0.5635076,0.1630366,76.08161,58.1927444,-5.4162278,37.2907812,24.6739026,-37.6036154,-0.948404,0.4898772,-0.1170652,111.1311644,60.6408112,105.74147779999998,101.15685334828451,1.1351291355425956,58.424615729773336,1.0738501195915937,35.0495544,2.4480668000000008,111.1577056
2538.194,31.0660712,73.0798898,-32.743716,-0.9752954,0.5706254,0.1552782,79.2752378,59.3378106,-2.5875312,36.6567878,28.1083602,-33.7241064,-0.9609918,0.4964388,-0.1173209999999999,113.1629422,61.07702260000001,107.2521254,85.89483110450983,1.140581335890413,57.19366536099688,1.0879894019951113,33.887704400000004,1.7392120000000006,109.8396566
2578.166,27.84077,53.71289499999999,-26.4741786,-0.9654348,0.6064394,0.1607192,82.20323020000001,60.288102,-0.1449042,36.4571152,18.807362,-27.6432778,-0.9958588,0.4822929999999999,-0.1127581999999999,114.8210478,61.4703446,108.3408492,66.03836533424054,1.1513747262173335,49.467048847016216,1.1122300567120456,32.6178176,1.1822426000000008,108.4857534
2598.152,20.1733668,32.8084006,-19.3094978,-0.9615604,0.6139658,0.1651608,84.3831328,60.99106439999999,1.6015804,38.1965424,8.219484000000001,-24.1400228,-1.0057438,0.4461465999999999,-0.1128202,116.1318816,61.892573600000006,108.992195,43.08378561901945,1.152749103783837,45.92685999854305,1.1060270238371392,31.748748800000005,0.901509200000001,107.3906146
2618.137,12.5157102,11.1326816,-11.1505116,-0.947157,0.6369282,0.1783684,85.7424576,61.4502716,2.5742698,38.7516954,-6.7730666,-19.3962368,-1.0032332,0.4438805999999999,-0.1123343999999999,116.8713486,62.3495612,108.9851806,20.12246283035695,1.1552485449992136,43.86094309911828,1.102780965587437,31.128891,0.8992896000000016,106.4109108
2638.123,2.928120200000001,-7.853352200000001,-4.400134400000001,-0.9394264,0.686468,0.2236226,85.7089188,61.573465,2.357999,33.685451,-19.9191126,-10.349234999999998,-0.9662916,0.445197,-0.1250124,116.8803926,62.792868,108.0990082,9.466267026708906,1.1848068801588385,40.47946789336669,1.0712366336124433,31.1714738,1.219403000000003,105.7410092
2658.109,-9.2944284,-26.8724578,2.6200306,-0.9332756,0.7281544,0.2714017999999999,84.7982698,61.5186988,1.413019,19.8051462,-29.385013,-4.6419634,-0.9472442,0.4231006,-0.1405234,115.0852846,63.31251,105.5679642,28.55485856803433,1.214442716985021,35.73892316817174,1.046915716808932,30.2870148,1.7938112000000015,104.1549452
2678.095,-20.8450032,-44.1419422,9.7417598,-0.9401984,0.7430508,0.3136371999999999,82.8335892,61.20024479999999,-0.3495656,7.675806200000001,-34.9322538,-1.1776919999999995,-0.9303618,0.4118206,-0.1548338,112.79137899999998,63.7882286,102.7454926,49.77878166043286,1.2387355714465618,35.78501522724891,1.0291466324611085,29.9577898,2.587983800000001,103.0950582
2698.081,-30.6250388,-61.4334514,17.693753800000003,-0.9513616,0.765921,0.3544956,80.1841554,60.63636240000001,-2.6840862000000003,-4.9826796,-39.0265684,2.0040688,-0.920593,0.4328418,-0.1492546,110.00704979999998,64.19075,99.6599992,70.88745217563319,1.271766882181998,39.39437052208434,1.0281636207809532,29.8228944,3.5543876,102.3440854
2718.066,-39.351323,-79.1323692,25.9167744,-0.9784312,0.7864694,0.3886408,76.9356186,59.76787399999999,-5.5345364,-20.9641052,-37.9062796,4.1561768,-0.9025922000000002,0.4336597999999999,-0.1489404,106.8950288,64.4988144,96.5644226,92.09852155358377,1.3141169665195105,43.51612971695555,1.0123817187153472,29.9594102,4.730940399999999,102.098959
2738.052,-46.774631600000006,-97.0280028,34.061599,-1.0111208,0.7939754000000001,0.42605,73.221721,58.55031340000001,-8.7896726,-28.764142600000003,-38.6230872,4.7942134,-0.9183302,0.4310022,-0.1449398,103.6369308,64.7049286,93.6447708,112.97119993657375,1.3543562347099822,48.39528124204547,1.0247442599307008,30.415209800000003,6.154615199999998,102.4344434
2758.038,-52.53273779999999,-115.6477034,42.1194786,-1.0514126,0.7971058,0.4492542,69.19016500000001,56.9381476,-12.3396844,-23.6779716,-37.9511848,5.4061574,-0.9185974,0.4294886,-0.1409434,101.6084808,64.7538634,91.91347340000002,133.8212625855614,1.393798926692814,45.05735572187668,1.023790351009561,32.4183158,7.815715799999999,104.2531578
2778.024,-56.127966400000005,-133.6394316,49.3229646,-1.0785974,0.7751786,0.4579651999999999,65.03034219999999,54.9272398,-16.0315586,-19.3186142,-36.0340062,5.3314644,-0.8957141999999999,0.430612,-0.1438559999999999,99.765892,64.768811,90.2861846,153.10976823019314,1.4049933585593064,41.23206240389325,1.0042037499241077,34.7355498,9.8415712,106.3177432
2837.981,-56.219748,-153.4664656,58.4417466,-1.0749125999999998,0.7604326,0.4967646,59.804702,51.0664526,-20.761064,-15.1372926,-29.9761676,4.685587400000001,-0.8622517999999999,0.421318,-0.1696964,98.2701628,64.7598984,88.9477736,173.5743468217527,1.4072916913684523,33.90668047043743,0.9745685670593937,38.4654608,13.6934458,109.7088376
2857.967,-54.6226998,-170.65249020000002,67.50585939999999,-1.0497404,0.7509357999999999,0.536939,54.9902116,46.727227600000006,-25.155587000000004,-7.548975799999999,-22.488629600000003,0.3596138,-0.871424,0.3730148,-0.2013776,97.2599394,64.8096526,87.97881620000001,191.4757237830284,1.397913793062648,23.724561513337445,0.9690576693761832,42.2697278,18.082425000000004,113.1344032
2877.953,-51.3700072,-184.7154022,75.88552639999999,-1.0053732,0.7265586,0.5605,50.6844858,41.9619288,-29.1325174,1.7647814000000004,-11.731107000000002,-6.539086599999999,-0.8663164,0.3530262,-0.2117566,96.9326492,64.9649168,87.5578842,206.19716430310316,1.3611843815266909,13.545958009588489,0.959151948566524,46.2481634,23.002988,116.6904016
2897.938,-46.0903014,-196.01185,83.6412064,-0.9422698,0.6918168,0.5875704,46.9440478,36.8134474,-32.6562646,7.151058000000001,-0.3755741999999998,-12.0132994,-0.8691510000000001,0.3666272,-0.2132457999999999,97.2370956,65.18881979999999,87.71393739999999,218.03855767183185,1.3083278777548235,13.985637238721374,0.967115678602348,50.2930478,28.375372400000003,120.370202
2917.924,-39.901673,-204.8195374,91.0510102,-0.8714128000000001,0.6771376,0.6270794,43.76627979999999,31.327442799999996,-35.7346154,10.6627566,11.8067902,-18.6582974,-0.8844124000000001,0.3743518,-0.2120554,98.180522,65.50330340000001,88.4973984,227.66965732699083,1.2692927838926529,24.519925265067723,0.98351006914325,54.41424219999999,34.1758606,124.2320138
2937.91,-34.489863,-207.9998872,95.4716904,-0.8064401999999999,0.6668302,0.6353791999999999,42.2459436,27.0175414,-37.3489556,13.6733776,21.85596,-24.7706608,-0.8971292,0.3672449999999999,-0.2048578,99.7101974,65.89680919999999,89.8526872,231.44836874085968,1.224220176112418,35.752340888149384,0.9907958466497928,57.46425380000001,38.8792678,127.2016428
2957.896,-29.8156924,-209.2803498,98.2744858,-0.7339026,0.6474344000000001,0.6560972,41.0156648,22.6040424,-38.75489040000001,14.189327400000002,30.095617600000004,-27.4253662,-0.8850451999999999,0.3905164,-0.1948104,101.7188172,66.29591059999998,91.7104814,233.1203871070829,1.1782393069482786,43.11883488678611,0.9867923574188036,60.7031524,43.6918682,130.4653718
2977.882,-25.286415400000003,-209.1739502,100.7263046,-0.6520265999999999,0.6329802000000001,0.6567522,40.0411964,18.1194708,-39.9877722,13.2025198,35.449913,-27.693711399999994,-0.8903282000000001,0.4099686,-0.1990797999999999,104.0047348,66.6424834,93.8880388,233.53572036077352,1.12121633635282,46.882240900829935,1.0001956425966074,63.96353839999999,48.5230126,133.875811
2997.867,-21.1442926,-207.2469268,101.8216568,-0.5598462,0.6169852,0.6635248,39.289546,13.6324466,-41.0664732,12.8052642,38.2965584,-27.6964512,-0.8847334,0.4056339999999999,-0.1944438,106.43273159999998,66.9437316,96.2305636,231.87500850910163,1.0650650988970205,48.96625966510403,0.9925223032204364,67.1431856,53.311285,137.2970368
3017.853,-15.6503658,-203.6889556,102.4050872,-0.4626405999999999,0.5946376000000001,0.6543094,38.7626456,9.1809314,-42.02789220000001,11.3676538,37.9662632,-25.4535102,-0.8953447999999999,0.4002779999999999,-0.182425,108.798825,67.175833,98.5403826,228.51898491707905,0.9978732339483208,47.10139993450123,0.997568879223906,70.0361794,57.994901600000006,140.5682748
3057.825,-10.7696576,-198.5087126,102.0447188,-0.3618446,0.5676038,0.6572688,38.4210822,3.9662416,-43.01608660000001,10.590412,35.723917,-22.3437468,-0.9068596,0.3931989999999999,-0.1777402,111.0144072,67.3366134,100.7055818,223.46100138033412,0.9408017133153193,43.44649690383729,1.00428649617985,72.593325,63.3703718,143.7216684
3077.811,-7.3095888,-193.8877898,101.6895064,-0.2701444,0.5342032000000001,0.6574372,38.2347296,-1.176043,-43.9278154,10.8605686,32.6348194,-19.0890606,-0.9087626,0.4046088,-0.1793702,113.0405974,67.4196364,102.6621186,219.0585785442554,0.8891426925333414,39.336695618422176,1.0108073074746935,74.8058678,68.5956794,146.589934
3097.796,-4.1004718,-189.2725098,101.131491,-0.1834376,0.4953570000000001,0.6494336,38.1847296,-6.2408496,-44.784823,13.0186324,28.7746836,-13.8505374,-0.9332206,0.3931086,-0.1747748,115.4088592,67.34933620000001,104.814946,214.6356804141771,0.8371331503122549,34.48629571460578,1.0276095028625225,77.2241296,73.5901858,149.599769
3117.782,-1.3912478,-184.9557954,100.7413178,-0.1044052,0.462757,0.649359,38.254722400000006,-11.2330932,-45.615853400000006,14.8673544,23.8480438,-7.922228199999997,-0.9535162,0.3916706,-0.1744924,117.4524338,67.20283660000001,106.5796706,210.6167014616084,0.804183808415116,29.198101301194107,1.0454886896684057,79.1977114,78.43592980000001,152.195524
3137.768,-0.9980626,-180.6460176,99.8201736,-0.0325938,0.4392958,0.652651,38.391834,-16.145071,-46.4120142,16.5641806,19.3396756,-1.9621541999999987,-0.9571178,0.3939176,-0.1808027999999999,119.186763,66.97940980000001,107.9749724,206.39294285713157,0.7873985544164276,25.53909122046494,1.0506832116077804,80.794929,83.12448079999999,154.38698660000003
3157.754,-0.7366879999999999,-177.8936984,98.7129502,0.0277588,0.4206968,0.646532,38.5963514,-20.1570952,-47.0934144,15.345035,14.8193492,3.714710000000001,-0.9698448,0.4014298,-0.1781854,120.5468582,66.69324040000001,108.9950698,203.44767675455816,0.7718548927950641,21.65368976056657,1.0646571547630908,81.9505068,86.85033560000001,156.0884842
3177.739,-0.7805681999999999,-174.3186862,97.2542466,0.0925843999999999,0.416084,0.6241672,38.8530736,-24.0899074,-47.788797800000005,13.1505886,8.8651652,9.5682502,-0.989877,0.4107768,-0.1630276,121.4392882,66.36473700000002,109.5612228,199.6146340500679,0.7558322960387442,18.52243359927472,1.0840535286179367,82.58621459999999,90.4546444,157.35002060000002
3197.725,-3.079656,-170.7745028,95.5278504,0.1587432,0.4150272,0.6044474,39.12592600000001,-27.9376602,-48.499636200000005,5.3492806,2.9330602,13.798652,-0.9763034,0.4226242,-0.150464,121.2214566,66.092453,109.2262526,195.70126542695203,0.7502023991249561,15.08709521715378,1.0744389040672344,82.0955306,94.0301132,157.72588879999998
3217.711,-4.667644,-166.0783694,93.2648528,0.2385792,0.393327,0.5634977999999999,39.4068,-31.6797276,-49.22228320000001,-4.0715962,-2.4601474,18.519086,-0.9724496,0.423218,-0.1516188,120.5162442,65.7920668,108.5620544,190.53121647351975,0.7274310511701298,19.120323405240228,1.071335596616485,81.10944420000001,97.4717944,157.7843376
3237.697,-4.349558,-161.42242459999997,91.5085006,0.3185677999999999,0.3755448,0.5195358000000001,39.7358124,-35.3317048,-49.954493,-14.7338524,-7.761392599999999,22.943076800000004,-0.9641986,0.4262948,-0.1413412,119.31428959999998,65.4631636,107.5861298,185.6069058537377,0.7158469022671817,28.34978650161265,1.063665140712264,79.5784772,100.7948684,157.5406228
3257.683,-2.2642604,-155.4554842,89.28513319999999,0.399265,0.3697682,0.4728296,40.160115,-38.8646534,-50.6856148,-26.8476856,-13.990456599999998,28.2363942,-0.9534448,0.435981,-0.1309247999999999,117.5554304,65.0860868,106.2618958,179.28572016074563,0.7209083801651913,41.39837020186573,1.0565404498944089,77.39531539999999,103.9507402,156.9475106
3277.668,0.2633101999999997,-148.8338196,86.79797040000001,0.4789844,0.3478902,0.4267546,40.6811928,-42.272654800000005,-51.4236626,-39.4861752,-20.4853996,32.923447,-0.952501,0.4324844,-0.1177108,115.262358,64.66854839999999,104.621492,172.29469769713185,0.7297760857417569,55.34223514693442,1.0526902410875671,74.58116519999999,106.9412032,156.0451546
3297.654,5.821852799999999,-141.7861144,84.1600264,0.5460946,0.3310644,0.3916118,41.3633384,-45.54572,-52.186306,-49.9539268,-27.630575799999995,36.2995724,-0.9520538,0.4428459999999999,-0.1100703999999999,112.5061218,64.21506480000001,102.6917832,164.98516978905545,0.7491213192772983,67.64985201907056,1.055762525744592,71.14278340000001,109.76078479999998,154.87808919999998
3317.64,11.233135,-134.42765179999998,80.5677642,0.6041804,0.335627,0.3324634,42.236956000000006,-48.6539604,-52.9937508,-55.4496328,-36.2109474,42.4741432,-0.9459042,0.4359205999999999,-0.0801738,108.6191268,63.4782096,99.9086014,157.1246050705524,0.7669493798241968,78.67621832443722,1.0446000973044374,66.38217080000001,112.13217,152.9023522
3337.626,15.1553456,-126.68816820000002,76.2014846,0.661937,0.3200612,0.2962544,43.27587580000001,-51.5744644,-53.8801774,-54.277387,-47.8948242,47.5237274,-0.9450442,0.440853,-0.0563928,104.434079,62.636612,96.7449112,148.61440952132122,0.7926956750442126,86.59361171983869,1.044337136874142,61.1582032,114.2110764,150.62508859999997
3357.612,19.0828708,-118.89275360000002,71.4077522,0.7051372,0.3061702,0.2817682,44.4815834,-54.30480339999999,-54.8559388,-47.4364198,-56.9497704,51.8227418,-0.9351692,0.4558169999999999,-0.0229757999999999,100.2073548,61.66730199999999,93.359256,139.99539239137985,0.8187502554033922,90.43830405156884,1.040595241918432,55.7257714,115.9721054,148.2151948
3377.597,21.2674792,-110.143155,65.60545959999999,0.7283602,0.3121472,0.2509164,45.858580800000006,-56.8075888,-55.957469200000006,-40.0376574,-64.301478,56.7091798,-0.9199032,0.4731117999999999,0.0087646,96.0415512,60.5389404,89.8503464,129.95344010145976,0.831206048582925,94.6235972506488,1.0344725665200794,50.1829704,117.3465292,145.8078156
3397.583,19.5544854,-100.560982,58.7764534,0.7646118,0.2901053999999999,0.2147372,47.3082216,-59.0658422,-57.1681526,-32.045098,-70.155301,59.6359726,-0.9003222000000001,0.4676836,0.0398744,92.0290116,59.287526,86.3035156,118.1082574350562,0.8455202025216428,97.494121833976,1.015331463758097,44.72079,118.3533682,143.4716682
3417.569,19.5340176,-90.941727,52.7447678,0.795323,0.2606822,0.18743,48.8330452,-61.0890768,-58.4516738,-26.643719,-71.8101518,57.14161300000001,-0.8760766,0.4771699999999999,0.0582036,89.0197114,58.188778,83.43398440000001,106.92981849613116,0.8576851920290101,95.56018836278932,0.9992942894966028,40.186666200000005,119.2778548,141.8856582
3437.555,20.5305024,-79.96079280000001,46.17232679999999,0.8129394,0.2572502,0.1560478,50.4018662,-62.8513028,-59.7537284,-25.4307558,-69.3464312,54.9176178,-0.8593987999999999,0.4798837999999999,0.0714582,86.3092422,57.069223,80.8517502,94.58918371635806,0.8668327689682941,92.04127120787956,0.986894641433988,35.907376,119.9205258,140.6054786
3457.541,19.2391492,-67.37330560000001,39.281328,0.8334170000000001,0.2496709999999999,0.1119562,51.9029656,-64.3356908,-61.002452000000005,-24.9683806,-61.41798339999999,49.7663528,-0.8522722,0.4767253999999999,0.0660067999999999,84.0121336,56.026822,78.716394,80.3263960280457,0.8771850972562405,82.89920738899256,0.9787706102781388,32.109168,120.36251280000002,139.71884599999998
3477.526,17.853351600000003,-54.5224842,32.5054704,0.8627426,0.2224411999999999,0.0842338,53.2407906,-65.54514520000001,-62.10265879999999,-29.1219648,-18.3774514,39.9243214,-0.8378776,0.4676489999999999,0.0728602,83.3431272,55.17232,78.6942626,65.93973803874071,0.8949302846449214,52.72353357868096,0.9623113158052335,30.1023366,120.7174652,140.79692140000003
3497.512,17.051036200000002,-40.53137160000001,24.6696788,0.8796218,0.221717,0.0689294,54.3819596,-66.4546522,-63.004071,-28.9788622,29.9747168,30.537006600000005,-0.8645362000000001,0.4837168,0.0567892,84.051405,54.5424264,80.3487778,50.4194701614978,0.909749526687758,51.67946278489392,0.9922851389340264,29.6694454,120.9970786,143.3528488
3517.498,13.2224,-25.419817,15.8443728,0.8851229999999999,0.2287468,0.0543336,55.185956,-67.03732439999999,-63.6262704,-31.658036600000003,63.6513724,17.590310800000005,-0.846855,0.4877236,0.0310148,85.6593992,54.1854638,83.160939,32.74206938327003,0.9158165557185564,73.23351366560954,0.9777523300105196,30.4734432,121.2227882,146.7872094
3537.484,8.298922000000001,-10.079285399999998,6.686651599999999,0.8907556,0.2271056,0.0394682,55.5832994,-67.29029539999999,-63.91768420000001,-34.368100600000005,96.4133124,4.344628200000002,-0.8353258,0.5010206,0.0142764,88.1062422,54.09964219999999,87.06757499999999,14.668858515798687,0.9200979465763196,102.4478840239658,0.9741635639701168,32.5229428,121.3899376,150.9852592
3557.469,3.8102176,5.22136,-2.6966988,0.8929980000000001,0.2045744,0.0307491999999999,55.5519724,-67.2045898,-63.850528,-41.3535674,128.6961562,-8.259762999999998,-0.8278826,0.524957,-0.0010507999999999,91.6720732,54.2595596,92.7789184,7.0037520534975535,0.9166469475430548,135.4291026411137,0.98029105647884,36.1201008,121.4641494,156.6294464
3577.455,2.0590008,21.3153392,-12.552459,0.8871646,0.206998,0.0245282,55.1458804,-66.76524500000001,-63.4176666,-44.840785200000006,122.5991088,-16.089216399999998,-0.829811,0.5621994,-0.0536656,94.6161316,54.500566000000006,97.7582626,24.82231650052304,0.9113236703237768,131.52984596764645,1.0037601594528047,39.47025119999999,121.265811,161.17592919999998
3617.427,0.7031978000000001,39.583923600000006,-22.8709712,0.8715603999999999,0.2144067999999999,0.0324686,54.1507242,-65.66700060000001,-62.3606942,-53.0119834,109.1730896,-23.050870799999995,-0.7787265999999999,0.5697718,-0.0798016,97.0840088,54.7610328,102.3338226,45.72157935097815,0.8981325162359728,123.53289651525942,0.9682062368035852,42.9332846,120.4280334,164.6945168
3637.413,0.9731472,57.509956,-32.492263200000004,0.8515704,0.221564,0.0668668,52.9019654,-64.2048476,-61.00440520000001,-58.148718200000005,100.6171082,-24.2840838,-0.7898453999999999,0.5876471999999999,-0.10066,99.2458144,54.991664,106.6523422,66.06125356404372,0.8824590195552425,118.7214918068289,0.989604680248128,46.343849,119.19651159999998,167.6567474
3657.398,2.0315002,74.9362,-41.9162216,0.824982,0.2290105999999999,0.0982958,51.489721,-62.3674712,-59.4257652,-56.6397034,79.66981899999999,-22.1808236,-0.7881615999999999,0.5778518,-0.1309654,100.8870224,55.2862884,110.7588608,85.8867317850837,0.8618023088469884,100.23634568512084,0.9860341507650532,49.3973014,117.6537596,170.184626
3677.384,3.380341,91.1962776,-51.6316772,0.7972098000000001,0.255253,0.1323281999999999,50.0337968,-60.1733322,-57.73597420000001,-50.3587516,51.8503578,-18.005019399999995,-0.7736422,0.5572670000000001,-0.1536232,101.4935502,55.5163802,113.18228159999998,104.85236212817308,0.8474717173689515,74.48922197400708,0.9657478193027826,51.4597534,115.6897124,170.9182558
3697.37,5.053169800000001,105.4918014,-60.4807806,0.7618902000000001,0.2803194,0.1632922,48.6237038,-57.64821859999999,-56.0232286,-41.075703,26.146233,-14.558161199999995,-0.7522832,0.531622,-0.1489976,101.5412048,55.76371759999999,114.6989304,121.7044761281606,0.8280821127480295,50.82104814503222,0.9331410658051656,52.917501,113.4119362,170.72215899999998
3717.356,7.6908232,115.7260544,-68.27177040000001,0.7251422,0.3010841999999999,0.1956896,47.5901048,-55.1243278,-54.6393692,-31.2406064,4.03021,-10.898232399999998,-0.7567974,0.5204108,-0.145067,101.141307,56.0283744,115.4304138,134.5834427484887,0.8091831222032748,33.33150987171494,0.929846299069045,53.5512022,111.1527022,170.069783
3737.341,9.4277472,124.47745519999998,-76.683117,0.6882318,0.3278836,0.2247104,46.7350596,-52.338840600000005,-53.3818702,-21.0550508,-9.0347562,-7.7681365999999965,-0.743015,0.51007,-0.1452064,100.5636948,56.284043,115.6946014,146.50535725075312,0.7947738228882226,24.192683398504567,0.912867785457434,53.82863520000001,108.6228836,169.07647160000002
3757.327,10.4143184,132.3096984,-84.68848419999999,0.6484174,0.3586356,0.2455168,46.0659106,-49.327646,-52.271833,-16.037013199999997,-8.383302800000001,-7.466948999999997,-0.7343934,0.5103568,-0.1440968,100.0939606,56.4415198,115.4940552,157.4371419790425,0.78060432825623,19.57602834034685,0.9058485618689472,54.02805000000001,105.7691658,167.7658882
3777.313,13.6008736,139.818689,-91.4506378,0.6045144,0.3689166,0.2617998,45.5748416,-46.1016526,-51.253150000000005,-11.3637944,-5.929716600000001,-7.723971999999998,-0.738258,0.5039298,-0.1377786,99.7885132,56.598612200000005,115.379158,167.62299576844666,0.7550339415171744,14.965196476443968,0.904407574332502,54.21367160000001,102.7002648,166.632308
3797.299,17.7163448,147.29476019999998,-97.7645738,0.5554938,0.3695174,0.3010609999999999,45.2522662,-42.6759034,-50.2944852,-6.758557000000001,-1.9169540000000005,-8.045188999999997,-0.751544,0.5041127999999999,-0.132324,99.690944,56.7510162,115.4047348,177.67252783067966,0.7319523184348827,10.680724292204436,0.9145806361583652,54.43867780000001,99.4269196,165.69922000000005
3817.285,23.100963600000004,154.3008912,-103.1360794,0.4854052,0.3991334,0.361352,45.1007478,-39.0650636,-49.365852200000006,-1.2890096,1.8226699999999996,-6.945799999999997,-0.7574194000000001,0.5042205999999999,-0.1324164,99.809279,56.8692048,115.5576736,187.0279936757219,0.7249144412181344,7.2957391207328754,0.9194871744345756,54.7085312,95.9342684,164.9235258
3837.27,26.2047172,160.91167620000002,-107.6847792,0.4017208,0.4420686,0.4015512,45.0557434,-35.2895322,-48.4396782,4.9073564,4.3170188,-5.158256999999997,-0.7636968,0.5055902,-0.126114,100.1075654,56.9443284,115.7810424,195.38491858989116,0.7197552462330788,8.326248460995107,0.9245317699583286,55.051822,92.2338606,164.2207206
3857.264,27.414403600000004,167.1688906,-112.0437576,0.332937,0.4467558,0.4239568,45.0826484,-31.353333400000004,-47.5130272,10.8756566,6.4754762,-3.3861759999999967,-0.767936,0.507001,-0.1248243999999999,100.5752122,56.9763466,116.066168,203.10290772489208,0.7001265307563198,13.102590827804477,0.928631705754418,55.49256379999999,88.32968000000001,163.57919520000002
3877.242,29.799696800000003,171.6841646,-115.1988816,0.2434947999999999,0.474369,0.5185364,45.2208616,-27.3022336,-46.596341,16.1229596,8.815519199999999,-1.7834191999999969,-0.7729244000000001,0.5094608,-0.1337822,101.2132172,56.9655716,116.428114,208.88814381305284,0.7437712443439851,18.461955180092097,0.9353395703640685,55.9923556,84.2678052,163.02445500000002
3897.228,28.3332024,174.27850959999998,-117.5074264,0.1377054,0.5494818,0.5990076,45.402231400000005,-23.179767,-45.69936080000001,22.700198800000003,10.09447,-0.0849103999999971,-0.7858216,0.5115046,-0.1453836,102.0153564,56.9162162,116.827554,212.0937635240321,0.8244411019461366,24.84360199158829,0.9488355674176006,56.613125,80.0959832,162.5269148
3917.214,20.5458674,175.7440948,-119.5937424,0.0689118,0.5844004,0.6061080000000001,45.4951042,-19.0090184,-44.827195800000005,28.4614078,10.2234834,0.3890472000000028,-0.7843905999999999,0.5136624000000001,-0.1554928,102.9340148,56.851531,117.2282452,213.5668109644552,0.8447719049325683,30.244383024155148,0.9504186895226544,57.4389106,75.8605494,162.055441
3937.199,16.297313799999998,176.6482634,-119.4879044,0.0164068,0.5696918,0.6131358,45.56555099999999,-14.8282524,-43.954184000000005,33.3221696,8.1934744,0.1241250000000028,-0.7963994000000001,0.5238332,-0.1680858,103.891127,56.799237600000005,117.5586194,213.88681749288568,0.8371101715515826,34.31494450833696,0.967939079645119,58.325576,71.62749,161.5128034
3957.185,18.275644,176.1150634,-117.2729308,-0.0782592,0.5951994,0.708211,45.7338738,-10.6907686,-43.0625816,38.8132564,3.0596323999999995,0.0375284000000028,-0.8164642000000001,0.5395901999999999,-0.1750732,104.7992492,56.7733314,117.70177139999998,212.3757401833419,0.9284124345709724,38.933682476437774,0.9941941456153924,59.06537540000001,67.4641,160.764353
3977.171,13.3145906,174.06998879999998,-116.4456556,-0.1577102,0.6683582,0.7317168,45.8684946,-6.5957494,-42.1876258,45.865689,-8.7581728,1.369255200000003,-0.8282361999999999,0.5592786000000001,-0.1743672,105.4737106,56.7794592,117.4025192,209.8504944759281,1.0034862560561155,46.71447182664176,1.0144809884094623,59.605216,63.37520860000001,159.590145
3997.156,4.7640294,172.0207854,-115.1496504,-0.203123,0.6862134,0.7123638,45.894452,-2.5491854,-41.322209,50.3245826,-24.1880268,3.2122480000000038,-0.8172215999999999,0.5744231999999999,-0.1730902,105.7547654,56.8216636,116.53102119999998,207.05865973921289,1.0097573802745885,55.92801437164782,1.0137915828910988,59.8603134,59.370849,157.8532302
4017.142,0.1183017999999997,170.7738402,-112.5341214,-0.2458924,0.6769798,0.6860986,45.885952,1.4426328000000002,-40.4360258,54.0002822,-42.2262308,7.510148200000003,-0.8346202,0.5896428,-0.1626378,105.5236406,56.87114939999999,114.9663926,204.51808470460736,0.9947341408174146,68.96004184482828,1.034756282333536,59.6376886,55.4285166,155.40241840000002
4037.128,-0.3342634000000006,169.4776274,-110.9701474,-0.3051009999999999,0.6679694,0.7371446,45.93078379999999,5.3937138,-39.5444662,56.6226752,-60.6985688,13.951262600000002,-0.8431324,0.5957582,-0.1456706,104.7356812,56.8784272,112.67883,202.5762857175823,1.0405055986617853,84.17292515593829,1.0426025131858063,58.8048974,51.48471340000001,152.2232962
4057.114,-3.2698280000000004,167.47607699999998,-110.0902936,-0.3522718,0.7254341999999999,0.7266796,45.984555,9.3184294,-38.6605596,56.3227386,-78.1950272,18.4905362,-0.8498652,0.5847781999999999,-0.1174357999999999,103.375589,56.86527099999999,109.7192016,200.446503804366,1.0855475303555528,98.12549664167912,1.0382810643019162,57.391034000000005,47.5468416,148.37976120000002
4077.1,-8.374334200000002,166.5082244,-108.5662488,-0.393707,0.719716,0.6911648,46.005294000000006,13.222487,-37.7592802,49.2627456,-83.27772360000002,19.7376758,-0.8481776,0.571547,-0.0994034,101.7148178,56.8259598,106.5680846,198.95162388037332,1.0727092351909906,98.75005416724704,1.0275953728400689,55.7095238,43.603472800000006,144.3273648
4097.086,-8.311238600000001,166.5857666,-106.033531,-0.4341296,0.6808372,0.6398872000000001,46.105993,17.094443000000002,-36.8103156,41.0427316,-74.24744360000001,17.1772932,-0.8491534,0.5476996,-0.0803372,100.1747832,56.7896812,103.7561506,197.6436288300328,1.030273473997967,86.55777319226499,1.013652018335464,54.0687902,39.6952382,140.5664662
4117.071,-1.2826322000000012,167.4852296,-103.5418684,-0.499164,0.6533325999999999,0.66899,46.4434236,20.9389226,-35.7832314,34.7156642,-57.5871002,8.740740400000002,-0.84238,0.5224042,-0.0574808,99.0499786,56.8481102,101.5922544,196.9108066899532,1.0599791532000806,67.80746266475538,0.9928817930379628,52.606555,35.90918760000001,137.3754858
4137.057,1.6922853999999987,167.590964,-99.591432,-0.581665,0.7160772,0.6625293999999999,46.957767,24.7289442,-34.6459168,28.1352752,-36.805291800000006,-2.665286599999997,-0.8449624,0.4835056,-0.0484888,98.4905884,57.0563216,100.2576734,194.95652944216812,1.1358018904937603,46.4039542250768,0.9747257493113436,51.5328214,32.3273774,134.9035902
4157.043,-0.8251030000000013,167.055283,-95.315103,-0.6554346000000001,0.6875671999999999,0.6091474,47.5534182,28.4244914,-33.375798200000006,21.5601262,-9.9359558,-13.228876799999998,-0.8303788000000001,0.4551382,-0.0591868,98.6941254,57.375505,99.9816572,192.3359488839029,1.128451914934686,27.176560503659367,0.9487796424264804,51.1407072,28.9510136,133.3574554
4177.029,2.586230799999999,166.57873560000002,-88.8116484,-0.7233561999999999,0.6452579999999999,0.5477082,48.3785624,31.987199999999994,-31.9264926,19.1767902,12.1402122,-20.865316599999996,-0.8516172,0.4066468,-0.0482444,99.5775162,57.7717308,100.568263,188.7926710319307,1.113367123185196,30.830106575457695,0.9449555531438714,51.198953800000005,25.78453080000001,132.49475560000002
4197.014,11.5689928,165.59053060000002,-82.83021360000001,-0.7986527999999999,0.6431362,0.541145,49.5762818,35.4262328,-30.2649424,22.4807198,24.4802974,-29.720297199999997,-0.8632508,0.3900882,-0.0382134,100.9716034,58.2969994,101.682353,185.5125594233922,1.1594431325956784,44.58658754799347,0.9480669867785926,51.3953216,22.870766600000003,131.94729539999997
4217.0,17.4746758,163.2470156,-78.04535039999999,-0.8535372000000001,0.6577056000000001,0.5177826,51.0907266,38.7385178,-28.39403620000001,24.0201912,26.652954200000003,-34.3511002,-0.8698922,0.3983025999999999,-0.0384118,102.5163024,58.889843,102.93851,181.7856680700669,1.1954920446903694,49.67240318146783,0.9575138992029516,51.4255758,20.1513252,131.3325462
4236.986,21.1900562,161.5520814,-75.15913379999999,-0.8765888000000001,0.6498882,0.4686086,52.9193346,41.9233398,-26.288047400000004,26.660377,21.2059392,-35.081765399999995,-0.8838206,0.4093006,-0.0584616,103.9714522,59.51230399999999,104.026895,179.43519409524345,1.1875843619628208,48.89987548774396,0.9757477096151852,51.0521176,17.5889642,130.3149424
4256.972,25.9126914,161.75726319999998,-72.10737900000001,-0.8928482000000001,0.6346839999999999,0.4219471999999999,55.16607760000001,45.0062164,-23.841248,29.2965524,21.8835164,-38.0907288,-0.9144184,0.4039157999999999,-0.0657756,105.5824552,60.1770096,105.2259734,178.98702154009754,1.1738999649404034,52.80227166581153,1.001816057619142,50.4163776,15.170793200000002,129.06722140000002
4276.958,32.283636200000004,162.48788159999998,-70.14712060000001,-0.9247181999999998,0.6243888,0.4024384,57.9140358,47.994313,-21.003292200000004,33.8846698,21.152403,-41.348359,-0.9096312,0.4396099999999999,-0.0794014,107.3381422,60.8816566,106.4786758,179.9032055345888,1.1861373397592876,57.49158018460027,1.013405375175897,49.4241064,12.887343600000005,127.481968
4296.944,36.1612764,161.58726499999997,-68.5822144,-0.967155,0.6146168,0.3596377999999999,61.142386,50.8485068,-17.759101800000003,33.819924400000005,20.6941014,-38.7456368,-0.918625,0.4646426,-0.1001564,109.1223144,61.4929252,107.7528014,179.22500454195833,1.2010337014655668,55.43696862394905,1.0343094028484512,47.9799284,10.6444184,125.5119032
4316.929,38.629207,159.2840942,-66.41161960000001,-1.0173198,0.6258084,0.293803,64.86035460000001,53.5107008,-14.079878800000005,32.8826506,22.1751484,-36.138253,-0.9450514,0.4539414,-0.1255404,110.98051,62.0290558,109.1215712,176.84496463416318,1.229998346255636,53.656120311999,1.055909719298047,46.1201554,8.518355,123.20145
4336.915,40.3990786,154.2589446,-63.28540879999999,-1.0675316,0.607113,0.2358422,69.0062888,55.93063120000001,-10.015999000000004,35.045788400000006,30.536577600000005,-37.4422386,-0.9485958,0.4283617999999999,-0.1176571999999999,113.2289216,62.5246628,110.88411700000002,171.5603407195788,1.2505324686182282,59.68761251279638,1.047459326269388,44.2226328,6.594031600000001,120.900116
4356.901,42.5512558,145.4462402,-60.5507904,-1.1006728,0.5984164,0.2150894,73.4614028,58.0649756,-5.722469000000002,38.4298938,23.3556298,-35.05672299999999,-0.9581382,0.4283393999999999,-0.102837,115.3035142,63.00208740000001,112.3732954,163.19196173996397,1.2711594118918208,57.02031224338091,1.0545515162667969,41.8421114,4.937111799999999,118.0957644
4376.887,41.142001,132.6783888,-57.04526439999999,-1.1093483999999998,0.6072668,0.185256,78.0015488,59.87163460000001,-1.3734816000000027,38.6461216,12.786607,-30.0086166,-0.9815534,0.427458,-0.1078211999999999,116.955211,63.4634584,113.38202959999998,150.16784373265094,1.278180982686255,50.57209807334704,1.076007820596579,38.95366220000001,3.5918237999999976,114.7555112
4396.872,35.569169,116.047203,-51.87550660000001,-1.1148544,0.6245848,0.1892692,82.29063119999999,61.3336944,2.760382399999997,39.8153714,0.5798962000000003,-24.859666999999995,-0.9878789999999998,0.3902264,-0.1210064,118.1494354,63.9412828,113.84571079999998,131.99692152652807,1.2918317752939197,46.94255130128315,1.0690295181794185,35.858804199999994,2.6075883999999974,111.0853284
4416.858,24.2552172,94.6377608,-45.1692348,-1.0975458,0.6318524,0.1643629999999999,85.9250918,62.46031800000001,6.366472199999997,43.7353188,-6.2401444,-21.6541466,-0.9507094,0.3582828,-0.1318664,119.1626616,64.4171014,114.01330579999998,107.63308554099302,1.2770510695553252,49.199792455301846,1.0245016717766546,33.2375698,1.956783399999999,107.6468336
4436.844,13.941427,72.3556064,-37.2403888,-1.0583649999999998,0.6005578,0.1392146,88.7787814,63.294699,9.291191599999996,40.2311978,-16.0045204,-16.0230106,-0.932848,0.386225,-0.155182,119.653726,64.8647218,113.6778474,82.56236262537074,1.2248211498904644,46.16742161247966,1.0214972319360438,30.874944600000003,1.5700227999999985,104.3866558
4456.83,8.7768134,49.9008004,-29.123922600000004,-1.0277794,0.6330781999999999,0.1540676,90.8306002,63.8881188,11.409494999999996,30.7952792,-21.936271,-9.831675799999996,-0.9424608,0.4098598,-0.189391,119.6133986,65.2509416,112.9629716,58.44078371847738,1.2169039928233287,39.06675127813546,1.0450293613452588,28.7827984,1.3628227999999991,101.5534766
4476.815,3.4641344000000003,29.1348748,-20.9622002,-0.9962028,0.6734334000000001,0.192697,92.0414004,64.2860398,12.693435399999997,21.3992032,-26.0254154,-7.211351999999996,-0.9371748,0.4196326,-0.1781502,119.1785338,65.623085,112.01884,36.059048711492906,1.217811437280994,34.45651958636204,1.0421735069065228,27.137133400000003,1.3370452,99.3254046
4496.801,-4.531283,11.5245568,-13.4202098,-0.9580354,0.6935893999999999,0.2128477999999999,92.4231538,64.5317414,13.222719599999996,9.233006799999998,-31.021363399999995,-4.328798999999997,-0.9526018,0.4121558,-0.1540174,118.1977218,65.9805878,110.74968099999998,18.260612425067546,1.2017496700271484,32.65443159122673,1.049306414894925,25.77456800000001,1.4488463999999994,97.5269614
4516.787,-8.5186148,-3.1003978,-6.1240076000000006,-0.9457082,0.6906838000000001,0.2489317999999999,92.128598,64.64880680000002,13.086329999999998,-0.8896484000000001,-38.6754606,-2.536954799999997,-0.986902,0.423201,-0.1202694,116.5953766,66.36815340000001,109.0310148,10.939960407326968,1.1972364646054343,38.76878727217319,1.0805273585529245,24.4667786,1.7193465999999973,95.9446848
4536.773,-11.901581,-17.9471298,1.2549452000000003,-0.9552246,0.731693,0.2844661999999999,91.1468994,64.6232072,12.262304399999998,-9.2618888,-42.343379,0.9062374000000026,-0.9750112,0.4262818,-0.0940412,114.558487,66.7084244,107.0256804,21.571323228133505,1.2364261812322643,43.35395709167002,1.068272793079614,23.4115876,2.0852172,94.763376
4556.758,-19.4129624,-33.6811362,9.7464536,-0.9731656,0.7239364,0.2912006,89.3831162,64.4094154,10.734796799999996,-14.7933516,-44.0220472,3.642432800000003,-0.9470808,0.4119873999999999,-0.0777139999999999,112.258983,66.98521740000001,104.8568404,40.07836576812629,1.2473704284248044,46.58380843107148,1.0357292721958764,22.8758668,2.5758020000000004,94.1220436
4576.744,-25.961451,-51.94529620000001,18.0543494,-1.0014278,0.6937816000000001,0.2891847999999999,86.8120864,63.9786468,8.448488199999998,-17.7257494,-45.2640486,7.956377200000003,-0.943211,0.3796804,-0.099365,109.7623018,67.16250620000001,102.536238,60.81340532800656,1.252125551078022,49.25789505859383,1.021605403220911,22.9502154,3.1838594000000016,94.0877498
4596.73,-28.8725778,-71.8838078,25.9246836,-1.0295952,0.674799,0.2895928,83.5055924,63.28574,5.393733999999997,-14.950796,-43.6040916,8.735322600000003,-0.920597,0.3911206,-0.1314984,107.4090272,67.2713592,100.3042526,81.68841284052777,1.2646279911799676,46.91640402056489,1.0088438875048606,23.9034348,3.985619200000001,94.9105186
4616.716,-31.742619,-91.9032776,33.452512,-1.0594693999999998,0.6755498,0.323964,79.58737040000001,62.28651119999999,1.6906397999999971,-14.100222,-38.7660202,11.908568400000004,-0.8917390000000001,0.3889246,-0.1728682,105.26046,67.2534042,98.2701646,102.82449539731262,1.2976115039226492,42.93523708952322,0.9881013122030556,25.6730896,4.966893000000002,96.5795248
4636.702,-35.5129448,-112.185762,40.0508466,-1.0908322,0.6669878,0.3582378,75.1904054,60.9428992,-2.514308800000003,-13.0562218,-30.053835600000003,8.321463600000005,-0.897549,0.346151,-0.2176298,103.585196,67.2458892,96.7240266,124.3015879112782,1.327826018443124,33.80746542420398,0.9862948099072812,28.394790599999997,6.302989999999999,99.2383354
4656.687,-38.56381,-131.7221176,45.49687419999999,-1.116345,0.6500730000000001,0.3806688,70.5249848,59.232843,-7.020739200000003,-8.010099,-17.054837399999997,0.8692274000000033,-0.8801624,0.3080988,-0.2906448,102.6974304,67.316374,95.9217302,144.59546766311504,1.3467478604577177,18.86225651938681,0.9767728091538176,32.1724456,8.083530999999999,102.9424694
4676.673,-40.36064,-149.66264800000002,50.6681076,-1.1396146,0.6471734,0.408062,65.829477,57.1287322,-11.612218400000003,-4.6958452,-0.2154277999999991,-10.320956599999995,-0.860669,0.3158769999999999,-0.3335474,102.7910782,67.5126602,96.1111498,163.0801845576178,1.3726140907205928,11.341054466779507,0.9755938062209908,36.9616012,10.383928,107.7233682
4696.659,-41.462336,-166.5620484,55.71070640000001,-1.1580056,0.6531532,0.4535722,61.3057876,54.62049,-16.085725600000004,-6.5689382,15.227081800000002,-20.0978864,-0.8764186,0.324231,-0.3364194,103.7068498,67.8141694,97.2296082,180.45975751221613,1.4047468857108882,26.05647725550435,0.9931834253970008,42.4010622,13.193679400000002,113.3153338
4716.645,-42.541313200000005,-182.9219238,60.945730000000005,-1.1646868,0.6565192,0.4863142,57.0637268,51.6999968,-20.324756800000003,-7.216552599999998,26.3744462,-27.7760804,-0.9024498,0.3318098,-0.3022726,105.22506719999998,68.20490279999999,99.0157776,197.4451203263996,1.4226785663615376,38.97692504768078,1.007909772552504,48.1613404,16.504906000000002,119.3405344
4736.631,-41.6718904,-197.095468,66.039074,-1.1468218,0.6381914,0.5020282,53.2283408,48.3855902,-24.223397400000003,-3.5657812,31.375116,-29.960104399999995,-0.9270698,0.3688722,-0.239162,107.06368419999998,68.59613200000001,101.0735856,212.0007765326017,1.405176436460717,43.52838792372891,1.0260231850445096,53.83534340000001,20.210541800000005,125.296983
4756.616,-38.7483922,-209.5067624,71.51532460000001,-1.1282728,0.649033,0.560314,49.8729866,44.7014494,-27.7306918,-1.0913738,30.0431668,-27.2552486,-0.9498498,0.4033889999999999,-0.1568348,108.8723986,68.9219422,103.0451158,224.74199216447835,1.4171080145510575,40.578708017773934,1.043807684572249,58.99941200000001,24.22049280000001,130.77580759999998
4776.602,-35.570913399999995,-221.0995604,76.6286638,-1.1086306,0.643154,0.6090494,46.9921646,40.660515200000006,-30.859564800000005,1.0103728000000003,24.792147000000003,-21.161944,-0.9538324,0.3953258,-0.1206796,110.4252122,69.14033500000001,104.6918336,236.6902144258545,1.4190313761903648,32.611336677967145,1.039539465961519,63.43304760000001,28.4798198,135.55139839999998
4796.588,-30.8494908,-231.378604,81.7204668,-1.0668462,0.6330182000000001,0.6314156000000001,44.5935348,36.2972348,-33.63590760000001,6.609784400000001,20.731940400000003,-14.264091999999996,-0.9404456,0.3811066,-0.1293756,111.8071732,69.2381728,106.0325014,247.31757755084453,1.3919621100838344,26.01858803140746,1.0229458504721938,67.21363840000001,32.940938,139.668409
4816.574,-24.275813,-238.474054,87.9429948,-0.9943902,0.6354432,0.6389972,42.6948234,31.6576912,-36.0564232,10.8803818,17.9469274,-9.213054799999998,-0.9281284,0.375329,-0.1687588,113.1012848,69.2416044,107.18074040000002,255.3295123216247,1.34198261981671,22.92063022611824,1.01527026830544,70.4064614,37.5839132,143.2371636
4836.56,-18.1951268,-242.8770386,93.6257798,-0.9075774,0.646592,0.6763102,41.2359084,26.8139066,-38.167878,13.1970082,16.787348200000004,-6.1377491999999965,-0.91935,0.3538622,-0.2174497999999999,114.3905608,69.18589300000001,108.2652756,260.93314308751974,1.303523470474851,22.218191876500917,1.008814796981527,73.1546524,42.3719864,146.43315360000005
4856.546,-13.5213902,-244.39342960000005,98.0337296,-0.7880608,0.6363074,0.6706768000000001,40.1442748,21.8354834,-40.0276276,16.3749158,17.2428804,-3.446846599999997,-0.9178594,0.3448138,-0.2450792,115.7284056,69.0672514,109.3301848,263.6694683953316,1.214798049821303,24.02780771168534,1.01065634570384,75.5841308,47.231768,149.3578124
4876.531,-10.4188286,-242.4580108,101.76504359999998,-0.6469554,0.6502144000000001,0.6694736000000001,39.352565000000006,16.810975,-41.6430726,20.8720258,18.304819400000003,-1.304266799999997,-0.9282196,0.3421768,-0.2446741999999999,117.1296584,68.89772479999999,110.3694808,263.155017222547,1.1355725237313028,27.7922468711701,1.0190888344143705,77.7770934,52.08674979999999,152.01255340000003
4896.517,-9.807886200000002,-237.8026916,104.2263976,-0.5098670000000001,0.6389818,0.657907,38.775322,11.8082062,-43.0566194,23.0967388,18.616088800000004,0.4478412000000029,-0.9336254,0.3403574,-0.2305364,118.4960326,68.692253,111.3294386,259.8258199652031,1.0493348936680034,29.668479353437185,1.0201208648904698,79.7207106,56.8840468,154.386058
4916.503,-9.4430864,-232.3426238,103.5874038,-0.3912456,0.6115348,0.6650722,38.3565566,6.886181599999999,-44.3434654,24.4766212,19.576448600000003,2.273106200000003,-0.941582,0.337061,-0.2204856,119.841214,68.4456206,112.2420944,254.56358133293625,0.9845653672272046,31.42466128621293,1.0241097012783151,81.48465739999999,61.559439,156.5855598
4936.488,-7.8588866,-226.62568060000004,102.8044984,-0.2904076,0.5901698000000001,0.6443936,38.0922202,2.0558344,-45.5346108,25.0878802,19.7733972,4.067087000000003,-0.9414696,0.3345182,-0.2168992,121.12224899999998,68.162915,113.0766326,248.9773606119249,0.920804039245463,32.201400069315135,1.0224053485854032,83.0300288,66.10708059999999,158.6112434
4956.474,-7.164243599999999,-220.7312898,101.283339,-0.2034087999999999,0.5593732,0.639666,37.9459708,-2.6675354,-46.6556198,25.2712376,18.91451,5.345118800000003,-0.943391,0.3355068,-0.210358,122.2910874,67.866072,113.79111779999998,242.96490166713517,0.8737540319516013,32.01506572477819,1.0231333636878623,84.34511660000001,70.5336074,160.4467376
4976.46,-5.4530798,-214.8306794,99.4778764,-0.1216165999999999,0.5255444,0.6331857999999999,37.9229162,-7.275379599999999,-47.736251,23.4885704,16.8649154,6.751152400000004,-0.9463814,0.3372642,-0.206653,123.2674164,67.5678084,114.3397308,236.8075268732488,0.831812341269688,29.69370925992472,1.0257145593568415,85.3445002,74.84318800000001,162.07598180000002
4996.446,-3.854636,-209.2071716,98.1648026,-0.0552389999999999,0.5052833999999999,0.6482024,38.011901,-11.7779208,-48.7805144,19.6170546,13.429943200000002,8.364757800000003,-0.952784,0.3533476,-0.1906964,123.9330398,67.2800154,114.642691,231.12513350360948,0.8237287252502002,25.202408190235875,1.0339327802399536,85.9211388,79.0579362,163.4232054
5016.432,-4.775171,-203.3922882,97.2443924,0.0126838,0.476497,0.6358178000000001,38.1557098,-16.1755038,-49.79208520000001,11.905873,10.409634,11.084228200000002,-0.9492124,0.3538536,-0.1830232,124.228128,66.9829498,114.7140304,225.49433919847365,0.7946537262155637,19.31244175902572,1.0294241313884964,86.07241819999999,83.1584536,164.5061156
5036.417,-6.534970599999999,-197.0577818,96.3208908,0.07934,0.4426838,0.6227812,38.321407400000005,-20.4536904,-50.76813560000001,1.7383926000000005,5.099687,15.216836600000002,-0.9573624,0.3567522,-0.1721382,123.9912002,66.6811356,114.4303038,219.43607090263168,0.7681928178887643,16.142519395707826,1.036072611855868,85.66979279999998,87.134826,165.1984394
5056.403,-8.143484,-190.504428,95.8654954,0.1399912,0.4242098,0.6060274000000001,38.5020416,-24.6131278,-51.70147540000001,-10.5355062,-3.329276399999999,21.689571600000004,-0.9731044,0.3813772,-0.1522954,123.009752,66.3577958,113.606224,213.42082051091657,0.7528749564464475,24.341702660852675,1.056207664638143,84.5077104,90.9709236,165.3076994
5076.389,-9.2577872,-183.7252746,95.59097,0.1960558,0.3995776,0.5819566,38.699926,-28.6564936,-52.58950560000001,-24.1023202,-13.1783252,28.252013,-0.9885278,0.3980812,-0.1315016,121.2367448,66.0145646,112.213951,207.31212385248188,0.7326483600056443,39.40515616835508,1.0737544057971729,82.5368188,94.6710582,164.8034566
5096.375,-10.7671128,-176.7290284,94.4489198,0.2528796,0.3895655999999999,0.5469114,38.909017000000006,-32.5738306,-53.4477042,-35.9598976,-25.736833,34.50775,-0.9949254000000002,0.403233,-0.1136082,118.6450304,65.65879679999999,110.1803894,200.6730640834558,0.7175106467847568,56.091742871254006,1.0795277796154208,79.7360134,98.2326274,163.6280936
5116.36,-12.0320468,-169.4947266,92.9182192,0.3045598,0.3858013999999999,0.5131858,39.1379798,-36.3526516,-54.2864836,-40.9577534,-40.89936300000001,41.6397552,-1.0336462000000002,0.4282147999999999,-0.0799059999999999,115.2755266,65.2690736,107.40033859999998,193.6673125612719,0.7106047124383851,71.30332860741431,1.1216850496237705,76.1375468,101.6217252,161.6868222
5136.346,-14.0804936,-162.0796906,90.5273134,0.3609491999999999,0.3740877999999999,0.479219,39.366519,-39.990357,-55.114643,-40.8507588,-54.790090000000006,48.1266174,-1.040331,0.4533704,-0.0310767999999999,111.35279540000002,64.8017594,104.0008056,186.18077472293743,0.707019700609877,83.58773689429486,1.13525286903641,71.9862764,104.79211639999998,159.1154486
5156.332,-12.8506928,-154.296228,87.4446656,0.4097752,0.3629094,0.4309376,39.6711416,-43.4739104,-55.9452994,-38.0202614,-67.7759544,52.31846840000001,-1.022666,0.4583823999999999,0.0042308,107.08958579999998,64.2437424,100.14434959999998,177.8174227188207,0.6966535453417,93.68213494299223,1.1207042749335794,67.4184442,107.7176528,156.089649
5176.318,-11.8826398,-146.67727960000002,83.771811,0.450671,0.3581826,0.4163216,40.0448392,-46.793496600000005,-56.7768942,-32.8393036,-78.5233238,58.45346440000001,-0.9962224,0.469979,0.031654,102.6565658,63.5035034,95.9634398,169.33144361781376,0.7104384560328362,103.25279532242548,1.1019715542693287,62.6117266,110.297,152.740334
5196.304,-9.9307598,-138.6573592,80.1381272,0.4924454,0.3506988,0.3743004,40.520526800000006,-49.9339614,-57.63407120000001,-25.8274228,-86.4044662,64.9212432,-0.9814512,0.4673078,0.0515632,98.2767486,62.53835059999999,91.6524916,160.45747935713842,0.7110505676411207,111.11955438369274,1.088247123366986,57.75622179999999,112.47231200000002,149.2865628
5216.289,-7.931856600000001,-130.61020639999998,76.1752594,0.5435542,0.3267741999999999,0.3308366,41.10216440000001,-52.90466239999999,-58.5239212,-20.9629324,-91.67724619999998,66.619516,-0.9375614,0.478438,0.065208,94.0925184,61.4126326,87.410878,151.40875308128935,0.7153218870011178,115.24895625426132,1.0545977346258433,52.990354,114.317295,145.9347992
5236.275,-3.9235612,-122.583139,72.66675860000001,0.5927631999999999,0.3008706,0.3014998,41.8024384,-55.711596,-59.4173736,-15.931194,-93.5599762,67.831495,-0.9071962,0.4940529999999999,0.083159,90.2264464,60.1383048,83.37922060000001,142.5569293475913,0.7299270228034032,116.65497761666764,1.0363439252412492,48.424008,115.8499008,142.7965942
5256.261,-0.0784876,-114.4545592,69.16822040000001,0.631104,0.2940818,0.2991612,42.61046,-58.3382912,-60.315815,-12.3477072,-88.467894,69.22492539999999,-0.8969113999999999,0.4970857999999999,0.0886984,86.9051864,58.7397438,79.84816119999999,133.7314285995354,0.7578085427683433,113.00939977952156,1.0292772989696022,44.2947264,117.078035,140.16397619999998
5276.247,2.2350606,-106.3668808,65.0636854,0.6627626,0.2851618,0.2646429999999999,43.5295878,-60.772718,-61.2757844,-6.9815646000000005,-63.74455619999999,65.7844476,-0.8925674000000001,0.4988072,0.0719789999999999,84.7164002,57.4002,77.4835922,124.70842788214938,0.7685098786528382,91.86786290883268,1.0250200791963051,41.1868124,118.172918,138.7593766
5296.233,2.2242286,-98.1232528,60.3535858,0.717061,0.246653,0.2194675999999999,44.5111398,-63.02253879999999,-62.285663,-8.8673514,-26.2809438,59.0742256,-0.8835414,0.50633,0.0956136,83.75109259999999,56.211313,76.60128019999999,115.22011652413708,0.7894176382497162,65.2616430846599,1.0228183782661124,39.2399528,119.2338518,138.8869432
5316.219,5.094534999999999,-88.6772964,55.4160254,0.7658056,0.218376,0.1922039999999999,45.57233660000001,-65.0548858,-63.3108834,-10.2884954,-0.6079815999999958,52.49301440000001,-0.884858,0.4975121999999999,0.0761114,83.60122859999998,55.1869974,76.7077804,104.69265998537398,0.8192000195210934,53.49522726393793,1.0179808517466329,38.028892,120.2418832,140.01866379999998
5336.204,8.2532058,-78.3827048,49.7000916,0.7950646000000001,0.2040207999999999,0.1497832,46.7064408,-66.844728,-64.34411259999999,-17.486687,34.9694216,42.4106442,-0.8810116000000001,0.4987966,0.0732126,84.3343172,54.4249544,78.0528914,93.17758809278916,0.8343783386498238,57.6828172919242,1.0150564379899674,37.6278764,121.2696824,142.397004
5356.19,10.1298078,-67.2968124,43.0304016,0.839467,0.177346,0.0941262,47.854068,-68.38436119999999,-65.3536584,-22.9287206,43.9688434,33.6619596,-0.8616398000000001,0.4907491999999999,0.0247536,85.2098954,53.861440400000006,79.68906100000001,80.51763426183742,0.8631432032585554,59.93423848184459,0.991902547107144,37.3558274,122.2458016,145.04271939999998
5376.176,11.7850294,-54.1590452,35.628281,0.8909347999999999,0.1412146,0.041929,48.9119804,-69.64454040000001,-66.2363816,-28.6003014,51.0868248,25.1776446,-0.8444948,0.5048413999999999,0.0324098,86.0924164,53.4570962,81.4895004,65.88978298605534,0.9030306872666064,63.73189700550774,0.9844220139335772,37.180436,123.1016366,147.725882
5396.162,14.982228799999998,-39.330941,27.0809516,0.9186312,0.124283,0.0318197999999999,49.8298934,-70.57263800000001,-66.9110352,-31.859587800000003,43.4416054,16.9111956,-0.8052862000000001,0.5258262,-0.0155421999999999,86.674649,53.186165,83.0006438,50.04765768068045,0.9275462497226108,56.46410320846934,0.9618838893014686,36.8447556,123.758803,149.911679
5416.148,15.3974594,-24.212012,17.308146400000002,0.9248726,0.1196455999999999,0.0263846,50.5267868,-71.15191200000001,-67.3502106,-36.473429,45.687314,10.5876722,-0.7730786000000001,0.5389286,-0.0225821999999999,87.21514260000001,53.0321924,84.572505,33.50933023601972,0.93295259415861,59.411619117537015,0.9426582166579572,36.6883558,124.1841044,151.9227156
5436.133,13.0403868,-9.1624008,5.6697902,0.9299136,0.1159673999999999,0.0215768,50.970941,-71.3572556,-67.58152,-38.5047202,36.2534952,6.8892914,-0.7698394000000001,0.5539552,-0.0640631999999999,87.4668594,52.931635400000005,85.8305068,16.915903677470823,0.9373650834258548,53.33283911335328,0.9505909525098796,36.4959184,124.288891,153.41202679999998
5456.119,10.0137548,6.1722076,-6.555574399999999,0.9262776,0.1095032,0.0114665999999999,51.1292984,-71.1777086,-67.5837752,-43.416597,54.2037286,-0.7648408,-0.76187,0.5566715999999999,-0.0617028,88.1026032,52.996924,87.6853376,13.46651356387228,0.9327982772215868,69.45235827999085,0.9455878608962788,36.9733048,124.1746326,155.2691128
5476.105,8.2036784,21.2562452,-19.091738,0.9109596,0.1049804,0.0108507999999999,51.0466644,-70.6124208,-67.37177260000001,-49.1067368,56.07717220000001,-9.3888024,-0.733703,0.5476754,-0.081677,88.69575660000001,53.2137446,89.617465,29.725792826328345,0.9170528976438382,75.12835983567838,0.9192059444450738,37.6490922,123.8261654,156.9892376
5496.112,6.843818199999999,36.0981208,-31.598582,0.8906516,0.1082692,0.0171887999999999,50.7641426,-69.6641908,-66.97994220000001,-50.495434,58.266130200000006,-15.1721236,-0.7495073999999999,0.5451509999999999,-0.083579,89.3319902,53.5395456,91.6334364,48.46011305451905,0.8973728027395526,78.58068539956486,0.9305570400017183,38.5678476,123.2037364,158.6133786
5516.076,6.617888199999999,51.290143,-43.6414024,0.868277,0.1241876,0.0246796,50.3185088,-68.3353532,-66.41436900000001,-51.3008342,59.3999802,-20.6205786,-0.751762,0.5394867999999999,-0.0976802,90.1434404,54.0586412,94.1093734,67.6686575648348,0.877460307580303,81.15011706199233,0.9304480283660554,39.8249316,122.3939944,160.5237424
5536.062,7.005309799999999,66.2692724,-54.4379134,0.8388572,0.1396024,0.0516113999999999,49.7367576,-66.6459512,-65.6885168,-50.6374056,56.5716092,-25.7299102,-0.7219892,0.5098696,-0.1039134,90.9299012,54.665648,96.5245528,86.04752898930496,0.8519589008206675,80.16559169791302,0.889962588326251,41.1931436,121.3115992,162.21306959999998
5556.048,7.2529056,80.6024778,-64.8288024,0.802579,0.1589192,0.07579,49.075115800000006,-64.6089882,-64.8595054,-45.2904344,45.52438980000001,-27.893669,-0.7243756,0.5215082000000001,-0.0840894,91.5282242,55.3001184,98.5741714,103.69251509998324,0.821664461608046,70.0125009200829,0.8965276569827393,42.4531084,119.9091066,163.4336768
5576.034,8.3014326,94.1906446,-75.05667559999999,0.7659652,0.1904676,0.0963688,48.4176246,-62.2428872,-63.9894714,-39.6535802,33.3425424,-26.371687,-0.7338374,0.5218324,-0.0806182,91.914679,55.897422000000006,100.2205138,120.72404841413946,0.795152526169816,58.13430511840319,0.9040606602987212,43.4970544,118.1403092,164.2099852
5596.02,9.9124146,106.8002774,-84.7662672,0.7222484,0.225656,0.1189389999999999,47.8175926,-59.5690162,-63.1230308,-33.9879708,24.371199600000004,-25.3671476,-0.7195184,0.511798,-0.0797364,92.1776916,56.46858060000001,101.5716568,136.71091862371873,0.7659698867185054,48.91451427137837,0.8865674335477928,44.360099,116.0375968,164.6946876
5616.006,12.6967636,117.9966778,-93.5758514,0.6794084,0.2536304,0.1535056,47.3229836,-56.6132896,-62.2789262,-28.3862422,17.717744200000006,-24.0410278,-0.7198287999999999,0.5074310000000001,-0.0661416,92.2305908,56.916397,102.2951216,151.13194150472023,0.7412746609901623,41.20276960902104,0.8831842572877984,44.9076072,113.5296866,164.5740478
5635.991,15.598481800000002,127.6418286,-101.82173,0.6348502,0.2901341999999999,0.2008212,46.954287,-53.3994086,-61.479537400000005,-21.7412534,14.103107800000007,-21.980782,-0.7424996,0.5113708,-0.0607264,92.3067092,57.3277312,102.8868072,164.0226013176526,0.7263207176028507,33.98138499756825,0.9036002693391364,45.3524222,110.7271398,164.3663446
5655.977,17.7013618,135.5280728,-108.4606842,0.5818468,0.3392904,0.263659,46.7000092,-49.964569,-60.72586,-15.334466199999998,16.605268000000006,-19.321598,-0.7306146,0.4988536,-0.0747786,92.7334838,57.7309942,103.7349822,174.4847177938192,0.7233116496251114,29.735583536637897,0.8878313167398861,46.0334746,107.6955632,164.4608422
5675.963,18.1334898,142.352783,-113.847548,0.533298,0.3819,0.305378,46.5207198,-46.340369200000005,-60.002521,-8.1475802,20.389333200000003,-16.4847438,-0.7388874000000001,0.4931843999999999,-0.0768826,93.4301574,58.0699256,104.72968740000002,183.1786081009027,0.7235399710368461,27.45641545445605,0.8916817686063118,46.9094376,104.4102948,164.7322084
5695.948,18.9576818,148.7275602,-118.1465852,0.4963626,0.3864124,0.350989,46.3945998,-42.5643156,-59.279786,1.5271916000000012,23.07285360000001,-12.1919948,-0.7687184,0.506873,-0.0838131999999999,94.4050202,58.3123322,105.8229078,190.88713014945648,0.7203357909152648,26.140650807379888,0.924593353383962,48.0104204,100.8766478,165.1026938
5715.934,22.5488608,153.8112212,-120.6841874,0.4409679999999999,0.4031104,0.4031922,46.370140000000006,-38.666366,-58.5421746,12.616648800000002,24.609432400000006,-6.7234622,-0.7886985999999999,0.52309,-0.0913548,95.6378708,58.431517,106.9593124,196.80197148100785,0.7207736966295315,28.460655894542214,0.9507966813283478,49.2677308,97.097883,165.501487
5735.92,26.8074022,157.81239920000002,-123.3888214,0.388243,0.4466766,0.4551344,46.4780846,-34.67362920000001,-57.809020200000006,25.5468934,24.689045600000007,-0.1423059999999999,-0.8002915999999999,0.5280370000000001,-0.1016305999999999,97.1087892,58.4135888,108.0723068,202.10935505427213,0.7465922140632864,35.527636932780645,0.9641672558513484,50.6307046,93.087218,165.881327
5755.906,28.2418714,161.8233918,-126.430049,0.345324,0.4854184,0.457793,46.6569452,-30.595079200000004,-57.068151,39.4047066,19.214518800000004,5.751889799999999,-0.8226278,0.5314104000000001,-0.1094352,98.525792,58.240168800000006,108.79595179999998,207.28958180278343,0.7513016164521145,44.2155274900004,0.9854387721010576,51.86884680000001,88.835248,165.8641028
5775.892,29.735547200000003,165.5760956,-129.0255752,0.2972484,0.4982965999999999,0.4689313999999999,46.8997012,-26.4304644,-56.30574640000001,54.449655400000005,9.508512200000006,11.5010388,-0.8324643999999999,0.5362028000000001,-0.1228851999999999,99.9002486,57.979628000000005,109.115471,212.00765377012837,0.7460246448878749,56.457512085774766,0.9978031831850608,53.0005474,84.4100924,165.4212174
5795.877,34.485983399999995,168.6493226,-130.68580479999997,0.2211568,0.538185,0.5133395999999999,47.2755412,-22.1940118,-55.51661160000001,68.686673,-3.3850673999999947,16.5352224,-0.8267046,0.532714,-0.1273677999999999,101.115248,57.667266,108.9122346,216.12648296941225,0.7759323226541087,70.72998875250111,0.9916890933825984,53.8397068,79.86127780000001,164.4288462
5815.863,35.7435578,171.3665344,-132.1937562,0.1396336,0.6187381999999999,0.5520336,47.7388978,-17.9159436,-54.70496380000001,81.81020980000001,-19.399635999999997,19.8722568,-0.8148032000000001,0.5307945999999999,-0.128693,102.0680588,57.3548232,108.0886796,219.36107269689708,0.8408778733663765,86.39538699940906,0.9809225506472976,54.329161,75.27076679999999,162.7936434
5835.849,31.6145832,174.0286438,-132.4234744,0.059015,0.6849668,0.5516012,48.16547920000001,-13.609226,-53.8413438,90.3352922,-35.26357879999999,19.9289994,-0.8039284,0.528389,-0.1258727999999999,102.6985518,57.1120764,106.68091439999998,220.9557134494251,0.8814341558895253,99.00075769269844,0.9702266587903056,54.5330726,70.72130239999998,160.52225819999998
5855.835,28.776696999999995,175.8013458,-130.87045940000002,-0.0260155999999999,0.6990364,0.581636,48.5801542,-9.3104422,-52.912127,92.4730928,-50.3500184,17.273286000000002,-0.794646,0.5262382,-0.1308022,102.936714,56.9882834,104.7528902,221.04589708675445,0.909741246984174,106.69940793704316,0.9620281305554844,54.3565598,66.2987256,157.6650172
5875.821,30.5796614,176.6247924,-127.2319278,-0.1284943999999999,0.7260056,0.6348488000000001,49.0774312,-5.0703314,-51.89728240000001,89.7943696,-61.3294374,13.6474982,-0.7947374,0.5237158,-0.1324812,102.8150558,56.9839454,102.45925459999998,219.81673374287536,0.9729480669204088,109.59280501374587,0.96095631663559,53.7376246,62.0542768,154.356537
5895.806,29.024940200000003,175.2224334,-123.1009752,-0.2327061999999999,0.815529,0.6668852000000001,49.6120038,-0.9218505999999996,-50.8210556,82.36122280000001,-64.5104782,9.249480600000002,-0.8001788,0.5164,-0.1303382,102.476567,57.0801574,100.0848726,216.09997319625475,1.0788770065853104,105.02630960894366,0.9612195994405648,52.8645632,58.002008,150.9059282
5915.792,22.6223796,172.54711600000002,-120.122757,-0.3139076,0.8480482,0.6404068,50.091564,3.1375192000000003,-49.7150382,70.8931738,-61.948813,4.748840400000001,-0.8126036000000001,0.5121976,-0.1142928,101.995613,57.2523346,97.8209504,211.45627455331044,1.108081495354579,94.26584221599384,0.9673333635880448,51.904049,54.11481540000001,147.5359886
5935.778,19.2907634,168.6576964,-117.0020706,-0.3955492,0.8277124,0.6249706,50.5759314,7.091012399999999,-48.5948188,57.5953298,-57.1888604,2.412980400000001,-0.8303062000000001,0.511518,-0.099821,101.3854416,57.4453224,95.7272614,206.1723469144122,1.110024881522374,81.20104828776682,0.980317949505894,50.8095102,50.354310000000005,144.32208020000002
5955.764,21.6238946,164.0991484,-113.8021362,-0.4759014,0.8399816,0.6411519999999999,51.1806448,10.9272864,-47.4623284,48.657517,-52.1707162,1.7236778000000008,-0.8678938,0.516798,-0.0670424,100.7084108,57.627549,93.781215,200.8657500097029,1.1589336124060428,71.36041377811961,1.0123312226145156,49.527766,46.7002626,141.2435434
5975.749,18.7997884,158.6164642,-112.215799,-0.535732,0.8984684,0.6433942,51.805235200000006,14.6728666,-46.3438524,42.3887716,-48.6979478,1.6376858000000003,-0.9116362,0.5199068,-0.0437086,99.981241,57.7943762,91.9344116,195.20502120694297,1.2280921537963672,64.5831254467296,1.0503780669600065,48.1760058,43.1215096,138.27826399999998
5995.735,11.279863,153.9847686,-110.3946458,-0.567762,0.8649096000000001,0.5939112000000001,52.3543502,18.3233678,-45.2229752,38.2044432,-40.8611006,-1.8976259999999996,-0.8972268,0.5267402000000001,-0.0149338,99.411548,57.9926238,90.3789352,189.80390431021635,1.1929596884646188,55.971510671959024,1.0405259186184264,47.0571978,39.669256,135.6019104
6015.721,9.1922642,150.81837460000003,-107.4798204,-0.5918708,0.8131624000000001,0.5909218,52.94804839999999,21.8927168,-44.060130400000006,33.432920800000005,-26.962080799999995,-9.6769342,-0.8766246000000001,0.54602,0.0080354,99.235425,58.2914596,89.3962188,185.42543415433812,1.166504481938085,44.02677650925549,1.0327986722388445,46.2873766,36.3987428,133.4563492
6035.707,9.857098400000002,149.2347656,-103.2849412,-0.6206702,0.818426,0.5915964,53.6720292,25.3707766,-42.7959,30.553485600000005,-10.141823199999996,-17.487847799999997,-0.8768005999999999,0.5246166,0.013845,99.5945756,58.680465000000005,89.10735159999999,181.7579619473152,1.1853433743590926,36.636005251738766,1.0218578928505273,45.9225464,33.3096884,131.9032516
6055.693,5.249873,148.1502106,-99.9291748,-0.651254,0.8092836,0.5709552,54.42274640000001,28.7751674,-41.4242424,25.864356200000003,0.8363370000000035,-29.954207199999995,-0.8752534000000001,0.4847558,0.027381,100.3174836,59.26838620000001,89.3498258,178.7788747127284,1.18535292556774,39.58432657250315,1.000902801977395,45.8947372,30.4932188,130.77406820000002
6075.678,1.8665892,147.70904539999998,-95.6728652,-0.6834232,0.7616034,0.5225766000000001,55.25271,32.0839344,-39.9099434,23.271585400000003,12.355742400000002,-39.2377208,-0.8445192,0.473488,0.0049988,101.4503052,59.989709600000005,90.126596,175.996430031402,1.1489966545022487,47.26340858278636,0.9682089409389276,46.1975952,27.9057752,130.03653939999998
6095.665,2.9616836,148.0620698,-92.3752304,-0.7222234000000001,0.7334284,0.4987071999999999,56.274968,35.33153660000001,-38.22842860000001,20.553992800000003,25.4912768,-42.42734,-0.8650306000000001,0.4488018,-0.0105563999999999,103.0343872,60.7155716,91.4810028,174.5403428284122,1.1437800176458583,53.59431865778564,0.9745832094801142,46.7594192,25.384035,129.7094314
6115.65,4.1016228,147.5763094,-88.6970032,-0.7825139999999999,0.7324105999999999,0.4740336,57.512678400000006,38.479223000000005,-36.3674698,20.1092128,26.171747000000003,-43.5525482,-0.9137356,0.4223542,-0.0636326,104.7263716,61.4401878,92.9561264,172.22876874198116,1.1719476528912542,54.64581626420285,1.0086351792138524,47.2136932,22.9609648,129.32359620000005
6135.636,4.2989566,145.5141268,-86.1173996,-0.8343904,0.6864104,0.4409096,58.929717800000006,41.532483,-34.3536,20.677523200000003,25.6333536,-43.2274688,-0.927163,0.4519858,-0.102102,106.4956694,62.1194488,94.4900252,169.1420960023886,1.1669480931954428,54.34374703058434,1.0365072167499074,47.5659516,20.586965799999994,128.8436252
6155.628,7.769935599999999,143.4171816,-82.31635899999999,-0.8743214,0.6532878,0.386067,60.64557560000001,44.4597816,-32.12919120000001,16.922666600000007,31.019896800000005,-37.5244926,-0.9229894,0.4695509999999999,-0.1504122,108.396266,62.641394000000005,96.2505066,165.54408124826574,1.1577005608601043,51.54316819157376,1.0464279258612128,47.7506904,18.1816124,128.37969779999997
6175.607,12.266855,142.2585634,-78.9611268,-0.9100118,0.6277896000000001,0.3510488,62.7227584,47.256469,-29.643965400000003,12.407069800000004,32.3703814,-34.4879634,-0.9481198,0.473135,-0.1607222,110.2630506,63.0839746,98.074449,163.16505182712544,1.1599467737740554,48.8998629086348,1.0717366789234564,47.5402922,15.8275056,127.7184144
6195.593,15.5882742,140.1037812,-74.6301148,-0.9550966,0.6272332,0.3354066,65.1580284,49.8734428,-26.861993400000006,11.652078600000005,25.527299600000003,-33.4092256,-0.9614938,0.4671401999999999,-0.1968178,111.9286832,63.5207414,99.6748824,159.504601294549,1.1908520436382346,43.63015374440519,1.0869349291891028,46.7706548,13.6472986,126.5368758
6215.579,15.4442486,136.5409148,-71.1731598,-0.9775606,0.6051198,0.2911069999999999,67.8769014,52.3093842,-23.8123488,11.060216800000005,23.495585800000004,-29.918057,-0.9585664,0.4294149999999999,-0.1909518,113.50444480000002,63.9007158,101.1838088,154.7500077711009,1.185975541262719,39.61642440205089,1.06757171906959,45.62754339999999,11.591331599999998,124.9961576
6235.565,16.1268524,132.0383056,-67.3756028,-1.0019594,0.5889314,0.2524228,70.8796756,54.545948,-20.502635400000003,12.414327200000002,19.391227800000003,-27.0963504,-0.9612186,0.3978478,-0.1717706,114.9243926,64.2572258,102.48873600000002,149.10956162068797,1.1893191762996844,35.55766359618884,1.054385701712215,44.044717,9.7112778,122.9913714
6255.551,15.7087894,125.2042006,-63.71003420000001,-1.0273302,0.5845556000000001,0.2257544,74.0674624,56.5606202,-17.032261400000003,18.1464862,14.085588600000005,-23.721431000000003,-0.961076,0.3922846,-0.1587268,116.2060592,64.5875334,103.5144882,141.3570881493523,1.2033609759514226,33.02128186947021,1.050118318196288,42.1385968,8.0269132,120.5467496
6275.536,12.153923,114.209346,-59.1668824,-1.0490604,0.5852476,0.2081044,77.2244188,58.3162536,-13.567398000000004,19.6207016,10.690002800000004,-20.5263968,-0.956286,0.3690027999999999,-0.1501256,117.3424408,64.89273499999999,104.347197,129.19834569750913,1.219159512719021,30.34107870085209,1.035945788146851,40.118022,6.576481399999999,117.914595
6295.522,7.1430548,99.2221962,-53.9945358,-1.0444948,0.586759,0.1843482,80.1252748,59.80098339999999,-10.334145600000005,17.490651800000002,2.548494800000003,-16.0899836,-0.9595912,0.3750918,-0.1294181999999999,118.0179246,65.18818639999999,104.7244628,113.1877968108072,1.2121220112477455,23.901993606867592,1.0383921224835635,37.8926498,5.387203000000001,115.0586084
6315.508,1.4904302,81.0326204,-47.185445,-1.031088,0.5969116,0.172267,82.5603486,60.997721,-7.536885400000003,13.4102732,-5.385232599999997,-12.2103106,-0.959621,0.3997434,-0.1257938,118.2163712,65.4715116,104.669577,93.78151828009392,1.2037947670793223,18.918981008585355,1.0471348192104968,35.65602259999999,4.473790599999999,112.2064624
6335.494,-6.2954658,61.060462,-39.5677432,-1.0034598,0.6059584,0.1493786,84.3428222,61.918499,-5.335500200000003,5.542854600000004,-13.3781078,-9.1115682,-0.9530862,0.39608,-0.1392732,117.903003,65.7663298,104.221118,73.03163157997744,1.181706866733269,17.10899414017122,1.0414651675733952,33.5601808,3.8478308,109.5566182
6355.479,-12.240951,41.9826312,-31.9816628,-0.984216,0.6220354,0.1662893999999999,85.4445358,62.60665279999999,-3.784185800000002,-3.3436139999999974,-19.3894848,-6.0031914,-0.952803,0.3959104,-0.1456014,117.114029,66.0538788,103.4443312,54.17756878369976,1.1761213109460775,20.57110066028216,1.0420068950439436,31.6694932,3.447226000000001,107.228517
6375.465,-15.830858799999998,24.3312334,-24.195734,-0.9710034,0.6685966000000001,0.2201951999999999,85.90885019999999,63.0947632,-2.8855664000000028,-9.280014199999997,-24.5613238,-4.1087718,-0.964396,0.3796294,-0.1370686,115.9477158,66.35702819999999,102.384471,37.789661984590026,1.1993143634786336,26.5755394313102,1.0454501074973974,30.0388656,3.2622650000000006,105.2700374
6395.451,-21.7265282,9.4546492,-16.7766346,-0.960383,0.7006754,0.2576294,85.75125440000001,63.4176506,-2.5642766000000026,-13.825899799999997,-26.4167334,-4.1169956,-0.965685,0.3622098,-0.1341256,114.6011978,66.6718674,101.226532,29.032531540022017,1.2164104696189193,30.09898605562544,1.0400640052498693,28.849943399999997,3.2542168000000005,103.79080860000002
6415.437,-25.152588,-3.504766,-9.30668,-0.966331,0.7031304,0.289245,85.062526,63.5812814,-2.7670436000000027,-15.252523399999996,-27.0559176,-3.7791528,-0.9457228,0.3561724,-0.137682,113.18394,66.9708008,100.0209534,27.047187662211755,1.2295733532368696,31.2880830849588,1.0199052534846558,28.121414,3.389519400000002,102.787997
6435.423,-26.173688400000003,-15.6317928,-1.7584504,-0.9772104,0.7428468,0.3537536,83.9131258,63.5727708,-3.464547400000003,-16.397418999999996,-27.6775038,-2.2300826,-0.9345414,0.356444,-0.1396642,111.6746124,67.23024760000001,98.7403734,30.5369785409704,1.2774596446273203,32.247369425480244,1.009913878611241,27.7614866,3.6574768,102.2049208
6455.408,-30.8144966,-29.8388826,6.6578846,-0.9908838,0.7764011999999999,0.4016814,82.18267080000001,63.3503632,-4.713125600000003,-16.466145399999995,-25.5796104,-3.4753578,-0.935345,0.3323846,-0.159882,110.290094,67.4920884,97.5926394,43.407597755173136,1.3213619774951295,30.61908758254808,1.0054412191998894,28.1074232,4.141725199999999,102.305765
6475.394,-37.0047878,-46.4001772,15.0787194,-0.9976726,0.7561546,0.4084507999999999,79.79633960000001,62.879478600000006,-6.569993800000003,-13.534059399999997,-19.7136816,-5.5717754,-0.9037782,0.3205594,-0.2027593999999999,109.2467484,67.7326966,96.751494,61.23478213448926,1.316796283375891,24.552895698409014,0.9801452637298004,29.4504088,4.853218,103.3214878
6495.38,-38.0959812,-64.914495,24.1935212,-1.0144172,0.7339452,0.4248311999999999,76.8755402,62.1079584,-9.029654000000004,-8.213960599999997,-9.803571199999997,-9.544804,-0.8671751999999999,0.3036268,-0.2558142,108.8267868,67.97154099999999,96.4681244,79.06024230136553,1.322194902710005,15.958773148655183,0.9537415614803204,31.9512466,5.863582599999999,105.49777840000002
6515.366,-38.644469,-83.9069682,33.149719,-1.0257556,0.7559644,0.464642,73.531897,61.00020159999999,-11.993049800000003,-2.838190399999996,2.7984136000000026,-14.5519636,-0.8523068,0.2795966,-0.307108,109.192273,68.2223252,96.914981,98.14620811109684,1.3562997136189034,15.087945123145234,0.9481120523027856,35.660376,7.2221236000000015,108.9080308
6535.352,-41.5642646,-102.8499492,41.8160974,-1.0416336,0.7508434,0.4967401999999999,69.8429824,59.521203,-15.329553800000005,2.649106800000003,18.694784200000004,-22.5741334,-0.8429656,0.2694474,-0.3369792,110.5770234,68.5031768,98.3394026,118.55077453963632,1.3767778303955072,29.42964868773278,0.946967731964907,40.734041,8.981973800000002,113.6689564
6555.337,-43.232523400000005,-121.5987154,50.0415262,-1.0520793999999998,0.736121,0.510642,65.97477719999999,57.6369462,-18.8948912,6.636280200000003,33.00113,-29.6621574,-0.8428514,0.2900834,-0.3386409999999999,112.8832946,68.772682,100.6671628,138.41767593370085,1.3818467508046468,44.86600470057689,0.9535326886470752,46.9085174,11.135735800000004,119.56205400000002
6575.323,-43.4282358,-139.00712600000003,57.7049286,-1.0651818,0.7298022000000001,0.5307332,62.12586060000001,55.34288719999999,-22.501760200000003,7.528119800000002,43.4579246,-34.1584784,-0.8811920000000001,0.3187974,-0.3008222,115.8141678,69.009828,103.6465224,156.6488159170422,1.3960305325308326,55.78588929886933,0.9841875426582072,53.68830720000001,13.6669408,126.14828260000002
6595.309,-43.72481259999999,-155.6134492,65.0442772,-1.0761504,0.7297448,0.560317,58.420205,52.6375512,-26.0066234,5.701515800000003,46.6139846,-34.8533208,-0.9332552,0.3418287999999999,-0.2409387999999999,118.8817108,69.20041619999999,106.8142426,174.23594005054335,1.4158327221236977,58.48183319197851,1.0226747783053614,60.4615058,16.562865,132.82086600000002
6615.295,-43.8839716,-171.28023079999997,71.6272774,-1.0830736,0.7104974000000001,0.5820116000000001,54.942177,49.5428986,-29.325428400000003,3.891668200000003,44.9246078,-32.22643,-0.971081,0.3534316,-0.1914528,121.7869004,69.31678439999999,109.8468782,190.76998530698535,1.4200677733679756,55.42479822162289,1.0509835293987246,66.84472339999999,19.7738858,139.1723066
6635.281,-42.29449699999999,-185.8473328,78.1954406,-1.0800362,0.6996526000000001,0.6081194,51.7829722,46.0766678,-32.3882794,4.121527200000003,39.6768838,-26.642801400000003,-1.0044982,0.3629668,-0.1688755999999999,124.3003296,69.34137860000001,112.4568804,206.0159763610218,1.4233064176956274,47.96958370654142,1.0813327424899517,72.5173574,23.2647108,144.8451598
6655.266,-40.31585,-198.8704926,84.3130904,-1.0685406,0.6970026,0.641945,48.9906908,42.274148,-35.1597614,5.506187000000002,32.504863,-19.2503096,-1.0099112,0.3611323999999999,-0.1748563999999999,126.2942124,69.28578639999999,114.48379380000002,219.73515376695585,1.4281754168449057,38.17667656598188,1.0866977513716312,77.3035216,27.0116384,149.64355519999998
6675.252,-38.84747599999999,-210.1964936,89.3845276,-1.0360364,0.6845968,0.6635728000000001,46.5484956,38.162409,-37.649151,7.930176800000003,26.467130200000003,-12.2527422,-0.988254,0.3497869999999999,-0.2051508,127.8767166,69.1546966,116.0159104,231.6922227602398,1.4079677061619844,30.22459886454527,1.0682152239252352,81.328221,30.9922876,153.66506139999998
6695.238,-36.552588400000005,-219.6180298,93.5515212,-0.9866162,0.6715136,0.6874834,44.452015,33.7862424,-39.8853006,11.158167200000005,23.332576000000003,-6.3299922,-0.9642928,0.3470258,-0.2382816,129.2136048,68.94173140000001,117.2139602,241.49546134618672,1.3773073245877117,26.626727161087462,1.0521718637637294,84.7615898,35.155489,157.0992608
6715.224,-33.42892859999999,-226.9691528,96.727272,-0.9184136,0.6629276,0.7104296000000001,42.6879364,29.1907072,-41.8898476,13.5697516,20.495235200000003,-0.7402658000000002,-0.9599642,0.3400664,-0.2513992,130.2897614,68.6688432,118.08113699999998,248.97520908447012,1.3370365589851612,24.591478561560127,1.0489890273264253,87.60182499999999,39.478136,159.97098459999998
6735.209,-30.570298200000003,-231.866748,98.8456406,-0.8286742,0.6457472,0.7097276,41.2201438,24.4351146,-43.70823360000001,16.634852400000003,16.892279800000004,3.6180184,-0.957404,0.3324036,-0.2527495999999999,131.121875,68.3756806,118.62204119999998,253.90390431373208,1.267834232956044,23.982441250923824,1.0445079859958564,89.9017312,43.940566,162.3302748
6755.195,-27.50511,-234.0472504,99.8511902,-0.722455,0.6250222,0.7120941999999999,40.0201338,19.5854562,-45.3501794,19.0069734,14.636172600000004,7.8856386,-0.947799,0.3324728,-0.240605,131.7389314,68.0503082,118.884613,255.93926365501048,1.1914999484647408,25.25204709197075,1.0328368085839312,91.7187976,48.464852,164.2347924
6775.181,-23.8002128,-234.092163,100.1711884,-0.6054254,0.6003586000000001,0.7119548,39.0754622,14.703063199999995,-46.8507766,18.8252118,11.209866800000004,12.5714142,-0.9473552,0.337134,-0.2310446,132.04486100000003,67.7036744,118.8186904,255.7339592091988,1.1107880089387714,25.26044670975878,1.0317571497751783,92.9693988,53.0006112,165.669467
6795.167,-20.132814,-231.8691742,100.341794,-0.4870736,0.5833948,0.7076476,38.359362,9.8329994,-48.214758200000006,16.1720934,6.330373800000002,17.0792496,-0.9553734,0.337184,-0.2278734,131.9725068,67.3599396,118.401332,253.4504286184716,1.0384388813357095,24.357976194362912,1.0384400173871962,93.6131448,57.5269402,166.6160902
6815.153,-18.4073418,-227.785788,99.995363,-0.3755134,0.5667666,0.6977226,37.81163719999999,5.0167126,-49.464808600000005,12.010573000000004,1.4505920000000028,20.3131088,-0.9544166,0.347125,-0.2245496,131.539203,67.03119360000001,117.68358899999998,249.447926566698,0.9741927524909432,23.642767817229664,1.0401102512910447,93.7275658,62.014481,167.1483976
6835.138,-18.561818,-223.404532,99.2899416,-0.2827032,0.5507945999999999,0.7070752,37.3722322,0.2677731999999999,-50.6194924,4.531817000000002,-3.144291599999997,23.8897072,-0.9600024,0.3505881999999999,-0.2194632,130.6991518,66.7090806,116.68509199999998,245.17874807685837,0.9398144120699788,24.518198243122423,1.0453137280927869,93.3269196,66.4413074,167.3045844
6855.124,-18.3577532,-219.1847138,98.8976062,-0.2048718,0.5214492,0.7008614,37.0312448,-4.4170622,-51.70147320000001,-2.838477199999997,-7.823163199999996,27.0094162,-0.9797384,0.3428391999999999,-0.2201892,129.4977922,66.4023804,115.4484862,241.16318620019575,0.8972671980106259,28.262473330081644,1.0610887490157643,92.4665474,70.8194426,167.1499594
6875.11,-18.789665000000003,-214.98971580000003,98.69608639999998,-0.1400268,0.5050024,0.6967728,36.766005,-9.038366,-52.7165466,-8.699474999999996,-12.390975799999996,30.4046764,-0.9864882,0.3515141999999999,-0.2077814,127.952376,66.0914932,113.962358,237.3068622717288,0.871852776301045,33.96559278947634,1.0676583309874184,91.186371,75.12985920000001,166.6789046
6895.096,-20.444254800000003,-211.88130500000003,97.6602846,-0.082495,0.4889552,0.6885368,36.5464538,-13.601862399999998,-53.70357200000001,-16.152821399999997,-17.763436799999997,34.6270714,-0.987336,0.3812404,-0.192749,125.9805606,65.75057059999999,112.1717652,234.19903106328888,0.8485078300088219,42.13653284109396,1.075792171606189,89.4341068,79.35243299999999,165.8753372
6915.082,-21.6111646,-209.9105224,96.7603426,-0.0352256,0.4669203999999999,0.6781646,36.382369,-18.1264254,-54.685223400000005,-25.292980199999995,-25.973768599999996,40.5293868,-0.9955662,0.3941044,-0.1663762,123.430118,65.37448099999999,109.94306199999998,232.14657815629883,0.8241132977477551,54.37832929640217,1.083582657949194,87.047749,83.50090639999999,164.6282854
