Timestamp (ms),Wrist Gyroscope X (deg/s),Wrist Gyroscope Y (deg/s),Wrist Gyroscope Z (deg/s),Wrist Accelerometer X (g),Wrist Accelerometer Y (g),Wrist Accelerometer Z (g),Wrist Roll (deg),Wrist Pitch (deg),Wrist Yaw (deg),Arm Gyroscope X (deg/s),Arm Gyroscope Y (deg/s),Arm Gyroscope Z (deg/s),Arm Accelerometer X (g),Arm Accelerometer Y (g),Arm Accelerometer Z (g),Arm Roll (deg),Arm Pitch (deg),Arm Yaw (deg),Wrist Gyroscope Magnitude (deg/s),Wrist Accelerometer Magnitude (g),Arm Gyroscope Magnitude (deg/s),Arm Accelerometer Magnitude (g),Difference Roll (deg),Difference Pitch (deg),Difference Yaw (deg)
0.0,2.003019332885742,0.0299888160079717,0.048224564641714,-0.9043088555336,-0.2657484412193298,0.3129916191101074,-40.700660705566406,65.1718978881836,-131.16107177734375,0.7176313400268555,-0.0473813638091087,0.6449742317199707,-0.9210119843482972,-0.2001144587993621,-0.3325569927692413,-148.04330444335938,67.41707611083984,100.52487182617188,2.0038241903007576,0.9931568324490142,0.9660390744726208,0.9994513621850094,-107.34264373779295,2.24517822265625,231.6859436035156
20.06,1.625740826129913,0.2801327360793947,0.1297450866550206,-0.9031080901622772,-0.2672149688005447,0.3150355219841003,-40.69033622741699,65.17791748046875,-131.16380310058594,0.7322208285331726,0.128453928977251,0.5726133584976196,-0.9197941422462464,-0.2011166363954543,-0.3321534842252731,-148.0530776977539,67.41563415527344,100.49425506591795,1.6882947603527807,0.9931078540924588,0.957511404696178,0.9983970359246463,-107.36274147033691,2.2377166748046875,231.6580581665039
30.136,1.4746663173039751,0.3609051275998354,0.1722515262663364,-0.9034462968508402,-0.2691081762313842,0.3164280652999878,-40.6808344523112,65.18347930908203,-131.16671244303384,0.6507748166720072,0.1510089014967282,0.5614704489707947,-0.9205594261487324,-0.200985754529635,-0.3305596411228179,-148.0635528564453,67.4159927368164,100.4644521077474,1.5619210639787369,0.9943713609423332,0.8893859272884178,0.9985498847174852,-107.38271840413412,2.232513427734375,231.63116455078125
52.6,1.3532510101795197,0.4182461476884782,0.1691573662683367,-0.9047179967164992,-0.2697930037975311,0.3162172362208366,-40.67429637908936,65.18954467773438,-131.17157745361328,0.5797253996133804,0.072314353659749,0.5466444492340088,-0.9204854071140288,-0.2009842097759246,-0.3315523490309714,-148.07343292236328,67.41730308532715,100.43589782714844,1.4621413293308343,0.9956443818205228,0.8277741511120387,0.9988109004717532,-107.39913654327393,2.227758407592773,231.6074752807617
70.149,1.2864914417266846,0.4221911530941725,0.1536990500986575,-0.9061113953590392,-0.2704322695732116,0.3173998892307281,-40.66750869750977,65.19470520019532,-131.17595825195312,0.6317336916923523,0.0592004034668206,0.5798688769340515,-0.921588373184204,-0.2019053786993026,-0.3315821588039397,-148.0821105957031,67.41909332275391,100.40664215087892,1.3923825794731592,0.99745935397791,0.8825182157959741,1.0000232986320998,-107.41460189819335,2.2243881225585938,231.58260040283204
92.529,1.0884499549865725,0.5251590132713317,0.2093526765704154,-0.9065986514091492,-0.2721184253692627,0.3183131277561187,-40.65275421142578,65.20588531494141,-131.18384704589843,0.7047457575798035,0.178809942677617,0.6022159099578858,-0.9222756743431092,-0.202671992778778,-0.3311945617198943,-148.10192260742187,67.4202880859375,100.34738006591796,1.2307179799142494,0.9986483017559712,0.975531558180898,1.0006831230400757,-107.4491683959961,2.214402770996094,231.5312271118164
113.958,1.0262626886367798,0.526531720161438,0.2673546150326728,-0.9080949783325196,-0.2717108368873596,0.3173396289348602,-40.63796691894531,65.21861114501954,-131.19021911621093,0.7095372200012207,0.1406386364251374,0.6386652588844299,-0.923438310623169,-0.2034513175487518,-0.3307593762874603,-148.12062377929686,67.42273559570313,100.29308776855468,1.1943876238509454,0.9995923688256024,0.9928825760644076,1.0017695439155605,-107.48265686035155,2.2041244506835938,231.4833068847656
140.003,0.8997658967971802,0.5260980248451232,0.2651985332369804,-0.9097263932228088,-0.2713607788085937,0.3172045469284057,-40.625665283203126,65.23173217773437,-131.19656066894532,0.7614909410476685,0.159255476668477,0.677913248538971,-0.9228619575500489,-0.2046890437602996,-0.3323818564414978,-148.13988037109374,67.4240493774414,100.23935394287108,1.0904241206717131,1.00093538123978,1.0598304262774234,1.0020290604588509,-107.51421508789062,2.1923171997070314,231.4359146118164
149.988,0.7610599279403687,0.4936159372329711,0.2465406164526938,-0.909993863105774,-0.2717548847198486,0.3184659898281097,-40.61524353027344,65.2434295654297,-131.20203552246093,0.9425799131393432,0.4567637730389833,0.75730299949646,-0.9231858849525452,-0.2045090317726134,-0.3326090276241302,-148.1664611816406,67.42115478515625,100.1735595703125,0.9627068831821752,1.0016871510391372,1.3400859549162545,1.0023672996042143,-107.55121765136718,2.1777252197265624,231.37559509277344
172.715,0.6727373719215393,0.5192354559898377,0.2698132067918776,-0.9093377947807312,-0.2722922682762145,0.3179714262485503,-40.60763702392578,65.25556945800781,-131.2084533691406,1.0121647357940673,0.7261905044317245,0.7733799099922181,-0.9234651684761048,-0.2039819657802581,-0.3318412721157074,-148.19887084960936,67.41443176269532,100.09966583251952,0.907093354367292,1.001080761288172,1.5133698300196357,1.0022657234033177,-107.5912338256836,2.1588623046875,231.30811920166016
195.294,0.541577672958374,0.5401023745536804,0.2585447281599044,-0.9095164775848388,-0.2716392695903777,0.3179411292076111,-40.60302810668945,65.26801452636718,-131.21539306640625,0.9738836526870728,0.6938532084226608,0.7083154916763306,-0.9240165114402772,-0.20419183075428,-0.3316997528076172,-148.22787475585938,67.40776977539062,100.02910919189452,0.8257082998207332,1.001055244898624,1.4399200541804038,1.0027703197411408,-107.62484664916992,2.139755249023437,231.2445022583008
218.297,0.4466407299041748,0.5061575949192046,0.1562544891610741,-0.9091933131217956,-0.2733901500701904,0.3195404767990112,-40.60313491821289,65.27718811035156,-131.22535400390626,0.9799409866333008,0.7015190660953522,0.7006991147994995,-0.9235442519187927,-0.2033373594284057,-0.3323291659355163,-148.2579345703125,67.40081634521485,99.9556640625,0.705692243449245,1.0017422247071397,1.4406177514420375,1.0023692559803257,-107.6547996520996,2.1236282348632813,231.18101806640624
239.912,0.5666723012924194,0.4424865365028381,0.0601310471072792,-0.9075021386146546,-0.2744836270809173,0.3207456529140472,-40.60227661132812,65.28281707763672,-131.23688354492188,0.9935499548912048,0.7474470198154449,0.6975549101829529,-0.9235528588294984,-0.2024580240249633,-0.3310911357402801,-148.28856506347657,67.39390869140625,99.88190612792968,0.7840944552587309,1.0008948218688265,1.4640849304898542,1.0017848830023235,-107.68628845214845,2.1110916137695312,231.1187896728516
250.144,0.7185933351516723,0.4063320517539978,-0.0468879064545035,-0.906727123260498,-0.2750247180461883,0.3211283445358276,-40.60111846923828,65.28593292236329,-131.25137939453126,0.9161616683006286,0.4473438620567321,0.6087255239486694,-0.9240766406059264,-0.203951421380043,-0.3297574698925017,-148.30633544921875,67.39151763916016,99.8279800415039,0.9153654316931216,1.0004645274696742,1.257390300939949,1.0021288502994288,-107.70521697998046,2.105584716796875,231.0793594360352
272.61999999999995,0.8035157322883606,0.3120499268174171,-0.1669345458969473,-0.9065794825553894,-0.2749750792980194,0.3208922624588012,-40.5997184753418,65.28610229492188,-131.26744384765624,0.965771758556366,0.0500038504600524,0.5666478514671326,-0.9234535336494446,-0.2020929425954818,-0.3300775349140167,-148.31386108398436,67.39568939208985,99.78925018310548,0.9644148282428768,1.000241712122668,1.1985569489628356,1.001290497247591,-107.71414260864258,2.1095870971679687,231.0566940307617
292.50100000000003,0.9811425924301148,0.17536037042737,-0.3541814288124442,-0.9061599016189577,-0.2755680024623871,0.3223841905593871,-40.596379089355466,65.28089904785156,-131.2854217529297,1.0060836672782898,-0.2005481481552124,0.583559763431549,-0.9226309180259704,-0.2014396488666534,-0.3297324359416961,-148.3154541015625,67.40439453125,99.76205596923828,1.08920531263598,1.0005020443386698,1.2828801138582215,1.0002858196583306,-107.71907501220704,2.1234954833984374,231.047477722168
315.029,1.2487607955932618,0.0770931489765643,-0.510327798128128,-0.9055321216583252,-0.2751184582710266,0.3234069466590881,-40.58874130249024,65.27183990478515,-131.3048095703125,1.1148364305496217,-0.4386002719402313,0.5501642048358917,-0.9229058027267456,-0.2004590809345245,-0.3289921760559081,-148.30817565917968,67.41736297607422,99.74774169921876,1.3651685858593716,1.0001400718554094,1.4280198477249288,1.0000991673896218,-107.71943435668943,2.1455230712890625,231.05255126953125
335.128,1.3257586479187011,0.0025322563946247,-0.6818848729133606,-0.906276261806488,-0.2751518726348877,0.3233616709709167,-40.58324279785156,65.25970916748047,-131.32821655273438,1.307716464996338,-0.7588252007961274,0.5272289335727691,-0.9239348530769348,-0.1997569233179092,-0.3280028581619262,-148.28827819824218,67.43626556396484,99.74655456542968,1.5055998567989963,1.0008078852514417,1.620850390574173,1.000584230039662,-107.70503540039064,2.176556396484375,231.07477111816405
358.474,1.5340617179870606,-0.0882930509746074,-0.8118828356266021,-0.906188189983368,-0.2751107275485992,0.3236723005771637,-40.575023651123054,65.2445083618164,-131.3532684326172,1.3261674642562866,-0.8642653346061706,0.4969757854938507,-0.9238729357719422,-0.1977059215307235,-0.3271702527999877,-148.26627502441406,67.45738372802734,99.7488784790039,1.7465441829445916,1.000817552820994,1.6671334140685992,0.9998404948668602,-107.69125137329104,2.212875366210937,231.1021469116211
377.73,1.848798131942749,-0.1986167915165424,-0.9971121907234192,-0.9063962936401369,-0.2753863513469696,0.3244583427906036,-40.5631805419922,65.22504119873047,-131.38132019042968,1.1840424060821533,-0.8665064692497253,0.4185556173324585,-0.9238423824310302,-0.199160012602806,-0.3263204813003539,-148.2415557861328,67.47747192382812,99.75826416015624,2.11636726931047,1.0013335739931726,1.5300621957099607,0.9998209854284984,-107.67837524414064,2.252430725097656,231.13958435058595
400.489,2.151814365386963,-0.3225984930992126,-1.095862054824829,-0.9072561860084534,-0.2767032623291015,0.3245951175689697,-40.54641494750977,65.20232696533203,-131.41036071777344,1.1242972016334534,-0.898968231678009,0.3217023976147175,-0.924784529209137,-0.199354326725006,-0.325602662563324,-148.21267700195312,67.49737548828125,99.77229614257811,2.4467905122082,1.0025197355372266,1.4925433360621942,1.0004965863759303,-107.66626205444337,2.2950485229492186,231.1826568603516
409.949,2.2707417726516725,-0.4273331820964813,-1.1267225742340088,-0.907990574836731,-0.2768123805522918,0.325426834821701,-40.52491302490235,65.1776626586914,-131.4368865966797,1.1450838685035705,-0.8454697966575623,0.1926030464470386,-0.926087212562561,-0.2001314043998718,-0.3242411136627197,-148.17767944335938,67.51548309326172,99.79115142822266,2.5837157557548776,1.0034858204921175,1.4695020719857743,1.0014129087398156,-107.65276641845703,2.337820434570312,231.22803802490236
438.036,2.444806671142578,-0.4906757950782776,-1.0868552446365356,-0.9078772664070128,-0.2774082481861114,0.3266595721244812,-40.49661407470703,65.1521011352539,-131.459814453125,0.9718587398529052,-0.8082228422164917,-0.0314144425094127,-0.9280619978904724,-0.1998676598072051,-0.3238034963607788,-148.13822326660156,67.53111724853515,99.8185775756836,2.727506646192027,1.0039506505968023,1.3115664509792757,1.003048244614232,-107.64160919189452,2.3790161132812497,231.27839202880855
451.795,2.686030387878418,-0.5278601288795471,-1.0156989216804504,-0.9077391028404236,-0.2757492423057556,0.3261802494525909,-40.45913925170898,65.12787170410157,-131.47814025878907,0.612908124923706,-0.9599002480506896,-0.2773102216422557,-0.9292413353919984,-0.2005571693181991,-0.3234250485897064,-148.0911834716797,67.54678649902344,99.8628936767578,2.932916596963417,1.0032181526319488,1.4459478285897744,1.0041540365204775,-107.63204421997072,2.418914794921875,231.34103393554688
472.5750000000001,2.7458654403686524,-0.5169051051139831,-0.932805609703064,-0.9079362869262696,-0.2737074673175811,0.3267856538295746,-40.41582260131836,65.10561828613281,-131.49179077148438,0.2587417840957641,-1.131392443180084,-0.4761628977954387,-0.9294075727462768,-0.2017497330904006,-0.3240766763687134,-148.03814392089845,67.56251373291016,99.92169647216797,2.955126434319572,1.0030392658490612,1.6479577018801836,1.004762918089916,-107.62232131958008,2.456895446777344,231.4134872436524
495.033,2.808697605133057,-0.5150941014289856,-0.8635464191436768,-0.9075822114944458,-0.2725206911563873,0.3263161301612854,-40.368690490722656,65.08501281738282,-131.50269165039063,0.0766827553510666,-1.107875382900238,-0.6166903495788574,-0.9278333067893982,-0.2015243291854858,-0.3256411671638489,-147.9855926513672,67.57518920898437,99.98049926757812,2.9911942563872373,1.0022391642301345,1.6154554144235518,1.0037780386942188,-107.61690216064451,2.4901763916015627,231.4831909179688
510.4959999999999,2.9110616207122804,-0.5558377504348755,-0.8293017148971558,-0.9073626756668092,-0.2722326517105102,0.3262598037719726,-40.31753768920898,65.06450500488282,-131.5113739013672,-0.068647614121437,-1.0581542015075684,-0.7042765259742737,-0.9267642974853516,-0.2015323966741561,-0.326425689458847,-147.93472595214843,67.58537445068359,100.0370590209961,3.085453385784217,1.0019437335020562,1.5010621018966734,1.00304464287594,-107.61718826293944,2.520869445800781,231.54843292236328
532.227,2.861170434951782,-0.6229794740676879,-0.7787879943847656,-0.9063690423965454,-0.2697051405906677,0.3259240567684173,-40.26211395263672,65.0445556640625,-131.514599609375,-0.2321115970611572,-1.065077805519104,-0.7811028242111206,-0.9253564715385436,-0.202194184064865,-0.3270458817481994,-147.88391723632813,67.59397735595704,100.0954574584961,3.0421565399547945,1.0002445395602553,1.4846651070582892,1.002072244573609,-107.6218032836914,2.549421691894531,231.61005706787108
555.035,2.560943365097046,-0.6788686752319336,-0.8038478970527649,-0.905756151676178,-0.2702660918235778,0.3261590719223022,-40.2129020690918,65.02321319580078,-131.51788024902345,-0.1179211378097534,-0.9972980737686156,-0.7967453718185424,-0.9244474053382872,-0.2018288105726241,-0.3265296518802642,-147.83243713378906,67.60129852294922,100.15133819580078,2.783310276592304,0.9999169677727376,1.407193824611075,1.0009920250313409,-107.61953506469726,2.5780853271484374,231.66921844482425
577.3770000000001,2.233597540855408,-0.6723035514354706,-0.7425135850906373,-0.904441213607788,-0.2702137291431427,0.3253536999225616,-40.169532012939456,65.00299682617188,-131.52017211914062,-0.0083305180072784,-0.8867091178894044,-0.7896768689155579,-0.9237332224845884,-0.2005867600440978,-0.3258706390857696,-147.78342895507814,67.60721282958984,100.20216674804688,2.4599127777462693,0.9984486000721536,1.2711512977921664,0.9998645500447032,-107.61389694213868,2.6042160034179687,231.7223388671875
591.6080000000001,1.6529074758291245,-0.5401912875473499,-0.7024740219116211,-0.9036741971969604,-0.2682532906532288,0.3257169306278228,-40.13816909790039,64.98583984375,-131.523291015625,0.0786514490842818,-0.8863052248954773,-0.77934330701828,-0.9245390534400938,-0.2007302373647689,-0.3243870675563812,-147.73221435546876,67.61397247314453,100.25653533935548,1.9382963681364247,0.9973420833242445,1.272710679581753,1.000148956803962,-107.59404525756835,2.628132629394531,231.7798263549805
612.1659999999999,0.8400903314352035,-0.3708733517676592,-0.7427445650100707,-0.9030416250228882,-0.2683240532875061,0.3259995520114898,-40.129103088378905,64.97062683105469,-131.53307189941407,-0.0096349686384201,-0.9906906366348268,-0.7971104264259339,-0.9246191024780274,-0.2009209811687468,-0.3239838182926178,-147.67926025390625,67.62236022949219,100.31781005859376,1.6155478100965126,0.9968824646442892,1.3142339307927429,1.000130275772319,-107.55015716552734,2.6517333984375,231.85088195800785
635.23,0.3489235192537308,-0.1806258577853441,-0.7549847722053528,-0.9039336919784546,-0.2693014383316039,0.3258389115333556,-40.13666305541992,64.95826263427735,-131.5501281738281,-0.0417115420103073,-0.9373021125793456,-0.7728070378303528,-0.9247704744338988,-0.2010584831237792,-0.3236737847328186,-147.62940063476563,67.63013458251953,100.3778091430664,1.293788604188069,0.997900744791386,1.2595712460203,1.000197561785458,-107.4927375793457,2.6718719482421878,231.9279373168945
657.288,-0.1752944558858871,-0.0315394733101129,-0.6911351323127747,-0.9041727781295776,-0.2687831819057464,0.326393711566925,-40.15557556152344,64.94911651611328,-131.56837158203126,-0.0831487745046616,-0.7983357071876527,-0.7501116394996643,-0.9250029683113098,-0.2026375085115432,-0.3237176299095153,-147.58339233398436,67.63529663085937,100.43504638671877,1.070209296125595,0.998158320776399,1.1717160024180209,1.0007468195094646,-107.42781677246094,2.6861801147460938,232.00341796875
680.805,-0.7832845062017441,0.0090693976730108,-0.6627980887889862,-0.9045072317123412,-0.2688403964042663,0.3271931409835815,-40.18594207763672,64.94078216552734,-131.5860168457031,-0.1324838072061539,-0.6349946230649949,-0.7896267771720886,-0.9247202754020692,-0.2046964436769485,-0.3230153739452362,-147.53824768066406,67.63687744140626,100.4927261352539,1.1585592006901848,0.998736541639228,1.1533788519156551,1.0006830500452866,-107.35230560302736,2.696095275878906,232.07874298095703
689.8910000000001,-1.1698504388332367,-0.0591971840709447,-0.590260523557663,-0.9042893052101136,-0.269152021408081,0.3270545959472656,-40.21989059448242,64.93231964111328,-131.59906616210938,-0.3743359237909317,-0.5077940255403519,-0.9467934727668762,-0.9238500714302064,-0.2061689019203185,-0.3235542833805084,-147.4938507080078,67.63374938964844,100.55516204833984,1.393024212524059,0.9985767650685368,1.2618255944023709,1.000359848129533,-107.2739601135254,2.701429748535156,232.1542282104492
714.737,-1.4369732797145844,-0.1452243700623512,-0.4124413907527923,-0.90476096868515,-0.2680911242961883,0.3274706244468689,-40.24922714233399,64.92522277832032,-131.6014831542969,-0.4591667801141739,-0.2452755779027939,-1.0379149675369264,-0.9235670804977416,-0.2053941100835799,-0.323729771375656,-147.45582275390626,67.62532501220703,100.61316375732422,1.5967049912344504,0.9988549853181776,1.2427472031508848,1.0000003690250885,-107.20659561157228,2.7001022338867187,232.2146469116211
734.7,-2.062367594242096,-0.325465603172779,-0.3016095638275146,-0.9048796534538268,-0.2685290277004242,0.3283332049846649,-40.28187866210938,64.91642150878906,-131.59387817382813,-0.6339480102062225,-0.0703560203313828,-1.175647234916687,-0.9231809616088869,-0.2052916824817657,-0.3238716065883636,-147.42087097167968,67.61243438720703,100.66982421875,2.146414096163228,0.999365513701762,1.3885136526885773,0.9996685823882684,-107.13899230957033,2.6960128784179687,232.26370239257807
757.285,-2.5765414953231813,-0.5464797973632812,-0.2126550763845443,-0.9055076122283936,-0.2704814434051513,0.330598759651184,-40.315520477294925,64.90410766601562,-131.57608032226562,-0.7752260267734528,0.1934338361024855,-1.268102264404297,-0.9234279990196228,-0.2044738858938216,-0.3239650905132293,-147.39332885742186,67.59447937011718,100.71979522705078,2.6556010938530195,1.0012170349958442,1.5694465055745486,0.9997599843595164,-107.07780838012695,2.6903717041015627,232.2958755493164
781.16,-2.7246667623519896,-0.8667631804943084,-0.1047651201486587,-0.9055883049964903,-0.2728248178958893,0.3324209094047546,-40.34031524658203,64.88696746826172,-131.54513854980468,-0.9912265479564668,0.4461804747581481,-1.3618133068084717,-0.9231479287147522,-0.2046522200107574,-0.3245579481124877,-147.37344665527343,67.5710662841797,100.76328735351562,2.901984284562025,1.0025283959619766,1.8405581926096524,0.9997317258011966,-107.0331314086914,2.684098815917969,232.3084259033203
789.901,-2.979595899581909,-1.320021778345108,-0.0761068016290664,-0.9061616659164428,-0.2751402199268341,0.3325580179691314,-40.35885467529297,64.8627914428711,-131.50124816894532,-1.0269154608249664,0.7426608622074127,-1.3332921266555786,-0.9226283073425292,-0.204210153222084,-0.3249050199985504,-147.36423034667968,67.54306488037109,100.79211730957032,3.338927884599935,1.003722882162683,1.913619986117147,0.9992751929784178,-107.00537567138672,2.6802734375,232.2933654785156
820.9250000000001,-3.009358072280884,-1.871647047996521,-0.1608770757913589,-0.9062830686569214,-0.2777098953723907,0.3327958106994628,-40.367890167236325,64.8284698486328,-131.44574279785155,-1.0383071988821029,1.019336473941803,-1.3503361463546752,-0.9220402240753174,-0.2057139545679092,-0.3262123048305511,-147.36099243164062,67.50935821533203,100.810498046875,3.6676471563198367,1.0046119856831066,2.0901090516075858,0.9994653648450708,-106.9931022644043,2.680888366699219,232.25624084472656
839.625,-2.760683298110962,-2.416318345069885,-0.3294054955244064,-0.9057928204536438,-0.2807496666908263,0.3354018092155456,-40.36333999633789,64.78190307617187,-131.3805389404297,-0.7276688188314437,1.3709516048431396,-1.265380311012268,-0.9225946307182312,-0.2054953068494796,-0.3255516707897186,-147.36390380859376,67.47147674560547,100.81349334716796,3.811422908887633,1.0058980111954114,2.201656434250405,0.9997218608710292,-107.00056381225586,2.6895736694335937,232.19403228759765
849.721,-2.301274538040161,-2.9998042583465576,-0.4295933961868286,-0.9060163140296936,-0.2824577033519744,0.3372308611869812,-40.33731994628906,64.72442474365235,-131.30167541503906,-0.5139555215835571,1.4346863985061646,-1.1751457095146178,-0.92299542427063,-0.2065690636634826,-0.3249530613422394,-147.36603088378905,67.43392181396484,100.8105224609375,3.931271913955616,1.0071973065293656,2.1054298069918103,1.00012199364844,-107.0287109375,2.7094970703125,232.11219787597656
869.699,-2.2091643810272217,-3.911884498596192,-0.3718723893165588,-0.908182692527771,-0.285045313835144,0.3347797513008118,-40.28815689086914,64.65498809814453,-131.1981658935547,-0.0942403316497803,1.5605701208114624,-1.020439910888672,-0.9228445529937744,-0.2053256481885909,-0.3244847893714905,-147.37045288085938,67.39681854248047,100.7972396850586,4.646213450500052,1.009084941078114,1.9692261300798104,0.9995700124604048,-107.08229598999024,2.7418304443359376,231.9954055786133
892.5,-2.066370010375977,-5.0126808166503904,-0.3140262097120285,-0.9110716342926024,-0.2871907770633697,0.3399573147296905,-40.20349884033203,64.56814880371094,-131.05876770019532,0.1295552447438239,1.7328229665756223,-1.0290052890777588,-0.921293568611145,-0.2080207258462905,-0.3276280581951141,-147.37359008789062,67.35457611083984,100.78343811035155,5.532364730371786,1.014010896220745,2.049167147775784,0.9997918984327206,-107.1700912475586,2.786427307128906,231.8422058105469
909.79,-1.707737934589386,-6.4633667945861815,-0.5083059757947922,-0.9163628935813904,-0.2955894947052002,0.3508910775184631,-40.08017425537109,64.45198669433594,-130.88429260253906,0.1525404945015906,1.9635836601257324,-1.2842845439910888,-0.9186048030853272,-0.2105969488620757,-0.3297731339931488,-147.37047424316407,67.30384979248046,100.77845611572266,6.814351407492507,1.0249884625764962,2.388027793749062,0.998599192995871,-107.29029998779296,2.8518630981445314,231.66274871826167
932.051,-0.3037451863288879,-8.803221368789673,-0.7787758082151415,-0.9269228100776672,-0.3035207569599151,0.3643427550792694,-39.87567901611328,64.29273300170898,-130.6509979248047,0.296771766245365,2.765338087081909,-1.3738903760910035,-0.9141824841499328,-0.2158435732126235,-0.3364247143268585,-147.38003540039062,67.23374481201172,100.75729064941407,9.188446598388206,1.0415124241824498,3.186611606369641,0.9979064243887258,-107.50435638427734,2.9410118103027343,231.40828857421877
954.438,1.9262252688407897,-12.439875984191897,-1.2789570182561876,-0.9358199596405028,-0.3085464298725128,0.370072454214096,-39.55426712036133,64.07073669433593,-130.33625183105468,1.5373956128954889,3.867247700691223,-1.362842619419098,-0.9085091471672058,-0.2221064269542693,-0.3486257135868073,-147.3948181152344,67.13753509521484,100.70455627441407,13.261461155135937,1.0528881371599217,4.70878436973568,0.998362402142048,-107.84055099487304,3.0667984008789064,231.0408081054688
969.712,4.179532325267791,-16.59481315612793,-2.1946642249822617,-0.944010841846466,-0.3091368973255157,0.3798675000667572,-39.11396255493164,63.77213134765625,-129.9391876220703,3.52550880163908,4.504429340362549,-1.6600475788116456,-0.90744069814682,-0.2288698762655258,-0.360777872800827,-147.37531127929688,67.02096710205078,100.64610290527344,17.711914015953973,1.0636875581564378,6.638756275568201,1.0031458402311426,-108.26134872436523,3.2488357543945314,230.58529052734372
991.908,5.958714187145233,-21.186048316955567,-3.621155428886413,-0.9478951573371888,-0.3155373215675354,0.3946200788021087,-38.57870712280273,63.37932205200195,-129.4746063232422,5.359684035181999,5.338294601440429,-1.784074878692627,-0.9069786429405212,-0.2297639220952987,-0.3686906456947326,-147.34060363769532,66.88645477294922,100.56446838378906,22.52549239664137,1.074400345128942,8.408772248310445,1.0058027912501637,-108.76189651489258,3.507132720947266,230.0390747070313
1014.345,8.054982948303223,-26.36290168762207,-5.265029382705689,-0.9504716515541076,-0.3207973659038544,0.4117618381977081,-37.94050598144531,62.8800765991211,-128.94027252197264,7.49825279712677,6.784165287017823,-1.239405298233032,-0.906980574131012,-0.2296630024909973,-0.372607284784317,-147.32381896972657,66.73320159912109,100.41665191650392,28.172074346730252,1.085046055320114,10.576092636082448,1.007165135322732,-109.38331298828123,3.853125,229.35692443847657
1036.861,10.198211669921877,-31.84596862792969,-7.088761043548584,-0.9461614847183228,-0.3225861370563507,0.4239384353160858,-37.209564208984375,62.26856994628906,-128.34699249267578,9.448209857940672,8.406397342681885,-0.8612497925758362,-0.9101184964179992,-0.2290830254554748,-0.3723397016525268,-147.32220764160155,66.5593505859375,100.20992736816406,34.30563788283322,1.0867875243424645,12.90178099849527,1.0097940251853896,-110.1126434326172,4.290780639648437,228.55691986083983
1059.618,11.65322322845459,-37.15358772277832,-9.318792819976808,-0.9430209040641784,-0.325279426574707,0.4443786740303039,-36.42399215698242,61.5392333984375,-127.7219955444336,10.430148315429689,9.56083288192749,-0.6294448733329773,-0.9108550786972046,-0.2241214752197265,-0.3699043154716491,-147.3405303955078,66.37289886474609,99.96089782714844,40.123691466794696,1.0928924866983,14.40960036773124,1.0084296364477383,-110.9165382385254,4.833665466308593,227.68289337158205
1069.501,13.848572158813475,-42.69495468139648,-11.701831817626951,-0.9367422461509703,-0.3305422127246856,0.4659913301467894,-35.58252029418945,60.684513092041016,-127.07875366210938,10.758148765563964,11.221852207183838,0.0862317204475402,-0.905506920814514,-0.221033239364624,-0.3692121863365173,-147.42084655761718,66.16774291992188,99.63769226074218,46.455727968236594,1.0974320395726156,15.667084304300651,1.0026631441391378,-111.83832626342772,5.48322982788086,226.7164459228516
1091.818,16.814752197265626,-48.73481597900391,-14.044997215270996,-0.9360768079757692,-0.3324482142925262,0.4893626511096954,-34.66789855957031,59.69926223754883,-126.4146713256836,11.853563117980958,12.984305381774902,0.9130274415016174,-0.900311279296875,-0.2237513870000838,-0.3691673874855041,-147.54560546875,65.941552734375,99.24125061035156,53.4603103246287,1.107640658830385,17.638078846591828,0.998634561728094,-112.8777069091797,6.242290496826172,225.6559219360352
1111.802,20.044059371948244,-55.413316345214845,-16.1535213470459,-0.9379427671432496,-0.3334846556186676,0.5119777917861938,-33.6720588684082,58.57736587524414,-125.72429962158203,13.241839408874512,14.70640163421631,1.2625434756278993,-0.8982128858566284,-0.2315062314271926,-0.3743099629878997,-147.68482666015626,65.68713073730468,98.798779296875,61.105467292360245,1.1199890739434235,19.85332913455297,1.00049784091203,-114.01276779174805,7.109764862060547,224.52307891845703
1134.316,22.687045288085937,-62.61918563842774,-18.102124404907222,-0.9413671374320984,-0.3312865138053894,0.5356560289859772,-32.60742530822754,57.31150817871094,-125.00701751708984,14.759846115112303,15.809890747070312,1.6504403591156005,-0.8918457984924316,-0.2339654684066772,-0.3867243885993957,-147.83179321289063,65.4126968383789,98.31977691650393,69.02423204871084,1.1333048583254506,21.702671714017008,1.0000637219194632,-115.22436790466308,8.101188659667969,223.32679443359376
1154.5030000000002,24.40977973937988,-70.20120315551758,-19.866154861450195,-0.945536994934082,-0.3293622255325317,0.5632515609264374,-31.495804595947263,55.896176147460935,-124.26519165039062,16.638540840148927,17.375301170349122,2.115386366844177,-0.8925534725189209,-0.2381510198116302,-0.3953519582748413,-147.98682250976563,65.11430969238282,97.794775390625,76.96189408705406,1.1494631443742276,24.155063764983048,1.0049391953978504,-116.49101791381835,9.218133544921876,222.0599670410156
1176.974,25.5471134185791,-78.12631301879883,-21.513159561157227,-0.9462332010269164,-0.3249508321285247,0.5952134370803833,-30.35221061706543,54.32448348999024,-123.50177154541016,17.9308988571167,18.52980766296387,2.5707051038742064,-0.8958264708518981,-0.2392780691385268,-0.4039363265037536,-148.1536651611328,64.800439453125,97.2309585571289,85.02356095207554,1.1646633461549734,25.92101632820932,1.0115251434935435,-117.80145454406738,10.475955963134766,220.73273010253905
1199.354,25.915132141113283,-86.02808532714843,-23.097336196899413,-0.9374404907226562,-0.3207628548145294,0.6199811458587646,-29.20657272338867,52.59786148071289,-122.73126068115236,18.709693145751952,19.57501220703125,3.0946191549301147,-0.9008870959281922,-0.2360879510641097,-0.4083402812480926,-148.342578125,64.47699966430665,96.62783355712892,92.87449258859752,1.1695314980119682,27.276624935496077,1.0170289127389225,-119.13600540161131,11.87913818359375,219.35909423828124
1209.699,25.898126983642577,-93.33246002197264,-24.6318733215332,-0.9166522741317747,-0.31563361287117,0.6438262104988098,-28.083712005615237,50.724700927734375,-121.97289428710936,18.8362247467041,19.293301391601563,3.768204355239868,-0.9065732717514038,-0.2325870752334594,-0.4094101369380951,-148.54012451171874,64.1696990966797,96.01289978027344,100.02905176934745,1.1651476226488011,27.26337094130025,1.0216588038917631,-120.45641250610352,13.444998168945313,217.9857940673828
1231.847,25.389766693115234,-99.92391052246094,-26.002691650390624,-0.8901174068450928,-0.313866400718689,0.6730660915374755,-27.00690269470215,48.71495895385742,-121.24176025390624,19.448038864135743,17.40519275665283,4.2816637516021725,-0.912331175804138,-0.2301386356353759,-0.4016471564769744,-148.6909912109375,63.90769729614258,95.43381805419922,106.35759150509008,1.1611313710586284,26.726004367616326,1.02321329860786,-121.68408851623536,15.192738342285155,216.67557830810543
1259.2479999999998,24.902502059936523,-105.98043212890624,-27.202272796630854,-0.8563205480575562,-0.3098717629909515,0.705282187461853,-25.979500579833985,46.57759780883789,-120.5455535888672,19.581108474731444,15.66220932006836,5.407888174057007,-0.9132564067840576,-0.2290819913148879,-0.3931075990200042,-148.8285675048828,63.6932243347168,94.86450958251952,112.24054107479078,1.154032682080074,26.03011324766601,1.020538648869956,-122.84906692504885,17.115626525878906,215.41006317138672
1269.4240000000002,23.57557182312012,-111.84169921875,-28.317760848999026,-0.8285942196846008,-0.3113414704799652,0.7417008638381958,-25.023636627197263,44.31760635375976,-119.88428955078123,19.19926643371582,13.29745931625366,6.300016689300537,-0.9147722482681274,-0.2230237066745757,-0.3765962779521942,-148.94450988769532,63.53913879394531,94.33027038574218,117.81242810497784,1.1567579411839006,24.634929868209248,1.0143597621896672,-123.92087326049804,19.22153244018555,214.21455993652344
1292.644,22.595727920532227,-117.67347717285156,-28.6008659362793,-0.7974618554115296,-0.3032892525196075,0.7634235262870789,-24.116575241088867,41.9478515625,-119.23838653564454,18.38308525085449,8.390873527526855,6.886174297332763,-0.914208710193634,-0.2237000912427902,-0.368617171049118,-148.98544311523438,63.47930221557617,93.9014617919922,123.29102986389914,1.146073394174658,22.447347050654976,1.010949735743102,-124.86886787414552,21.53145065307617,213.1398483276367
1310.589,19.109768676757813,-122.60721435546876,-28.667416381835935,-0.7681556940078735,-0.2939863920211792,0.7750702977180481,-23.31046142578125,39.49152221679688,-118.61137542724607,17.751815032958984,3.517734146118164,6.257982444763184,-0.9129135012626648,-0.2295535385608673,-0.3655998826026916,-148.90718688964844,63.49616241455078,93.62505187988282,127.56407384323413,1.130767786240882,20.679390282688427,1.0101038894603864,-125.5967254638672,24.004640197753908,212.2364273071289
1332.733,14.635728311538696,-126.39905548095705,-28.97547645568848,-0.724319577217102,-0.2946608304977417,0.7936527132987976,-22.6347412109375,36.95934524536133,-118.01763000488282,17.442385101318358,-0.3312278747558593,5.442189693450928,-0.9198793649673462,-0.2343109190464019,-0.3651718139648437,-148.72216186523437,63.57061004638672,93.48246917724607,130.7452397132127,1.1160503915406257,20.21125323384725,1.0173264495876526,-126.08742065429688,26.611264801025392,211.5000991821289
1353.906,10.23516561985016,-129.46517181396484,-28.923747253417968,-0.6751192092895508,-0.2964048743247985,0.8148176312446594,-22.081727600097658,34.36537666320801,-117.44577331542968,18.08532104492188,-4.750580787658691,4.828890132904053,-0.9289451956748962,-0.2325013548135757,-0.3520207464694976,-148.40524597167968,63.72164764404297,93.48045806884764,133.26665793060317,1.1029122296687357,20.516718069279047,1.02093362943544,-126.32351837158204,29.35627098083496,210.92623138427732
1379.433,5.497134041786194,-131.4463134765625,-28.86029891967773,-0.6247499108314514,-0.2956570327281952,0.8304316282272339,-21.657827377319336,31.7328125,-116.90260620117188,18.86195678710937,-9.136953258514405,4.5276312828063965,-0.9383891820907592,-0.2292619198560714,-0.3410534083843231,-147.96664123535157,63.95057907104492,93.59781951904296,134.90871272372425,1.08506409202702,21.767058002767293,1.025684818044693,-126.30881385803222,32.21776657104492,210.50042572021485
1389.431,-0.6271882772445678,-132.41534729003905,-29.479226303100585,-0.5783249378204346,-0.3025285840034485,0.8393240928649902,-21.402874374389647,29.077502822875974,-116.40319366455078,18.283047676086422,-10.319695281982424,4.8164314270019535,-0.9422238826751708,-0.2221350967884063,-0.3292789578437805,-147.5258819580078,64.20881271362305,93.73324279785156,135.8460320404068,1.0663202578304267,21.96226475342054,1.0237216009830352,-126.12300758361816,35.13130989074707,210.13643646240237
1412.003,-6.779575896263123,-132.87287292480468,-30.31137084960937,-0.5296781539916993,-0.3052129805088043,0.855168879032135,-21.307372283935543,26.40597915649414,-115.94014434814451,17.300875091552733,-10.164252471923827,5.867765235900879,-0.9442155599594116,-0.2134087085723876,-0.3218970954418182,-147.15106201171875,64.47906875610352,93.81937408447266,136.79393619228176,1.0520494818727966,21.422035699436396,1.020820463849082,-125.8436897277832,38.073089599609375,209.7595184326172
1434.449,-12.66366503238678,-133.2425994873047,-31.09104194641113,-0.4836286246776581,-0.3076793372631073,0.8692447781562805,-21.357367324829102,23.72269630432129,-115.50023956298828,17.21596908569336,-10.328978729248046,6.7952375411987305,-0.941751992702484,-0.2151431441307067,-0.3106261193752288,-146.79632568359375,64.76270141601563,93.8828384399414,137.79905718752966,1.0431384645068706,21.54609982420204,1.0152469314008723,-125.43895835876464,41.040005111694335,209.3830780029297
1458.194,-19.4469913482666,-133.3225067138672,-31.477354431152342,-0.4450808882713318,-0.3102972149848938,0.8659702897071838,-21.568360519409172,21.0440279006958,-115.07208404541016,15.585668182373048,-10.605936431884766,6.259374618530273,-0.9378916501998902,-0.2197712093591689,-0.3033888459205627,-146.4361572265625,65.04279174804688,93.98448333740234,138.7212524178666,1.0245336669160374,20.19211731712292,1.010689479052277,-124.86779670715332,43.99876384735107,209.0565673828125
1479.2050000000002,-26.404150199890136,-132.95682678222656,-31.999952697753905,-0.3988492310047149,-0.3216614484786987,0.8644009590148926,-21.94408836364746,18.37326602935791,-114.65248565673828,14.241318130493164,-9.834602165222169,5.317529344558716,-0.9375990509986878,-0.2294747591018676,-0.3016731023788452,-146.07313232421876,65.29425659179688,94.11326751708984,139.5821943428671,1.0081460260881083,18.50288352357829,1.0119183639036669,-124.1290439605713,46.920990562438966,208.76575317382813
1489.365,-32.3265884399414,-132.14199523925782,-31.75051689147949,-0.3447916328907012,-0.3238811731338501,0.8686664700508118,-22.450624465942383,15.718849182128906,-114.21934051513672,14.597381973266602,-10.502128219604492,4.153678750991821,-0.9414990663528442,-0.2434916824102401,-0.3005154490470886,-145.62671508789063,65.53816986083984,94.31939392089842,139.90187531435365,0.9918568825283371,18.772579709469877,1.0183213406836835,-123.17609062194823,49.81932067871094,208.5387344360352
1511.936,-37.58237686157226,-130.76729431152344,-31.43587875366211,-0.2947026133537292,-0.3407220780849457,0.8638523817062378,-23.082392883300784,13.094274234771728,-113.77120819091796,15.56139087677002,-11.582031631469729,2.058423614501953,-0.9455417037010192,-0.2407249510288238,-0.2897467136383057,-145.0526885986328,65.77941131591797,94.64091339111329,139.89438488171334,0.976141808080596,19.806876366805163,1.0181351699316783,-121.97029571533204,52.68513708114624,208.4121215820313
1534.365,-40.92725982666016,-129.03374938964845,-30.698967742919923,-0.2474593937397003,-0.3546948850154876,0.8499652862548828,-23.79879302978516,10.51285572052002,-113.29734497070312,13.921653366088869,-12.070601463317873,0.8477745771408081,-0.9439011931419372,-0.234345668554306,-0.285301262140274,-144.45692138671876,66.01479797363281,95.02052154541016,138.92886504089762,0.956980481731168,18.637834263533872,1.013770380215962,-120.6581283569336,55.5019422531128,208.31786651611327
1554.328,-42.856143951416016,-126.8799072265625,-30.33501243591309,-0.1985088318586349,-0.3649625957012176,0.8454395771026612,-24.571717453002933,7.977289342880249,-112.66209259033204,13.473863983154295,-13.045837593078613,-0.0748111009597778,-0.945149838924408,-0.2280515402555465,-0.2818998157978057,-143.81014709472657,66.25464324951172,95.4650161743164,137.3624827525598,0.9450145449655992,18.972256727159294,1.012638717999065,-119.23842964172364,58.27735390663147,208.12710876464843
1576.9,-44.25057601928711,-124.40703582763672,-29.631607437133788,-0.1495003335177898,-0.3672939538955688,0.8322022795677185,-25.387664031982425,5.497254633903504,-111.787890625,13.10463581085205,-13.628109359741211,-1.3926640272140502,-0.9434928655624388,-0.2229117155075072,-0.2767730951309203,-143.10467529296875,66.48721771240234,95.9853057861328,135.36269160563,0.9245795820490348,19.20875122915712,1.0086307315033092,-117.71701126098633,60.98996307849884,207.7731964111328
1599.345,-43.67628784179688,-121.7041000366211,-29.469646453857425,-0.1091530159115791,-0.3965273857116699,0.8250811457633972,-26.223870849609376,3.074324989318848,-110.77225646972656,10.990323257446288,-13.371157264709472,-2.584608149528504,-0.942341649532318,-0.2155755788087844,-0.2719543278217315,-142.405859375,66.7012435913086,96.5482406616211,132.6469418854587,0.9246673329085748,17.905316729423156,1.0044264175082465,-116.18198852539062,63.62691860198974,207.32049713134765
1609.322,-41.50823593139648,-119.54771575927734,-28.39306259155273,-0.0669033568003214,-0.391066163778305,0.8235376358032227,-27.027994918823243,0.7054802894592285,-109.49410400390624,8.555120706558228,-14.597873306274414,-2.738715481758118,-0.933227014541626,-0.2118494689464568,-0.2685592651367187,-141.71181030273436,66.928759765625,97.16298370361328,129.7200239222339,0.9161398316905404,17.754912391110466,0.9941642523127578,-114.68381538391114,66.22327947616577,206.65708770751957
1633.065,-42.62806701660156,-117.08482666015624,-27.933953475952148,-0.0324137989082373,-0.3912222325801849,0.8125311970710755,-27.872260284423827,-1.6052846908569336,-108.0568634033203,5.747128105163574,-14.735247039794924,-3.6486712455749513,-0.9329411268234252,-0.2106141746044158,-0.2631364166736603,-141.0296173095703,67.14511260986328,97.828857421875,127.76832662253162,0.9045879254288286,17.214599617507666,0.9920941695602296,-113.15735702514648,68.75039730072021,205.8857208251953
1659.042,-42.762969970703125,-114.42798614501952,-27.304856872558595,0.0009363051853142,-0.4119357287883758,0.7980794548988343,-28.75030670166016,-3.852341413497925,-106.627880859375,1.7503050804138185,-12.953597736358644,-3.390784966945648,-0.9305208206176758,-0.2042561143636703,-0.2734627366065979,-140.50375366210938,67.33037872314453,98.41542358398438,125.2438672688227,0.9005871199818344,14.831727711229314,0.9913982554800022,-111.75344696044922,71.18272013664246,205.04330444335935
1679.085,-39.76081008911133,-111.6154998779297,-26.455380630493163,0.0388085384271107,-0.4230994462966919,0.7719372749328614,-29.59920425415039,-6.036289668083191,-105.27723083496092,-2.294516468048096,-9.634078598022462,-1.3856888175010682,-0.924517023563385,-0.2048244386911392,-0.2930042922496795,-140.2514862060547,67.47772216796875,98.79333953857422,121.5121191601573,0.8841933783185271,13.185951031399371,0.9917766611570592,-110.6522819519043,73.51401183605194,204.0705703735352
1688.927,-38.717560577392575,-108.08899993896485,-25.44266357421875,0.0785775702795944,-0.4170292556285858,0.7522918581962585,-30.44610595703125,-8.145212745666504,-103.92699279785155,-3.4621119499206543,-4.743608283996582,0.4666328072547913,-0.921777093410492,-0.2025892168283462,-0.3040418088436126,-140.25326538085938,67.56678161621093,98.91952514648438,117.70325895662054,0.8673773992198296,13.477972996009328,0.9921116629836456,-109.80715942382812,75.71199436187744,202.84651794433597
1711.717,-36.69370155334472,-103.38955535888672,-24.70482063293457,0.1277259238064288,-0.4402534544467926,0.7110552668571473,-31.29460678100586,-10.171160125732422,-102.69104614257812,-4.131178689002991,2.352829170227051,2.873999273777008,-0.9326512575149536,-0.2058784395456314,-0.3134812533855438,-140.57533569335936,67.57196807861328,98.7115234375,112.57184169817322,0.8511578382616787,13.66694594013793,1.0057130524815228,-109.28072891235352,77.74312820434571,201.4025695800781
1732.286,-31.318981552124026,-97.89415893554688,-22.505737686157225,0.1706255048513412,-0.4507511973381042,0.6775768995285034,-32.06946716308594,-12.083511924743652,-101.47670745849612,-4.297342467308044,8.841398811340332,5.166793882846832,-0.933535897731781,-0.2072921246290206,-0.3234249889850616,-141.18316650390625,67.49999542236328,98.19456481933594,105.31932756388504,0.8363129741541325,14.95825245267389,1.0097516410749368,-109.11369934082032,79.58350734710693,199.67127227783203
1749.159,-26.93545036315918,-91.34617614746094,-20.000945281982425,0.2163006246089935,-0.4476854681968689,0.6482349395751953,-32.77887535095215,-13.864790153503415,-100.26988677978515,-3.962417769432068,14.970252513885498,6.096081495285034,-0.9258531332015992,-0.2197171211242675,-0.3261096179485321,-141.97763061523438,67.33609008789062,97.46174926757811,97.36959849417032,0.8203318225294611,17.673665918099807,1.0061430852509348,-109.19875526428224,81.20088024139405,197.73163604736328
1773.237,-23.77506542205811,-83.63946838378907,-16.911834144592287,0.2534898459911346,-0.4587983787059784,0.617449426651001,-33.455134582519534,-15.487437057495118,-99.0743179321289,-3.235415816307068,19.391292572021484,4.967778432369232,-0.9216203808784484,-0.2264704406261443,-0.322227543592453,-142.81281433105468,67.085693359375,96.6640884399414,88.68853855451133,0.8131619382451177,20.661277276754124,1.0024927031272592,-109.35767974853516,82.57313041687011,195.7384063720703
1794.364,-18.97429485321045,-74.92211532592773,-12.692643404006962,0.281386923789978,-0.464915406703949,0.5825138926506043,-34.06287689208985,-16.920194816589355,-97.89081420898438,-3.716772818565369,21.147489166259767,3.2601059317588805,-0.9109370827674864,-0.2308331102132796,-0.3227928400039673,-143.61511840820313,66.78156280517578,95.90766143798828,78.49965040145563,0.7978729645723299,22.16490022693984,0.9939362613995476,-109.55224151611328,83.70175762176514,193.79847564697263
1816.703,-15.544323539733886,-65.14435424804688,-8.19393093585968,0.2978861272335052,-0.4668119788169861,0.5685177683830261,-34.611595153808594,-18.13513984680176,-96.73567199707033,-4.900310039520264,21.089396286010743,0.5969817519187928,-0.8894653797149659,-0.2363993793725967,-0.3283566653728485,-144.3148223876953,66.4373764038086,95.2859893798828,67.67411458384866,0.7949033038119329,22.1125473007538,0.9774250498418166,-109.70322723388672,84.57251625061035,192.02166137695312
1830.226,-13.244343376159668,-54.53763275146484,-4.100113892555237,0.3145667374134063,-0.474771100282669,0.5636824131011963,-35.11329040527344,-19.12351684570313,-95.62560577392576,-5.7792023658752445,19.87408275604248,-1.6573938012123108,-0.8724724054336548,-0.2345124751329421,-0.3339244484901428,-144.9019744873047,66.08161773681641,94.80464782714844,56.57109056300765,0.8019876490324302,21.21061894545904,0.9633735921638292,-109.78868408203124,85.20513458251953,190.4302536010742
1851.455,-9.16608681678772,-43.57010955810547,-0.1876626253128051,0.3266736030578613,-0.4827307999134064,0.5469130158424378,-35.53082122802734,-19.88477020263672,-94.57233123779297,-6.40001163482666,17.31525230407715,-2.9746461033821108,-0.8650865435600281,-0.2297213345766067,-0.3439783334732055,-145.38162841796876,65.74918823242187,94.45786895751954,45.00499287114042,0.7994303839634668,19.06449185878076,0.95905781645137,-109.8508071899414,85.63395843505859,189.0302001953125
1874.833,-5.375759077072144,-31.93363971710205,3.4205443143844603,0.3336000382900238,-0.4769466817378998,0.5425703883171081,-35.84776077270508,-20.41186637878418,-93.60384521484374,-6.54136323928833,13.067058277130126,-3.092549180984497,-0.8512111306190491,-0.2246551513671875,-0.3518261849880219,-145.7504852294922,65.48159332275391,94.2423568725586,33.76513697951617,0.7959479215018055,15.332505760068486,0.948222452672578,-109.90272445678713,85.89345970153809,187.84620208740236
1896.685,-4.247819089889527,-19.67204084396362,6.078882336616516,0.3440789103507995,-0.4754083156585692,0.5390291690826416,-36.10736083984375,-20.710926818847657,-92.75811920166016,-5.595460474491119,8.628275489807129,-2.999838805198669,-0.8442407250404358,-0.2248251318931579,-0.3586525321006774,-145.9906494140625,65.2852798461914,94.15390014648438,24.873406121202866,0.7971477022080864,11.365994152283022,0.944557679276214,-109.88328857421877,85.99620666503907,186.91201934814453
1918.857,-3.572318124771118,-7.127287197113037,8.588114356994629,0.3514143109321594,-0.4812972664833069,0.5423472285270691,-36.31431732177735,-20.777302169799803,-92.04747314453124,-3.642885220050812,4.188683700561524,-2.0426419973373413,-0.8506716132164002,-0.2215992271900177,-0.3601833403110504,-146.11843872070312,65.17672576904297,94.14418182373046,20.92869302370593,0.8060748490276358,8.707880237183677,0.9501409695444354,-109.8041213989258,85.95402793884277,186.19165496826173
1929.105,-0.4309427738189697,5.068095874786377,11.28120641708374,0.354386293888092,-0.4917452335357666,0.5365025043487549,-36.42756118774414,-20.616331100463867,-91.45111694335938,-2.0100304901599886,-0.5042581558227539,-0.6364852666854859,-0.8554919242858887,-0.2259323239326477,-0.3602226555347442,-146.14317321777344,65.16236419677735,94.2100387573242,21.46902106086451,0.8097898232396499,7.544249194735795,0.9555266772544244,-109.71561203002928,85.77869529724121,185.6611557006836
1953.834,2.629884147644043,17.193149280548095,13.988667869567871,0.3495939671993255,-0.4906150817871094,0.5408043265342712,-36.43899459838868,-20.22655868530273,-90.97277526855468,-0.8314216196537018,-5.814188385009766,0.4367570161819458,-0.8571852803230285,-0.2278809309005737,-0.3577141106128693,-146.0489013671875,65.24876403808594,94.37792663574218,26.445555310817383,0.81002390451824,8.349429953591237,0.9565687546199728,-109.60990676879882,85.47532272338867,185.35070190429687
1976.323,4.0297928810119625,28.879767513275148,16.55112075805664,0.3430123090744018,-0.4905379354953766,0.5476903319358826,-36.3844612121582,-19.61673164367676,-90.6058578491211,0.6303404748439789,-10.406603717803955,0.5037174344062805,-0.8681950807571411,-0.2313268959522247,-0.3501469671726226,-145.80413513183595,65.41574249267578,94.6747802734375,34.91406260019762,0.8119271659276818,10.877592031316988,0.9644982012475848,-109.41967391967772,85.03247413635253,185.2806381225586
1996.399,6.077910232543945,39.92896194458008,19.256158447265623,0.3300807535648346,-0.5030263066291809,0.5643189311027527,-36.26066436767578,-18.789225387573243,-90.32410430908205,1.5248158514499663,-14.402609825134276,0.1393149733543395,-0.8763651490211487,-0.2295199215412139,-0.3384750843048095,-145.4191467285156,65.64963989257812,95.10339050292968,45.51703818241703,0.8256418277611915,14.834528599286012,0.9672241045391856,-109.15848236083984,84.43886528015136,185.42749481201173
2018.878,10.331274318695067,49.67389106750488,21.749256896972657,0.3112498700618743,-0.5142228722572326,0.5774245738983155,-36.03307571411133,-17.767517852783204,-90.11712646484376,0.7473814070224762,-18.07922286987305,-0.4718916535377504,-0.8816051840782165,-0.2320107042789458,-0.3304020404815674,-144.92022094726562,65.93686370849609,95.6737548828125,55.42995847879897,0.8346119158076174,18.36222888042904,0.9698429855604576,-108.8871452331543,83.70438156127929,185.79088134765624
2029.031,13.26456823348999,58.53187713623047,23.81430320739746,0.2875632375478744,-0.5008798718452454,0.5823652386665344,-35.724615478515624,-16.573682594299317,-89.98651123046875,0.1609172105789185,-20.267855072021483,-1.7488205552101137,-0.8896233677864075,-0.2299772530794143,-0.3217730700969696,-144.3186828613281,66.24639739990235,96.37015991210936,64.78270702691161,0.8212823204083494,20.621272327257888,0.9738281279489291,-108.5940673828125,82.82007999420166,186.3566711425781
2058.976,12.27167444229126,67.47662200927735,25.51380500793457,0.2646596819162368,-0.4942505776882172,0.5861212611198425,-35.42111511230469,-15.210245323181152,-89.93952331542968,0.9759660720825196,-20.78722419738769,-3.747287237644196,-0.8939294576644897,-0.2296084225177764,-0.3120149672031402,-143.5976104736328,66.5405044555664,97.17540435791015,73.34094175212564,0.8122249489168105,21.386770226881215,0.9743528152894384,-108.17649536132812,81.75074977874756,187.11492767333985
2078.869,11.017571640014648,76.6211944580078,26.87672576904297,0.2362681776285171,-0.5145395457744598,0.6023092985153198,-35.14064407348633,-13.670204544067383,-89.97886657714844,1.396240186691284,-21.005400466918942,-5.449047183990478,-0.903384220600128,-0.2273303806781768,-0.303631591796875,-142.78453674316407,66.81725769042968,98.06687622070312,82.22665799897348,0.8279579265788136,22.03469876474033,0.97988238502025,-107.64389266967774,80.48746223449707,188.0457427978516
2089.313,14.266289234161375,84.12850036621094,28.38541526794433,0.2043767243623733,-0.5255004823207855,0.6318506717681884,-34.79269104003906,-11.9790491104126,-90.07688751220704,-0.0782388687133788,-20.560634231567384,-6.754109477996826,-0.9160618782043456,-0.2276967465877532,-0.298993855714798,-141.95055541992187,67.06813049316406,99.00892486572266,90.22929239569818,0.8491465734997918,22.006575110084,0.9902562297534672,-107.1578643798828,79.04717960357667,189.0858123779297
2111.351,18.73547525405884,89.5484848022461,29.89699440002441,0.1744413450360297,-0.5106362044811249,0.6593133568763733,-34.34950714111328,-10.175382709503172,-90.21582946777345,-0.0208214044570921,-19.19204177856445,-6.857889604568482,-0.918696355819702,-0.2294718742370605,-0.28321213722229,-141.1249206542969,67.29596710205078,99.93634338378908,96.84115335160804,0.8549596941829225,20.67894411823877,0.9887582721111992,-106.7754135131836,77.47134981155395,190.1521728515625
2131.348,18.06663026809692,94.95959014892578,30.94254302978516,0.1383126892149448,-0.4976838767528534,0.6802873015403748,-33.91851119995117,-8.25850477218628,-90.38448944091796,0.3455961227416992,-17.38236484527588,-7.73855881690979,-0.9225636839866638,-0.2292453110218047,-0.2722244828939438,-140.2974426269531,67.48338775634765,100.8544662475586,102.0427584405682,0.8578844466830431,19.32060442866104,0.989262117841094,-106.37893142700196,75.74189252853394,191.23895568847652
2148.625,17.587158679962158,99.5960479736328,32.049340438842776,0.0909834913909435,-0.5121512055397034,0.7166763067245483,-33.510623931884766,-6.232983493804932,-90.57251434326172,-1.727741575241089,-14.127495861053466,-9.590292406082153,-0.9358555793762208,-0.2300187498331069,-0.2655850082635879,-139.53639221191406,67.59621124267578,101.74439086914064,106.73437381451517,0.8898255606193214,18.915383347107223,0.9998757291413268,-106.0257682800293,73.82919473648072,192.31690521240236
2171.334,22.905517768859863,102.14912872314451,33.650153732299806,0.0462235450744628,-0.5133145928382874,0.7440854549407959,-33.01293869018555,-4.133708268404008,-90.74247436523436,-4.795181703567505,-10.27542004585266,-10.450448274612429,-0.9315754055976868,-0.2292632550001144,-0.2657533317804336,-138.92903747558594,67.63387451171874,102.53439636230468,110.45379580144,0.90877596402808,17.919469820548915,0.9957769429172112,-105.9160987854004,71.76758278012275,193.27687072753903
2191.337,24.596233177185063,103.97648010253906,34.82328643798828,0.0014864653348922,-0.4807894229888916,0.7717730760574341,-32.48290481567383,-1.9799048721790315,-90.88780059814454,-5.407195901870727,-5.983180141448974,-10.24972596168518,-0.9273353099822998,-0.235975232720375,-0.2651492744684219,-138.47251586914064,67.60365447998046,103.17186584472655,112.90021831170074,0.9146368652943128,15.853658913020809,0.9933197470165056,-105.9896110534668,69.5835593521595,194.0596664428711
2215.176,19.599172401428223,106.73480224609376,34.74174423217774,-0.0452209696173667,-0.4758220970630645,0.780785059928894,-32.07238349914551,0.2312969863414764,-91.04799957275392,-6.513057017326355,-0.7395771980285645,-12.397232627868652,-0.9288241505622864,-0.2409465640783309,-0.2690752178430556,-138.1314697265625,67.46229858398438,103.70532836914064,114.34509619691396,0.9194835517608138,16.184513066137175,0.9969516043274308,-106.059086227417,67.2310015976429,194.75332794189453
2237.0420000000004,18.550647163391112,108.9177749633789,35.32227783203125,-0.096939555555582,-0.4905517756938934,0.8048266172409058,-31.708142852783205,2.4990412414073946,-91.19970703125,-7.992916393280029,3.839433765411377,-13.749113845825196,-0.9295334696769716,-0.2351855546236038,-0.2736656367778777,-137.9357452392578,67.2357177734375,104.11103973388671,116.44265900664628,0.9518409321770124,17.320404403629333,0.9975928561908404,-106.22760238647462,64.7366765320301,195.3107467651367
2258.546,23.291265869140624,109.86927185058592,35.34473648071289,-0.1394388727843761,-0.4929110467433929,0.8170115113258362,-31.273470306396483,4.788452976942063,-91.36031188964844,-7.744342136383056,4.87280707359314,-11.716943073272706,-0.9176758289337158,-0.2345315128564834,-0.2823456645011902,-137.85573120117186,67.01699523925781,104.38556365966797,118.12502536352429,0.9687805746445918,15.506954460686377,0.9889719344113714,-106.5822608947754,62.22854226231575,195.7458755493164
2268.602,24.61916694641113,109.93424530029296,34.883888244628906,-0.178685250878334,-0.4602129936218261,0.8478847861289978,-30.811759567260744,7.076991128921509,-91.53693084716797,-5.856987714767456,5.937475681304932,-10.406279277801511,-0.9182034611701966,-0.2473211616277694,-0.2800326824188232,-137.80505981445313,66.79850463867187,104.58291015625,118.42770759161128,0.9852687550807872,13.626452576558084,0.9920549022090364,-106.99330024719238,59.721513509750366,196.119841003418
2291.13,21.32369327545166,109.84234313964843,33.51443328857422,-0.2114844262599944,-0.4484589219093323,0.842135739326477,-30.436775970458985,9.35089044570923,-91.74758605957032,-4.532159835100174,7.221519041061401,-10.62485189437866,-0.9200430989265442,-0.2488259345293045,-0.2772078096866607,-137.75887756347657,66.56118469238281,104.74664154052736,117.29067403773618,0.981334779282769,14.031387001138755,0.9933657757094227,-107.32210159301758,57.210294246673584,196.49422760009764
2315.175,18.435967350006106,110.07876739501953,33.041343688964844,-0.2667662054300307,-0.4600904762744903,0.8523301124572754,-30.148071670532225,11.63347930908203,-92.00967407226562,-6.438308364152908,8.402476453781128,-10.524690914154052,-0.9237630486488342,-0.2363887965679168,-0.2774121105670929,-137.80560607910155,66.31529846191407,104.85569305419922,117.28243747462656,1.0093060969529923,15.548561111616484,0.9939803664567182,-107.65753440856932,54.681819152832034,196.86536712646483
2337.353,21.263116931915285,108.71722106933592,32.83283157348633,-0.3017459958791732,-0.4659112989902496,0.8529298424720764,-29.82418632507324,13.889169120788576,-92.26572723388672,-9.150565558671952,7.62440333366394,-8.421053695678712,-0.9177772760391236,-0.2491080909967422,-0.2872175097465515,-137.94842834472655,66.10187072753907,104.92031860351562,116.41437665135386,1.023030484642311,16.08686011806966,0.9942604840117776,-108.12424201965332,52.212701606750485,197.18604583740236
2358.646,20.739707660675048,107.55346069335936,33.115132904052736,-0.3310406655073165,-0.4333406150341033,0.8463096022605896,-29.51228828430176,16.1281831741333,-92.54966735839844,-11.446501857042312,8.065995597839356,-9.06953535079956,-0.9221639513969422,-0.2697609454393386,-0.2909738898277282,-138.10950317382813,65.86804962158203,105.01058654785156,115.29146409625596,1.0115884357078817,18.386917387667417,1.005186342513254,-108.59721488952636,49.73986644744873,197.56025390625
2368.54,15.932062816619872,107.6523223876953,32.63291473388672,-0.355983829498291,-0.4333450853824614,0.8400325775146484,-29.32152366638184,18.358222007751465,-92.90411987304688,-13.61518390774727,9.90510425567627,-10.34395627975464,-0.9268480658531189,-0.2735156983137131,-0.2981420218944549,-138.3264617919922,65.58944091796874,105.08521881103516,114.20168130311068,1.0135225360173188,21.29658432422813,1.0126382323356355,-109.00493812561037,47.23121891021729,197.98933868408204
2393.659,14.381273651123047,108.08179168701172,33.218299102783206,-0.392022830247879,-0.4537180602550507,0.8311136126518249,-29.19461250305176,20.59957962036133,-93.3502410888672,-16.659167671203612,11.088187789916992,-10.655751132965088,-0.9313936233520508,-0.2627885073423385,-0.2909134536981582,-138.6280090332031,65.29960021972656,105.13179321289064,114.63390137646869,1.0267778400656158,23.46764104255343,1.0124679413946829,-109.43339653015136,44.70002059936523,198.4820343017578
2416.416,19.103850650787354,107.2563980102539,34.05293579101563,-0.4264295399188995,-0.4421825349330902,0.8184879779815674,-28.984161376953125,22.834318161010746,-93.8700485229492,-18.24946746826172,9.38448314666748,-8.070522904396057,-0.9254045009613036,-0.2714689970016479,-0.2968875497579574,-138.98589172363282,65.06528167724609,105.14681091308594,114.4493654847228,1.0270662048180208,23.1344666567014,1.0104450219491636,-110.0017303466797,42.23096351623535,199.0168594360352
2436.175,18.554064655303957,107.48287200927734,33.91676559448242,-0.4563019752502441,-0.4091024875640869,0.7980237364768982,-28.79395637512207,25.075375747680663,-94.53426208496091,-18.65601768493652,9.047399044036863,-8.535981011390685,-0.9218190789222718,-0.2730304419994354,-0.30402851998806,-139.32615356445314,64.82804412841797,105.1879638671875,114.49809942548444,1.010623844616656,23.54539032447625,1.0100438688288436,-110.53219718933106,39.752668380737305,199.72222595214845
2458.903,15.344452571868896,108.28929443359377,33.31264419555664,-0.4944767475128174,-0.4128969609737396,0.7974767208099365,-28.699752044677734,27.32226905822754,-95.32393188476564,-18.61592102050781,9.197237396240237,-8.750239205360412,-0.925653839111328,-0.2713807582855224,-0.3041760474443435,-139.66100463867187,64.5902114868164,105.23432159423828,114.50664520266731,1.0298212586592437,23.648674447424032,1.0129977445235412,-110.96125259399416,37.26794242858887,200.5582534790039
2478.753,15.90857515335083,108.1955795288086,33.62413940429688,-0.5358187437057496,-0.4170406103134155,0.7819716334342957,-28.620130157470705,29.57141036987305,-96.19850616455078,-18.61536026000977,7.988774013519287,-7.641027474403382,-0.9279444336891174,-0.2713919818401337,-0.3048846572637558,-139.99297180175782,64.38798217773437,105.28373107910156,114.57972288612532,1.037400043888665,22.42982485999961,1.0152938342438227,-111.37284164428712,34.81657180786133,201.48223724365235
2489.762,17.99709987640381,107.35890197753906,33.723950958251955,-0.5818987727165222,-0.4019913971424103,0.778561532497406,-28.507433700561524,31.80956687927246,-97.1288330078125,-17.22361240386963,5.56388840675354,-6.029456448554993,-0.9260160565376282,-0.2763272404670714,-0.318718147277832,-140.2846221923828,64.23772888183593,105.3490463256836,114.03475991421097,1.0528090301608366,19.46912130627281,1.0183029986848882,-111.7771884918213,32.428162002563475,202.4778793334961
2518.7200000000003,16.534482765197755,106.5493392944336,33.46487045288086,-0.612341558933258,-0.3738047003746032,0.754843270778656,-28.4336368560791,34.03403778076172,-98.0798080444336,-15.757381629943849,3.967719841003418,-6.5933380126953125,-0.91977219581604,-0.2771002292633056,-0.3330991923809051,-140.49471130371094,64.0986228942871,105.47502136230467,112.97283902033482,1.0442637749291477,17.884209165198097,1.0174553043522487,-112.06107444763184,30.06458511352539,203.55482940673824
2528.588,13.776787185668946,105.41995086669922,33.127655029296875,-0.6619770765304566,-0.3731018662452697,0.7468791961669922,-28.436409759521485,36.237649536132814,-99.0776107788086,-14.923143196105958,3.203863000869751,-6.720913600921631,-0.917522931098938,-0.2856515824794768,-0.3336348354816437,-140.65366821289064,63.96763916015625,105.63834075927734,111.39190167708848,1.0705944048283471,17.038717774644226,1.0181351913764296,-112.21725845336914,27.72998962402344,204.71595153808596
2551.033,13.579896926879885,103.07479553222656,33.00612831115723,-0.701117193698883,-0.3624397814273833,0.7274207592010498,-28.453562927246093,38.4007568359375,-100.077734375,-14.525281715393067,2.5018534660339355,-5.502976894378662,-0.9076948165893556,-0.2849382102489471,-0.3447688102722167,-140.83274536132814,63.85792541503906,105.7733154296875,109.10627172817316,1.077988184337708,16.066476859483725,1.0131125411410118,-112.37918243408204,25.45716857910156,205.8510498046875
2573.715,11.80721950531006,100.88821105957032,32.346591567993165,-0.7376381516456604,-0.341563206911087,0.7059805870056153,-28.519358825683597,40.52212905883789,-101.09253845214845,-14.046809577941897,-0.3011173248291016,-4.916475105285644,-0.9047006368637084,-0.2798749387264251,-0.3524377882480621,-140.95818786621095,63.79817352294922,105.96122283935549,106.6442381502699,1.0784397455959582,15.386885395418377,1.0114818517722912,-112.43882904052734,23.27604446411133,207.05376129150392
2588.5600000000004,9.68133773803711,99.45542907714844,31.169409942626952,-0.7558190226554871,-0.3338160693645476,0.6884512305259705,-28.66321258544922,42.59898147583008,-102.14771881103516,-14.623446083068847,-3.423919439315796,-4.415563333034515,-0.9025391340255736,-0.2862644016742706,-0.3600473046302795,-141.02991333007813,63.78814010620117,106.22211456298828,104.70905374161988,1.075718263703385,16.932215070950125,1.0135179471714415,-112.3667007446289,21.189158630371093,208.36983337402344
2611.083,8.479209995269775,98.11423797607422,30.07804641723633,-0.7731406569480896,-0.3356720745563507,0.6916199326515198,-28.868088912963863,44.62529830932617,-103.24332275390626,-14.02380084991455,-5.778303623199463,-3.769412171840668,-0.9091311812400816,-0.2842829257249832,-0.3488827764987945,-141.0415771484375,63.82962341308594,106.53490447998048,102.99525564892504,1.0905756954065242,17.250096025434534,1.015334357127816,-112.17348823547364,19.204325103759764,209.77822723388672
2635.077,8.253369808197021,95.92164306640623,28.829055404663087,-0.7895473599433899,-0.3271442770957947,0.6788991928100586,-29.110654830932617,46.59140090942383,-104.37310638427736,-13.277516555786132,-9.772770166397097,-1.526920735836029,-0.9086798310279848,-0.2751297861337661,-0.3478810906410217,-141.01376647949218,63.96398696899414,106.87533264160156,100.5224925240686,1.0929338744907198,17.939707056914312,1.0119115021384122,-111.90311164855956,17.372586059570313,211.2484390258789
2656.608,5.781035351753234,93.62012481689452,26.89887046813965,-0.8180610299110412,-0.3150346755981445,0.6516883254051209,-29.45515556335449,48.49843215942383,-105.5574951171875,-13.718148803710935,-14.333355903625488,-0.6132735759019852,-0.9063082575798036,-0.2611242622137069,-0.3494079113006591,-140.91928100585938,64.18207626342773,107.29836883544922,97.64855672057328,1.0958503204973291,20.15667314874253,1.0064718986945724,-111.46412544250488,15.683644104003909,212.85586395263672
2678.291,3.234866166114807,90.53032836914062,24.51360054016113,-0.8562270402908325,-0.3190955698490142,0.6461647391319275,-29.911974716186524,50.320204162597655,-106.8025680541992,-16.40505180358887,-17.008481979370117,0.0092342585325241,-0.8978567719459534,-0.2581282466650009,-0.3570596992969512,-140.83397827148437,64.4426872253418,107.76826629638671,94.02748244564722,1.1220339768447125,23.75132809981328,1.0009600777230652,-110.92200355529783,14.12248306274414,214.57083435058595
2688.586,3.133981156349182,85.26039581298828,22.60482177734375,-0.8894763112068176,-0.3191882967948913,0.6270691752433777,-30.3988956451416,52.02813873291016,-108.06353912353516,-18.799746894836424,-17.531068992614745,0.5897957891225815,-0.8819966912269592,-0.265253922343254,-0.3685766577720641,-140.80021057128906,64.70502014160157,108.2274932861328,88.44700616312117,1.1357401079668326,25.9233425491331,0.9932583684130586,-110.40131492614746,12.676881408691404,216.291032409668
2711.179,2.057586789131165,78.64328231811524,20.40768051147461,-0.9236067533493042,-0.305597972869873,0.5894397318363189,-30.918291091918945,53.60664367675781,-109.32096557617189,-19.29105606079101,-17.674855041503907,1.342587384581566,-0.8751799583435058,-0.2787709176540374,-0.392026400566101,-140.79928588867188,64.96113891601563,108.65460510253908,81.43472072493725,1.139241192860826,26.42392722451705,0.999171024534492,-109.88099479675292,11.354495239257812,217.9755706787109
2730.992,-1.222137713432312,71.98638916015625,17.951604080200195,-0.9433642268180849,-0.3056921243667602,0.5740884006023407,-31.517523956298827,55.03815231323242,-110.5803939819336,-18.53578147888184,-15.810668182373046,1.355663213133812,-0.8811992168426513,-0.2813241243362426,-0.402316814661026,-140.83700866699218,65.182763671875,109.01849822998048,74.38629250250584,1.14761833704993,24.61115648158439,1.0090677503565135,-109.31948471069336,10.144611358642578,219.5988922119141
2753.616,-1.5699903964996338,64.03437728881836,15.82552261352539,-0.9548514008522032,-0.3226723790168762,0.5818263709545135,-32.10804405212402,56.29109497070313,-111.8058624267578,-16.844346237182616,-12.99918384552002,2.788892388343811,-0.8790725111961365,-0.2890824437141418,-0.4040905714035034,-140.9561767578125,65.37306060791016,109.25315856933594,66.16866474539854,1.1657038541297935,21.82674065075852,1.0100146748041046,-108.84813270568849,9.08196563720703,221.05902099609372
2776.177,0.3947001934051514,54.61007080078125,14.135672187805175,-0.9598575353622436,-0.3240555405616759,0.5493464529514313,-32.602498626708986,57.36309127807617,-112.94596405029296,-13.331626319885254,-10.600915145874025,4.815988302230835,-0.8742094874382019,-0.2960458040237426,-0.4065851807594299,-141.13192749023438,65.54549102783203,109.34660034179689,56.63473100910037,1.15373401495382,18.252405735172715,1.0087025769258386,-108.5294288635254,8.18239974975586,222.29256439208984
2798.443,-0.6953900933265686,45.45799789428711,11.802581310272217,-0.9723339200019836,-0.3237337529659271,0.5243372917175293,-33.06386795043945,58.255418395996095,-114.0071029663086,-8.896553492546081,-8.138143062591553,5.847767925262451,-0.8809704661369324,-0.2952087938785552,-0.4096011996269226,-141.32378845214845,65.69195709228515,109.32360229492188,47.14429641529576,1.1520869471675064,14.259944403679889,1.0154978466312652,-108.259920501709,7.4365386962890625,223.3307052612305
2808.524,-1.1848484396934509,36.15561923980713,9.447541522979735,-0.9750821828842164,-0.3459962725639343,0.533102935552597,-33.466314697265624,58.948622131347655,-114.97546844482422,-5.355048489570618,-4.967197179794312,6.5704668998718265,-0.8769588470458984,-0.2958830654621124,-0.406994891166687,-141.5529022216797,65.79614715576172,109.18007049560546,37.55150577484937,1.1645430092351463,11.619636652836084,1.0111929549181304,-108.08658752441406,6.847525024414063,224.1555389404297
2835.799,1.0152504086494445,25.51462497711181,7.403065490722656,-0.9778324007987976,-0.3563826024532318,0.5334801375865936,-33.70703125,59.43246688842773,-115.79756469726564,-1.6815198183059692,-1.8034703731536863,7.087931442260742,-0.8659784078598023,-0.2994012951850891,-0.4087565004825592,-141.80972595214843,65.85118255615234,108.9216796875,26.987804096351415,1.1700480904931645,10.729704826275931,1.003357286362205,-108.10269470214844,6.4187156677246096,224.71924438476563
2858.458,1.928872358798981,14.608588027954102,5.196923339366913,-0.978428041934967,-0.3554353475570678,0.5197935402393341,-33.80025939941406,59.71056900024414,-116.4602279663086,2.683126139640808,2.2859476566314703,6.497348403930664,-0.8714427590370178,-0.3065358519554138,-0.4075280666351318,-142.0589630126953,65.83350524902343,108.56914672851562,18.65088652784959,1.1637492226911483,11.66534768860664,1.0097622761296594,-108.25870361328126,6.122936248779298,225.0293746948242
2879.21,1.7130324482917785,4.456947898864746,2.658797538280487,-0.9708426356315611,-0.3638464868068695,0.5283522307872772,-33.783078002929685,59.782464599609376,-116.98394470214843,7.059616351127625,6.981927919387817,5.3308769226074215,-0.8828999161720276,-0.3083627700805664,-0.4009297251701355,-142.29633483886718,65.73235473632812,108.1275421142578,14.565318089851417,1.1640922518787216,13.398602586584945,1.0178041220756169,-108.5132568359375,5.94989013671875,225.11148681640623
2888.912,2.45321638584137,-5.400562477111817,0.043635070323944,-0.9582892179489136,-0.3681316792964935,0.545303225517273,-33.636366271972655,59.65085144042969,-117.37030181884764,10.782188177108765,10.7884925365448,4.578955936431885,-0.893352997303009,-0.296332362294197,-0.3878104150295257,-142.53237609863282,65.57375946044922,107.6071792602539,14.271507888153332,1.1627396562700612,16.600986649774384,1.0189722769263188,-108.89600982666016,5.922908020019531,224.97748107910155
2915.895,3.5801491737365723,-15.007524490356444,-3.129377090930938,-0.9497601389884948,-0.3676859557628631,0.5557656764984131,-33.376366424560544,59.320159912109375,-117.64490051269532,13.223448944091796,13.048275566101074,4.098936939239502,-0.9041242122650146,-0.281675636768341,-0.3778453409671783,-142.76424865722657,65.38566284179687,107.0403778076172,17.776110913391413,1.1606676866576264,19.20478993164018,1.0207416884011793,-109.38788223266602,6.0655029296875,224.6852783203125
2928.755,4.812119340896606,-24.164899826049805,-6.43909512758255,-0.9393062472343444,-0.3673159718513488,0.5740070819854737,-33.01797637939453,58.7943588256836,-117.8261962890625,14.7222318649292,14.22756404876709,3.825325679779053,-0.9116944193840026,-0.2774805784225463,-0.3698913037776946,-142.97831115722656,65.18313903808594,106.46372528076172,25.58237716473314,1.1610320617679586,20.863139812050527,1.023013243750712,-109.96033477783205,6.388780212402343,224.28992156982423
2950.82,6.455664396286011,-33.13492565155029,-9.650609874725342,-0.9297361493110656,-0.3620551526546477,0.5917625784873962,-32.56164703369141,58.08008041381836,-117.92020721435549,16.312519454956053,14.76969108581543,3.550802135467529,-0.912406075000763,-0.2718563795089721,-0.366140079498291,-143.15970764160156,64.97323913574219,105.89386444091797,35.14453335669213,1.1603384721582797,22.33325092143398,1.0205076840429932,-110.59806060791016,6.893158721923828,223.81407165527344
2973.302,7.297784519195557,-42.02231063842773,-12.796194362640382,-0.9260501146316528,-0.3507038831710815,0.6024932622909546,-32.03417739868164,57.18569717407227,-117.94454193115234,17.3966423034668,14.714846992492676,3.3865047454833985,-0.9097986221313475,-0.2624245345592498,-0.3664947688579559,-143.31495666503906,64.76570587158203,105.33501892089843,44.56163099685264,1.1593697062369732,23.105359520592877,1.015727190882699,-111.28077926635744,7.580008697509766,223.2795608520508
2989.398,7.837156677246094,-50.84540557861328,-16.112579536437988,-0.9250748753547668,-0.352827113866806,0.6217302799224853,-31.46492042541504,56.1068588256836,-117.92379608154296,17.960225296020507,14.176015090942382,3.2215704917907715,-0.9058139562606812,-0.2652363449335098,-0.3715464234352111,-143.43374938964843,64.56247100830078,104.80177307128906,53.96672108329092,1.1694482538619462,23.20500786376712,1.014601465780434,-111.9688289642334,8.455612182617188,222.72556915283204
3010.8100000000004,9.038023567199708,-59.60647277832031,-19.085198974609376,-0.9151923537254334,-0.3522137701511383,0.6370783090591431,-30.843796157836916,54.84860534667969,-117.85655975341795,19.24991569519043,13.976679039001464,2.8519922733306884,-0.9064042806625366,-0.2706522047519684,-0.3719536364078522,-143.4981903076172,64.35802764892578,104.29693450927736,63.29529773570611,1.1697965831640775,24.043376787117083,1.016621088273375,-112.65439414978027,9.509422302246094,222.1534942626953
3033.38,9.339855575561524,-67.8027847290039,-22.406067848205566,-0.9125530838966368,-0.3509462475776672,0.6525815486907959,-30.2172607421875,53.42023086547852,-117.77310028076172,20.019993209838866,14.31018943786621,2.565287971496582,-0.9140395641326904,-0.2628635406494141,-0.3676979124546051,-143.5455322265625,64.15267715454101,103.79396057128906,72.05573218144177,1.1760001687418993,24.77934103934696,1.019988381091017,-113.328271484375,10.7324462890625,221.5670608520508
3055.671,9.62588577270508,-75.75879669189453,-26.036524963378906,-0.9088061690330506,-0.3545297145843505,0.6699047088623047,-29.607014465332032,51.82220001220704,-117.68433227539064,18.19362487792969,13.600701141357424,3.273203468322754,-0.9152759313583374,-0.2517124503850937,-0.3674734115600586,-143.64158325195314,63.97258758544922,103.27918090820312,80.70332802948555,1.1838032101569316,23.163063078264425,1.0180533201445452,-114.0345687866211,12.150387573242188,220.96351318359376
3078.253,10.738334369659423,-83.504638671875,-29.494427108764647,-0.8994789242744445,-0.354533177614212,0.6861308217048645,-28.999874114990234,50.06035690307617,-117.6034439086914,16.416652488708497,12.344270706176758,4.218404388427734,-0.9153254389762878,-0.2519251555204391,-0.3707652747631073,-143.77120361328124,63.82384033203125,102.7662139892578,89.22229928058394,1.1857716698297125,21.255924154998876,1.0193901608493732,-114.771329498291,13.763483428955078,220.3696578979492
3088.38,11.432792282104492,-90.84326171875,-32.57319297790527,-0.8840273976325989,-0.351654827594757,0.7029920816421509,-28.40253982543945,48.14561386108399,-117.5146469116211,16.202689933776856,10.786162376403809,5.24841012954712,-0.9150995016098022,-0.2607850164175033,-0.3730917215347289,-143.89022521972657,63.70981369018555,102.268701171875,97.19713641271532,1.1835161965851415,20.677691523063192,1.0224571759126238,-115.48768539428713,15.564199829101565,219.7833480834961
3111.042,10.646820735931396,-97.82710876464844,-35.34414710998535,-0.8704894542694092,-0.3512194037437438,0.7195742726325989,-27.847436141967773,46.08864364624024,-117.40629730224607,16.92800693511963,8.614926958084107,6.638793325424194,-0.9150264501571655,-0.264101168513298,-0.3753163278102874,-143.98383483886718,63.64604721069336,101.7842544555664,104.59551354591504,1.1835339381853314,21.009122631596647,1.0240613158628349,-116.13639869689942,17.557403564453125,219.1905517578125
3133.33,9.433483123779297,-104.49798583984376,-37.52202529907227,-0.8473628759384155,-0.3509990274906158,0.7358414769172669,-27.33650360107422,43.89879531860352,-117.28806610107422,17.858584785461424,5.560578775405884,7.668683052062988,-0.9114196538925172,-0.2679448515176773,-0.3759645879268646,-144.01443786621093,63.64167861938476,101.351416015625,111.49454764408344,1.1769728676520863,21.20228514959893,1.0219508369134425,-116.67793426513671,19.74288330078125,218.6394821166992
3155.57,8.342023372650146,-110.43937072753906,-38.81469650268555,-0.8142036557197571,-0.3515591561794281,0.7506583571434021,-26.860595321655275,41.59496688842773,-117.05583801269532,20.442909812927248,1.5496123790740968,7.655274391174316,-0.913725209236145,-0.2771510541439056,-0.3706939995288849,-143.88365783691407,63.70169677734375,101.04200592041016,117.42110926717793,1.16310496480568,22.786913253165032,1.02450435814316,-117.0230625152588,22.10672988891601,218.09784393310548
3178.216,6.4759410381317135,-115.56481323242188,-39.56770629882813,-0.7831419825553894,-0.3526685833930969,0.7741050720214844,-26.43266448974609,39.19503707885743,-116.74425506591795,24.053466796875,-1.8440618991851807,7.073249769210816,-0.9195607542991638,-0.2814577996730804,-0.3602257430553436,-143.56975402832032,63.8133056640625,100.8595443725586,122.36303848245224,1.157313903025013,25.787686531918915,1.0271499432708908,-117.13708953857422,24.61826858520508,217.60379943847656
3189.453,4.128182458877563,-120.3475067138672,-40.203103637695314,-0.7452008128166199,-0.3551359713077545,0.7932429194450379,-26.06404266357422,36.70564651489258,-116.26243743896484,26.05939064025879,-4.552361154556275,6.544069528579712,-0.926394236087799,-0.2713101804256439,-0.3460288286209106,-143.13512268066407,63.97161636352539,100.7752685546875,127.0004221906116,1.1468288107565374,27.66460386434284,1.02577414600576,-117.07108001708984,27.26596984863281,217.03770599365237
3213.067,2.843313825130463,-124.44978942871094,-40.4233039855957,-0.7001586794853211,-0.3567929685115814,0.8066555500030518,-25.73374099731445,34.14196548461914,-115.5807113647461,26.07589454650879,-7.306116771697998,6.34008297920227,-0.9301099658012392,-0.2640808343887329,-0.3362756431102752,-142.62767639160157,64.17732315063476,100.78097839355468,130.9222641255927,1.1283298270684097,28.10465437539313,1.0240196111824775,-116.89393539428713,30.035357666015624,216.3616897583008
3235.779,2.5815667510032654,-128.04739990234376,-40.62607879638672,-0.6540388464927673,-0.362285566329956,0.8314324378967285,-25.42421760559082,31.50979232788086,-114.72442626953124,28.697270584106445,-9.427034473419187,6.427030992507935,-0.9332633733749388,-0.2646090865135193,-0.3245695948600768,-142.00953063964843,64.42149353027344,100.85216827392576,134.39527816539334,1.1209821872098784,30.998651976548377,1.023234073187466,-116.58531303405762,32.91170120239258,215.57659454345705
3255.567,1.120030438899994,-131.74978332519532,-40.959703826904295,-0.6095340728759766,-0.3626005113124846,0.8563850283622741,-25.158385467529296,28.80709609985352,-113.69945373535155,31.10504188537597,-9.49050235748291,7.032128572463989,-0.9382187724113464,-0.2568983972072601,-0.3008441060781478,-141.35132446289063,64.68513336181641,100.91553955078123,137.99721397881095,1.1147240731665904,33.42214086827752,1.018864514450986,-116.19293899536132,35.87803726196289,214.6149932861328
3277.918,-1.1330093502998353,-135.57233276367188,-41.455746459960935,-0.5619776487350464,-0.3624175310134886,0.8657328963279725,-24.956341552734376,26.033296966552733,-112.54419403076172,30.819926071166996,-9.31354513168335,8.084176635742187,-0.9388987183570862,-0.2389837682247161,-0.2912463933229446,-140.75022888183594,64.96639099121094,100.92525939941405,141.82300986151856,1.0956353122574571,33.32542026068846,1.012366865937393,-115.79388732910157,38.9330940246582,213.46945343017575
3298.023,-2.5747124791145324,-138.42674865722657,-42.33255462646484,-0.5108224749565125,-0.3711058735847473,0.8630171418190002,-24.812432861328126,23.20295639038086,-111.33169860839844,28.670085144042968,-9.64396905899048,8.583253765106202,-0.9390723824501036,-0.2371001690626143,-0.2810190826654434,-140.19287719726563,65.26078186035156,100.93097534179688,144.857315490413,1.0716516456232197,31.620617559352347,1.0091765590285746,-115.3804443359375,42.0578254699707,212.26267395019528
3308.074,-4.281478595733643,-140.60267944335936,-43.21075668334961,-0.4500204622745514,-0.3721195220947265,0.8708150625228882,-24.726624298095704,20.32127227783203,-110.09272918701171,27.4462589263916,-9.026219844818115,7.985616874694824,-0.9423116445541382,-0.238552501797676,-0.2648345530033111,-139.6407043457031,65.54147186279297,100.95264434814452,147.2374384981178,1.0520588525114491,30.139086990580893,1.0081288417133838,-114.91408004760744,45.22019958496094,211.04537353515624
3328.0660000000003,-6.996983814239502,-142.22305603027343,-44.13945541381836,-0.3838687896728515,-0.3849665820598602,0.8761757135391235,-24.724717712402345,17.396726036071776,-108.85208892822266,24.74186897277832,-8.860241413116455,7.249358463287353,-0.9539022088050844,-0.2363160222768782,-0.2427003324031829,-139.1031524658203,65.81865081787109,101.0166244506836,149.11859501533718,1.0373417125686049,27.46795347627171,1.0131832206589864,-114.37843475341796,48.42192478179932,209.86871337890625
3350.549,-7.559673738479614,-143.41830749511718,-44.6962028503418,-0.3200748711824416,-0.3955957949161529,0.8685019493103028,-24.764489364624023,14.44270133972168,-107.60569458007812,20.330570793151857,-9.943129634857176,6.9877534866333,-0.9571169018745422,-0.2357306033372878,-0.2325111657381057,-138.60210266113282,66.11058197021484,101.1371826171875,150.43307470799053,1.0127776297845663,24.030901059606062,1.0139643328728551,-113.8376132965088,51.667880630493165,208.7428771972656
3367.976,-8.633297395706176,-143.64920043945312,-44.94124221801758,-0.2544472068548202,-0.3942462563514709,0.8483561873435974,-24.852770233154292,11.47841796875,-106.3802276611328,16.937552070617677,-11.413959503173828,5.367051339149475,-0.9541341066360474,-0.2346233367919921,-0.2144449234008788,-138.05175170898437,66.40692596435547,101.38474578857422,150.7952395962455,0.972803651103968,21.59023921174157,1.00640529098067,-113.19898147583008,54.92850799560547,207.76497344970704
3390.557,-11.056046342849733,-143.24015197753906,-45.0119125366211,-0.1875139705836773,-0.3947850942611694,0.8432518601417541,-25.009236526489257,8.512842702865601,-105.21385040283204,14.118482971191408,-12.742485809326173,4.407242560386658,-0.9505627512931824,-0.2389771670103072,-0.2072541564702987,-137.4681823730469,66.706689453125,101.73131561279295,150.66807634140451,0.9528427855107786,20.566577488865544,1.00239607145004,-112.4589458465576,58.1938467502594,206.945166015625
3413.177,-13.636047124862673,-142.1855438232422,-44.87554550170898,-0.1263283986598253,-0.3952390611171722,0.8255772233009339,-25.24004554748535,5.562199461460114,-104.1191650390625,11.93297529220581,-14.486049270629882,4.64901750087738,-0.9500279426574708,-0.2369372636079788,-0.19528951048851,-136.86634826660156,67.03658142089844,102.14610443115234,149.87891691920854,0.927991436691144,20.358959425393625,0.99892062049894,-111.6263027191162,61.474381959438325,206.26526947021483
3435.279,-16.37985873222351,-140.36998596191407,-44.87329864501953,-0.0714293409138917,-0.3877110540866851,0.8000598549842834,-25.54444580078125,2.6445313572883604,-103.0423858642578,9.057407188415528,-16.676174545288085,4.857282519340515,-0.9427732706069948,-0.2330489933490752,-0.1919263511896133,-136.2482940673828,67.39767150878906,102.641064453125,148.48352990348195,0.8968242992873708,20.126233797663435,0.990480703092528,-110.70384826660155,64.7531401515007,205.6834503173828
3447.842,-18.82483825683594,-137.51587829589843,-44.71815032958985,-0.0201896745711565,-0.3930502593517303,0.7896687150001526,-25.9208251953125,-0.2196576952934265,-102.01349487304688,7.099627208709717,-20.191320991516115,4.448465800285339,-0.9498689293861388,-0.2322267770767211,-0.1834767311811446,-135.51216735839844,67.80191802978516,103.30467529296877,145.89446101147453,0.8862832667984926,22.302742496454798,0.995738296771435,-109.59134216308594,68.02157572507858,205.3181701660156
3470.335,-18.450918769836427,-134.21270446777345,-43.85934295654297,0.0249498378485441,-0.3942427337169647,0.7751436591148376,-26.313000869750976,-3.017539584636688,-100.98072662353516,5.313180017471313,-23.90675277709961,4.934470701217651,-0.9467995643615724,-0.2365360051393508,-0.1893308937549591,-134.679150390625,68.25288238525391,104.108984375,142.46482315491653,0.8714142110817067,25.246561112351763,0.9950046888773328,-108.36614952087402,71.27042196989059,205.0897109985351
3492.865,-20.311081886291504,-130.2877639770508,-42.74576950073242,0.0555920187383889,-0.3761423766613007,0.7620086550712586,-26.74937286376953,-5.725685632228851,-99.94452819824218,4.796236276626587,-25.97208442687988,4.444522649049759,-0.9486555457115172,-0.2348847419023513,-0.1955474525690078,-133.75238342285155,68.71537017822266,105.0244125366211,138.79763046755951,0.8525162318656265,27.15502217828684,0.997823889647542,-107.00301055908206,74.4410558104515,204.96894073486328
3517.491,-23.28304042816162,-125.38872528076172,-41.69818649291992,0.0902626693248748,-0.3817115902900695,0.7408873319625855,-27.268501663208006,-8.332248163223266,-98.91146087646484,3.1924511551857,-25.983716583251955,2.9266198694705965,-0.9439882159233092,-0.2320345669984817,-0.2111198216676712,-132.8087188720703,69.14237060546876,105.99256896972656,134.56486131921272,0.8410061312203678,26.644189273010205,0.9961247426571038,-105.54021720886232,77.47461876869201,204.9040298461914
3537.829,-24.853882026672363,-119.58805847167967,-39.567081451416016,0.119866070151329,-0.3744475126266479,0.7235053658485413,-27.83259162902832,-10.8084397315979,-97.87211151123049,1.2884611487388613,-23.40122547149658,2.399729734659195,-0.9430924773216248,-0.2350589364767073,-0.2270113557577132,-131.9860107421875,69.51255340576172,106.86795196533204,128.87559610628892,0.8264843002397722,23.8122623487748,0.9993266433560202,-104.1534191131592,80.32099313735962,204.7400634765625
3547.8010000000004,-27.363962745666505,-112.62703247070311,-37.65514373779297,0.1645896345376968,-0.3663845479488373,0.6892782092094422,-28.46253929138184,-13.149613571166991,-96.90914459228516,0.6417829394340517,-18.73307218551636,2.5378297865390778,-0.9325380682945252,-0.2403417497873305,-0.2528857618570327,-131.3732879638672,69.80228881835937,107.52827606201171,122.2698186739545,0.8026511060343872,19.484488587459406,0.9958620898612224,-102.91074867248535,82.95190238952637,204.4374206542969
3570.264,-30.848428344726564,-103.94953308105468,-35.75443801879883,0.2066154062747955,-0.3747142970561981,0.6667758584022522,-29.181160736083985,-15.326730537414551,-95.9718032836914,1.5963545203208924,-13.06180534362793,3.248784452676773,-0.9361599087715148,-0.245215144753456,-0.258321252465248,-130.98521423339844,70.0190200805664,107.92145690917968,114.21244004131184,0.7975734147902068,15.057204849589894,1.001727560089373,-101.80405349731446,85.34575061798095,203.89326019287108
3594.557,-30.96060943603516,-93.88868713378906,-33.02896957397461,0.2514685183763504,-0.3857347786426544,0.6319066524505615,-29.92113494873047,-17.31323986053467,-95.0590591430664,2.765707623958588,-7.643215227127075,4.142963910102845,-0.9298311352729798,-0.2450465351343154,-0.2578269690275191,-130.8239715576172,70.17360382080078,108.04145965576171,104.31289722933212,0.7851953750273347,11.531108630678268,0.995664210816082,-100.90283660888672,87.48684368133544,203.1005187988281
3612.968,-30.15711479187012,-82.7640869140625,-29.910981750488283,0.2827566921710968,-0.3876823246479034,0.6148848414421082,-30.64552917480469,-19.07759704589844,-94.18824615478516,4.400373005867005,-3.806670379638672,4.852774667739868,-0.9240256547927856,-0.249906262755394,-0.255653041601181,-130.80563354492188,70.2844955444336,107.96709289550782,93.28737943009033,0.7832050696749866,9.68595506893183,0.9908814799436108,-100.16010437011718,89.36209259033203,202.15533905029295
3635.669,-28.46713638305664,-70.81482696533203,-26.246639251708984,0.3143530130386352,-0.3971228241920471,0.5848983764648438,-31.342752838134764,-20.604941177368165,-93.36783752441406,5.908933019638061,-1.616702175140381,4.570109605789185,-0.9134545922279358,-0.2534554421901703,-0.2582214146852493,-130.83819274902345,70.35680236816407,107.80282135009766,80.970279452805,0.7745854654462019,9.012841367653431,0.9826096119515288,-99.49543991088868,90.96174354553224,201.17065887451173
3655.651,-26.714474487304688,-58.04174423217773,-21.612069511413573,0.324275940656662,-0.3958180785179138,0.5707173466682434,-31.996872329711916,-21.85884819030762,-92.60030212402344,5.979839253425598,0.5734426975250244,3.183152747154236,-0.9063059091567992,-0.2526108503341674,-0.2571640580892563,-130.9104797363281,70.37794342041016,107.59078674316405,67.65776757774503,0.7669036028764282,7.776786561018836,0.9754832850415498,-98.9136074066162,92.23679161071776,200.1910888671875
3677.936,-24.89524269104004,-45.22370872497559,-16.458371543884276,0.3369810819625854,-0.3999127328395843,0.5596260070800781,-32.60816688537598,-22.837675476074217,-91.88269500732422,3.854288172721863,3.1640288829803467,0.7696835279464723,-0.8939293026924133,-0.2612504363059997,-0.2644064337015152,-131.04473266601562,70.31955108642578,107.36012420654296,54.526277850210725,0.766205814905202,7.553238028065815,0.9683719703519216,-98.43656578063964,93.1572265625,199.2428192138672
3697.891,-24.13731117248535,-32.16159906387329,-10.437351369857788,0.3426237642765045,-0.4012395918369293,0.553604531288147,-33.19291381835937,-23.526324462890624,-91.2129150390625,2.032222986221313,5.258773612976074,-2.006668972969055,-0.8806590795516968,-0.2630235552787781,-0.2738704711198806,-131.20907897949218,70.18501586914063,107.13837890624998,43.700628410238735,0.7649523178649067,8.525825451994839,0.9594709224203376,-98.01616516113282,93.71134033203126,198.3512939453125
3707.872,-23.384752655029292,-19.36909885406494,-4.385311651229858,0.3515335083007812,-0.3983853459358215,0.5534173727035523,-33.74231109619141,-23.93396110534668,-90.5893783569336,1.0370657444000244,6.313553953170777,-4.124313473701477,-0.8761237144470215,-0.2641555547714233,-0.2835364997386932,-131.36786499023438,70.00106201171874,106.94736785888672,35.78379893891743,0.7673762292427623,9.084506300701392,0.9582855272412392,-97.62555389404297,93.93502311706544,197.5367462158203
3727.852,-21.92313613891601,-6.718866539001465,1.6924948215484616,0.3615262508392334,-0.4057830512523651,0.545589292049408,-34.25000839233398,-24.066962432861327,-90.00714874267578,0.0137977600097656,6.647464179992676,-5.1500332117080685,-0.8777205109596252,-0.2638731956481933,-0.2881914556026458,-131.52626037597656,69.79783935546875,106.7840103149414,30.68009772413442,0.770770581332443,8.788328197992499,0.9609943355467576,-97.27625198364258,93.86480178833008,196.7911590576172
3750.102,-20.002914428710938,6.1718561172485344,7.551377534866333,0.3707226574420929,-0.4099588751792907,0.5329958438873291,-34.70247955322266,-23.92916946411133,-89.4816177368164,0.0285357236862182,6.4577006816864015,-5.431996011734009,-0.8716675162315368,-0.2600829571485519,-0.2892508566379547,-131.66898498535156,69.59461517333985,106.64219360351562,30.244637706932632,0.7683909944263128,8.71593956103661,0.9546990849806924,-96.96650543212893,93.52378463745116,196.12381134033205
3768.476,-18.78302154541016,19.21451091766357,12.414705324172974,0.3784107744693756,-0.4195670843124389,0.5436718821525574,-35.09721298217774,-23.523994827270503,-89.04090881347656,1.277850365638733,5.063545727729798,-4.610323095321656,-0.876570749282837,-0.2546825110912322,-0.2806434631347656,-131.751611328125,69.43058166503906,106.53846893310546,34.68231259212183,0.7846384482395997,7.393006411751843,0.9552770588024148,-96.65439834594729,92.95457649230956,195.57937774658205
3790.169,-14.75058708190918,31.317520427703855,17.067044067382813,0.3881217956542969,-0.4361436963081359,0.5407400012016297,-35.38570098876953,-22.866758728027342,-88.68553314208984,2.1382493495941164,2.434176802635193,-3.289520120620728,-0.8891809940338135,-0.2492790669202804,-0.2648352324962616,-131.74333801269532,69.33375549316406,106.51407928466796,41.443863894001446,0.7963846662008927,5.480135888461372,0.9610679548939696,-96.35763702392578,92.2005142211914,195.19961242675785
3812.733,-9.111644458770751,42.69640846252442,21.77678337097168,0.378421926498413,-0.4495777845382689,0.5432656168937683,-35.544508361816405,-21.968346405029298,-88.4051742553711,1.7456697940826416,-0.4026065111160278,-1.850523006916046,-0.8971336603164672,-0.2475878745317459,-0.2489881753921508,-131.66350708007812,69.30507202148438,106.57187042236328,49.70033918983904,0.8011582102541833,4.7238767797023895,0.9638471475725426,-96.11899871826172,91.27341842651369,194.9770446777344
3829.315,-3.3706387519836425,52.89914093017578,25.99938201904297,0.3660026311874389,-0.4568441808223723,0.5558448791503906,-35.568304443359374,-20.85259666442871,-88.20040283203124,1.5753679752349854,-2.6563665151596068,-1.0244831204414369,-0.8974443674087524,-0.2491937011480331,-0.236269474029541,-131.5097900390625,69.322705078125,106.70737915039062,59.881748184221706,0.8083267898753785,5.271208290728971,0.9612469039100564,-95.94148559570311,90.17530174255371,194.90778198242188
3850.049,1.428404903411865,62.18640670776367,30.41109085083008,0.3478296637535095,-0.4568003833293915,0.5596129536628723,-35.48536987304688,-19.53258934020996,-88.06050262451171,1.7926502704620362,-4.664688944816589,-1.3257668137550354,-0.9071166157722472,-0.2505583882331847,-0.2249376058578491,-131.24660034179686,69.36748504638672,106.95133972167967,70.07765369029741,0.8027783018141156,6.288902635834272,0.9677711215202172,-95.76123046875,88.90007438659669,195.0118423461914
3872.737,3.284173107147217,70.90422439575195,34.482424926757815,0.3209114611148834,-0.4545292615890502,0.5734734296798706,-35.35512237548828,-18.016671562194823,-87.95573120117187,1.5125981092453002,-6.161614847183228,-3.5164731621742247,-0.9131927132606508,-0.248067957162857,-0.2179268687963485,-130.85020141601564,69.4025634765625,107.3420913696289,79.36891792053083,0.8014204139553032,8.314342127519621,0.9711529748834647,-95.49507904052734,87.41923503875732,195.2978225708008
3895.326,5.4045990943908695,78.74656372070312,38.0980712890625,0.2874195039272308,-0.4789780616760254,0.6131771802902222,-35.18592758178711,-16.324186325073242,-87.88890075683594,0.2237488508224487,-6.547985553741455,-5.087977087497711,-0.9270872473716736,-0.2451594620943069,-0.2074216157197951,-130.4042175292969,69.42498016357422,107.8111557006836,87.94545218331552,0.8321983589053895,9.734379100297318,0.9815817230276338,-95.21828994750976,85.74916648864746,195.70005645751957
3918.635,12.511421394348144,85.14877014160156,42.33292922973633,0.2520036071538925,-0.4890205681324005,0.6159147500991822,-34.881979370117186,-14.469327163696288,-87.82001953125,-1.8753675699234005,-5.767767286300659,-5.934811687469482,-0.928810453414917,-0.2502414315938949,-0.2088909119367599,-130.0026824951172,69.42102355957032,108.27742309570311,96.72191920529636,0.8296238176271071,10.577448936427976,0.9848847341529232,-95.120703125,83.89035072326661,196.09744262695312
3927.956,15.336865425109863,91.48531494140624,45.8202262878418,0.2137188345193862,-0.458612024784088,0.6223689198493958,-34.51117858886719,-12.464028739929198,-87.75403900146485,-2.444558978080749,-4.679207611083984,-8.363395357131958,-0.9365195155143736,-0.250274297595024,-0.2043111979961395,-129.57295837402344,69.36811828613281,108.786083984375,104.37148454689624,0.8066248872455859,11.399828286680172,0.9911409804030896,-95.06177978515623,81.83214702606202,196.54012298583984
3950.414,11.967514371871948,98.80616607666016,47.92355499267578,0.1806539624929427,-0.4702849328517914,0.6587114691734314,-34.20707473754883,-10.303450107574465,-87.72195587158203,-3.5392819166183465,-1.848799991607666,-11.155319023132323,-0.9459701657295227,-0.2497445195913314,-0.1987866461277007,-129.18789978027343,69.23961486816407,109.27022705078124,111.68231925978311,0.8328616598343143,13.459256187957678,0.9988559497176638,-94.9808250427246,79.54306497573853,196.99218292236327
3972.308,16.455741834640502,104.2349380493164,50.47892761230469,0.1302622428862377,-0.5207918047904968,0.6985412478446961,-33.84004516601563,-8.008630609512329,-87.6827178955078,-5.390652847290039,1.351407527923584,-10.143384552001953,-0.9561959743499756,-0.2478919297456741,-0.1876024454832076,-128.99786682128905,69.09340362548828,109.58470458984377,117.93775940460868,0.8870269240443894,13.548038238726251,1.0060618261397958,-95.15782165527344,77.10203423500062,197.2674224853516
3992.747,28.664902257919312,107.36011962890623,53.71559829711914,0.0862668639747425,-0.4977332234382629,0.6891438961029053,-33.24061050415039,-5.620531415939331,-87.61173248291016,-7.159448528289795,2.8680280208587647,-8.009695613384247,-0.9408352017402648,-0.2554136425256729,-0.1947674125432967,-128.97844543457032,68.95382537841797,109.75477752685546,125.3442063005002,0.8600955703646921,13.75974408016025,0.9946932926488083,-95.73783493041992,74.5743567943573,197.3665100097656
4013.643,28.62087302207947,111.43106842041016,54.51323623657227,0.0425876325694844,-0.4466286063194274,0.7105995774269104,-32.64409561157227,-3.152054142951965,-87.55127563476563,-5.876181602478027,4.64020938873291,-9.33632162809372,-0.9448352813720704,-0.2565881460905075,-0.1857192814350128,-128.95133361816406,68.77606658935547,109.90462951660156,129.1539858011536,0.8495640400555537,14.15270083432091,0.9969745606602934,-96.3072380065918,71.92812073230743,197.4559051513672
4035.269,21.81620917320252,116.7339645385742,55.12868118286133,-0.0063516640337184,-0.481374180316925,0.739592456817627,-32.211219787597656,-0.5743573427200317,-87.53006286621094,-8.403119468688965,8.677712965011597,-12.59101198911667,-0.9484257102012634,-0.2665156096220016,-0.1790151864290237,-129.01651000976562,68.49768829345703,110.00718841552734,133.61475758478238,0.8905152377523742,19.09193956723551,1.0020069921964747,-96.80529022216795,69.07204563617707,197.53725128173824
4054.93,25.74351234436035,118.55974426269532,57.68184204101563,-0.0741250300081446,-0.5210376381874084,0.7788599252700805,-31.72418098449707,2.0765554189682005,-87.49877014160157,-12.109882068634032,9.9593234539032,-12.16496809720993,-0.9454958438873292,-0.2746857613325119,-0.1686785906553268,-129.1986083984375,68.21228485107422,110.06080017089845,136.5498364947927,0.947979174566792,21.23684403026753,0.999760060297018,-97.47442741394045,66.13572943210602,197.5595703125
4078.29,32.47813339233399,118.57832946777344,60.7338150024414,-0.1095018997788429,-0.4699675679206848,0.7762643694877625,-31.089863967895507,4.757021832466125,-87.41473693847657,-14.807446384429932,8.378413820266724,-13.898547542095184,-0.9308031916618348,-0.2999695301055908,-0.1786556512117385,-129.30568237304686,67.90623168945312,110.25218658447264,139.6886744670002,0.9211802500059536,23.65967161124345,0.995175944057238,-98.21581840515135,63.149209856987,197.6669235229492
4088.351,26.78919830322265,120.8533462524414,61.04917602539062,-0.1631414204835891,-0.4489925563335418,0.7917725920677186,-30.56649398803711,7.488252854347229,-87.37256927490235,-13.087624835968018,7.644851708412171,-19.100801086425783,-0.9421557784080504,-0.3074326932430267,-0.1837195068597793,-129.19422302246093,67.5292953491211,110.64312744140624,139.64364044107418,0.9317676866331116,26.29357729084557,1.0089945961882134,-98.62772903442384,60.04104249477386,198.01569671630855
4110.134,21.217899799346924,122.6780517578125,61.53607330322266,-0.2154168009757995,-0.4701563894748687,0.8358995914459229,-30.161836624145508,10.259177207946776,-87.33812561035157,-13.807006931304931,7.475767254829407,-21.71371021270752,-0.9460228323936464,-0.299642053246498,-0.1855781555175781,-129.03160095214844,67.1206069946289,111.11000213623046,140.57900549532843,0.9900756135547384,28.8475838584526,1.0109649868794983,-98.86976432800294,56.86142978668213,198.44812774658203
4128.383000000001,25.16479444503784,121.62078857421876,61.6811882019043,-0.2741122156381607,-0.4817129194736481,0.8696582794189454,-29.68718376159668,13.015599632263184,-87.31824340820313,-15.223720264434814,5.413257908821106,-19.46685962677002,-0.9370209693908692,-0.282901331782341,-0.1897359907627105,-128.91575622558594,66.78053436279296,111.56363983154296,139.75756137852258,1.0373642448977447,27.376817751753062,0.9985688630052072,-99.22857246398924,53.76493473052979,198.8818832397461
4149.977,28.168053340911865,119.98050231933594,60.93124847412109,-0.3289792388677597,-0.4259427130222321,0.8406049013137817,-29.14264869689941,15.73399028778076,-87.33867034912109,-16.728991794586182,4.293130040168762,-19.710648345947263,-0.9185393810272215,-0.2750825434923172,-0.2099871098995208,-128.817236328125,66.44683380126953,112.03736419677736,138.51329150300967,1.0052111492412297,28.33533051970852,0.9828975823856616,-99.6745876312256,50.71284351348877,199.37603454589845
4167.634999999999,21.0462420463562,120.7953857421875,57.8995475769043,-0.3910731375217437,-0.4080043196678161,0.826680064201355,-28.759944915771484,18.439918327331544,-87.48025665283203,-19.202583026885986,5.66925585269928,-20.81045837402344,-0.91690890789032,-0.2833130270242691,-0.2269616961479186,-128.8051971435547,66.07277374267578,112.46976470947266,136.0811810354627,1.008200198128489,31.175472453065208,0.9887717202567692,-100.0452522277832,47.63285541534424,199.95002136230468
4190.764,14.391666841506956,121.5215591430664,55.90273208618164,-0.4243887841701507,-0.4149258375167847,0.8333559393882751,-28.532383346557616,21.13198051452637,-87.7349639892578,-22.895682048797607,6.668266868591308,-20.15345573425293,-0.9195314288139343,-0.2985148578882217,-0.230712330341339,-128.92167053222656,65.69380950927734,112.83733978271484,134.94370383454435,1.0289449810973523,32.354584202172155,0.9969084879551634,-100.38928718566896,44.561828994750975,200.57230377197268
4213.515,14.829987478256225,121.61615905761718,54.63885269165039,-0.4553822636604309,-0.4331409156322479,0.821657907962799,-28.321331787109376,23.807441329956056,-88.10942687988282,-22.51243667602539,6.49681510925293,-17.045895385742188,-0.9250724911689758,-0.3058350920677185,-0.2279518604278564,-129.10504150390625,65.36830596923828,113.12266693115234,134.55412481178686,1.0376823224517058,29.36109627967671,1.0035610490184197,-100.78370971679688,41.56086463928223,201.2320938110352
4227.671,16.029872846603393,122.14912567138671,53.47467575073242,-0.4775182902812958,-0.3965659737586975,0.794669759273529,-28.09874610900879,26.475038528442383,-88.60878448486328,-20.524148559570317,5.767843627929688,-14.674065780639648,-0.922218942642212,-0.3043327808380126,-0.2260272592306136,-129.2864959716797,65.08794860839843,113.36710510253906,134.72638929110946,1.0093233778527808,26.398146989352085,1.0001164229352306,-101.18774986267093,38.61291007995605,201.9758895874024
4250.307000000001,11.542992734909058,124.33421478271484,51.307708740234375,-0.4947758972644805,-0.3719936549663544,0.7689992785453796,-27.99525413513184,29.16129837036133,-89.22286071777344,-19.58805809020996,4.460473203659058,-12.607450485229492,-0.9371246576309205,-0.3047496438026428,-0.2213316679000854,-129.45501098632812,64.86358795166015,113.60525817871094,135.139945558294,0.9916128232933682,24.59196710699216,1.0130903315901534,-101.45975685119627,35.70228958129883,202.8281188964844
4272.279,5.678916692733765,126.7942108154297,49.93440933227539,-0.5415040552616119,-0.3750998616218567,0.7532654523849487,-28.056049728393557,31.883945846557616,-89.98579864501953,-18.928177261352538,2.5417841553688048,-10.5511962890625,-0.9495695233345032,-0.2945156753063201,-0.2037451595067977,-129.5935791015625,64.71043853759765,113.86145324707032,136.81412348386817,1.0095267200805838,22.89901594558675,1.0163067746742271,-101.53752937316897,32.82649269104004,203.84725189208984
4294.755999999999,3.568048095703125,127.75462036132812,48.79503860473633,-0.6066616356372834,-0.3768700122833252,0.7362234234809876,-28.209159469604494,34.6188461303711,-90.8434799194336,-20.150780868530276,1.85942884683609,-8.127924537658691,-0.929640257358551,-0.2792346835136413,-0.211164429783821,-129.8191375732422,64.60397186279297,114.05549011230468,137.32779375125088,1.0349600320033356,22.55622754674074,0.9952185448983296,-101.6099781036377,29.985125732421874,204.8989700317383
4317.45,0.1250597953796393,128.28405151367187,47.73867645263672,-0.670046865940094,-0.3413662850856781,0.6889599084854126,-28.472320556640625,37.37011947631836,-91.80971221923828,-25.402032470703126,1.0531989961862565,-7.595227909088135,-0.9078260779380798,-0.2783587396144867,-0.2327324181795119,-130.15752563476562,64.50601348876953,114.24476318359376,137.40708168739266,1.026628190690876,26.69513277032528,0.9794658797957284,-101.685205078125,27.13589401245117,206.05447540283205
4327.742,-6.575172328948975,129.0570068359375,45.47538757324219,-0.7345706224441528,-0.3317880272865295,0.6593491435050964,-28.954970169067384,40.1201171875,-92.89744415283204,-31.12464027404785,-0.9591742604970932,-7.899753093719482,-0.9149476885795592,-0.2906095206737518,-0.2531086385250091,-130.54456176757813,64.42501678466797,114.50696411132812,137.29179147413288,1.0435094551086443,32.320721919309726,0.9940691647484132,-101.58959159851074,24.30489959716797,207.40440826416017
4349.909000000001,-11.625346660614014,129.6770263671875,43.07836608886719,-0.792173969745636,-0.3491447329521179,0.6648571133613587,-29.64888229370117,42.8506721496582,-94.133642578125,-35.227864837646486,-2.9326008409261703,-7.012645983695984,-0.9119743585586548,-0.2920012593269348,-0.2690383404493331,-130.9871856689453,64.37778778076172,114.79789428710936,137.25177520450265,1.0931435373438276,36.45448392191897,0.9956776464755104,-101.33830337524414,21.52711563110352,208.9315368652344
4371.218,-10.20014238357544,127.67269744873047,40.24173583984375,-0.8440836906433106,-0.3542157053947449,0.6705798745155335,-30.41812171936035,45.50145797729492,-95.49981842041016,-38.717839050292966,-3.5145129412412643,-3.814407992362976,-0.8927403926849365,-0.2874192714691161,-0.2917601704597473,-131.59112854003905,64.37671966552735,114.9882034301758,134.40131136539458,1.136286049272378,39.6485449811218,0.9827522595484446,-101.17300682067872,18.875261688232424,210.48802185058597
4394.281999999999,-8.514735698699951,123.31897277832032,37.56225509643555,-0.891891610622406,-0.3340167164802551,0.6285754859447479,-31.23536338806152,48.04231948852539,-96.9529266357422,-42.04298171997071,-4.810492727160454,0.2520951509475708,-0.8706795334815979,-0.3048458814620971,-0.3207942962646484,-132.3281036376953,64.45149993896484,115.10032196044922,129.38472240388165,1.1446918042423626,42.89826985510519,0.9811754741966514,-101.0927402496338,16.409180450439457,212.0532485961914
4415.35,-9.76637077331543,117.53360443115234,34.51574058532715,-0.9397698879241944,-0.3284435749053955,0.587866461277008,-32.165367889404294,50.43711547851562,-98.49710845947266,-40.722265625,-6.207471990585328,2.768158745765686,-0.8571723341941834,-0.3307114899158477,-0.3560126245021819,-133.0583709716797,64.57940063476562,115.1853286743164,123.06347520424136,1.1630635166840075,41.77502131523848,0.9914864194733624,-100.89300308227538,14.14228515625,213.68243713378905
4437.379,-11.09235668182373,110.65695190429688,32.57552375793457,-0.9776748538017273,-0.3271660625934601,0.5701882123947144,-33.17582550048828,52.67945022583008,-100.0837173461914,-36.38725624084473,-6.487299489974975,4.753880143165588,-0.8478957772254944,-0.3453421950340271,-0.3812587559223175,-133.7544372558594,64.72381896972657,115.2103500366211,116.21517460311406,1.1835938192644584,37.61731197015243,0.9962678749317336,-100.57861175537109,12.044368743896486,215.2940673828125
4448.182,-9.748056602478028,100.89796142578123,30.422613525390624,-1.0170110225677491,-0.3377107203006744,0.5647110104560852,-34.17404556274414,54.71392822265625,-101.6609664916992,-32.22809066772461,-4.285826826095581,7.44211311340332,-0.8386572599411011,-0.3541313290596008,-0.4024746835231781,-134.5219970703125,64.8616714477539,115.06676330566408,106.1617003479993,1.2150816731903766,33.84509868217425,0.997747293164033,-100.34795150756835,10.147743225097656,216.72772979736328
4470.246999999999,-8.071971321105957,89.52010040283203,29.013916397094725,-1.0303533315658568,-0.3339996516704559,0.528803038597107,-35.09114151000976,56.5315544128418,-103.1540756225586,-27.969537353515623,-2.6988469123840333,9.774370193481444,-0.8379947543144226,-0.3613351941108703,-0.4256028831005096,-135.3313720703125,65.00412292480469,114.78721923828124,94.88706899652792,1.2070362973562918,30.540594380956,1.0084006653365756,-100.24023056030272,8.47256851196289,217.94129486083983
4498.536999999999,-8.471914958953857,78.66172637939454,27.13793601989746,-1.0407176971435548,-0.3385921776294708,0.5127972722053528,-35.959661865234374,58.14069900512696,-104.56055450439452,-22.28326568603516,-0.088774299621582,10.126712989807128,-0.863228189945221,-0.3685604095458984,-0.4298652291297912,-136.11939697265626,65.10738983154297,114.40799407958984,84.04097201928121,1.2112189694830802,25.6256264730299,1.0334954612391984,-100.15973510742188,6.966690826416016,218.9685485839844
4517.338,-6.844917869567871,67.86667556762696,25.308411407470704,-1.0372184276580811,-0.3532879769802093,0.5226765215396881,-36.70781478881836,59.53794860839844,-105.84952392578126,-18.81735315322876,3.4652341842651366,10.42128849029541,-0.8860306978225708,-0.3537400901317596,-0.4209804534912109,-136.96181640625,65.15211639404296,113.89059143066406,73.18333058534913,1.215812706986037,23.33356141515662,1.043673734141625,-100.25400161743164,5.614167785644531,219.7401153564453
4529.274,-2.680509448051452,56.0634994506836,22.78208694458008,-1.0360306262969972,-0.369868677854538,0.5245095670223237,-37.266788482666016,60.69286575317383,-107.00072174072264,-16.762517833709715,7.083937549591065,11.626126289367676,-0.8903971433639526,-0.3313511341810226,-0.4180679619312286,-137.91859130859376,65.16730346679688,113.20054321289062,60.77108106647354,1.220759670716257,22.547265599860904,1.0397519373403492,-100.65180282592772,4.474437713623047,220.20126495361328
4550.971,0.967935490608216,44.60552825927734,19.92814922332764,-1.0259369134902954,-0.3700733065605163,0.5069234311580658,-37.63198318481445,61.62002182006836,-108.0014404296875,-13.91219720840454,9.103151607513428,11.944626998901366,-0.8959542989730835,-0.3321980267763137,-0.4193921387195587,-138.87774353027345,65.15249481201172,112.44172668457033,49.23364762231325,1.2043569832951715,21.28046578486721,1.0453587571914604,-101.245760345459,3.5324729919433597,220.44316711425785
4567.298,2.1959075212478645,34.10139503479004,16.47942352294922,-1.0135174870491028,-0.3776538431644439,0.4996939480304718,-37.86645278930664,62.32634048461914,-108.87244415283205,-8.593153268098831,10.380296897888185,11.043896102905274,-0.9099052309989928,-0.3385776489973068,-0.4136121809482574,-139.71954040527345,65.09796905517578,111.69039764404296,38.762056200910855,1.193122878599331,18.23643089982461,1.057085969014736,-101.8530876159668,2.771628570556641,220.562841796875
4590.083,3.530331254005433,23.905418968200685,13.112520885467529,-1.00209881067276,-0.3872972786426544,0.5231515526771545,-37.94119873046875,62.81029434204102,-109.58909454345704,-1.9288523495197296,10.81902313232422,11.303568267822266,-0.91521977186203,-0.3328056663274765,-0.4012681007385253,-140.4340393066406,65.03028564453125,110.9302536010742,28.91599265670597,1.195519231634567,18.619151538434352,1.054464127958988,-102.49284057617189,2.2199913024902345,220.51934814453125
4611.854,5.271161770820618,13.038665199279786,9.377832221984864,-1.0022369265556337,-0.4034643709659576,0.5350144028663635,-37.84758682250977,63.06465148925781,-110.15191345214843,4.569943064451218,11.0081974029541,12.058718872070312,-0.9103221774101258,-0.3228519409894943,-0.3964093565940856,-141.04403076171874,64.97022399902343,110.14479064941406,20.68600207245142,1.2057802088219682,21.61799165371781,1.0454119609604935,-103.196443939209,1.905572509765625,220.2967041015625
4628.817,6.544942855834961,1.7014196395874024,5.905129647254944,-1.0033562302589416,-0.3989231109619141,0.5362822532653808,-37.56466598510743,63.09601593017578,-110.52827911376951,10.29869539141655,11.098333549499513,11.93661060333252,-0.9133049726486206,-0.3235092341899871,-0.3935284793376922,-141.5260223388672,64.90643005371093,109.37677459716797,17.28649628852217,1.2058030598929832,22.901559683899045,1.0471631736312454,-103.96135635375975,1.8104141235351563,219.9050537109375
4650.392,6.481119155883789,-9.681766700744628,2.1963197946548463,-1.0024959921836851,-0.3964645743370056,0.5424773216247558,-37.13101425170898,62.89965591430664,-110.73204193115234,14.760618609189986,10.898745155334472,10.5037335395813,-0.9195050477981568,-0.3182918548583984,-0.3891066610813141,-141.8598663330078,64.83111572265625,108.67205505371092,18.762439770344407,1.2070953857780542,22.317112486272052,1.04948568625421,-104.72885208129884,1.9314598083496093,219.4040969848633
4671.942,6.292594146728517,-20.847398948669436,-1.372782301902771,-1.0024561047554017,-0.3903122186660767,0.5545360088348389,-36.55647201538086,62.4805404663086,-110.77242431640624,17.155022430419923,10.781399345397949,8.950092124938966,-0.9250226974487304,-0.3033162295818328,-0.3841836750507355,-142.09601135253905,64.74548645019532,108.0229263305664,24.349461204143893,1.210426560911144,22.37607553546564,1.0476096393918797,-105.5395393371582,2.2649459838867188,218.79535064697265
4694.617,5.813299083709717,-32.03561172485352,-5.18982207775116,-1.000651752948761,-0.3870292842388153,0.5689221262931824,-35.87424545288086,61.83378295898437,-110.67612457275388,17.972958755493163,10.41192855834961,7.0075360298156735,-0.9265175342559816,-0.292479246854782,-0.3825729310512542,-142.24632873535157,64.64597778320312,107.45283813476564,33.419754047902046,1.2146921141458995,22.201760701024128,1.044586686730777,-106.3720832824707,2.81219482421875,218.12896270751952
4716.145,5.480166673660279,-42.92160987854004,-8.91014630794525,-0.9942654728889464,-0.3816047847270966,0.5815635442733764,-35.10624618530274,60.96573562622071,-110.4665069580078,18.930992126464844,9.9084077835083,4.902378678321838,-0.927063262462616,-0.2972901105880737,-0.381808465719223,-142.2852752685547,64.52806091308594,106.9857162475586,44.42914579461616,1.2136423012309234,22.488307583234043,1.0461524526371326,-107.17902908325196,3.562325286865234,217.4522232055664
4727.432000000001,4.87308897972107,-53.08154067993164,-12.263737678527832,-0.9837646484375,-0.3707746565341949,0.5796526551246644,-34.28940658569336,59.89720840454102,-110.17286834716796,21.50163154602051,9.445938873291016,2.9026163160800933,-0.9324082016944886,-0.3045761048793792,-0.3772978007793426,-142.18196716308594,64.39485168457031,106.6194107055664,54.87291431989043,1.2007809310165654,24.296113265457137,1.0512674515493647,-107.89256057739256,4.497643280029297,216.7922790527344
4749.639,3.394411921501161,-61.84574966430664,-15.328460884094238,-0.9662244558334352,-0.357783031463623,0.5831609010696411,-33.472725296020506,58.65203170776367,-109.83040618896484,25.430290031433103,8.72545862197876,1.2916936933994294,-0.9368690490722656,-0.3015546083450317,-0.3719846785068512,-141.92808532714844,64.25892486572266,106.33585052490234,63.91418986401696,1.1841987951001722,27.31579749101354,1.052626825513483,-108.45536003112792,5.606893157958984,216.1662567138672
4770.902999999999,2.731338858604432,-69.34102172851563,-18.115642166137697,-0.947325909137726,-0.3497003316879272,0.594714367389679,-32.66928672790527,57.25078125,-109.47183074951172,29.583984756469725,7.9362053871154785,0.3127680957317352,-0.933666169643402,-0.2893374800682068,-0.3603163301944733,-141.54459228515626,64.13279800415039,106.10890655517578,71.75032905474968,1.172281528348954,30.75040196070651,1.0425053790810277,-108.87530555725098,6.88201675415039,215.5807373046875
4792.215999999999,3.166958975791932,-75.96117095947265,-20.856549072265626,-0.9319738507270812,-0.343605238199234,0.59822598695755,-31.8872974395752,55.71264801025391,-109.12408294677736,31.815353775024413,7.248661518096924,-0.2458149850368499,-0.9335490822792052,-0.2761234760284424,-0.3492803514003754,-141.08931884765624,64.02075881958008,105.91966857910155,78.86694232992733,1.1599753719016366,32.694602647445194,1.0346808782684496,-109.20202140808104,8.308110809326172,215.0437515258789
4814.849999999999,3.957463765144349,-81.67492218017578,-23.26582145690918,-0.9093806505203248,-0.3292605102062225,0.6017221927642822,-31.126983642578125,54.05679016113281,-108.79576263427734,32.26635513305664,5.389880192279817,-0.3463020354509353,-0.9366293907165528,-0.2727420091629028,-0.3390921533107757,-140.57448120117186,63.94361801147461,105.79312896728516,85.04155035674987,1.139568446666789,32.87648715452409,1.0329110911105803,-109.44749755859377,9.886827850341795,214.5888916015625
4843.452,4.385138821601869,-86.09031982421875,-25.46979637145996,-0.8815736889839172,-0.3278840243816375,0.616953992843628,-30.416308212280278,52.30007095336914,-108.49035339355468,32.78121490478516,3.058989632129669,-0.3886775106191635,-0.9365652322769163,-0.2721795678138733,-0.3311644613742828,-139.9874053955078,63.90598373413086,105.74161682128906,89.90128480169258,1.1253975657439383,33.16915947462046,1.0301741833258824,-109.57109718322754,11.605912780761718,214.23197021484376
4847.103,5.253138446807862,-89.86963653564453,-26.83749656677246,-0.8593260169029235,-0.3281415224075317,0.6357716083526611,-29.734000396728515,50.463191986083984,-108.18852996826172,33.11129379272461,-0.1379356265068054,-0.2001306265592575,-0.9392618775367736,-0.2692155957221984,-0.3199057459831237,-139.31467895507814,63.92544174194336,105.7827896118164,93.94038894300364,1.1189975627045052,33.518816173126964,1.0284057625770315,-109.5806785583496,13.462249755859377,213.97131958007813
4874.497,5.144073104858399,-93.15704650878908,-28.04817428588867,-0.83753342628479,-0.3289762079715728,0.6525123596191407,-29.10141410827637,48.55766067504883,-107.8668212890625,31.578366470336917,-4.319123828411103,-0.3924484580755233,-0.9459163665771484,-0.2726572573184966,-0.3145476877689361,-138.550927734375,64.00662689208984,105.96441650390624,97.42676261649908,1.1126656858062154,32.69415013003273,1.0337858069777135,-109.44951362609864,15.448966217041017,213.83123779296875
4894.754,4.542301797866822,-95.51509857177734,-28.972940063476564,-0.810218620300293,-0.3282877326011657,0.6676571488380432,-28.528055572509764,46.60251846313477,-107.46024475097656,29.43585319519043,-8.495670306682587,-0.8604033440351486,-0.9536991596221924,-0.2719411849975586,-0.3080363810062408,-137.70054321289064,64.14634857177734,106.2899154663086,99.92400395156366,1.1009041776469268,31.58073471353644,1.0387166557970722,-109.17248764038088,17.543830108642577,213.7501602172852
