Timestamp (ms),Wrist Gyroscope X (deg/s),Wrist Gyroscope Y (deg/s),Wrist Gyroscope Z (deg/s),Wrist Accelerometer X (g),Wrist Accelerometer Y (g),Wrist Accelerometer Z (g),Wrist Roll (deg),Wrist Pitch (deg),Wrist Yaw (deg),Arm Gyroscope X (deg/s),Arm Gyroscope Y (deg/s),Arm Gyroscope Z (deg/s),Arm Accelerometer X (g),Arm Accelerometer Y (g),Arm Accelerometer Z (g),Arm Roll (deg),Arm Pitch (deg),Arm Yaw (deg),Wrist Gyroscope Magnitude (deg/s),Wrist Accelerometer Magnitude (g),Arm Gyroscope Magnitude (deg/s),Arm Accelerometer Magnitude (g),Difference Roll (deg),Difference Pitch (deg),Difference Yaw (deg)
0.0,-17.201536178588867,2.0085623264312744,5.445178985595703,-0.8257204294204712,0.2559066712856293,0.5308095812797546,29.318483352661133,53.09267044067383,-83.58187103271484,1.712383270263672,-3.621516466140747,-8.6947021484375,-1.0224378108978271,0.1269668638706207,-0.1042566746473312,111.20980072021484,75.77882385253906,31.88433837890625,18.15425965738162,1.014426568830493,9.573164755129367,1.035552565485307,81.89131736755371,22.686153411865234,115.4662094116211
21.473,-9.500615119934082,-3.907546758651733,4.020542144775391,-0.839424729347229,0.3350678086280823,0.4861186742782593,29.221729278564453,53.00482177734375,-83.4443588256836,-4.858733654022217,-2.652282238006592,-11.503923416137695,-0.9226239919662476,0.270599901676178,-0.122708648443222,111.28656768798828,75.97639465332031,32.06113815307617,11.031562376476185,1.0262629673239438,12.766446167792136,0.9692867221527662,82.06483840942383,22.97157287597656,115.50549697875977
44.934000000000005,-6.851812362670898,-7.2930588722229,-0.8907676935195923,-0.8078473210334778,0.3527199029922485,0.5148909091949463,29.023494720458984,52.88108825683594,-83.5001220703125,-14.499287605285645,1.5358357429504397,-6.395863056182861,-0.893155038356781,0.3729219436645508,-0.1153531074523925,111.26168060302734,76.04049682617188,32.33673477172852,10.046367873553962,1.020853208076179,15.921532486653376,0.974732290430338,82.23818588256836,23.159408569335938,115.83685684204102
66.60199999999999,-6.665727615356445,-8.855391502380371,-2.388129711151123,-0.7814928889274597,0.2900861799716949,0.5437098741531372,28.71453666687012,52.73848724365234,-83.67459106445312,-22.526988983154297,4.529336929321289,-3.3015847206115723,-0.93544602394104,0.2925387322902679,-0.0908581838011741,111.19499206542967,76.02867126464844,32.73585891723633,11.338123602247364,0.9952394458151153,23.213801656209704,0.9843238202749874,82.48045539855957,23.290184020996094,116.41044998168944
89.06400000000001,-7.928420543670654,-6.062789916992188,-0.8258266448974609,-0.7454099655151367,0.2673109471797943,0.5684936046600342,28.4251651763916,52.6125602722168,-83.79493713378906,-18.009206771850586,5.223657608032227,-2.058201551437378,-1.0027258396148682,0.1715389341115951,-0.0742849186062812,111.30207061767578,76.06349182128906,33.21696090698242,10.014951999001472,0.9748210798453196,18.864101382879632,1.0200014531753503,82.87690544128418,23.450931549072266,117.01189804077148
98.93,-2.649373769760132,-2.7533211708068848,0.2506237030029297,-0.7393560409545898,0.291301429271698,0.5525184869766235,28.337831497192383,52.53426742553711,-83.8054428100586,-1.683027744293213,-0.5202530026435852,-2.505699396133423,-1.0461041927337646,0.1152421534061431,-0.0273623149842023,111.26614379882812,76.18978881835938,33.21661758422852,3.829199796564983,0.9678742461925084,3.062968337838928,1.0527884081134924,82.92831230163574,23.655521392822266,117.02206039428712
122.657,2.273344039916992,1.2379279136657717,-1.0206830501556396,-0.7669051289558411,0.2994093298912048,0.5311632752418518,28.38614082336425,52.55580139160156,-83.75788116455078,13.2795991897583,-7.407798290252685,-1.0279392004013062,-1.0231467485427856,0.2102972418069839,-0.0362523235380649,110.90412139892578,76.28510284423828,32.57501983642578,2.782508316633397,0.9797570354992744,15.24073125376278,1.0451643076221115,82.51798057556152,23.72930145263672,116.33290100097656
146.382,6.942648410797119,2.5016019344329834,-2.2985262870788574,-0.7790067791938782,0.2854293286800384,0.5477334260940552,28.4942569732666,52.61202239990234,-83.74188232421875,18.88499641418457,-11.172693252563477,0.696100115776062,-0.9990218281745912,0.2521345615386963,-0.031191200017929,110.26761627197266,76.34921264648438,31.53758811950684,7.7292691948653935,0.9941495711217144,21.9535126904745,1.0308197423653522,81.77335929870605,23.73719024658203,115.2794704437256
166.502,4.26620626449585,1.2532017230987549,-0.2087142318487167,-0.7873924970626831,0.3237039148807525,0.5678519010543823,28.602519989013672,52.613067626953125,-83.67225646972656,13.56012725830078,-10.011563301086426,1.1367329359054563,-0.9493372440338136,0.2257652282714843,-0.0584696531295776,109.68048858642578,76.39583587646484,30.65607643127441,4.451358453391225,1.023341072404899,16.893803975438587,0.9775632161365756,81.07796859741211,23.78276824951172,114.32833290100098
189.438,-5.443373203277588,0.5751122832298279,2.0797252655029297,-0.8012749552726746,0.2694381773471832,0.5339215397834778,28.53081321716309,52.61027526855469,-83.5779037475586,8.434959411621094,-5.556116580963135,-0.1878285557031631,-0.9345497488975524,0.1874929219484329,-0.0843089818954467,109.46653747558594,76.44947052001953,30.25921440124512,5.85545242901465,0.9998553375384654,10.102190421056529,0.9568933239256538,80.93572425842285,23.839195251464844,113.83711814880373
209.871,-2.28226900100708,-2.1406257152557373,2.254136562347412,-0.7936405539512634,0.241441547870636,0.5209368467330933,28.47547721862793,52.56710815429688,-83.53533172607422,1.8108209371566768,-0.7413286566734314,-2.456176280975342,-0.9388168454170228,0.1963797658681869,-0.0869246572256088,109.5554428100586,76.50824737548828,30.31098175048828,3.856444202563211,0.9795583434377224,3.140293388662289,0.9630669642942816,81.07996559143066,23.941139221191406,113.8463134765625
219.959,5.14125394821167,-5.240580558776856,-0.1150747835636138,-0.7877964377403259,0.3175225257873535,0.5402085781097412,28.530536651611328,52.46627807617188,-83.57433319091797,0.7543699741363525,-0.1715162247419357,-0.9819110631942748,-0.9375811219215392,0.2715376019477844,-0.0884552076458931,109.56668090820312,76.4939956665039,30.308019638061523,7.342303382375604,1.0066126810059943,1.2500564824245015,0.9801098679305722,81.0361442565918,24.02771759033203,113.88235282897948
239.361,4.061435222625732,-5.300309658050537,-2.690821647644043,-0.7692749500274658,0.2961372435092926,0.5405786037445068,28.486772537231445,52.387733459472656,-83.70063018798828,4.632143497467041,-1.092051386833191,1.5630046129226685,-0.9582178592681884,0.2641593217849731,-0.0857068970799446,109.5134048461914,76.4458236694336,30.158815383911133,7.199240215344848,0.9857517144592765,5.009222797263866,0.9976508834825332,81.02663230895996,24.058090209960938,113.8594455718994
261.436,5.867074489593506,-5.278955936431885,-2.7260661125183105,-0.7662944793701172,0.2595962285995483,0.5460909605026245,28.4462947845459,52.31517028808594,-83.84680938720703,8.266337394714355,-2.482072114944458,1.697169542312622,-0.979738175868988,0.2336508631706237,-0.0731186121702194,109.41851806640624,76.42618560791016,29.89194297790528,8.349932652126544,0.9761212876271612,8.796215115741054,1.00986432284796,80.97222328186035,24.11101531982422,113.7387523651123
279.02700000000004,6.979271411895752,-4.703734397888184,-2.5457956790924072,-0.7784121036529541,0.2743612825870514,0.547359824180603,28.451860427856445,52.25234222412109,-83.96037292480469,7.954947471618652,-3.739537239074707,-1.015662670135498,-0.9773904085159302,0.225391075015068,-0.0629893839359283,109.27806854248048,76.47199249267578,29.58530044555664,8.792975740127309,0.9903546302326504,8.848553480549532,1.0050178156848826,80.82620811462402,24.219650268554688,113.54567337036131
301.372,5.074484825134277,-2.250595569610596,-3.0085229873657227,-0.79970782995224,0.2788693308830261,0.5452019572257996,28.444122314453125,52.24480056762695,-84.04304504394531,7.051836967468262,-4.639384746551514,-2.551292896270752,-0.9955562949180604,0.2290588766336441,-0.0739951580762863,109.113037109375,76.55062866210938,29.27057647705078,6.314015142837153,1.0072466883325604,8.818241938439227,1.0242439107626549,80.66891479492188,24.305828094482425,113.3136215209961
323.94800000000004,6.4652252197265625,-2.016436815261841,-2.139918088912964,-0.8103455305099487,0.2926492094993591,0.5528895854949951,28.49456214904785,52.230899810791016,-84.09722900390625,7.583351135253906,-6.136819362640381,-4.280426025390625,-1.0190740823745728,0.2044762670993805,-0.0788564831018447,108.91575622558594,76.6853256225586,28.90997314453125,7.10242240358799,1.0237139895434064,10.653159779571316,1.0423727136210283,80.42119407653809,24.45442581176757,113.0072021484375
339.30100000000004,7.546504020690918,-2.3405466079711914,-2.41171932220459,-0.8140467405319214,0.2907246947288513,0.5400100946426392,28.55999183654785,52.220794677734375,-84.16129302978516,9.777824401855469,-7.8025593757629395,-6.045124053955078,-1.0027008056640625,0.1686328500509262,-0.0918855145573616,108.73119354248048,76.8769302368164,28.514110565185547,8.261009105883167,1.0192172713468808,13.89349875566024,1.0209255073613988,80.17120170593262,24.65613555908203,112.6754035949707
362.957,9.736868858337402,-3.277197360992432,-2.10629677772522,-0.8369675278663635,0.3302125036716461,0.5421408414840698,28.693618774414062,52.19009399414063,-84.20178985595703,15.21963882446289,-8.228195190429688,-5.235563278198242,-0.9930934309959412,0.2226196676492691,-0.09885935485363,108.5658950805664,77.02328491210938,28.0279541015625,10.487283910680215,1.050462580146901,18.07627519371528,1.022529828979887,79.87227630615234,24.83319091796875,112.22974395751952
383.559,4.814563274383545,-4.52839469909668,-2.614629030227661,-0.8318731188774109,0.3002296090126037,0.5182991027832031,28.68816947937012,52.1567497253418,-84.27738189697266,15.088443756103516,-9.91777515411377,-4.625884532928467,-0.9769914150238036,0.2458250224590301,-0.1069195494055748,108.23870849609376,77.15113067626953,27.37813186645508,7.107929588815504,1.025077881911694,18.639265186713835,1.0131011581980784,79.55053901672363,24.99438095092773,111.65551376342772
406.121,3.0800251960754395,-6.223756790161133,-1.2801982164382937,-0.81430983543396,0.2857776880264282,0.5368884801864624,28.63822555541992,52.07121658325195,-84.35427856445312,6.198922157287598,-5.157331943511963,-4.755163192749023,-0.958334505558014,0.2362037897109985,-0.1025201231241226,108.12611389160156,77.25292205810547,27.131738662719727,7.061204661026909,1.016375243310827,9.361425408416984,0.9923243574871806,79.48788833618164,25.18170547485352,111.48601722717284
428.685,1.8112387657165527,-6.745464324951172,-0.7701238393783569,-0.7836083173751831,0.2990192472934723,0.5407213568687439,28.57797241210937,51.957611083984375,-84.42693328857422,-2.113747358322144,-1.219191551208496,-4.0431671142578125,-0.9694361090660096,0.1981766372919082,-0.0754152685403823,108.12018585205078,77.34225463867188,27.16744041442871,7.026732210181504,0.9979148716626564,4.722452355203583,0.9923546804738668,79.5422134399414,25.3846435546875,111.59437370300292
438.669,0.8529782295227051,-5.721264839172363,-1.4857892990112305,-0.7694509625434875,0.2903887033462524,0.5277094841003418,28.49514961242676,51.87175369262695,-84.50276947021484,-4.226581573486328,0.3469194173812866,-3.00681209564209,-0.9644917249679564,0.2077855914831161,-0.0564199648797512,108.1201171875,77.39883422851562,27.255334854125977,5.972270343935039,0.9771681955526724,5.1985828701666295,0.9882319322895232,79.62496757507324,25.527080535888672,111.75810432434082
461.618,3.76952862739563,-4.660153865814209,-1.402530312538147,-0.7672284245491028,0.3125919699668884,0.5227511525154114,28.506839752197266,51.80085372924805,-84.53890228271484,-5.382401466369629,1.8188426494598389,-0.9721686244010924,-0.9725739359855652,0.2252047806978225,-0.0477996654808521,108.1299057006836,77.40001678466797,27.37899208068848,6.155767328563243,0.979602961704419,5.763986984973329,0.9994508803476488,79.62306594848633,25.59916305541992,111.91789436340332
483.637,3.585564613342285,-1.1346278190612793,-1.6677124500274658,-0.7692724466323853,0.3215188980102539,0.5512349605560303,28.54565048217773,51.78253173828125,-84.52874755859375,-7.459168434143066,1.229395627975464,0.196085587143898,-1.000511646270752,0.2238820344209671,-0.0410096570849418,108.0028305053711,77.38825225830078,27.405458450317383,4.113990605265984,0.9995071188664504,7.562344669246905,1.0260743207166358,79.45718002319336,25.60572052001953,111.93420600891112
506.211,1.6416118144989014,2.3087286949157715,-1.935690760612488,-0.7617889642715454,0.2814617753028869,0.5591368675231934,28.54461479187012,51.82993316650391,-84.50234985351562,-3.674214363098145,-0.2215757668018341,-0.2314918935298919,-1.0226118564605713,0.1871271431446075,-0.0232945401221513,107.82891082763672,77.41818237304688,27.306655883789062,3.43103719842126,0.9859904632734616,3.688161534314973,1.0398529762782338,79.2842960357666,25.58824920654297,111.80900573730467
528.9019999999999,3.016180515289306,3.661168575286865,-2.281918525695801,-0.7839317321777344,0.2561686635017395,0.5473819375038147,28.56430625915528,51.92169952392578,-84.50548553466797,1.3255499601364136,-1.368176817893982,0.1709231734275818,-1.0064560174942017,0.1588523089885711,-0.0217351857572793,107.66412353515624,77.46044158935547,27.11369132995605,5.263900872489206,0.9898476298809228,1.912643519596557,1.019146794883442,79.09981727600098,25.538742065429688,111.61917686462402
538.858,7.420689105987549,1.6722626686096191,-3.0270164012908936,-0.7967127561569214,0.336090475320816,0.5209354758262634,28.70722198486328,51.98265075683594,-84.50212097167969,5.063854217529297,-1.1214369535446167,0.658943235874176,-0.9631677865982056,0.2024506777524948,-0.0634814500808715,107.6509780883789,77.45619201660156,26.996397018432617,8.186935784176624,1.009495811481586,5.228235511649127,0.986259781481178,78.94375610351562,25.473541259765625,111.4985179901123
561.944,4.549776077270508,0.952602744102478,-4.475094795227051,-0.7981889247894287,0.3311193287372589,0.5213566422462463,28.74625968933105,52.04568862915039,-84.55175018310547,5.990054130554199,-0.626845121383667,1.9750910997390747,-0.9437976479530334,0.2622714638710022,-0.0869941115379333,107.67407989501952,77.38506317138672,26.89681434631348,6.452471446480241,1.009236502478085,6.338349007860047,0.9834166444010346,78.92782020568848,25.339374542236328,111.44856452941896
586.251,3.676309108734131,0.0967864096164703,-4.2775163650512695,-0.7795240879058838,0.2969782054424286,0.5497426986694336,28.72137451171875,52.08094787597656,-84.63707733154297,2.845750570297241,1.943830966949463,3.172703742980957,-0.9500083923339844,0.2543374598026275,-0.0781865045428276,107.80279541015624,77.2830581665039,26.971094131469727,5.64107813501368,0.999034980805806,4.684316831422073,0.986568101276582,79.0814208984375,25.202110290527344,111.6081714630127
606.5120000000001,1.6264863014221191,-9.31471586227417e-05,-2.8540232181549072,-0.7713655233383179,0.2890790998935699,0.5672039985656738,28.67233085632324,52.09246444702149,-84.69441986083984,-0.9123803377151488,4.158939361572266,3.052944660186768,-0.9717327952384948,0.1892602145671844,-0.0596085861325264,108.04722595214844,77.21171569824219,27.24110984802246,3.2849514801831536,1.0001459256424348,5.239244753974301,0.9917848747086004,79.3748950958252,25.119251251220703,111.9355297088623
628.448,0.1677634268999099,1.1387784481048584,-1.5589334964752195,-0.7788458466529846,0.290018618106842,0.5617145299911499,28.641000747680664,52.11600112915039,-84.703125,-0.7062768340110779,2.6071131229400635,2.0304179191589355,-0.9878604412078856,0.1807673275470733,-0.0604094676673412,108.19895935058594,77.17611694335938,27.41136360168457,1.937842761347206,1.0031125883470833,3.3791215912584005,1.0060787155067945,79.55795860290527,25.060115814208984,112.11448860168456
639.5459999999999,-1.008502960205078,1.4481672048568726,-0.4985557794570923,-0.7779543399810791,0.3213171362876892,0.5475720167160034,28.64578437805176,52.13312911987305,-84.65231323242188,1.9502100944519043,1.0134062767028809,1.5991641283035278,-0.9941809177398682,0.1902981996536255,-0.0591554306447505,108.27098846435548,77.15482330322266,27.445720672607425,1.8338005178305088,1.0041378245330417,2.7180208982669143,1.0139568368349134,79.62520408630371,25.02169418334961,112.0980339050293
661.187,-5.0741963386535645,3.0792555809021,-0.6942961812019348,-0.7795120477676392,0.2874726951122284,0.5345605611801147,28.563215255737305,52.19352722167969,-84.60041809082031,4.352468490600586,0.4352703690528869,1.129374384880066,-0.9773955345153807,0.2264122664928436,-0.0619180873036384,108.3330307006836,77.12483215332031,27.421646118164062,5.975895799204798,0.9879446222431628,4.517624238144382,1.0051857514133269,79.76981544494629,24.931304931640625,112.02206420898438
679.2909999999999,-2.1450283527374268,2.701306104660034,-0.2211360484361648,-0.7769389152526855,0.2854844033718109,0.5303351283073425,28.54623413085937,52.24333953857422,-84.54261016845703,1.421623706817627,1.0104271173477173,0.9182014465332032,-0.9739304184913636,0.2083447873592376,-0.060035802423954,108.39859771728516,77.10493469238281,27.460914611816406,3.4564580797456474,0.9830517641097768,1.9710582994100336,0.9977736757678148,79.85236358642578,24.8615951538086,112.00352478027344
699.2890000000001,-0.2869274318218231,2.676938772201538,-0.4460229873657226,-0.7841154336929321,0.302435964345932,0.5283488631248474,28.575925827026367,52.29400634765625,-84.48155212402344,0.1937717646360397,1.6015136241912842,1.3537731170654297,-0.960671365261078,0.2140201777219772,-0.0650471672415733,108.48304748535156,77.06755828857422,27.54454040527344,2.728967762086315,0.9927018923375878,2.105966532908232,0.9863697290929416,79.9071216583252,24.77355194091797,112.02609252929688
721.827,1.2779196500778198,3.092750310897827,-1.2154518365859983,-0.7872621417045593,0.2900524437427521,0.5294991731643677,28.61361122131348,52.36207962036133,-84.41573333740234,2.650381565093994,2.0182716846466064,1.8533467054367063,-0.9691687226295472,0.2314592599868774,-0.0732752382755279,108.64087677001952,77.0087890625,27.65292358398437,3.560267726544438,0.9921096079890273,3.8121958297271976,0.9991149395847287,80.02726554870605,24.646709442138672,112.06865692138672
739.563,3.0503056049346924,4.103987693786621,-1.389323353767395,-0.7812640070915222,0.2914442718029022,0.548983097076416,28.68732643127441,52.43870544433594,-84.34761047363281,1.6084115505218506,1.195786714553833,2.1386046409606934,-0.9876976013183594,0.2189933657646179,-0.0608309246599674,108.68182373046876,76.96174621582031,27.6635856628418,5.298801624478077,0.9983464595114462,2.930959466265982,1.013511246752567,79.99449729919434,24.52304077148437,112.0111961364746
760.9780000000001,0.4536684155464172,5.512754440307617,-0.4885763823986053,-0.7849693298339844,0.2887057065963745,0.5362071394920349,28.750194549560547,52.537574768066406,-84.23838806152344,3.4097437858581543,-0.0884175077080726,1.649035096168518,-0.9952883720397948,0.1913815289735794,-0.0643837973475456,108.69779205322266,76.94734191894531,27.60988426208496,5.552925664173207,0.9935018521590974,3.788599621134849,1.015564427552866,79.94759750366211,24.409767150878903,111.8482723236084
783.114,1.3702349662780762,5.592535972595215,-0.0254037026315927,-0.7956162691116333,0.2738706469535827,0.5031839609146118,28.845434188842773,52.65260696411133,-84.12293243408203,3.5213823318481445,-0.6087481379508972,0.4812267422676086,-0.9739351868629456,0.1997875124216079,-0.0654126182198524,108.70122528076172,76.9512939453125,27.5412540435791,5.758007278190084,0.9804103617667485,3.60586841135176,0.996365198585213,79.85579109191895,24.29868698120117,111.66418647766112
798.575,4.436638355255127,5.015378952026367,-1.105730056762695,-0.7950591444969177,0.2953046858310699,0.5110786557197571,28.98351287841797,52.75850296020508,-84.04002380371094,-0.1580808013677597,0.1692456603050232,0.0674132853746414,-0.9484866857528688,0.2389901429414749,-0.0862219929695129,108.72402954101562,76.93001556396484,27.567216873168945,6.786783102927222,0.9902147711755624,0.2412015429846153,0.98192541139604,79.74051666259766,24.17151260375977,111.60724067687988
821.938,4.934039115905762,4.429214000701904,-2.4183030128479004,-0.7813196182250977,0.2825632095336914,0.5119888782501221,29.082012176513672,52.86347198486328,-84.01871490478516,-3.2825376987457275,3.25176215171814,0.7332420349121094,-0.936009645462036,0.2454109489917755,-0.0730536207556724,108.87710571289062,76.8735122680664,27.79355430603028,7.057681497719425,0.975927725119648,4.678317509190193,0.9704006501381396,79.79509353637695,24.010040283203125,111.81226921081544
843.322,7.150515079498291,4.261345386505127,-2.6528780460357666,-0.7835290431976318,0.2900277078151703,0.5185083150863647,29.219594955444336,52.963191986083984,-84.00699615478516,-4.021536827087402,4.617829322814941,1.917080402374268,-0.9600381851196288,0.212037444114685,-0.0728256255388259,109.11617279052734,76.80757141113281,28.12226676940918,8.736514884801577,0.9833029572051633,6.416564764376433,0.9858685339991332,79.89657783508301,23.844379425048828,112.12926292419434
866.024,6.41830587387085,5.615018844604492,-2.242137670516968,-0.7784860134124756,0.2719065546989441,0.5151035785675049,29.354740142822266,53.08521270751953,-83.97561645507812,1.2296816110610962,2.890966415405273,1.8491873741149905,-0.9740121364593506,0.1737951189279556,-0.0839043632149696,109.37702178955078,76.77481079101562,28.36232566833496,8.8176112552879,0.9722681441969332,3.645448891997983,0.9929472934148118,80.02228164672852,23.689598083496094,112.33794212341309
888.4889999999999,6.093830108642578,6.475604057312012,-1.2723608016967771,-0.7786329388618469,0.2980371415615082,0.5324058532714844,29.530078887939453,53.19852066040039,-83.89411926269531,5.79240608215332,1.3593435287475586,1.312971830368042,-0.9677854180336,0.2030812501907348,-0.065841257572174,109.55145263671876,76.74942779541016,28.423370361328125,8.982600698559915,0.9892175614234356,6.092920324200428,0.9910528143021374,80.0213737487793,23.55090713500977,112.31748962402344
899.266,0.6880694627761841,8.818586349487305,-0.9833672046661376,-0.7788119316101074,0.2758292257785797,0.5323725342750549,29.615074157714844,53.35372161865234,-83.78430938720703,2.4366800785064697,2.3825385570526123,-0.1642362475395202,-0.971957504749298,0.2183674871921539,-0.0575721114873886,109.74800872802734,76.73930358886719,28.577991485595703,8.899882912049002,0.9828785794096452,3.41187240761411,0.9978478333504632,80.1329345703125,23.385581970214844,112.36230087280272
920.948,2.482894897460937,9.326908111572266,-1.444008231163025,-0.7891084551811218,0.230944737792015,0.5073767304420471,29.7053337097168,53.54462432861328,-83.70320892333984,-0.7214195728302002,3.1310901641845703,-2.0285685062408447,-0.979566216468811,0.1808495223522186,-0.0526367872953414,110.01254272460938,76.78081512451172,28.86650276184082,9.759156816304197,0.9661567018585654,3.799902893605057,0.997510477919316,80.30720901489258,23.23619079589844,112.56971168518066
943.127,9.9198579788208,7.63024377822876,-2.104712009429932,-0.8065519332885742,0.3239805698394775,0.5096833109855652,29.9836368560791,53.69413757324219,-83.6108169555664,4.478857517242432,0.6473228335380554,-1.90557861328125,-0.9682955145835876,0.1897136121988296,-0.0845088958740234,110.2459487915039,76.82408905029297,29.01240921020508,12.69070585419944,1.0076043411092757,4.910236385549444,0.9903177326989904,80.2623119354248,23.12995147705078,112.62322616577148
965.669,6.641171455383301,7.4417619705200195,-4.104347229003906,-0.8100924491882324,0.3005927205085754,0.5192039608955383,30.12155532836914,53.86139678955078,-83.60319519042969,7.688634395599365,0.0286195315420627,-0.4512228667736053,-0.9573094844818116,0.2402242571115493,-0.0876574367284774,110.41334533691406,76.81510162353516,29.02652359008789,10.785668532914777,1.0080568004156072,7.701916646022514,0.9908748503203796,80.29179000854492,22.95370483398437,112.62971878051758
988.325,6.5238356590271,4.965881824493408,-4.218517780303955,-0.8034607172012329,0.2945881485939026,0.5357055068016052,30.206684112548828,53.97810363769531,-83.65430450439453,4.90806770324707,2.638610601425171,0.0851927101612091,-0.9497384428977966,0.2394734472036361,-0.0809711143374443,110.69905853271484,76.77842712402344,29.220609664916992,9.220428746190068,1.0096096727919497,5.573029004363326,0.9828056589125704,80.49237442016602,22.800323486328125,112.87491416931152
1008.388,3.913546562194824,4.675719261169434,-3.699766635894776,-0.8106500506401062,0.2805017232894897,0.5315400958061218,30.23758125305176,54.09082412719727,-83.70256042480469,2.4858553409576416,3.77388858795166,-0.4318704903125763,-0.9683515429496764,0.1912645697593689,-0.0930080413818359,111.10869598388672,76.76898956298828,29.58832359313965,7.132073363603175,1.0091430001841966,4.53962817539523,0.9914319654620488,80.87111473083496,22.678165435791016,113.29088401794434
1018.271,6.763598442077637,3.915905714035034,-3.9523770809173584,-0.809027373790741,0.293222039937973,0.5284501910209656,30.32048225402832,54.18963623046875,-83.74341583251953,2.3778271675109863,2.342669725418091,-1.7873029708862305,-0.9988846778869628,0.1943579167127609,-0.0802495554089546,111.40814208984376,76.7994613647461,29.84675979614257,8.757960152720957,1.00983367969098,3.786372325945052,1.020776954407573,81.08765983581543,22.609825134277344,113.59017562866212
1045.644,6.645416259765625,2.794588804244995,-5.168443202972412,-0.8057190179824829,0.3375255465507507,0.5333900451660156,30.38981437683105,54.26750183105469,-83.8133773803711,1.3295239210128784,-0.0858748033642768,-2.2355446815490723,-0.9887330532073976,0.2663551867008209,-0.0680137053132057,111.41546630859376,76.8200454711914,29.83130073547364,8.870405232723055,1.023528978971892,2.6024350830713634,1.026237789256312,81.0256519317627,22.55254364013672,113.64467811584473
1065.714,2.0514843463897705,1.81897497177124,-5.422158241271973,-0.8119316101074219,0.3192881345748901,0.5199946761131287,30.33833312988281,54.34188079833984,-83.91436004638672,-2.074803113937378,-2.3107714653015137,-2.3349857330322266,-0.9669007062911988,0.2449740320444107,-0.090724766254425,111.252685546875,76.86156463623047,29.707008361816406,6.07594091189225,1.0156634853916633,3.885438340769287,1.0015688870040018,80.91435241699219,22.519683837890625,113.62136840820312
1088.06,0.1238474994897842,0.6481791734695435,-4.383172035217285,-0.8055053353309631,0.2694051265716553,0.5201860666275024,30.21541404724121,54.39388656616211,-84.03901672363281,-2.924478769302368,-1.4357285499572754,-2.6292762756347656,-0.9655004143714904,0.1802549362182617,-0.0882765278220176,111.20578002929688,76.93597412109375,29.716386795043945,4.432569405475832,0.9959977466757288,4.1865243669276,0.986141793834376,80.99036598205566,22.54208755493164,113.75540351867676
1098.193,1.0495409965515137,-1.883702278137207,-3.201362609863281,-0.7997614741325378,0.3111549019813537,0.5355026721954346,30.13285255432129,54.37230682373047,-84.14965057373047,2.1172895431518555,-0.8466809988021851,-2.1232669353485107,-0.9589644074440002,0.1859464198350906,-0.0955763310194015,111.3036117553711,76.9906005859375,29.77029228210449,3.859869574989845,1.0115329458115176,3.1157737725992103,0.9814905199975396,81.1707592010498,22.61829376220703,113.91994285583496
1128.086,0.1835436224937439,-2.8157224655151367,-3.064250230789185,-0.812394380569458,0.3279820680618286,0.524692952632904,30.043500900268555,54.33809280395508,-84.26241302490234,4.613105773925781,-1.2097070217132568,-1.8502819538116453,-0.9634677171707152,0.2136152982711792,-0.0815592110157013,111.35344696044922,77.03102111816406,29.726795196533203,4.165526466253256,1.021204955478371,5.115435393826295,0.9902289849257788,81.30994606018066,22.692928314208984,113.98920822143556
1138.09,-5.210947036743164,-2.626765012741089,-1.4517217874526978,-0.7939002513885498,0.3343031406402588,0.5497321486473083,29.882198333740234,54.27413177490234,-84.32687377929688,5.449277877807617,-1.9466896057128904,-0.9492956399917604,-0.985809087753296,0.232902854681015,-0.0769288837909698,111.3038101196289,77.05355834960938,29.565353393554688,6.013431599350566,1.021881418880454,5.863905867479581,1.015864828792136,81.42161178588867,22.77942657470703,113.89222717285156
1160.5700000000002,-7.124421119689941,-3.0814754962921143,-0.3313015103340149,-0.799597442150116,0.2534321546554565,0.5419368147850037,29.64138984680176,54.21451568603516,-84.41141510009766,2.9145820140838623,-1.471177101135254,-3.589017629623413,-0.996999442577362,0.1749802082777023,-0.0633436515927314,111.34616088867188,77.15559387207031,29.54930877685547,7.769338981900739,0.9986387924197772,4.85182418534241,1.0142181126294183,81.70477104187012,22.94107818603516,113.96072387695312
1178.25,3.12410306930542,-6.504300117492676,-0.2267590165138244,-0.8255753517150879,0.3051165640354156,0.546126663684845,29.605005264282227,54.0908317565918,-84.5102767944336,2.205364465713501,-3.180170774459839,-4.7448554039001465,-0.9913026094436646,0.1819971799850464,-0.0684077739715576,111.27613830566406,77.2852554321289,29.43208694458008,7.219235392867384,1.0358209844349595,6.122970797356517,1.0101898141201344,81.67113304138184,23.19442367553711,113.94236373901369
1200.591,2.010207414627075,-7.241472244262695,-2.2929861545562744,-0.8316206932067871,0.3454397916793823,0.5594931840896606,29.51451301574707,53.96421813964844,-84.66040802001953,7.044184684753418,-5.608994960784912,-1.0024293661117554,-0.9928622841835022,0.2587454915046692,-0.0645519122481346,110.90445709228516,77.32266998291016,28.90989112854004,7.857330311195746,1.060167085929392,9.060144975499474,1.0280523790658551,81.38994407653809,23.35845184326172,113.57029914855956
1223.266,-0.0945309400558471,-10.226762771606444,-2.3542776107788086,-0.823509931564331,0.3098195195198059,0.5407909154891968,29.322938919067383,53.799293518066406,-84.88478088378906,8.982429504394531,-6.064654350280762,1.1992590427398682,-0.9940333366394044,0.2343678772449493,-0.0889200270175933,110.54663848876952,77.32898712158203,28.357959747314453,10.494676553089084,1.0327688784700166,10.904232868083389,1.0251523532819795,81.22369956970215,23.529693603515625,113.24274063110352
1238.128,2.086928129196167,-14.347200393676758,-2.108961820602417,-0.8217390775680542,0.3094793260097503,0.5160971879959106,29.14161491394043,53.57061004638672,-85.15060424804688,9.274242401123049,-6.246418476104736,1.6536945104599,-0.9553243517875672,0.2050724774599075,-0.0957326740026474,110.21227264404295,77.3357162475586,27.821796417236328,14.65077295276626,1.018522887463572,11.303274809865345,0.9817657984476628,81.07065773010254,23.765106201171875,112.9724006652832
1260.794,2.507373809814453,-18.28333282470703,-1.958016037940979,-0.8440773487091064,0.3272316753864288,0.5831465721130371,28.909610748291016,53.25192642211914,-85.47562408447266,13.317289352416992,-4.338479518890381,3.1927502155303955,-0.9508134126663208,0.2174815833568573,-0.1041124463081359,110.0828094482422,77.2909927368164,27.412477493286133,18.558044331394058,1.0768505302720472,14.365453496865308,0.9809096728454896,81.17319869995117,24.039066314697266,112.8881015777588
1284.61,-3.904696464538574,-21.56255340576172,0.4051194190979004,-0.8309784531593323,0.2882670760154724,0.5929265022277832,28.536760330200195,52.85526657104492,-85.79269409179688,14.373029708862305,-4.845385551452637,3.781679391860962,-0.9706791043281556,0.2107164412736892,-0.1109236627817154,109.9393539428711,77.24398040771484,26.96588516235352,21.916990797101608,1.0607473468143394,15.632109364282554,0.9994615556224612,81.4025936126709,24.38871383666992,112.7585792541504
1305.683,-4.330105304718018,-25.07934188842773,3.689656972885132,-0.8286059498786926,0.3067981898784637,0.5799978375434875,28.21832656860352,52.368934631347656,-86.03934478759766,5.318372249603272,-0.2016636431217193,2.120819330215454,-0.9915350675582886,0.2122392803430557,-0.0994407385587692,110.01985931396484,77.20113372802734,26.936674118041992,25.716468849438737,1.056934454468296,5.7291907143786736,1.0188600310167593,81.80153274536133,24.832199096679688,112.97601890563963
1326.644,-7.081809997558594,-27.844141006469727,5.344408988952637,-0.8270207047462463,0.3301315307617187,0.5561318397521973,27.88802146911621,51.82633209228516,-86.26017761230469,4.220432281494141,0.1835453063249588,2.4879865646362305,-0.9907419681549072,0.2127884179353714,-0.0900632143020629,110.07553100585938,77.15046691894531,26.90570831298828,29.22346537751619,1.0498727050782,4.90263344213721,1.0173298092758891,82.18750953674316,25.32413482666016,113.16588592529295
1338.057,-8.345172882080078,-28.724414825439453,5.279587268829346,-0.8066888451576233,0.3049893081188202,0.5652470588684082,27.50943756103516,51.26773071289063,-86.48841857910156,1.6755774021148682,1.8612143993377688,2.167780876159668,-0.9840975999832152,0.2472142279148101,-0.1000475883483886,110.21916961669922,77.0743637084961,27.017852783203125,30.37446228700873,1.0311496537980906,3.3122428349720736,1.0195942725960012,82.70973205566406,25.80663299560547,113.50627136230467
1360.456,-6.614511489868164,-30.233062744140625,6.347203731536865,-0.7851998209953308,0.3063526153564453,0.5980606079101562,27.17180633544922,50.65705108642578,-86.69580841064453,-0.8458859920501709,2.102940559387207,3.230116367340088,-0.9841564893722534,0.2356229573488235,-0.0896135345101356,110.28357696533205,76.9853286743164,27.101232528686523,31.592354143849068,1.0334733545480017,3.9460782879234415,1.015929505020266,83.11177062988281,26.328277587890625,113.79704093933104
1383.035,-7.847285747528076,-30.989715576171875,7.842475414276123,-0.769802451133728,0.3007591366767883,0.6092833876609802,26.836509704589844,50.01586532592773,-86.8526382446289,-1.6015297174453735,1.9540271759033203,2.959728717803955,-0.9928037524223328,0.1961952149868011,-0.0764615759253501,110.33086395263672,76.92720031738281,27.182388305664062,32.91575285055641,1.026780462682117,3.891415388136148,1.0148882824235237,83.49435424804688,26.91133499145508,114.03502655029295
1405.3850000000002,-6.339712142944336,-32.35478591918945,8.555206298828125,-0.7848866581916809,0.2974173128604889,0.5898064374923706,26.54825592041016,49.36299514770508,-86.98249816894531,2.473119020462036,-0.0234608333557844,2.129911422729492,-0.9889768362045288,0.1877475678920745,-0.0747720748186111,110.3285140991211,76.90323638916016,27.12845993041992,34.061938828368014,1.0258536727545016,3.263953242426493,1.0094132924482362,83.78025817871094,27.54024124145508,114.11095809936523
1427.877,-4.378294467926025,-34.11522674560547,8.45518970489502,-0.7777397632598877,0.2972738146781921,0.5728394389152527,26.295503616333008,48.68953323364258,-87.12295532226562,8.161269187927246,-1.3959263563156128,2.947593927383423,-0.97664076089859,0.2173697501420974,-0.090487316250801,110.31690979003906,76.85353088378906,26.947513580322266,35.41903995448929,1.0106413226390516,8.788813066097996,1.0046216892580446,84.02140617370605,28.163997650146484,114.07046890258788
1437.937,-1.7051541805267334,-36.21549224853516,8.820815086364746,-0.7755892872810364,0.2948859930038452,0.6140428781509399,26.075172424316406,47.9653434753418,-87.33284759521484,7.404471874237059,0.1224151104688644,3.4940850734710693,-0.9646859169006348,0.2315205335617065,-0.0946920588612556,110.39350128173828,76.77384185791016,26.872934341430664,37.313217609460025,1.0322524631226897,8.188395428671733,0.9965878093467224,84.31832885742188,28.80849838256836,114.20578193664552
1460.482,-2.282881498336792,-39.75722122192383,10.62160873413086,-0.7787660360336304,0.3221625685691833,0.6550989151000977,25.859851837158203,47.15022277832031,-87.52790069580078,7.391645908355713,3.2419793605804443,4.134469509124756,-0.9551653861999512,0.2096207290887832,-0.0909080877900123,110.70581817626952,76.67208862304688,27.040735244750977,41.214885166956414,1.0674361095784386,9.06866569737928,0.9821130512745728,84.84596633911133,29.52186584472656,114.56863594055176
1485.414,-9.506876945495604,-44.35673522949219,13.107308387756348,-0.7819350361824036,0.3279017508029938,0.666467010974884,25.51717567443848,46.23482131958008,-87.74015808105469,9.071870803833008,6.575736045837402,4.882773399353027,-0.9595617055892944,0.1916772127151489,-0.1086307093501091,111.33738708496094,76.53966522216797,27.499814987182617,47.21972260240224,1.0784805217096145,12.222136494712885,0.984530066438599,85.82021141052246,30.30484390258789,115.2399730682373
1508.094,-17.32015037536621,-47.124000549316406,14.350031852722168,-0.8034892678260803,0.2606510818004608,0.6025330424308777,25.0073356628418,45.309852600097656,-87.956298828125,9.909131050109863,10.14179801940918,4.624630928039551,-0.9458207488059998,0.2021080106496811,-0.0986208170652389,112.21593475341795,76.38026428222656,28.19856643676757,52.21668747604938,1.0375837591136683,14.914226646236918,0.9721885631909732,87.20859909057617,31.070411682128903,116.15486526489258
1518.67,-10.83169651031494,-50.82550811767578,15.132750511169434,-0.8052535653114319,0.2932004630565643,0.6501865983009338,24.6350154876709,44.29664611816406,-88.1730728149414,1.2182207107543943,18.267019271850582,4.687145233154297,-0.953403890132904,0.2491848766803741,-0.1490491330623626,113.56022644042967,76.120849609375,29.55422782897949,54.12539203317417,1.075705549206425,18.898078876302552,0.99663821146563,88.92521095275879,31.824203491210938,117.7273006439209
1547.847,-12.165295600891112,-52.43024444580078,14.449020385742188,-0.7531856298446655,0.3184440433979034,0.7046422958374023,24.227075576782227,43.22714614868164,-88.40975952148438,-5.53542947769165,21.43854713439941,3.55181097984314,-0.9724750518798828,0.2706931531429291,-0.1761857867240905,115.00679779052734,75.8376235961914,31.15522575378418,55.7287999136091,1.0794516973274515,22.42471056608975,1.024706758605031,90.77972221374512,32.610477447509766,119.56498527526855
1568.2240000000002,-16.900409698486328,-50.94598388671875,14.409786224365234,-0.6869871020317078,0.2714583277702331,0.7215907573699951,23.71592330932617,42.16937255859375,-88.63735961914062,-11.019644737243652,23.43103790283203,2.5808656215667725,-1.035356521606445,0.2195633649826049,-0.1210208684206008,116.38262176513672,75.5943832397461,32.80313491821289,55.57660534068632,1.032634554523302,26.021279267084434,1.0652780147307832,92.66669845581056,33.425010681152344,121.44049453735352
1577.992,-19.20105361938477,-48.0963134765625,15.668502807617188,-0.6516389846801758,0.2867326140403747,0.7342995405197144,23.22480010986328,41.1416244506836,-88.7796630859375,-8.798168182373047,21.43563270568848,-0.4350753426551819,-1.058812975883484,0.1561285257339477,-0.0808369368314743,117.69945526123048,75.45792388916016,34.34712219238281,54.10580200276643,1.022763302781685,23.17505994409269,1.0733106003405497,94.4746551513672,34.31629943847656,123.12678527832033
1602.781,-19.83124542236328,-48.00656127929688,16.142324447631836,-0.6371886134147644,0.3058646023273468,0.7016264200210571,22.767230987548828,40.123023986816406,-88.87799072265625,3.504138231277466,17.095096588134766,-1.2127026319503784,-1.0106152296066284,0.153092548251152,-0.1179959625005722,119.0355453491211,75.35598754882812,35.65278625488281,54.39193744883063,0.9959127056594173,17.492625868493747,1.0289331940458166,96.26831436157228,35.23296356201172,124.53077697753906
1617.937,-15.996755599975586,-50.8565673828125,16.82000732421875,-0.6248006820678711,0.2605105638504028,0.6874111294746399,22.36378669738769,39.06235122680664,-88.99207305908203,18.80522918701172,12.50845718383789,-1.7570908069610596,-0.920045018196106,0.1847289800643921,-0.1544907689094543,120.4059829711914,75.26522064208984,36.67551803588867,55.90348184214174,0.964767177673314,22.653598257227262,0.9510389210023624,98.04219627380373,36.2028694152832,125.6675910949707
1640.3000000000002,-12.198187828063965,-53.96531295776367,17.816768646240234,-0.5908589363098145,0.2699527740478515,0.6926186680793762,22.04889678955078,37.92831039428711,-89.09681701660156,16.201519012451172,15.49253273010254,-2.769248485565185,-0.8937351703643799,0.223180741071701,-0.109998919069767,121.78938293457033,75.14545440673828,37.77631759643555,58.12476265682083,0.9495838047299168,22.587087591783945,0.9277240754276446,99.74048614501952,37.21714401245117,126.87313461303712
1663.146,-12.276472091674805,-53.18275451660156,16.239572525024414,-0.5878183841705322,0.3483741283416748,0.7313416004180908,21.76669311523437,36.80670928955078,-89.19464874267578,5.494419574737549,18.98964500427246,-4.46097993850708,-0.9082566499710084,0.2675698697566986,-0.1001218035817146,123.1395034790039,74.99503326416016,39.07129287719727,56.9459468336975,1.0008773763897212,20.26562621443788,0.9521282229671753,101.37281036376952,38.188323974609375,128.26594161987305
1677.958,-14.287958145141602,-50.285152435302734,11.488555908203123,-0.5529103875160217,0.306678295135498,0.7572160363197327,21.371641159057617,35.764984130859375,-89.38465881347656,-3.9341344833374015,18.71115493774414,-2.8973264694213867,-0.9707255363464355,0.2791705131530761,-0.1166143640875816,124.20671081542967,74.81661224365234,40.26868438720703,53.523165267525606,0.9864773687166368,19.33854270382495,1.0167807788509664,102.83506965637208,39.05162811279297,129.6533432006836
1701.336,-7.196842193603516,-50.92604064941406,9.191206932067873,-0.5418384671211243,0.3720636963844299,0.8151178359985352,21.12278175354004,34.708744049072266,-89.60612487792969,-4.839508056640625,12.90745449066162,0.4212121963500976,-0.9995768666267396,0.2929902970790863,-0.1202555298805236,124.73229217529295,74.64395141601562,40.92475509643555,52.246860562654845,1.0471090703371593,13.79132478673258,1.0485507231148463,103.60951042175292,39.93520736694336,130.53087997436523
1722.841,-11.054746627807615,-49.53160858154297,7.812802791595459,-0.5699333548545837,0.3224497437477112,0.7788420915603638,20.77546119689941,33.726356506347656,-89.84899139404297,0.0530221164226532,6.853188514709473,1.748809576034546,-0.9992910027503968,0.2441812455654144,-0.1263456046581268,124.99414825439452,74.5385513305664,41.20116424560547,51.34810180659618,1.0175425641244142,7.073000713714505,1.0364218256483209,104.21868705749512,40.81219482421875,131.05015563964844
1745.219,-5.537989139556885,-52.04252624511719,6.811339378356934,-0.5936380624771118,0.261507898569107,0.7439771890640259,20.49613571166992,32.74161148071289,-90.14097595214844,3.9562735557556152,2.7819037437438965,2.8720273971557617,-0.9682878851890564,0.2243928760290146,-0.1513155996799469,125.10855102539062,74.45846557617188,41.23860168457031,52.777724522858286,0.9870636190657718,5.624911577744204,1.005400418799878,104.6124153137207,41.71685409545898,131.37957763671875
1757.622,0.7948172092437744,-53.59041976928711,6.347278118133545,-0.5906434059143066,0.3063817024230957,0.7927820086479187,20.35818290710449,31.71866607666016,-90.43826293945312,-3.1412367820739746,5.586434841156006,3.520958185195923,-0.929013967514038,0.2766552567481994,-0.1667197346687317,125.17848205566406,74.30116271972656,41.380401611328125,53.97085106752945,1.0350037167882806,7.312507729735016,0.9835652255191816,104.82029914855956,42.582496643066406,131.81866455078125
1780.236,-5.685041427612305,-53.209320068359375,5.891042709350586,-0.5277205109596252,0.3175598978996277,0.7964094877243042,20.10343742370605,30.68374824523925,-90.73135375976562,-8.76383113861084,10.775430679321287,4.442323207855225,-0.9615063071250916,0.2368781119585037,-0.1725890934467315,125.45037841796876,74.09227752685547,41.81239318847656,53.835451352934456,1.0067776808108126,14.582485317461924,1.005182875770932,105.3469409942627,43.40852928161621,132.5437469482422
1803.638,-4.847860336303711,-51.51823806762695,3.4112939834594727,-0.5179159045219421,0.2634655833244324,0.7633193731307983,19.83053207397461,29.716693878173828,-91.0678939819336,-3.828465223312378,11.119311332702637,4.888345718383789,-0.9517280459403992,0.2144890278577804,-0.1747994273900985,125.84027099609376,73.88130187988281,42.20579147338867,51.858148155083406,0.9593265675201847,12.735468359747228,0.9911340254056524,106.00973892211914,44.16460800170898,133.2736854553223
1825.69,5.359655380249023,-52.954627990722656,2.2686867713928223,-0.5042863488197327,0.2640292942523956,0.7524431347846985,19.757009506225582,28.73556327819824,-91.43108367919922,2.2599055767059326,7.225293636322021,5.018007755279541,-0.9375768899917604,0.2208848744630813,-0.1708904653787613,126.10279846191406,73.71125030517578,42.33909225463867,53.27349689195888,0.9434971440942358,9.082535063447192,0.978286309610107,106.34578895568848,44.97568702697754,133.7701759338379
1847.455,8.60177993774414,-52.593849182128906,1.6620625257492063,-0.4738834500312805,0.2740693986415863,0.7969138622283936,19.74702262878418,27.74468040466309,-91.80266571044922,6.043707847595215,5.913610458374023,6.577661514282227,-0.9277403950691224,0.2494816333055496,-0.1846201568841934,126.28823852539062,73.51371002197266,42.3946647644043,53.318533754496656,0.9668253530483596,10.71274120834365,0.9782780424438444,106.54121589660645,45.76902961730957,134.19733047485352
1857.548,5.192909717559815,-49.12541580200195,1.0253424644470217,-0.4325987994670868,0.2594369649887085,0.8222786784172058,19.66817283630371,26.80731964111328,-92.16309356689452,3.158743143081665,7.292181491851807,6.95687198638916,-0.9555074572563172,0.207884207367897,-0.1488671898841858,126.4622039794922,73.33079528808594,42.51108169555664,49.40975729776162,0.9646716980830649,10.56180084024868,0.989126778916346,106.79403114318848,46.523475646972656,134.67417526245117
1883.342,6.237183570861816,-45.18550491333008,-0.2720945477485657,-0.4285595118999481,0.2670184075832367,0.8109036684036255,19.6256160736084,25.96076011657715,-92.5136489868164,3.9709763526916495,7.937458038330078,6.278169631958008,-0.9973040819168092,0.1977796852588653,-0.1558553576469421,126.7304916381836,73.1611557006836,42.66495132446289,45.61476020557512,0.9552627097603392,10.8713985867287,1.0286025122545062,107.1048755645752,47.200395584106445,135.1786003112793
1903.397,10.994218826293944,-44.957008361816406,-1.2070266008377075,-0.4570730030536651,0.3301043510437011,0.8291209936141968,19.710289001464844,25.138015747070312,-92.86505889892578,5.833595275878906,3.4580860137939453,5.883966445922852,-0.9587287902832032,0.2395002096891403,-0.180702656507492,126.80136108398438,73.02053833007812,42.532188415527344,46.29754163732667,1.0026595806904115,8.978321327414161,1.0045768730305815,107.09107208251952,47.88252258300781,135.39724731445312
1925.159,11.663738250732422,-47.08559036254883,-6.736629486083984,-0.4562123715877533,0.323837399482727,0.802133321762085,19.761062622070312,24.327953338623047,-93.3447494506836,9.936294555664062,1.918017625808716,6.866391658782959,-0.8937762379646301,0.2836490571498871,-0.1902651041746139,126.79808044433594,72.84879302978516,42.24028396606445,48.97425636601464,0.9779663875484342,12.229312144255555,0.9568142771921851,107.03701782226562,48.52083969116211,135.58503341674805
1947.682,16.16568374633789,-51.53280258178711,-13.264129638671877,-0.4408521950244903,0.344064712524414,0.8284749984741211,19.84659004211425,23.47125244140625,-93.9878387451172,17.139774322509766,2.7892110347747803,12.97823715209961,-0.8435343503952026,0.3356718122959137,-0.172632023692131,126.65734100341795,72.54173278808594,41.67595291137695,55.61381310422394,0.9995509028354254,21.67916514995937,0.9241361271321016,106.81075096130373,49.07048034667969,135.66379165649414
1957.474,19.44865798950196,-51.9958381652832,-15.15684986114502,-0.403378427028656,0.3170360028743744,0.9070693850517272,19.957592010498047,22.593900680541992,-94.68387603759766,18.71104621887207,3.1558151245117188,22.17388153076172,-0.9388388991355896,0.3125182092189789,-0.2070284187793731,126.32857513427734,72.10492706298828,40.87392044067383,57.54604749082452,1.042113646301972,29.184643938981324,1.0109138814982466,106.3709831237793,49.51102638244629,135.55779647827148
1986.252,17.141191482543945,-50.70491790771485,-11.40172290802002,-0.3798547387123108,0.3062022030353546,0.9109920859336852,20.057838439941406,21.713363647460938,-95.2945785522461,21.82269096374512,4.171975612640381,22.82974624633789,-1.045603632926941,0.2111020982265472,-0.1660663932561874,126.16168975830078,71.72312927246094,40.2044792175293,54.72484290284082,1.0334195625687126,31.85643632115444,1.079550415698492,106.10385131835938,50.009765625,135.4990577697754
2008.585,13.475411415100098,-48.96029281616211,-6.365625858306885,-0.3805278837680816,0.2978525161743164,0.8624882698059082,20.13924789428711,20.851110458374023,-95.78719329833984,23.863988876342773,2.8305180072784424,16.650278091430664,-1.0210466384887695,0.1517327725887298,-0.2063415944576263,126.31964111328124,71.46981811523438,39.85360336303711,51.17829792029518,0.9886372475631168,29.23582661396313,1.052680353122445,106.18039321899414,50.61870765686035,135.64079666137695
2027.546,11.854461669921877,-49.05367660522461,-3.0284225940704346,-0.3507980704307556,0.3622919917106628,0.8756651282310486,20.252099990844727,19.95042991638184,-96.20081329345705,27.68011474609375,4.609829902648926,11.970074653625488,-0.9326969981193542,0.2172080129384994,-0.1972310543060302,126.72415161132812,71.23441314697266,39.684661865234375,50.55653066995285,1.0104970016162933,30.507736253311883,0.9777541101771008,106.4720516204834,51.28398323059082,135.8854751586914
2037.719,11.533377647399902,-51.11549377441406,-7.051346302032471,-0.3432892262935638,0.3932604193687439,0.8918043971061707,20.345752716064453,19.039819717407227,-96.70484924316406,16.556411743164062,7.15149450302124,12.685702323913574,-0.8879736661911011,0.3689511716365814,-0.1646239906549453,126.8123550415039,70.90424346923828,39.396881103515625,52.872809537898526,1.0333519889317553,22.04961874697316,0.9755630462456184,106.46660232543944,51.864423751831055,136.1017303466797
2062.006,13.112220764160156,-53.491886138916016,-12.177509307861328,-0.3109908103942871,0.3559316098690033,0.9072726964950562,20.41674041748047,18.112939834594727,-97.33464050292967,1.3677475452423096,7.293830871582031,18.48526763916016,-0.8930045962333679,0.4266225099563598,-0.1801828444004058,126.46163177490234,70.48388671875,38.95906829833984,56.4057084789286,1.0230084754580706,19.919232460668287,1.0059472313752873,106.04489135742188,52.37094688415527,136.29370880126953
2083.208,11.993399620056152,-52.23055267333984,-11.415380477905272,-0.2824156880378723,0.2866621017456054,0.9091264009475708,20.44291114807129,17.20233726501465,-97.95018005371094,-2.52154541015625,1.248540997505188,23.346240997314453,-1.001117706298828,0.312351256608963,-0.1906847059726715,125.6546859741211,70.08743286132812,38.1054916381836,54.79218172754423,0.9942055091011092,23.51518689235996,1.0659083574407835,105.2117748260498,52.88509559631348,136.05567169189453
2106.472,8.561797142028809,-50.19441604614258,-5.169504165649414,-0.2549651265144348,0.2946686744689941,0.9186531901359558,20.45244026184082,16.27857208251953,-98.42491149902344,3.5327720642089844,-1.68648099899292,18.65021324157715,-1.0189650058746338,0.1194671764969825,-0.2197549194097519,125.12389373779295,69.83810424804688,37.39836883544922,51.18112489808304,0.997878012183255,19.05663009490186,1.0492160473715793,104.67145347595216,53.559532165527344,135.82328033447266
2117.371,1.4431580305099487,-47.75316619873047,-0.0734484121203422,-0.2420650422573089,0.3182678818702698,0.908242642879486,20.37538719177246,15.36697006225586,-98.7753448486328,24.34389877319336,-4.6312665939331055,13.541625022888184,-0.9743725061416626,0.1227423995733261,-0.2079402208328247,125.04127502441406,69.70413970947266,36.7280158996582,47.77502466533997,0.9923681915790804,28.23915094339908,1.0038459108936024,104.6658878326416,54.3371696472168,135.50336074829102
2139.917,0.3904211223125458,-48.547889709472656,0.8524913787841797,-0.2490644454956054,0.3425957560539245,0.9295003414154052,20.296062469482425,14.44269847869873,-99.10809326171876,29.647247314453125,-4.021303653717041,10.269119262695312,-0.9275423884391784,0.279109925031662,-0.1659284234046936,125.09881591796876,69.59319305419922,36.10658645629883,48.55694353485164,1.021457700919401,31.63202438718088,0.982735709281088,104.80275344848631,55.15049457550049,135.21467971801758
2162.307,-2.6837196350097656,-47.28816223144531,-0.7885621190071106,-0.2643830478191376,0.2838738858699798,0.8625056147575378,20.13711738586425,13.582545280456545,-99.4645004272461,18.082763671875,-0.7488088011741638,9.725948333740234,-0.9329175353050232,0.3440384864807129,-0.164436474442482,125.0271224975586,69.42778015136719,35.60628128051758,47.37081874447982,0.9457265537888512,20.54607328966249,1.0078377657076618,104.89000511169434,55.845234870910645,135.07078170776367
2184.352,0.296381801366806,-46.6590461730957,1.1135393381118774,-0.2547371685504913,0.3478473126888275,0.9169445037841796,20.079530715942383,12.71268367767334,-99.77082061767578,3.66157865524292,-0.5634682178497314,8.043537139892578,-0.926169753074646,0.3025582134723663,-0.2262011468410492,124.8517837524414,69.2870101928711,35.28031921386719,46.673272885161815,1.013250216385852,8.855684298905905,1.0002493903433016,104.77225303649902,56.57432651519776,135.05113983154297
2205.192,-5.110465049743652,-46.321876525878906,-1.1151549816131592,-0.2121491283178329,0.3395543396472931,0.931739866733551,19.90424537658692,11.847540855407717,-100.11591339111328,-0.5756254196166992,-0.752061665058136,6.6771440505981445,-0.9189438223838806,0.3031719624996185,-0.2063480913639068,124.60277557373048,69.17588806152344,34.96759796142578,46.616270427142055,1.0141220742494372,6.743974647357232,0.989419285415892,104.69853019714355,57.32834720611572,135.08351135253906
2225.634,-4.758828639984131,-45.92420959472656,-0.7322169542312622,-0.1978453695774078,0.3264504075050354,0.9010087847709656,19.74440193176269,10.990845680236816,-100.4471435546875,1.2719062566757202,-1.378108263015747,6.770578384399414,-0.9403550624847412,0.2849520742893219,-0.2144034653902053,124.392822265625,69.08121490478516,34.654056549072266,46.1759203329308,0.978534357627711,7.025500663273736,1.005700837303916,104.6484203338623,58.09036922454834,135.10120010375977
2248.447,-2.45883846282959,-44.45044708251953,2.619432210922241,-0.1898631751537323,0.3230031430721283,0.9296212792396544,19.643165588378903,10.139702796936035,-100.70244598388672,6.461270809173584,-3.342587947845459,6.293603897094727,-0.9530834555625916,0.2428517639636993,-0.2049915641546249,124.24500274658205,69.04093170166016,34.29389190673828,44.59539838962958,1.0022847791566538,9.619270485441518,1.0046723813771186,104.60183715820312,58.90122890472412,134.996337890625
2258.41,-6.845767021179199,-42.72453308105469,6.690850734710693,-0.1680845022201538,0.3054935038089752,0.9720267057418824,19.45762634277344,9.286282539367676,-100.86817169189452,13.787434577941896,-1.4589929580688477,6.61580228805542,-0.9752536416053772,0.2318163216114044,-0.2129335701465606,124.33538055419922,68.98095703125,34.03209686279297,43.7837611067914,1.0326735192845302,15.361993770580744,1.0247922607657378,104.87775421142578,59.69467449188232,134.9002685546875
2280.763,-12.24769115447998,-42.06759643554688,11.506817817687988,-0.172113686800003,0.3054508566856384,0.9365832805633544,19.190547943115234,8.426709175109863,-100.93192291259766,18.674570083618164,-3.022510290145874,2.7940049171447754,-0.975043535232544,0.2221410274505615,-0.2283889949321746,124.59600067138672,69.00193786621094,33.84323501586914,45.30006031749876,1.000055792675936,19.12280313497562,1.0257768103645633,105.40545272827148,60.575228691101074,134.7751579284668
2302.352,-11.0045747756958,-43.05815887451172,14.296204566955566,-0.1613625884056091,0.3096597790718078,0.9048179984092712,18.96708106994629,7.535304069519043,-100.943359375,15.67465877532959,-1.1224699020385742,-3.3052432537078857,-0.9169807434082032,0.2416239827871322,-0.2304479479789734,125.0441436767578,69.08133697509766,33.92362594604492,46.684978062293375,0.9698570378963688,16.05862694535809,0.9758801614783944,106.07706260681152,61.54603290557861,134.86698532104492
2324.8920000000003,-8.34560489654541,-43.811126708984375,13.931259155273438,-0.1611084640026092,0.3986358344554901,0.9450806379318236,18.837024688720703,6.634582996368408,-100.95899200439452,12.354525566101074,-2.926198720932007,-3.02627944946289,-0.9029653072357178,0.348980963230133,-0.2105975300073623,125.21145629882812,69.13154602050781,33.795135498046875,46.72412574089874,1.0382889183069075,13.052023146779606,0.990699438989206,106.37443161010742,62.49696302413941,134.7541275024414
2348.416,-12.01702880859375,-43.366477966308594,6.917556285858154,-0.1286853104829788,0.322123646736145,0.9008422493934632,18.59068298339844,5.783192157745361,-101.10562133789062,8.943260192871094,-0.0029814839363098,0.6370264887809753,-0.907206654548645,0.3866007030010223,-0.2027898877859115,125.27964782714844,69.075439453125,33.643699645996094,45.52925408522433,0.9653187614529036,8.965919613405408,1.0067808878829851,106.68896484375,63.29224729537964,134.74932098388672
2358.653,-9.727309226989746,-43.62614440917969,6.069066047668457,-0.0676930621266365,0.2914352715015411,0.9576181769371032,18.36552047729492,4.902309894561768,-101.26915740966795,1.181828260421753,-2.2692599296569824,2.1221725940704346,-0.935955822467804,0.3789442479610443,-0.2216448336839676,125.08512878417967,69.02606964111328,33.37352752685547,45.10758897900709,1.0032693760578957,3.3241352536414577,1.0337980832701028,106.71960830688477,64.12375974655151,134.64268493652344
2382.017,-11.461629867553713,-42.14559173583984,7.251561164855957,-0.0807654559612274,0.3316150605678558,0.9553004503250122,18.13542938232422,4.057195663452148,-101.39488220214844,-1.0587700605392456,-4.262073516845703,-0.9777291417121888,-0.9667816162109376,0.2440604418516159,-0.1966695040464401,124.9456024169922,69.12188720703125,33.18395233154297,44.274202435645726,1.0144410074830468,4.499135359004553,1.016322333977814,106.81017303466795,65.0646915435791,134.5788345336914
2405.0950000000003,-10.46864128112793,-42.33061599731445,9.139124870300291,-0.0829237848520279,0.2956223487854004,0.9278095364570618,17.91706657409668,3.207818984985352,-101.4832000732422,7.054482460021973,-1.4585015773773191,-1.804847955703736,-0.927513837814331,0.1919949650764465,-0.2195726037025451,125.19371032714844,69.20714569091797,33.2241096496582,44.55330632377323,0.9772919027272507,7.426333265695645,0.9722942529134326,107.27664375305176,65.99932670593262,134.7073097229004
2425.041,-7.163943290710449,-43.59835433959961,9.67253875732422,-0.079484038054943,0.3042635917663574,0.8934234976768494,17.779468536376953,2.3388357162475586,-101.5657730102539,18.977792739868164,-3.616345882415772,4.06823205947876,-0.9232986569404602,0.2889498472213745,-0.2109466642141342,125.3040771484375,69.1789779663086,32.871337890625,45.22937751733643,0.947153415124086,19.7429756346005,0.9901873152390834,107.52460861206056,66.84014225006104,134.4371109008789
2448.5,-2.464477300643921,-42.78578567504883,6.660762310028076,-0.0472663715481758,0.3077076971530914,0.9449487924575806,17.72859001159668,1.49125075340271,-101.69955444335938,15.930874824523926,-2.267660617828369,6.13201904296875,-0.9009569883346558,0.378183901309967,-0.2117149829864502,125.267578125,69.05825805664062,32.434669494628906,43.37122155009348,0.9949102256654258,17.220241429655722,0.9997848728901796,107.53898811340332,67.56700730323792,134.13422393798828
2468.561,-4.352372646331787,-40.76053237915039,4.858078002929688,-0.0107996221631765,0.3289847373962402,0.9962590932846068,17.644147872924805,0.6800005435943604,-101.85454559326172,3.2492871284484863,-2.013057947158813,4.686533451080322,-0.9858837723731996,0.3654946386814117,-0.2095714509487152,125.04772186279295,68.9839096069336,32.07390213012695,41.27911178025581,1.0492281783438755,6.047633002242704,1.072134943272728,107.40357398986816,68.30390906333923,133.92844772338867
2477.57,-10.575165748596191,-39.2817268371582,4.457911968231201,-0.0178829412907362,0.2806313633918762,0.907135844230652,17.426849365234375,-0.088318645954132,-102.006103515625,2.255465507507324,-1.53048574924469,2.117596387863159,-0.9443010091781616,0.2839300334453583,-0.1996952444314956,124.96653747558594,68.9753646850586,31.904327392578125,40.92384601959957,0.9497205913301284,3.451626536299582,1.0060809363444532,107.53968811035156,69.06368333101273,133.91043090820312
2500.0170000000003,0.5965437889099121,-39.92151641845703,4.443015575408936,-0.0251787602901458,0.2778980135917663,0.9095488786697388,17.435550689697266,-0.8569833040237427,-102.159912109375,6.197378635406494,-0.1436509788036346,2.717111349105835,-0.9219279289245604,0.2798683643341064,-0.2102832049131393,125.02305603027344,68.93526458740234,31.79642677307129,40.172424933585326,0.9513886895572058,6.768369939486451,0.9861523380060097,107.58750534057616,69.79224789142609,133.9563388824463
2517.2560000000003,6.1014018058776855,-41.33295822143555,6.0297932624816895,0.0162900984287261,0.3015714883804321,0.9804980754852296,17.55659294128418,-1.6781432628631592,-102.2933120727539,11.87620735168457,-0.8415498733520508,5.733687877655029,-0.9256011247634888,0.2897701859474182,-0.2294791489839553,125.08922576904295,68.8448257446289,31.55608367919922,42.21372935574365,1.0259567271289007,13.214676837816116,0.9966769198922172,107.5326328277588,70.52296900749207,133.84939575195312
2540.958,0.5233370661735535,-41.39018249511719,5.916924476623535,0.0294828787446022,0.2891740500926971,1.0013737678527832,17.557607650756836,-2.4984652996063232,-102.42977905273438,16.169811248779297,-0.1165026724338531,8.35075569152832,-0.9531522393226624,0.3017460405826568,-0.1809899806976318,125.1218719482422,68.71936798095703,31.188304901123047,41.81424498811384,1.0427081539576462,18.1992167225248,1.0160252149656746,107.56426429748537,71.21783328056335,133.61808395385742
2556.992,-4.576804637908936,-40.713138580322266,7.17770528793335,0.0421904101967811,0.2610313892364502,0.960084855556488,17.448623657226562,-3.313720703125,-102.53673553466795,17.85021209716797,0.7465766072273254,7.441324234008789,-0.9570306539535522,0.2585988640785217,-0.2271343469619751,125.34773254394533,68.60577392578125,30.982891082763672,41.59358420423199,0.9958314851159338,19.35357214831379,1.0170403417167426,107.89910888671876,71.91949462890625,133.51962661743164
2579.687,-0.9162923097610474,-41.38579559326172,7.502618312835693,0.0551436357200145,0.2815816104412079,0.9622181057929992,17.425960540771484,-4.142941474914551,-102.64069366455078,13.831714630126951,-0.00192680535838,2.737348794937134,-0.9289469122886658,0.2830416858196258,-0.2225641310214996,125.57072448730467,68.56391143798828,30.88059425354004,42.07033337201246,1.0040879976451036,14.099979139948775,0.9962879875716746,108.1447639465332,72.70685291290283,133.52128791809082
2602.534,6.854349613189697,-43.30104446411133,7.93107795715332,0.0806707218289375,0.2793659567832947,0.9300040006637572,17.564538955688477,-5.018373012542725,-102.7492218017578,18.751161575317383,-0.2434975206851959,7.037735939025879,-0.9446125030517578,0.3092840611934662,-0.2211609184741974,125.7272720336914,68.4480209350586,30.606779098510746,44.551818794132565,0.9744026603106344,20.02985468279028,1.0182639948905103,108.16273307800292,73.46639394760132,133.35600090026855
2617.041,10.816701889038086,-44.29331970214844,7.550162315368652,0.1337500810623169,0.2784638404846191,0.9718205332756042,17.776113510131836,-5.929062366485596,-102.87313079833984,24.76729393005371,-4.370187282562256,12.637177467346191,-0.9366398453712464,0.3042353689670563,-0.220115065574646,125.6749038696289,68.29148864746094,29.98135566711425,46.21584318154829,1.0197383701409397,28.14632551228573,1.0091105002726528,107.89879035949708,74.22055101394653,132.8544864654541
2639.856,2.733852863311768,-45.515281677246094,8.859037399291992,0.1509255766868591,0.3293657898902893,1.0114072561264038,17.84531593322754,-6.866891860961914,-102.98412322998048,21.89487648010254,-2.800914764404297,3.4506447315216064,-0.9356319308280944,0.3369358479976654,-0.1709773242473602,125.80980682373048,68.26795959472656,29.63748359680176,46.44994468542827,1.0743393276769944,22.34138958658533,1.0090421800191511,107.96449089050292,75.13485145568848,132.62160682678223
2662.422,-10.411376953125,-46.20650100708008,9.815155982971191,0.1287472248077392,0.3261883854866028,0.9836294651031494,17.655284881591797,-7.804389953613281,-103.08053588867188,9.480637550354004,-1.8297462463378904,-1.8350459337234497,-0.9321162700653076,0.2959892451763153,-0.1951139122247696,125.9570541381836,68.3285903930664,29.56680488586425,48.37121863616225,1.0442708630145527,9.828420690326851,0.997256142083949,108.3017692565918,76.13298034667969,132.64734077453613
2684.706,-7.475405216217041,-47.1119384765625,8.425949096679688,0.1128505766391754,0.2389628291130066,0.8981730937957764,17.497264862060547,-8.740373611450195,-103.20137786865234,6.943572044372559,-1.314694046974182,-2.912184238433838,-0.9213069081306458,0.2916672527790069,-0.2147955745458603,126.1323013305664,68.39338684082031,29.57651710510254,48.439787864377486,0.9362443018593828,7.643456692565474,0.9899562334554944,108.63503646850586,77.13376045227051,132.77789497375488
2706.898,8.020544052124023,-50.525001525878906,8.039697647094727,0.1403043419122696,0.3117215633392334,0.9254270792007446,17.69293212890625,-9.741606712341309,-103.35680389404295,6.375128746032715,-0.1671047508716583,1.1539291143417358,-0.9320392608642578,0.3253548145294189,-0.2156549543142318,126.19127655029295,68.36605072021484,29.47882843017578,51.78553508788751,0.9865449408557686,6.480875166764288,1.010475134998451,108.49834442138672,78.10765743255615,132.83563232421875
2717.129,5.917709827423096,-51.50746536254883,7.677895069122314,0.2155812680721283,0.3179651200771332,1.0044491291046145,17.83960723876953,-10.78254508972168,-103.52745056152344,10.092615127563477,-1.9566352367401123,7.516159534454346,-0.9192640781402588,0.3210397362709045,-0.2252926379442215,126.08014678955078,68.25352478027344,29.133834838867188,52.41171958987989,1.075404646488135,12.735067950747068,0.9994347053889102,108.24053955078124,79.03606986999512,132.66128540039062
2739.474,-9.066332817077637,-51.00916290283203,8.63613510131836,0.2323273718357086,0.3291837573051452,0.965537965297699,17.697866439819336,-11.82227611541748,-103.67952728271484,9.71070957183838,-3.497908353805542,4.060574054718018,-0.9620422124862672,0.3138504326343536,-0.183834046125412,125.9604721069336,68.24077606201172,28.80218505859375,52.52347970466063,1.046232056576762,11.091505979535206,1.028504870763908,108.26260566711426,80.0630521774292,132.4817123413086
2762.625,-14.798035621643066,-48.88029861450195,9.170342445373535,0.2179600447416305,0.2481088936328888,0.8744438290596008,17.411062240600586,-12.821523666381836,-103.79837036132812,1.4019304513931274,-2.566766262054444,-7.307018280029297,-0.9387192130088806,0.2674091458320617,-0.2187505066394806,126.13074493408205,68.40497589111328,28.94622039794922,51.88796229827992,0.934728096498616,7.870591729930259,1.0002765599081458,108.71968269348145,81.22649955749512,132.74459075927734
2782.947,0.1036717295646667,-50.35836791992188,11.0787935256958,0.2268400192260742,0.2783226072788238,0.8892433047294617,17.433481216430664,-13.852591514587402,-103.8902359008789,2.135458469390869,-4.114015579223633,-5.759768009185791,-0.9331642389297484,0.2754508256912231,-0.1917934268712997,126.1654281616211,68.56450653076172,28.920255661010746,51.56273492912034,0.9589961016871458,7.393256020200302,0.9916921764248976,108.73194694519044,82.41709804534912,132.81049156188965
2804.404,-0.4975332021713257,-50.0875358581543,9.847404479980469,0.2586256265640259,0.286532461643219,0.9012839794158936,17.454282760620117,-14.876791954040527,-104.00691986083984,10.672954559326172,-3.705514430999756,6.507854461669922,-0.9248875379562378,0.3153917491436004,-0.2110610604286193,126.00865173339844,68.49465942382812,28.508665084838867,51.04880177459109,0.9804595238166166,13.038211760746403,0.999717802444202,108.55436897277832,83.37145137786865,132.5155849456787
2826.75,-5.214156627655029,-47.39257049560547,9.448931694030762,0.292571872472763,0.2878390550613403,0.9025089144706726,17.381078720092773,-15.855774879455566,-104.11487579345705,9.115716934204102,-4.317217826843262,5.694594383239746,-0.919289529323578,0.3322236537933349,-0.2158738672733307,125.81472778320312,68.43575286865234,28.09457015991211,48.6058173234142,0.9914494252758717,11.58287832011432,1.001033127041909,108.43364906311037,84.29152774810791,132.20944595336914
2836.937,-10.589792251586914,-45.5737419128418,10.94359016418457,0.3276332914829254,0.2841195464134216,0.9281793832778932,17.18451499938965,-16.814455032348633,-104.17835998535156,-0.5169838666915894,-5.672687530517578,-8.555510520935059,-0.9535240530967712,0.3272589445114136,-0.1771519780158996,125.75314331054688,68.64476013183594,28.038494110107425,48.05072130105562,1.0244922927402793,10.278298322735116,1.0235669787130517,108.56862831115724,85.45921516418457,132.21685409545898
2864.322,-9.55420207977295,-45.75480651855469,9.247492790222168,0.2649251520633697,0.2037295252084732,0.8422187566757202,16.987302780151367,-17.741119384765625,-104.26424407958984,-11.44297695159912,-3.298555612564087,-8.128546714782715,-0.9534948468208312,0.2945419549942016,-0.1737459301948547,125.5892105102539,68.83228302001953,28.08976554870605,47.64767801096632,0.9061034652476866,14.41858045503827,1.012963491160941,108.60190773010254,86.57340240478516,132.3540096282959
2885.476,2.116827964782715,-46.0186767578125,10.175179481506348,0.2756803333759308,0.2356992959976196,0.8807325959205627,17.033233642578125,-18.667430877685547,-104.33609008789062,6.178612232208252,-0.1867203116416931,6.115579605102539,-0.899898111820221,0.1925564706325531,-0.2370030134916305,125.65607452392578,68.76518249511719,27.962566375732425,47.177683799158544,0.9524934172271275,8.695425665090763,0.950297340017417,108.62284088134766,87.43261337280273,132.29865646362305
2906.891,-5.085928916931152,-44.00763702392578,12.06075668334961,0.3385683596134186,0.2993308305740356,0.9302764534950256,16.94917869567871,-19.57968521118164,-104.3673095703125,12.56767749786377,-3.460864305496216,5.393787384033203,-0.9157738089561462,0.3067890703678131,-0.2365067601203918,125.6247100830078,68.70150756835938,27.61017417907715,45.91296811525739,1.0342348670349235,14.107339996453083,0.9943322636070095,108.6755313873291,88.28119277954102,131.97748374938965
2926.844,-16.861812591552734,-41.15302658081055,12.54394817352295,0.3304390907287597,0.3028416037559509,0.9371463060379028,16.622535705566406,-20.42582893371582,-104.36868286132812,3.0938384532928467,-4.234588623046875,-8.834909439086914,-0.9412438273429872,0.320644199848175,-0.2060494124889373,125.7449951171875,68.88733673095703,27.64106178283692,46.20868918735496,1.0388196323556909,10.274200795116794,1.0154846162274382,109.1224594116211,89.31316566467285,132.00974464416504
2936.849,-16.34307098388672,-42.53188705444336,10.612006187438965,0.3377224802970886,0.2011167556047439,0.9009093642234802,16.27056121826172,-21.29496955871582,-104.39435577392578,3.1223599910736084,0.4731465280056,-1.703650712966919,-1.0254364013671875,0.3004931807518005,-0.1954565197229385,125.85659790039062,68.92821502685547,27.661863327026367,46.783245515018834,0.9829252797789622,3.5882342875868107,1.0862868939784855,109.5860366821289,90.22318458557127,132.05621910095215
2956.73,-7.019745349884033,-45.47848510742188,10.282340049743652,0.2731443345546722,0.2170222699642181,0.8426687717437744,16.134544372558594,-22.183279037475582,-104.4480209350586,11.620314598083496,8.05813217163086,8.437522888183594,-0.8617598414421082,0.2460619360208511,-0.2278706431388855,126.23733520507812,68.6966552734375,27.783815383911133,47.151839299668616,0.9120291399028312,16.466845415638257,0.9247170003223614,110.10279083251952,90.87993431091309,132.23183631896973
2979.179,-4.14576530456543,-44.97626876831055,7.776373386383057,0.3322730660438537,0.227439671754837,0.8537404537200928,16.081619262695312,-23.07042121887207,-104.55183410644533,8.573471069335938,6.635900020599365,6.37868595123291,-0.8682639002799988,0.3203619122505188,-0.2657345235347748,126.52770233154295,68.47339630126953,27.88458633422852,45.83147505071479,0.9439316484917332,12.578839760668988,0.9628752735159932,110.44608306884766,91.5438175201416,132.43642044067383
2999.621,-5.687458515167236,-41.7833251953125,7.097156047821045,0.4123019576072693,0.2577156722545624,0.8711599111557007,16.01335334777832,-23.92216682434082,-104.65679168701172,2.5650947093963623,4.358306407928467,-5.841488361358643,-0.8691312074661255,0.3124303221702575,-0.2675871253013611,126.97796630859376,68.47791290283203,28.28392791748047,42.76170100342253,0.9976621987312216,7.726417791541694,0.9615636388871942,110.96461296081544,92.40007972717284,132.9407196044922
3016.921,-7.973968505859375,-39.589134216308594,7.872570991516113,0.4450007081031799,0.3066110014915466,0.919727623462677,15.908527374267578,-24.73043441772461,-104.73976135253906,0.3024299144744873,3.654543399810791,-12.26563835144043,-1.0065722465515137,0.330949991941452,-0.207356259226799,127.4596176147461,68.6322021484375,28.76288795471192,41.14439324799667,1.0667402860154314,12.802071530912327,1.079681528476958,111.55109024047852,93.36263656616212,133.50264930725098
3039.322,-11.236061096191406,-39.72998046875,7.64544153213501,0.4275786578655243,0.2085980623960495,0.8179033994674683,15.701774597167969,-25.554561614990234,-104.80997467041016,4.767240047454834,6.043002605438232,-5.2746100425720215,-0.9930274486541748,0.3011413514614105,-0.1888727843761444,127.91291046142578,68.66079711914062,29.113767623901367,41.99015590856859,0.94620432843964,9.330914706532903,1.0547334051875965,112.2111358642578,94.21535873413086,133.92374229431152
3063.365,-1.6096922159194946,-38.87679290771485,5.546530723571777,0.3653470575809479,0.1879985928535461,0.8042093515396118,15.69364070892334,-26.31308364868164,-104.9134750366211,11.991582870483398,14.23219108581543,11.99276065826416,-0.910680890083313,0.2519550919532776,-0.2374828904867172,128.39662170410156,68.30258178710938,29.34891128540039,39.30343673124355,0.9030917032625938,22.14000070120242,0.974278797469208,112.70298099517822,94.61566543579102,134.26238632202148
3084.303,3.1755495071411133,-38.60899353027344,5.671917915344238,0.4234289228916168,0.230394572019577,0.8244568109512329,15.806838035583496,-27.08341217041016,-105.02544403076172,6.906710624694824,19.3940658569336,5.106823921203613,-0.8658046126365662,0.3065952062606811,-0.253942459821701,129.13809204101562,67.9513168334961,29.988035202026367,39.15238369411757,0.95504070315412,21.211131338958022,0.9529454447475364,113.33125400543211,95.03472900390624,135.0134792327881
3096.877,1.8046624660491943,-36.71936798095703,3.5932774543762207,0.4923457503318786,0.2390097975730896,0.8071255087852478,15.917651176452637,-27.83841896057129,-105.1766128540039,0.0937841534614563,13.415310859680176,-4.078797340393066,-0.8613036274909973,0.3123892247676849,-0.2660094797611236,129.7874755859375,67.81050109863281,30.67142105102539,36.938874297972696,0.9751828588206598,14.021980911172676,0.9540398365911612,113.86982440948486,95.6489200592041,135.8480339050293
3119.258,-0.20302115380764,-33.894004821777344,2.531834602355957,0.528153121471405,0.2735895812511444,0.8569505214691162,16.004301071166992,-28.526844024658203,-105.34081268310548,0.1896862685680389,4.312282085418701,-11.325590133666992,-0.9195275902748108,0.3277781009674072,-0.2421861588954925,130.2743682861328,67.91151428222656,31.191600799560547,33.9890418650077,1.043149641679158,12.12026194191039,1.0057950130672515,114.27006721496582,96.43835830688477,136.53241348266602
3141.507,0.2818322777748108,-32.797264099121094,0.9423831701278688,0.5364048480987549,0.217616930603981,0.8142910003662109,16.08950424194336,-29.19885635375977,-105.52195739746094,3.694265842437744,3.9963669776916495,-5.981223583221436,-1.0276416540145874,0.3208160996437073,-0.2151179015636444,130.6283416748047,67.96684265136719,31.494489669799805,32.81201072564181,0.9990781364972164,8.086629995707161,1.0978369871841556,114.53883743286131,97.16569900512695,137.01644706726074
3165.283,5.962589263916016,-33.4399528503418,1.4805506467819214,0.517855703830719,0.209192544221878,0.8040606379508972,16.282718658447266,-29.873760223388672,-105.6957778930664,3.354341506958008,9.438069343566896,3.198312520980835,-0.919885754585266,0.2903856337070465,-0.205825850367546,130.89328002929688,67.80447387695312,31.70561981201172,33.9996315800765,0.9790043718237604,10.514654671511629,0.9863457296667688,114.6105613708496,97.6782341003418,137.40139770507812
3186.532,10.240903854370115,-35.7699089050293,2.7371957302093506,0.4696248173713684,0.2161422967910766,0.8098311424255371,16.55968475341797,-30.567249298095703,-105.86135864257812,1.692368507385254,5.426242828369141,5.083113193511963,-0.9135500192642212,0.2857520580291748,-0.211823433637619,130.92288208007812,67.66685485839844,31.695112228393555,37.30756941016157,0.9607764780610856,7.625369639255025,0.9803555698845182,114.36319732666016,98.23410415649414,137.55647087097168
3197.689,6.39948844909668,-36.9443359375,6.509117126464844,0.4969050288200378,0.2861274778842926,0.9133853912353516,16.747705459594727,-31.277904510498047,-105.96705627441406,-0.1750832349061966,13.68503761291504,8.908235549926758,-0.9466829299926758,0.2660777270793915,-0.2385090589523315,131.14352416992188,67.37022399902344,31.92691230773925,38.0553020752564,1.078450932675764,16.32995925344039,1.0118757324837766,114.39581871032716,98.64812850952148,137.89396858215332
3219.089,-4.560991287231445,-39.85955047607422,7.637571334838867,0.4948234558105469,0.2320516854524612,0.8992118835449219,16.68425178527832,-32.04990768432617,-106.05240631103516,9.611361503601074,18.675086975097656,8.209054946899414,-0.9528887867927552,0.2639034986495971,-0.267508864402771,131.77706909179688,67.0132064819336,32.39993667602539,40.84016284947529,1.052273846795608,22.550514996371604,1.024306150098166,115.09281730651855,99.06311416625977,138.45234298706055
3241.729,-4.980033874511719,-42.364723205566406,9.601327896118164,0.5025283098220825,0.1852097064256668,0.8019493818283081,16.585186004638672,-32.907249450683594,-106.10208129882812,8.582850456237793,26.91671371459961,5.333368301391602,-0.871362030506134,0.2465125322341919,-0.3293500244617462,132.80674743652344,66.56416320800781,33.31103515625,43.723632134628495,0.9643444138593464,28.7509933147734,0.9635930963686068,116.22156143188477,99.4714126586914,139.41311645507812
3261.476,0.4335587322711944,-40.5869140625,9.544334411621094,0.5793905258178711,0.1545644253492355,0.7332198619842529,16.581987380981445,-33.784915924072266,-106.1362533569336,7.67454719543457,19.129297256469727,-4.711077690124512,-0.8610950708389282,0.2621432542800903,-0.3154040575027466,133.82125854492188,66.35273742675781,34.24583053588867,41.69628143674137,0.94720373151675,21.14291704528308,0.953773309689913,117.23927116394044,100.13765335083008,140.3820838928223
3285.304,7.343000888824463,-37.43667602539063,6.049294948577881,0.5847868919372559,0.2865305244922638,0.8346573710441589,16.800228118896484,-34.543739318847656,-106.25824737548828,1.7364537715911863,6.447416305541992,-16.969797134399414,-0.9032766222953796,0.330434501171112,-0.2821380496025085,134.5709228515625,66.4863052368164,35.042816162109375,38.62665327540329,1.0586445945102607,18.23618555237121,1.0023459956437493,117.77069473266602,101.03004455566406,141.30106353759766
3306.549,-7.0814290046691895,-37.40215301513672,5.989681720733643,0.5907929539680481,0.3120076060295105,0.8048849701881409,16.733318328857422,-35.29878616333008,-106.38423919677734,2.5123753547668457,13.369184494018556,-8.319436073303223,-1.0926839113235474,0.3630219399929046,-0.2372879087924957,135.21986389160156,66.43867492675781,35.73286437988281,38.53497079318423,1.046052042640959,15.945536696396422,1.175605635679182,118.48654556274414,101.73746109008788,142.11710357666016
3316.56,-6.267086982727051,-36.14546203613281,3.336940288543701,0.5126684904098511,0.0907232239842414,0.6173136234283447,16.63199234008789,-36.05197525024414,-106.51444244384766,6.196921348571777,31.08279228210449,-0.3083951473236084,-0.8530628085136414,0.2855720520019531,-0.2722487449645996,136.3140869140625,65.98609924316406,36.8276252746582,36.83620468430334,0.8075492518103417,31.69600791613562,0.9398866587459296,119.6820945739746,102.0380744934082,143.34206771850586
3338.865,10.027753829956056,-35.24009323120117,7.457061767578125,0.5706319808959961,0.2406598478555679,0.7455910444259644,16.8880672454834,-36.76686096191406,-106.59626007080078,4.765742301940918,32.16126251220703,-1.0031012296676636,-0.8298286199569702,0.2217738479375839,-0.3120888173580169,137.49685668945312,65.5245590209961,38.02450942993164,37.39020978843826,0.969249207128566,32.52791598219233,0.9138920111526624,120.60878944396973,102.29141998291016,144.62076950073242
3366.692,6.904767990112305,-34.55712127685547,7.94659948348999,0.6390748620033264,0.1933864951133728,0.7357529401779175,17.042348861694336,-37.50399017333984,-106.64563751220705,3.9438459873199454,24.27533912658692,-1.474674105644226,-0.837094783782959,0.249485433101654,-0.3236960172653198,138.37799072265625,65.17083740234375,38.9248275756836,36.12504526352292,0.9935529199379646,24.637789564008347,0.931530874399764,121.33564186096191,102.6748275756836,145.57046508789062
3386.588,3.2098844051361084,-34.16862869262695,12.698429107666016,0.6512759327888489,0.3554891347885132,0.8309842348098755,17.13577651977539,-38.2139892578125,-106.63079833984376,3.5610251426696777,8.78530502319336,-10.394819259643556,-0.9271617531776428,0.2908473908901214,-0.2968916893005371,139.0071563720703,65.18356323242188,39.56764602661133,36.5930136287156,1.1140321647444589,14.068217792525417,1.0160540322831055,121.87137985229492,103.39755249023438,146.19844436645508
3397.657,-13.898462295532228,-33.23372268676758,15.632369041442873,0.6627647280693054,0.2709760665893554,0.7793982625007629,16.792531967163086,-38.94498062133789,-106.50819396972656,2.878901243209839,18.5380973815918,-9.071372985839844,-1.0448211431503296,0.3288425207138061,-0.3182353675365448,139.8306884765625,65.03218078613281,40.45186996459961,39.268543895198896,1.0583698621116473,20.838400484340458,1.1406412116675828,123.0381565093994,103.9771614074707,146.96006393432617
3419.077,-7.948727130889893,-37.0508918762207,16.813037872314453,0.6015568971633911,0.1829182505607605,0.7437432408332825,16.516157150268555,-39.74056243896485,-106.34888458251952,0.2464541941881179,33.87797927856445,1.2091248035430908,-0.9233816862106324,0.2867911159992218,-0.3024852275848388,140.677978515625,64.50483703613281,41.42899703979492,41.45635167643943,0.973901327239187,33.900445461073495,1.0131042372590895,124.16182136535645,104.24539947509766,147.77788162231445
3441.349,0.1543719917535781,-38.50394058227539,13.90468406677246,0.5711730718612671,0.1948362588882446,0.716457188129425,16.46552848815918,-40.53260803222656,-106.27754974365234,-4.899560451507568,42.3975830078125,-3.390532970428467,-0.8335919976234436,0.2973502576351166,-0.3837110996246338,141.7974090576172,63.83915710449219,42.80449295043945,40.937971494347245,0.93675543671725,42.81420852177336,0.9646382753097966,125.331880569458,104.37176513671876,149.0820426940918
3456.715,3.8551106452941895,-39.759857177734375,9.942879676818848,0.6515113711357117,0.1894697248935699,0.6851567029953003,16.562732696533203,-41.368648529052734,-106.31744384765624,-5.50150203704834,31.531024932861328,-4.055818557739258,-0.8291674852371216,0.3022813498973846,-0.4112375974655151,142.6119384765625,63.35091781616211,43.88844299316406,41.16514274418338,0.964264253734302,32.26331852357522,0.9736575859302112,126.0492057800293,104.71956634521484,150.2058868408203
3479.039,9.650084495544434,-35.29115295410156,3.618862628936768,0.7213384509086609,0.1503246426582336,0.705772876739502,16.860671997070312,-42.05858612060547,-106.48685455322266,2.200763702392578,4.106636047363281,-12.181488037109377,-0.8167576193809509,0.2948506772518158,-0.4091641008853912,143.15663146972656,63.38254165649414,44.49029541015625,36.7652794675636,1.0203146634694535,13.042103791087962,0.9599193675231495,126.29595947265624,105.4411277770996,150.9771499633789
3501.08,-1.7579344511032104,-35.84376525878906,7.592963695526123,0.747780442237854,0.3591267168521881,0.7636265754699707,16.89618492126465,-42.80077362060547,-106.58148956298828,5.335196018218994,-8.366776466369629,-7.524091720581055,-1.0189461708068848,0.3053542673587799,-0.3443912863731384,143.26011657714844,63.6295280456543,44.55377197265625,36.68131594072283,1.127507487919467,12.453080791945936,1.1180777637203845,126.3639316558838,106.43030166625977,151.13526153564453
3517.121,-11.39025592803955,-30.511215209960938,3.60812258720398,0.7080535292625427,0.0921147316694259,0.6056826114654541,16.739503860473633,-43.44097900390625,-106.7082748413086,3.132487535476685,0.8926323056221008,-2.910388946533203,-0.9388298392295836,0.2910463809967041,-0.3322147130966186,143.39590454101562,63.66284942626953,44.71410751342773,32.76722039323878,0.9363099646608942,4.368024085677604,1.0375336517515918,126.656400680542,107.10382843017578,151.42238235473633
3540.091,-1.787084698677063,-30.537334442138672,5.5494914054870605,0.6383799910545349,0.1715188175439834,0.5858317017555237,16.766326904296875,-44.08677291870117,-106.80204010009766,-1.9097201824188232,-0.2836304306983948,-1.7239753007888794,-0.9100583791732788,0.2571671605110168,-0.3015788197517395,143.37344360351562,63.716217041015625,44.80797958374024,31.08889385955777,0.8832590223327736,2.5883524169027,0.992618248105306,126.60711669921876,107.8029899597168,151.6100196838379
3561.238,3.192941188812256,-26.296775817871094,2.178662300109864,0.655708372592926,0.1386513411998748,0.6512176990509033,16.888748168945312,-44.606441497802734,-106.92204284667967,-5.318051338195801,16.65013313293457,-0.8720849752426147,-0.8149784207344055,0.2375597357749939,-0.3546087443828583,143.72059631347656,63.44053649902344,45.3641242980957,26.579350279277023,0.93448496823766,17.50054672243629,0.9199846824360816,126.83184814453124,108.04697799682616,152.2861671447754
3583.707,2.1599035263061523,-21.929031372070312,1.6141891479492188,0.7041236162185669,0.1222124472260475,0.6312704682350159,16.971637725830078,-45.06486892700195,-107.0187759399414,0.1925083398818969,0.6392749547958374,2.546082019805908,-0.8392526507377625,0.2072814106941223,-0.402606189250946,143.753173828125,63.3857307434082,45.42540740966797,22.09418943445427,0.9535346628410252,2.632159869827864,0.9536258902802894,126.78153610229492,108.45059967041016,152.44418334960938
3605.744,0.9860418438911438,-21.13908767700196,3.3400115966796875,0.7197257280349731,0.2783203125,0.7585616111755371,17.085237503051758,-45.45539474487305,-107.12776184082033,6.233938217163086,-13.283470153808594,-4.607190608978272,-0.9067184329032898,0.2396900355815887,-0.3724480271339416,143.7473907470703,63.65996170043945,45.33550643920898,21.424028187991045,1.0820734900619258,15.379816979729888,1.0091120664424078,126.66215324401855,109.1153564453125,152.4632682800293
3616.862,-6.025595188140869,-18.49036407470703,2.63173770904541,0.725548505783081,0.0808593556284904,0.5938464403152466,16.972003936767578,-45.864036560058594,-107.17345428466795,3.264369487762451,-4.739963531494141,-1.7042949199676514,-0.904461681842804,0.2587195336818695,-0.3647035658359527,143.76376342773438,63.75683975219727,45.35323333740234,19.624663165409345,0.9410698509206455,6.002331514233151,1.0089575917569265,126.7917594909668,109.62087631225586,152.5266876220703
3640.405,7.278441429138184,-15.101449966430664,2.5389513969421387,0.7164818048477173,0.1727617681026458,0.6223637461662292,17.144729614257812,-46.18734359741211,-107.2209014892578,2.995420455932617,-8.901006698608398,-2.9415361881256104,-0.8958294987678528,0.2316441237926483,-0.3524512648582458,143.73458862304688,63.945579528808594,45.32040786743164,16.955110584187832,0.9646395377226964,9.841397212923768,0.9901471532305204,126.58985900878906,110.1329231262207,152.54130935668945
3661.067,5.652890682220459,-10.316261291503906,2.5002477169036865,0.6911590099334717,0.2173891216516494,0.6116164326667786,17.29529571533203,-46.40528869628906,-107.25724792480467,0.8070046901702881,-7.985259056091309,-2.1543335914611816,-0.9078079462051392,0.2549501955509186,-0.3420093655586242,143.62474060058594,64.10830688476562,45.23431015014648,12.026290315205218,0.9481737540834636,8.31004043228089,1.003038022975429,126.3294448852539,110.51359558105467,152.49155807495117
3683.868,2.2441256046295166,-9.94589900970459,3.598609447479248,0.7411457300186157,0.202267587184906,0.6479524374008179,17.330333709716797,-46.62699890136719,-107.24366760253906,-5.543741703033447,-1.9112541675567627,0.5583654046058655,-0.8823524117469788,0.2654425799846649,-0.3412885367870331,143.43453979492188,64.13044738769531,45.203556060791016,10.81235389709768,1.0050131994576446,5.890478460024784,0.9825901521625684,126.10420608520508,110.7574462890625,152.44722366333008
3706.31,-2.1301827430725098,-10.050809860229492,4.924530982971191,0.7457945346832275,0.2083142548799514,0.6583187580108643,17.254070281982422,-46.85323333740234,-107.19574737548828,-1.5954086780548096,-4.96127986907959,-2.264523506164551,-0.883508563041687,0.2520231008529663,-0.3319260478019714,143.34982299804688,64.24329376220703,45.19033050537109,11.393307806234915,1.016360125102578,5.682226104205884,0.9768714989910228,126.09575271606444,111.09652709960938,152.38607788085938
3716.521,-3.888892889022827,-8.875446319580078,5.683717250823975,0.743234395980835,0.142836183309555,0.6027138233184814,17.080013275146484,-47.09104919433594,-107.08712768554688,-2.251456022262573,-2.556657314300537,-2.8650474548339844,-0.924746870994568,0.2613168358802795,-0.340489000082016,143.3290252685547,64.32707214355469,45.26072692871094,11.233951978771936,0.9675037444116787,4.451297312177601,1.0194979270727214,126.2490119934082,111.41812133789062,152.3478546142578
3738.753,5.58690071105957,-5.181797504425049,3.6089987754821777,0.7214885950088501,0.175858199596405,0.5928240418434143,17.14373779296875,-47.23479843139648,-107.02581787109376,-2.700373888015747,-1.1356630325317385,-1.5684558153152466,-0.8850574493408203,0.2474176585674286,-0.3489695787429809,143.3123321533203,64.36283874511719,45.34103393554688,8.43145047388262,0.9502169455870042,3.322920899319254,0.9830167614505466,126.16859436035156,111.59763717651369,152.36685180664062
3763.744,3.818515062332153,-2.7146875858306885,1.5164964199066162,0.737777054309845,0.2217670083045959,0.6476173400878906,17.223360061645508,-47.294803619384766,-107.01945495605467,-5.065399169921875,-5.617630958557129,-0.4088950157165527,-0.8975951075553894,0.2928788959980011,-0.3434538245201111,143.04664611816406,64.4474868774414,45.20933151245117,4.924464169989499,1.006431223194609,7.575172702391844,1.0046967474844688,125.82328605651855,111.74229049682616,152.22878646850586
3784.728,-0.9067386388778688,-2.458293914794922,-0.072755679488182,0.7471257448196411,0.2393568456172943,0.7141523361206055,17.23584747314453,-47.31647491455078,-107.05276489257812,-2.5198354721069336,-6.499594688415527,0.66873699426651,-0.9052265286445618,0.3055540919303894,-0.3444695770740509,142.76319885253906,64.52960968017578,45.0046501159668,2.621197688013939,1.060896855166742,7.002964449978903,1.0156070405362814,125.52735137939452,111.84608459472656,152.05741500854492
3806.237,-7.377516269683838,-5.266400337219238,1.43353271484375,0.748816728591919,0.1693073362112045,0.6680648922920227,17.061603546142578,-47.42796325683594,-107.03559112548828,-1.4470499753952026,-0.1330467164516449,2.0822582244873047,-0.9309826493263244,0.2752259373664856,-0.3426923155784607,142.6471710205078,64.50878143310547,44.93450546264648,9.177022113182463,1.0176945354216995,2.5391838006522574,1.0295222353608735,125.58556747436523,111.9367446899414,151.97009658813477
3826.035,0.4422151446342468,-4.751652240753174,2.022204637527466,0.7245700359344482,0.0795266032218933,0.5421318411827087,16.981863021850586,-47.58787536621094,-106.96304321289062,-2.535252094268799,2.400290012359619,2.3249716758728027,-0.9035646915435792,0.2136664986610412,-0.3248887658119201,142.61724853515625,64.465576171875,44.96546936035156,5.182959082149514,0.9084234424640384,4.194566559078359,0.9836845198563942,125.63538551330566,112.05345153808594,151.9285125732422
3836.16,9.123207092285156,-0.9269314408302308,4.00570011138916,0.7550704479217529,0.180752232670784,0.6447094678878784,17.072437286376953,-47.6381950378418,-106.84734344482422,-2.1088967323303223,-3.082502841949463,-1.6890017986297607,-0.8727006912231445,0.1937301009893417,-0.3394797444343567,142.62586975097656,64.55132293701172,45.03227996826172,10.006884776347976,1.0091843483350806,4.099023819647136,0.956234461506126,125.5534324645996,112.18951797485352,151.87962341308594
3855.988,3.516129970550537,-1.393842697143555,5.500134468078613,0.7602261304855347,0.2140433937311172,0.6316849589347839,17.052154541015625,-47.70860290527344,-106.71517944335938,-0.6419926285743713,-8.041491508483887,-6.609822750091553,-0.9113931655883788,0.2638777494430542,-0.3203089237213135,142.60850524902344,64.7689208984375,45.0755729675293,6.675136448128274,1.011327954333995,10.429165690686393,1.0014323619435532,125.5563507080078,112.47752380371094,151.79075241088867
3878.947,2.7464566230773926,-2.356579065322876,5.091200351715088,0.7587670683860779,0.2294041514396667,0.6390072107315063,17.04169273376465,-47.78849792480469,-106.61071014404295,-0.0496064573526382,-10.852471351623535,-7.0629096031188965,-0.8926053047180176,0.2907024621963501,-0.3013648986816406,142.50021362304688,65.02916717529297,45.01665496826172,6.246343722119969,1.018176774500291,12.948485907636064,0.9859376013192525,125.45852088928224,112.81766510009766,151.6273651123047
3896.115,-1.970311403274536,-1.8926646709442136,5.24380350112915,0.7552172541618347,0.2194434404373169,0.6651106476783752,16.916860580444336,-47.84907913208008,-106.48756408691406,-1.392043113708496,-12.707834243774414,-6.145593166351318,-0.9285119771957396,0.2966615259647369,-0.3150573074817657,142.2911376953125,65.30581665039062,44.86126708984375,5.912848868436296,1.0299906301466315,14.184327638769943,1.0244040510371522,125.37427711486816,113.1548957824707,151.3488311767578
3919.74,-1.2289111614227295,-2.3316075801849365,5.51252031326294,0.7368232011795044,0.1553917080163955,0.614212691783905,16.76411247253418,-47.94057083129883,-106.33088684082033,-4.870336055755615,-5.173888206481934,-1.047355890274048,-0.925137996673584,0.2653734385967254,-0.3289261162281036,142.08163452148438,65.40153503417969,44.77365493774414,6.110196130631303,0.971757296584438,7.18235663484192,1.017101649167263,125.3175220489502,113.34210586547852,151.10454177856445
3941.045,10.026422500610352,-2.8736660480499268,4.011941909790039,0.7209441065788269,0.1608704477548599,0.5961440801620483,16.881153106689453,-48.03418731689453,-106.2287139892578,-5.462559700012207,-7.01750373840332,0.6867238283157349,-0.8824076056480408,0.2685402631759643,-0.3144067227840423,141.73489379882812,65.49864959716797,44.55445861816406,11.17509653667431,0.949224667865225,8.919445431812376,0.9744786517845972,124.85374069213869,113.5328369140625,150.78317260742188
3956.018,12.402203559875488,-2.614430427551269,3.813070774078369,0.722489595413208,0.222990483045578,0.6618211269378662,17.081945419311523,-48.08633041381836,-106.15516662597656,-6.987041473388672,-6.28987455368042,1.4568419456481934,-0.8922567367553711,0.2653761506080627,-0.3446255624294281,141.3824462890625,65.5643081665039,44.36036682128906,13.235913581208694,1.0048498271237092,9.513341101132127,0.9926295199502664,124.30050086975098,113.65063858032228,150.51553344726562
3978.664,8.743000984191895,-0.8290103673934937,4.197473526000977,0.7536089420318604,0.1795470863580703,0.6745386719703674,17.150211334228516,-48.11832046508789,-106.02564239501952,-7.09373664855957,-5.7491302490234375,-0.3717037439346313,-0.9037923812866212,0.2560980021953583,-0.3549894690513611,141.12603759765625,65.64498901367188,44.27067184448242,9.733761266864182,1.027212740241085,9.138477002904176,1.0042133131648685,123.97582626342772,113.76330947875977,150.29631423950195
4001.128,3.199472427368164,0.951089084148407,5.625206470489502,0.7427462339401245,0.2011350989341735,0.6510909199714661,17.08846664428711,-48.12701797485352,-105.8566436767578,-3.2382307052612305,-8.396379470825195,-5.523636817932129,-0.9257514476776124,0.2436051070690155,-0.3454193472862243,141.0558319091797,65.84346771240234,44.29986190795898,6.540958805489631,1.0079914097475176,10.559161425748108,1.0176805572216376,123.96736526489258,113.97048568725586,150.1565055847168
4024.328,1.8482928276062007,2.4775378704071045,5.75947904586792,0.7279841899871826,0.1717649847269058,0.6150421500205994,16.9725341796875,-48.1198844909668,-105.65972137451172,-3.417571783065796,-6.317560195922852,-5.23016357421875,-0.9206693172454834,0.2555855512619018,-0.3214639127254486,140.996826171875,66.00848388671875,44.35294342041016,6.536511237324812,0.9683702996021152,8.885154738922724,1.0081145832274572,124.0242919921875,114.12836837768556,150.01266479492188
4044.374,6.224750995635986,4.615804672241211,4.19357442855835,0.7069585919380188,0.1503416448831558,0.6019659638404846,16.948896408081055,-48.06296157836914,-105.4780731201172,-5.415552139282227,-2.2494962215423584,-2.331685781478882,-0.9078048467636108,0.2616393268108368,-0.3171124458312988,140.90158081054688,66.06907653808594,44.410377502441406,8.81131342183522,0.9406147365013812,6.310720783521359,0.996556611760034,123.95268440246582,114.13203811645508,149.8884506225586
4056.729,11.399958610534668,7.227372169494629,1.075500726699829,0.7115728855133057,0.159205749630928,0.607454776763916,17.08413314819336,-47.93741607666016,-105.3671875,-8.864852905273438,0.0080843418836593,0.9003124833106995,-0.8711901307106018,0.2629090845584869,-0.3313240706920624,140.70147705078125,66.03829956054688,44.42312240600586,13.540704066311356,0.949043596430942,8.910457056533277,0.968436404938856,123.61734390258788,113.97571563720705,149.79030990600586
4078.463,10.644290924072266,8.708799362182617,-0.0669592171907424,0.7430025339126587,0.2053505182266235,0.6644402742385864,17.241880416870117,-47.761173248291016,-105.29273223876952,-5.3892903327941895,-3.034524440765381,0.3394720554351806,-0.8815642595291138,0.2636051177978515,-0.3331363797187805,140.5066375732422,66.06346893310547,44.36100006103516,13.753130521586945,1.017694688384892,6.1941932605604695,0.9785821627745264,123.26475715637208,113.82464218139648,149.6537322998047
4100.762,7.072186470031738,11.718823432922363,-1.5195860862731934,0.7554381489753723,0.184120699763298,0.6456668376922607,17.325397491455078,-47.53571319580078,-105.22257995605467,-3.218656301498413,-4.800051212310791,-1.773943305015564,-0.9339209794998168,0.2590848505496979,-0.3383990824222564,140.38807678222656,66.15435028076172,44.31171417236328,13.771557137539144,1.010679422123646,6.045420984298056,1.0265706476996517,123.06267929077148,113.6900634765625,149.53429412841797
4123.744000000001,4.494053363800049,15.746377944946287,-1.890718460083008,0.7319551110267639,0.1858521103858947,0.6236371994018555,17.345413208007812,-47.23383331298828,-105.13207244873048,-1.4660544395446775,-5.129052639007568,-2.4695210456848145,-0.9342027902603148,0.251836359500885,-0.3288772702217102,140.3189697265625,66.26435852050781,44.279144287109375,16.48392399633874,0.9793991259802526,5.878352727465355,1.0219181298740625,122.97355651855467,113.4981918334961,149.41121673583984
4145.82,6.088667869567871,18.30172348022461,-3.415743350982666,0.7324024438858032,0.1590008735656738,0.6225868463516235,17.39069938659668,-46.881378173828125,-105.04613494873048,-3.362914562225342,-2.383368492126465,0.0891522765159607,-0.9257261157035828,0.2660184204578399,-0.2979053258895874,140.1598358154297,66.30401611328125,44.19447708129883,19.58806425893828,0.9743248938904336,4.122813099146797,1.00820743129175,122.769136428833,113.18539428710938,149.2406120300293
4156.268,9.13099765777588,18.04426383972168,-4.602769374847412,0.7435568571090698,0.1612233817577362,0.6444032192230225,17.51866340637207,-46.52542495727539,-104.9923858642578,-4.866454601287842,-2.618043899536133,1.854281306266785,-0.9079087972640992,0.2532105445861816,-0.2942724525928497,139.91387939453125,66.32613372802734,44.04348373413086,20.74020399277281,0.9970583170127578,5.828798624850959,0.987426068318122,122.39521598815918,112.85155868530272,149.03586959838867
4180.724999999999,8.465051651000977,16.221813201904297,-4.449645042419434,0.7458808422088623,0.2151569724082946,0.671535313129425,17.675743103027344,-46.19195938110352,-104.97438049316406,-3.4067845344543457,-8.192779541015625,1.0760923624038696,-0.9384297728538512,0.2607454061508178,-0.2863391637802124,139.5469512939453,66.44969940185547,43.73447036743164,18.830923079209864,1.0264455320814352,8.937885222148774,1.0151988584123,121.87120819091795,112.64165878295898,148.7088508605957
4203.925,4.6568708419799805,15.089056015014648,-4.587175369262695,0.7352540493011475,0.1845500767230987,0.6491486430168152,17.746623992919922,-45.89109420776367,-104.95526123046876,-5.080365180969238,-7.103565216064453,5.327972412109375,-0.923533260822296,0.2537678480148315,-0.2787747383117676,139.03221130371094,66.5014877319336,43.31721878051758,16.444094238707812,0.9980236513043208,10.2302511784943,0.9975104807729772,121.28558731079102,112.39258193969728,148.27248001098633
4223.208,5.418815612792969,15.807910919189451,-4.298787593841553,0.7256829142570496,0.1429511457681656,0.6256632804870605,17.793933868408203,-45.59262847900391,-104.9013900756836,-5.008357524871826,-8.915285110473633,5.057229042053223,-0.9321131706237792,0.2475600242614746,-0.2622099816799164,138.46751403808594,66.59246826171875,42.84732437133789,17.25494668352945,0.968764812878165,11.407958593971124,0.9994373431862744,120.67358016967772,112.18509674072266,147.74871444702148
4245.804999999999,9.909768104553224,15.680648803710938,-2.283998250961304,0.7332455515861511,0.1721198260784149,0.6743961572647095,17.904123306274414,-45.291297912597656,-104.80178833007812,-5.794543743133545,-11.976837158203123,4.988306045532227,-0.9128626585006714,0.2286396473646164,-0.2812790274620056,137.83526611328125,66.7220458984375,42.30559539794922,18.68964683459096,1.0109819238658768,14.209312534711051,0.9821976445308253,119.93114280700684,112.01334381103516,147.10738372802734
4255.814,5.776618003845215,15.255977630615234,-1.610456466674805,0.7183802723884583,0.1942903995513916,0.6520756483078003,17.94330596923828,-45.00554656982422,-104.70309448242188,-3.9275972843170166,-19.66206169128418,1.4126946926116943,-0.9114927649497986,0.2356760799884796,-0.2697504460811615,137.0995635986328,67.01056671142578,41.61480331420898,16.39230731346981,0.9894552168899776,20.1002088714066,0.9793505901338656,119.15625762939452,112.01611328125,146.31789779663086
4283.152,5.466451168060303,14.470545768737791,-1.4927014112472534,0.7189194560050964,0.2282404154539108,0.6868747472763062,17.995765686035156,-44.7208366394043,-104.61984252929688,-2.523300647735596,-26.92803382873535,-1.1151808500289917,-0.9074501991271972,0.2610536217689514,-0.261654257774353,136.1930694580078,67.42505645751953,40.70686340332031,15.540493580355246,1.0201645896202862,27.0689800393116,0.9798356025099948,118.19730377197266,112.14589309692384,145.3267059326172
4306.255,-2.011033058166504,15.381731986999512,-1.6252005100250244,0.7077294588088989,0.2092539668083191,0.6812735199928284,17.883094787597656,-44.42081832885742,-104.52346801757812,-2.10913634300232,-23.13153076171875,2.18538236618042,-0.9821568131446838,0.2783727049827575,-0.2530537247657776,135.26123046875,67.7414779663086,39.73234176635742,15.59753857436192,1.0043912676513933,23.33006788631628,1.0517412020567478,117.37813568115234,112.16229629516602,144.25580978393555
4316.5560000000005,-0.2716718912124634,16.378665924072266,-0.8139528632164001,0.6818942427635193,0.1888272315263748,0.6880085468292236,17.769927978515625,-44.09917449951172,-104.38766479492188,-3.406895637512207,-14.8018798828125,5.378928661346436,-0.9399497509002686,0.2620628774166107,-0.2671811580657959,134.50050354003906,67.87943267822266,38.9730110168457,16.40112869080598,0.986909946342628,16.113207610341377,1.0117155020867925,116.73057556152344,111.97860717773438,143.36067581176758
4338.009,3.236271858215332,14.516769409179688,-1.0077235698699951,0.6734626293182373,0.2408712208271026,0.7288091778755188,17.773225784301758,-43.789920806884766,-104.29505920410156,-2.426976203918457,-13.5496826171875,7.315842151641846,-0.916040301322937,0.2845107316970825,-0.2863942384719848,133.73379516601562,67.94645690917969,38.16349411010742,14.9072316817323,1.0211433179855618,15.5886387766424,1.001048375418778,115.96056938171388,111.73637771606444,142.45855331420898
4355.496999999999,0.2652501463890075,10.957528114318848,-0.8418923616409302,0.6771045923233032,0.2497549206018448,0.7510702610015869,17.73692512512207,-43.54515838623047,-104.22957611083984,-1.5825873613357544,-15.869884490966797,7.293608665466309,-0.9024618864059448,0.2968975007534027,-0.2696905136108398,132.87335205078125,68.03886413574219,37.23995590209961,10.993023367792714,1.0416115812869653,17.537233073602383,0.9875821765811044,115.13642692565918,111.58402252197266,141.46953201293945
4377.985,-7.162105560302734,6.784520149230957,2.280505895614624,0.6815113425254822,0.2540469169616699,0.7965800762176514,17.514266967773438,-43.38705825805664,-104.11354064941406,1.358444094657898,-19.217187881469727,1.880178451538086,-0.9268492460250854,0.2702516615390777,-0.2516727149486542,132.13650512695312,68.27275085449219,36.39543533325195,10.12552106571179,1.0786738913293183,19.356672013536983,0.9977096976934364,114.62223815917967,111.65980911254884,140.50897598266602
4400.705,-9.68313980102539,1.4089311361312866,4.766000747680664,0.6449204683303833,0.1946754157543182,0.7226706147193909,17.202672958374023,-43.36330032348633,-103.96031951904295,1.0883221626281738,-12.103384971618652,-0.8067562580108643,-0.9314083456993104,0.2571823894977569,-0.240093857049942,131.74322509765625,68.45658874511719,35.9404182434082,10.88407306477933,0.9879644453873326,12.178966645849377,0.9956451918726972,114.54055213928224,111.81988906860352,139.90073776245117
4415.812,-3.941793918609619,-1.525604486465454,5.786794662475586,0.61825031042099,0.2432867139577865,0.7218809127807617,17.044008255004883,-43.38388442993164,-103.83167266845705,-1.770055890083313,-5.6579670906066895,-2.5208702087402344,-0.9173876643180848,0.2845755815505981,-0.2398060262203216,131.56336975097656,68.56417846679688,35.78417205810547,7.166044990897506,0.9810881325147166,6.4420863128121,0.9899951103260226,114.51936149597168,111.94806289672852,139.6158447265625
4438.244,-3.037708282470703,-1.7456222772598269,3.690184593200684,0.6285693049430847,0.2149421423673629,0.7423219084739685,16.917339324951172,-43.39651107788086,-103.7425537109375,-2.985714197158813,4.381267547607422,-3.1228184700012207,-0.892098069190979,0.2915209531784057,-0.2702398300170898,131.7889862060547,68.52715301513672,36.06076049804688,5.088450754026473,0.9961632955909082,6.1532097142397495,0.9766539801403488,114.87164688110352,111.92366409301758,139.80331420898438
4460.393,-4.289508819580078,-4.171854972839356,3.765538692474365,0.6783317923545837,0.2391319870948791,0.7610058784484863,16.792577743530273,-43.46810531616211,-103.68101501464844,-0.4172019958496094,9.376058578491213,-4.640299320220947,-0.9096017479896544,0.2888428866863251,-0.2803763151168823,132.3146514892578,68.44727325439453,36.59709930419922,7.069903922415161,1.0471141651243574,10.469809442099818,0.9946941395291548,115.52207374572754,111.91537857055664,140.27811431884766
4482.942999999999,-5.620086669921875,-5.007935047149658,2.496515989303589,0.6883522868156433,0.2238107770681381,0.7213151454925537,16.667428970336914,-43.56696701049805,-103.65847778320312,1.9665536880493164,9.713056564331056,-7.652502059936523,-0.9206993579864502,0.2963906228542328,-0.2849810719490051,132.99102783203125,68.40371704101562,37.263126373291016,7.93078682721657,1.0218687165253242,12.520846177763216,1.0083396850673814,116.32359886169434,111.97068405151369,140.92160415649414
4505.584,-3.311491012573242,-4.681641578674316,1.108538269996643,0.7356482148170471,0.226454883813858,0.693222165107727,16.620746612548828,-43.67960739135742,-103.6759796142578,3.878366470336914,7.634746074676514,-7.610314846038818,-0.93716561794281,0.3052653074264526,-0.276131272315979,133.59939575195312,68.38916778564453,37.8360710144043,5.840599086872223,1.035865377625539,11.456350472941237,1.0235793974690663,116.9786491394043,112.06877517700195,141.5120506286621
4515.634999999999,-1.9362531900405884,-3.17824387550354,-0.5335372686386108,0.733407199382782,0.2484062910079956,0.7093753218650818,16.635717391967773,-43.74399566650391,-103.73358154296876,3.737992286682129,4.317331314086914,-6.353516578674316,-0.9543589949607848,0.318165510892868,-0.2441615611314773,133.9874725341797,68.41088104248047,38.18046188354492,3.7596505908321407,1.05014530079891,8.54278110022608,1.0352030001494583,117.35175514221191,112.15487670898438,141.91404342651367
4539.301,3.264575719833374,-5.352545738220215,0.8905918002128601,0.7463472485542297,0.2137973457574844,0.7087798118591309,16.714723587036133,-43.866981506347656,-103.75296783447266,-1.2275844812393188,8.962618827819824,-1.0338938236236572,-0.993809163570404,0.2944326400756836,-0.2238861918449401,134.25856018066406,68.31440734863281,38.49452590942383,6.332484051687091,1.0512432364474358,9.105187331949692,1.0604113635930503,117.54383659362792,112.18138885498048,142.24749374389648
4560.688,3.942387580871582,-5.994827747344971,3.539062976837158,0.6690073013305664,0.1607768088579177,0.5971393585205078,16.746084213256836,-44.03598403930664,-103.6961669921875,-5.669244289398193,13.257840156555176,3.3590636253356934,-0.9494414329528807,0.2446609735488891,-0.216898575425148,134.4773406982422,68.10879516601562,38.83906936645508,8.000334137532453,0.9110408141210944,14.805200602109192,1.0041628446656292,117.73125648498537,112.14477920532228,142.53523635864258
4583.602,3.678533315658569,-3.919403791427612,7.914477348327637,0.7069851160049438,0.1876905411481857,0.6445525288581848,16.689823150634766,-44.18060302734375,-103.5133285522461,-6.846110820770264,13.657330513000488,2.960325241088867,-0.9000265002250671,0.2242220491170883,-0.2473986446857452,134.74826049804688,67.8914794921875,39.25669860839844,9.567250656895032,0.9749377702943424,15.561344274985684,0.9599631856534876,118.05843734741212,112.07208251953124,142.77002716064453
4605.689,2.891068935394287,-2.131988525390625,8.12753677368164,0.7002124190330505,0.2180318534374237,0.7418923377990723,16.605175018310547,-44.24819946289063,-103.31127166748048,-6.157718181610107,10.163326263427734,-1.1104340553283691,-0.9206818342208862,0.2537689805030823,-0.2597955465316772,135.02438354492188,67.77039337158203,39.668087005615234,8.88597257868527,1.0431872131915956,11.934980424460052,0.989720900722826,118.41920852661131,112.01859283447266,142.9793586730957
4615.785,-2.403561592102051,-3.262324571609497,7.871471405029297,0.7052748203277588,0.204742357134819,0.718893826007843,16.421222686767578,-44.34621810913086,-103.12174224853516,-8.782732009887695,11.89321231842041,-2.530361652374268,-0.9384124875068665,0.2812436521053314,-0.2876718640327453,135.349365234375,67.62825012207031,40.18812561035156,8.853244152159656,1.0276868871721918,14.999587024326342,1.0210147354051478,118.92814254760742,111.97446823120116,143.30986785888672
4638.011,-2.5791468620300293,-5.070459365844727,5.581765174865723,0.7027546763420105,0.2180962711572647,0.75168377161026,16.29096221923828,-44.45061874389648,-103.0106201171875,-8.707865715026855,12.27566909790039,-2.6752769947052,-0.9470320343971252,0.3140203356742859,-0.2832909822463989,135.64720153808594,67.47466278076172,40.69654083251953,7.969796683977931,1.0518833638362632,15.286467352219924,1.0371751182965576,119.35623931884766,111.9252815246582,143.70716094970703
4663.072,-9.871829986572266,-3.5702133178710938,0.1131381690502166,0.6683735847473145,0.1164319366216659,0.6170457005500793,16.05710220336914,-44.54414367675781,-102.99772644042967,-6.91396427154541,20.20887756347656,3.26983380317688,-0.9519727826118468,0.2869418859481811,-0.2729767262935638,136.0472869873047,67.13970947265625,41.26963806152344,10.498202258681603,0.9170741743287646,21.607717311742835,1.031069404959333,119.99018478393556,111.68385314941406,144.26736450195312
4683.301,3.040776252746582,-2.434213161468506,-4.42585039138794,0.6564466953277588,0.1462326794862747,0.6335984468460083,16.18446159362793,-44.57453536987305,-103.11458587646484,-5.107086181640625,20.517126083374023,5.50121021270752,-0.8901142477989197,0.2857666015625,-0.2929406464099884,136.4196014404297,66.7502670288086,41.7856674194336,5.895749793001974,0.9239876905035828,21.847153265177795,0.9796836974362282,120.23513984680176,111.32480239868164,144.90025329589844
4706.525,5.516546249389648,-3.463764190673828,-6.455513000488281,0.6833096742630005,0.1583474725484848,0.7082793116569519,16.398408889770508,-44.592586517333984,-103.28937530517578,-6.456512451171875,21.11731338500977,8.303873062133789,-0.8644136190414429,0.2646328806877136,-0.2974813580513,136.70034790039062,66.316162109375,42.23332977294922,9.170801109484522,0.9968177447884576,23.59198561937679,0.9517019621254588,120.30193901062012,110.90874862670898,145.522705078125
4725.718,1.4162676334381104,-4.992696285247803,-5.7642669677734375,0.7119714617729187,0.1629889905452728,0.722797691822052,16.52561378479004,-44.64902114868164,-103.45758819580078,0.3228688538074493,15.762778282165527,4.306778907775879,-0.8831220269203186,0.2354947030544281,-0.2964396476745605,137.09751892089844,66.03390502929688,42.65435028076172,7.75626223654252,1.027572516526848,16.34373788427639,0.9608531283770496,120.5719051361084,110.68292617797852,146.1119384765625
4735.443,-3.419945240020752,-6.726059436798096,-1.559827208518982,0.716232419013977,0.2168702930212021,0.736818790435791,16.523120880126953,-44.75278091430664,-103.55236053466795,5.050178050994873,13.48723602294922,0.0920676738023758,-0.9611238837242126,0.2309536039829254,-0.287985235452652,137.63938903808594,65.86482238769531,43.14242172241211,7.705125690896771,1.0502016625300958,14.402024522338824,1.029579614646937,121.11626815795898,110.61760330200195,146.69478225708008
4755.469,-5.226781845092773,-5.778374195098877,0.1245127022266388,0.6886136531829834,0.1121542453765869,0.6058685779571533,16.392602920532227,-44.89982986450195,-103.55559539794922,3.968404293060303,22.910425186157227,2.5247914791107178,-0.9179487824440002,0.238819882273674,-0.2832056581974029,138.33091735839844,65.51321411132812,43.81721496582031,7.792583667038281,0.9240368346888715,23.38825318095981,0.9898840074446392,121.9383144378662,110.41304397583008,147.37281036376953
4777.936000000001,6.1453046798706055,-6.529723167419434,1.994890093803405,0.7208350896835327,0.2141509354114532,0.6798127293586731,16.524259567260742,-45.04057693481445,-103.56095123291016,2.7448925971984863,20.96880149841309,0.2483060806989669,-0.8744296431541443,0.2537439465522766,-0.2927678227424621,138.9854278564453,65.20223999023438,44.48346328735352,9.185948004312271,1.013710607942304,21.14915429892453,0.9564131896162716,122.46116828918456,110.24281692504884,148.04441452026367
4795.454000000001,5.455814361572266,-9.493783950805664,3.0374202728271484,0.7448695302009583,0.2254270911216735,0.6675370335578918,16.649654388427734,-45.2548713684082,-103.56974792480467,0.3975656926631927,12.406662940979004,-5.155516624450684,-0.8815510869026184,0.291500449180603,-0.3016667664051056,139.47813415527344,65.0763931274414,45.02823638916016,11.363263878230354,1.025306628089688,13.441082377399225,0.9762723332375008,122.8284797668457,110.3312644958496,148.59798431396484
4818.402,1.180999517440796,-11.295896530151367,5.245720386505127,0.7573671340942383,0.2911292612552643,0.7284622192382812,16.68939971923828,-45.48959732055664,-103.55622863769533,4.396661281585693,5.175836563110352,-7.183730125427246,-0.9307072162628174,0.3082020282745361,-0.3069536983966827,139.89810180664062,65.09004974365234,45.41254425048828,12.51038051593462,1.090421215596394,9.885640751514073,1.0273387881296132,123.20870208740234,110.57964706420898,148.9687728881836
4839.067,-2.1487185955047607,-11.962542533874512,4.990077018737793,0.7530888319015503,0.2055078893899917,0.6340959072113037,16.63147735595703,-45.77638244628906,-103.52670288085938,2.478677272796631,6.103219032287598,-3.1432132720947266,-0.940846860408783,0.3116689622402191,-0.3108223080635071,140.16847229003906,65.03656768798828,45.69807052612305,13.138503877168048,1.0057106447077593,7.298829581010132,1.0387207824795288,123.53699493408205,110.81295013427734,149.22477340698242
4855.2390000000005,4.296365261077881,-10.50985336303711,3.86616849899292,0.7400839924812317,0.2127509415149688,0.6299022436141968,16.72347640991211,-46.02262115478516,-103.52152252197266,-1.6850519180297852,6.246969223022461,-0.641667366027832,-0.929478406906128,0.3163084983825683,-0.3184814155101776,140.27578735351562,64.94183349609375,45.89350891113281,11.994291601913988,0.9948688936501454,6.501981347902407,1.0321877673558988,123.55231094360352,110.9644546508789,149.41503143310547
4877.926,8.945249557495117,-11.987286567687988,3.4362800121307373,0.7473410964012146,0.2324997633695602,0.6683737635612488,16.9296817779541,-46.2767219543457,-103.5438003540039,-5.657828330993652,1.1939194202423096,2.7996628284454346,-0.9026762247085572,0.3104302883148193,-0.3270521759986877,140.06478881835938,64.87371826171875,45.81983184814453,15.346678768499348,1.0292222025170752,6.42452931801274,1.0090363999295526,123.13510704040527,111.15044021606444,149.36363220214844
4900.365,9.360061645507812,-14.994991302490234,2.8652262687683105,0.7409884333610535,0.2218367755413055,0.7321271300315857,17.149829864501953,-46.55742645263672,-103.59056854248048,-5.613150119781494,-2.8966269493103027,1.879886507987976,-0.9203470945358276,0.3091743886470794,-0.3167375028133392,139.7689971923828,64.88890075683594,45.65193939208984,17.90726220673345,1.06502842585807,6.590286430314614,1.0212493440410453,122.61916732788086,111.44632720947266,149.2425079345703
4922.786,6.133614540100098,-16.026159286499023,3.2840347290039062,0.7324462532997131,0.2156354039907455,0.7010073661804199,17.305355072021484,-46.86587142944336,-103.63668060302734,-6.259471893310547,5.91677713394165,4.099649906158447,-0.9419195055961608,0.2750304639339447,-0.3439486622810364,139.6898651123047,64.74671936035156,45.72552490234375,17.471230434748147,1.0365266368339257,9.539201716545492,1.0397859363345667,122.3845100402832,111.61259078979492,149.3622055053711
4935.219,1.9146409034729004,-15.005359649658203,2.666643142700196,0.7358216643333435,0.1292215883731842,0.5836694836616516,17.3397274017334,-47.20874786376953,-103.66006469726562,-5.544416427612305,10.14772891998291,4.250586986541748,-0.919259786605835,0.2747848033905029,-0.3323071897029876,139.72650146484375,64.53903198242188,45.91053009033203,15.360262161022906,0.9480515844413948,12.320083014590152,1.015368559574926,122.38677406311037,111.7477798461914,149.57059478759766
4957.954,13.373083114624023,-12.804147720336914,1.7713983058929443,0.7193988561630249,0.1850252151489257,0.6459333300590515,17.638391494750977,-47.46087265014648,-103.71234893798828,-5.568258762359619,4.320511341094971,2.1653220653533936,-0.874909520149231,0.2619881927967071,-0.3336381018161773,139.6850128173828,64.44190216064453,46.00289916992188,18.599016178093173,0.984377423232954,7.372987423007801,0.9723265215945436,122.04662132263184,111.90277481079102,149.71524810791016
