Timestamp (ms),Wrist Gyroscope X (deg/s),Wrist Gyroscope Y (deg/s),Wrist Gyroscope Z (deg/s),Wrist Accelerometer X (g),Wrist Accelerometer Y (g),Wrist Accelerometer Z (g),Wrist Roll (deg),Wrist Pitch (deg),Wrist Yaw (deg),Arm Gyroscope X (deg/s),Arm Gyroscope Y (deg/s),Arm Gyroscope Z (deg/s),Arm Accelerometer X (g),Arm Accelerometer Y (g),Arm Accelerometer Z (g),Arm Roll (deg),Arm Pitch (deg),Arm Yaw (deg),Wrist Gyroscope Magnitude (deg/s),Wrist Accelerometer Magnitude (g),Arm Gyroscope Magnitude (deg/s),Arm Accelerometer Magnitude (g),Difference Roll (deg),Difference Pitch (deg),Difference Yaw (deg)
0.0,-0.211301,-0.617236,-1.845417,-0.977104,-0.179862,0.035213,-79.486938,79.295746,114.336189,-0.70862,-0.765081,-1.635787,-0.977357,-0.053526,0.188102,-12.206602,78.824768,12.848824,1.957343172820239,0.9941441149194618,1.9399201917424336,0.996731709402786,67.28033599999999,-0.4709779999999881,-101.487365
19.985,0.3956825,-0.736829,-1.6561225,-0.9780875,-0.176917,0.034883,-79.444252,79.2823335,114.366066,-0.13283,-0.7701245,-1.6528425000000002,-0.9773475,-0.0491925,0.1868294999999999,-12.2826045,78.8146705,12.7670355,1.855322977557681,0.99457106645742,1.828284410097756,0.9962596548504562,67.16164749999999,-0.4676629999999946,-101.5990305
39.971,0.6800636666666667,-0.895629,-1.489755333333333,-0.9787883333333331,-0.1761283333333333,0.0357443333333333,-79.383372,79.270391,114.41263066666666,0.1613576666666666,-0.758452,-1.4844136666666667,-0.9781236666666668,-0.0451193333333333,0.18728,-12.331103666666666,78.80552933333333,12.710865333333333,1.8665499858177448,0.9951509677620108,1.6747446571590814,0.9969129650746292,67.05226833333333,-0.464861666666664,-101.70176533333334
59.957,0.8836852500000001,-1.02615475,-1.33489675,-0.97899175,-0.175207,0.03523375,-79.31310075,79.26046575,114.47148325,0.3261125,-0.897748,-1.3545375000000002,-0.977896,-0.04244325,0.18795675,-12.3624465,78.79380225,12.67113125,1.90153688504212,0.9951702148658416,1.6574295378888662,0.9966994312013652,66.95065425,-0.4666634999999957,-101.800352
79.943,1.1067434,-1.0705358,-1.1685206,-0.978372,-0.1755844,0.0348048,-79.2403884,79.25235760000001,114.5319534,0.3901956,-1.0150625999999998,-1.2081794,-0.977117,-0.0429649999999999,0.189436,-12.3855442,78.7797944,12.640294,1.9329687646595743,0.9946119977209203,1.6255159644748125,0.9962377331791844,66.8548442,-0.4725631999999962,-101.8916594
99.929,1.6433688,-1.124734,-0.8539042,-0.9785734,-0.176329,0.0346676,-79.1071212,79.2355408,114.6361726,0.7693603999999999,-1.101856,-1.0151104000000002,-0.9770642,-0.0407154,0.1910838,-12.4423216,78.7538042,12.566466,2.166757939029434,0.994937012035596,1.684176711040834,0.9964061487873508,66.66479960000001,-0.4817365999999993,-102.0697066
119.915,2.0974594,-1.0954464,-0.5525648000000001,-0.9785856,-0.1762148,0.036034,-78.9593,79.2248046,114.7460388,1.0172176,-1.1862172,-0.8565072,-0.9769354,-0.0408816,0.1936564,-12.474854400000002,78.72563640000001,12.5122236,2.4299519765049595,0.9949773270896176,1.7819785282032552,0.9967832674421656,66.4844456,-0.4991681999999969,-102.2338152
139.901,2.4936314000000004,-0.979493,-0.2177101999999999,-0.978971,-0.1744127999999999,0.0352906,-78.8115004,79.2222868,114.8484376,1.2448604,-1.2202803999999998,-0.7752822,-0.9764728,-0.0392562,0.1942854,-12.4886954,78.6972428,12.47218,2.6879363510505603,0.9950122964532648,1.90783231961018,0.9963869705247256,66.32280499999999,-0.525043999999997,-102.3762576
159.887,2.5113438,-0.840556,0.0242436,-0.9796004,-0.17212,0.0356132,-78.67180019999999,79.2263502,114.9446748,1.2452706,-1.0931986,-0.567619,-0.9769218,-0.0352954,0.195016,-12.473347,78.6726396,12.461441400000002,2.648390043606757,0.9952439590846056,1.7515631234492577,0.9968215531540238,66.19845319999999,-0.5537105999999994,-102.4832334
179.873,2.0227106,-0.6805698,0.1969118,-0.9812,-0.1738984,0.0350544,-78.55869599999998,79.23360420000002,115.0263536,0.8460088000000001,-0.8929750000000001,-0.3147504,-0.9785438,-0.033213,0.194839,-12.4402556,78.65383299999999,12.476764800000002,2.1432003361803678,0.9971072682925944,1.2697255824006226,0.9983052177608008,66.1184404,-0.5797712000000018,-102.5495888
199.862,1.909438,-0.4856782,0.4759928,-0.9808796,-0.1730662,0.036104,-78.4593294,79.2473342,115.100943,0.4301494,-0.7692745999999999,-0.0617185999999999,-0.9793844,-0.039011,0.195164,-12.4101068,78.6379348,12.4982468,2.0269203081155114,0.9966846031190608,0.883527646489616,0.999402145275044,66.0492226,-0.6093994000000009,-102.6026962
219.845,1.7916532,-0.2267834,0.792823,-0.980851,-0.1735426,0.0347614,-78.38727739999999,79.26807099999999,115.1573334,0.328566,-0.5783508,0.2508702,-0.9792412,-0.0392844,0.19519,-12.3569484,78.6272294,12.545345,1.972313415488218,0.996691563697476,0.7109016257293833,0.9992776030517246,66.03032900000001,-0.6408416000000017,-102.6119884
239.83,1.6579444,0.0776342,0.9944962,-0.9804734,-0.1751996,0.0344444,-78.347345,79.29287120000001,115.19081880000002,0.0334009999999999,-0.3943906,0.6005156,-0.9785124,-0.0364817999999999,0.1957806,-12.2721736,78.62163100000001,12.6304326,1.93489777360858,0.9965989186423392,0.7192207992075313,0.9985727224500776,66.0751714,-0.6712401999999997,-102.5603862
259.816,1.6474474,0.4068082,1.161923,-0.9796268,-0.1782958,0.0338447999999999,-78.3418914,79.3202912,115.1839614,-0.4364466,-0.1624642,0.7534412,-0.978443,-0.0406658,0.19463,-12.2002622,78.621364,12.7125426,2.0566090793544114,0.996294901152726,0.8857504686934352,0.9984414096173296,66.14162920000001,-0.6989272,-102.4714188
279.802,1.9666954,0.6229298,1.3955406,-0.9781636,-0.175419,0.0339292,-78.34544819999999,79.35433959999999,115.1559952,-0.4079956000000001,0.1312662,0.8014782,-0.975772,-0.045148,0.1925422,-12.143937,78.627373,12.778774,2.490675791498677,0.9943475471577328,0.9088776210013316,0.9956112879376366,66.2015112,-0.7269666000000001,-102.3772212
299.788,1.7062116,0.7378844,1.4637164,-0.9778576,-0.1747188,0.0325542,-78.3684172,79.39037160000001,115.109221,-0.173598,0.5957516,0.9729998,-0.9749736,-0.0384486,0.1918702,-12.0579956,78.64421719999999,12.8697474,2.36602982047287,0.9938772162037118,1.1540298286034898,0.9944174119488052,66.31042160000001,-0.7461544000000003,-102.2394736
319.774,0.8719426,0.8781497999999999,1.3888181999999998,-0.9782536,-0.1773559999999999,0.0330086,-78.42443080000001,79.4236494,115.0413392,-0.5844082,0.9701108,1.0921524000000002,-0.9749522,-0.0350935999999999,0.1924934,-11.9672554,78.668735,12.973662,1.860173906274905,0.9947486236848584,1.573354624148555,0.9943928107590884,66.45717540000001,-0.7549144000000041,-102.0676772
339.76,0.2434409999999999,1.0496038,1.3336336,-0.9786114,-0.178755,0.0337914,-78.51040040000001,79.45535100000001,114.9511032,-1.1876928,1.2333774,1.0543146,-0.9764422,-0.040566,0.192456,-11.9137922,78.6975374,13.0525446,1.7144999960642753,0.995377054662664,2.010824028545452,0.996054357067344,66.5966082,-0.7578136000000057,-101.8985586
359.746,-0.1331142,1.1869694,1.3616448,-0.9794258,-0.1764548,0.0344946,-78.6138062,79.4891004,114.8540314,-1.2627538,1.4043018,1.0801092,-0.975939,-0.0417004,0.1922868,-11.8663672,78.7294144,13.126957,1.8112681491554583,0.9957916808137331,2.175602580625037,0.9955752450394696,66.747439,-0.759686000000005,-101.7270744
379.732,-0.6533274,1.3252842,1.3103416,-0.9810642,-0.1773883999999999,0.0345612,-78.7430634,79.5216566,114.7444228,-1.3755442,1.4986626,1.1713726000000002,-0.9790696,-0.0365375999999999,0.193698,-11.7986812,78.7633438,13.2237322,1.9748949367120676,0.9975710929661304,2.3473868881850644,0.9987147706236852,66.94438219999999,-0.7583128000000044,-101.5206906
399.718,-1.2848678,1.4997776000000005,1.2582006,-0.9836889999999998,-0.1802238,0.0344615999999999,-78.9056244,79.5522124,114.615747,-1.7902724,1.4295082,1.1758674,-0.9813626,-0.0384684,0.1932656,-11.743356,78.7958542,13.31661,2.3416419160023083,1.0006559192259843,2.575118075438825,1.000951528606995,67.1622684,-0.7563582000000053,-101.299137
419.704,-1.0501840000000002,1.6042068,1.3002576,-0.9849203999999998,-0.17995,0.0342231999999999,-79.07341,79.58394460000001,114.4782578,-1.729006,1.341117,1.1879288,-0.9836748,-0.045305,0.191004,-11.7048242,78.82706759999999,13.3919308,2.316686365777638,1.0018090757496658,2.489825574130533,1.0030708764569132,67.36858579999999,-0.7568770000000029,-101.086327
439.69,-0.7996273999999999,1.5838569999999998,1.4152467999999998,-0.9847478,-0.1785066,0.033857,-79.23139799999998,79.6183226,114.3473328,-1.076011,1.3594148,1.2373402,-0.983758,-0.0470382,0.1906014,-11.6541006,78.8585756,13.4665642,2.269566143603221,1.001368629575243,2.129980995482373,1.003155665141358,67.57729739999999,-0.7597470000000015,-100.8807686
459.675,-0.8464518,1.5334932,1.4763031999999998,-0.9853574,-0.1814612,0.0337114,-79.3853088,79.6517196,114.2247452,-0.5373526000000001,1.4261654,1.3401574,-0.9843092,-0.0428483999999999,0.1909252,-11.571528,78.89183519999999,13.5622114,2.290753845898708,1.0024938061305717,2.029462347928308,1.0035701363543257,67.81378079999999,-0.7598844000000013,-100.6625338
479.661,-0.8953982,1.5241452,1.4372703999999998,-0.9845636,-0.1828806,0.0336331999999999,-79.5403046,79.6830612,114.1052094,-0.3395868000000001,1.6135742,1.3134506,-0.982542,-0.043781,0.1905528,-11.494578,78.92821980000001,13.648233,2.278267484287664,1.001969055631739,2.108101841059924,1.0018063322383424,68.0457266,-0.754841399999998,-100.4569764
499.647,-0.781203,1.4071696,1.3701096,-0.9829848,-0.1822476,0.03399,-79.67948759999999,79.7124328,114.0005798,-0.365284,2.3425016,0.9954214,-0.9796874,-0.0476852,0.1901492,-11.4770006,78.9767472,13.674767,2.1136709125086903,1.0003142630377715,2.5713050986292,0.9991086018438836,68.20248699999999,-0.7356855999999965,-100.3258128
519.633,-0.7917116,1.1023754,1.2770094,-0.9805798,-0.1815624,0.0333894,-79.7886704,79.73870539999999,113.9267502,-0.2427038,3.3532966,0.5187244,-0.9766486,-0.047978,0.1879078,-11.5289836,79.043599,13.6280868,1.8635428054617045,0.9978058434856752,3.401849236115757,0.9957176897428308,68.2596868,-0.6951063999999946,-100.2986634
539.619,-1.022302,0.786031,1.0551534,-0.9794396,-0.1836644,0.0348399999999999,-79.8687104,79.75771019999999,113.8863664,-0.0827972,4.2741774,0.1891929999999999,-0.9745678,-0.0416294,0.1866618,-11.6124458,79.1276794,13.545436,1.6662217168481992,0.997120036643292,4.279163681637757,0.9931555927046072,68.2562646,-0.6300307999999945,-100.3409304
559.605,-1.1971028,0.5383316,0.7448602,-0.978131,-0.183673,0.0347104,-79.93146219999998,79.7693878,113.8620286,-0.5747215999999999,5.1583176,-0.3080624,-0.9741052,-0.0438334,0.187461,-11.781053,79.2255036,13.3863514,1.5091960584597484,0.995831730744788,5.199369944740428,0.9929470953397264,68.15040920000001,-0.5438841999999966,-100.4756772
579.59,-1.2175046,0.1510546,0.4717315999999999,-0.981867,-0.1837775999999999,0.0381318,-79.9470796,79.7741852,113.88042,-1.7764285999999998,6.908847199999999,-1.2350792,-0.9741478,-0.0529279999999999,0.1859546,-12.1394868,79.3523788,13.0596466,1.3144069558705478,0.9996454602117693,7.239702261427499,0.9931487414733002,67.80759280000001,-0.4218063999999998,-100.8207734
599.577,-0.2810376,-0.7492968,0.2554112,-0.9840154,-0.184977,0.0362986,-79.8576098,79.7711746,113.9856354,-3.1998108,9.8660784,-2.361825,-0.9733006,-0.0617037999999999,0.171255,-12.7685748,79.536824,12.4882524,0.8400373254739577,1.0019083722217916,10.637504852237118,0.9901765963300688,67.089035,-0.2343506000000018,-101.497383
619.563,0.7077157999999999,-2.313501,0.1585836,-0.9832018,-0.1836176,0.0333327999999999,-79.592084,79.76130520000001,114.2515518,-4.291880399999999,13.0654572,-2.7875772,-0.970582,-0.0556436,0.1492504,-13.572751599999998,79.79152979999999,11.7615528,2.424520012035289,1.000755853397241,14.031998997252524,0.9835656108491796,66.01933240000001,0.0302245999999968,-102.48999899999998
639.549,1.0872031999999998,-4.4966068,0.16752,-0.9826048,-0.1811481999999999,0.0326646,-79.0891742,79.74392700000001,114.751393,-5.519309399999999,16.2616386,-2.6530636,-0.9705604,-0.0507896,0.1371157999999999,-14.4942392,80.11338959999999,10.9409528,4.629205813343849,0.9996968737769666,17.37649022891514,0.9815130239207018,64.59493499999999,0.3694625999999942,-103.8104402
659.534,1.2341685999999998,-6.8144814,0.246583,-0.9828512,-0.1834218,0.040632,-78.3190098,79.71538079999999,115.5161772,-6.354085,18.8558438,-2.3065878,-0.9749618,-0.0528168,0.1345774,-15.5046412,80.4849258,10.047727599999998,6.929728137528984,1.0006452905403993,20.03091582719902,0.9856222412325324,62.8143686,0.7695449999999966,-105.4684496
679.52,2.0997868,-8.5783654,0.4253522,-0.9792504,-0.1859324,0.050676,-77.3232868,79.6783004,116.48925160000002,-5.5857362,19.4103518,-1.6089908000000002,-0.9787496,-0.0515112,0.1389166,-16.4663094,80.86362299999999,9.188475,8.841853993106662,0.9980331959639018,20.262059552035627,0.9898999974649764,60.856977400000005,1.185322599999998,-107.3007766
699.506,2.802098,-9.5811952,0.5684842,-0.9798876,-0.1813768,0.0645748,-76.1744022,79.63824299999999,117.6025176,-3.644763,17.576222800000004,-0.4551984,-0.9826436,-0.0389638,0.1519076,-17.187463599999997,81.2025452,8.532574199999999,9.998711364358742,0.9986226299293642,17.955921330435025,0.9950791633177531,58.98693860000001,1.5643022000000002,-109.0699434
719.492,3.4574146,-10.4518658,0.5161519999999999,-0.9844676,-0.1779964,0.0743734,-74.91005279999999,79.59030299999999,118.819499,-3.0025206000000004,15.569281800000002,0.3981641999999999,-0.9835734,-0.0359498,0.1593508,-17.7445024,81.499742,8.029829,11.020963084259323,1.0031901995585284,15.861153818414262,0.9970464877668644,57.16555040000001,1.9094390000000003,-110.78967
739.478,4.4348044,-11.6657432,0.4260968,-0.9886078,-0.1767204,0.0789,-73.5161272,79.52877659999999,120.1499494,-2.929081,14.5500108,0.6481785999999999,-0.9863202,-0.0462554,0.1489792,-18.3208328,81.77937299999999,7.507721200000001,12.48753830655089,1.007373164223169,14.85605820135932,0.9985799422128604,55.1952944,2.2505964000000005,-112.6422282
759.464,4.796222,-13.6416076,0.5619098,-0.9933154,-0.1770923999999999,0.0812552,-71.9416916,79.45029600000001,121.661679,-2.6327456,14.2504552,1.0056708,-0.9821178,-0.0431639999999999,0.1369632,-18.8704528,82.0589826,7.0070772,14.471107283445791,1.0122448367573724,14.526465384239176,0.992561042015593,53.0712388,2.608686599999998,-114.6546018
779.466,5.2668686000000005,-17.2331726,0.8358852000000001,-1.0008302,-0.1792748,0.084022,-70.0365996,79.34239199999999,123.5059142,-4.2743946,16.2309724,1.3905624,-0.973465,-0.0401256,0.1058994,-19.5848414,82.392256,6.3748494,18.039424790680982,1.0202255827174105,16.84186979032805,0.9800300265403707,50.4517582,3.0498639999999995,-117.13106480000002
799.436,6.3402778,-23.754867,1.2645916,-1.0038976,-0.178187,0.086339,-67.5384322,79.17788700000001,125.93271180000002,-6.3200492,21.0418726,2.463048,-0.9629626,-0.0518978,0.0506988,-20.5454942,82.8283872,5.5374758,24.61893622160901,1.0232377148911975,22.10814397129156,0.9656918343680038,46.992938,3.650500199999999,-120.395236
819.422,7.173433800000001,-32.6305206,2.0281566,-1.0103284,-0.1839162,0.0940256,-64.3060424,78.920549,129.091504,-4.9495462,27.2243476,3.3812726,-0.9597622,-0.0596244,0.0271652,-21.9860802,83.393257,4.1929638,33.47121817777372,1.0312271611649686,27.876443715565134,0.961996100675694,42.3199622,4.472707999999997,-124.8985402
839.408,8.8305466,-43.2642108,2.872278000000001,-1.0148816,-0.1934488,0.1247442,-60.2810104,78.51986380000001,133.0280244,-3.5101952,34.1442008,4.424144,-0.94707,-0.0535668,0.0087186,-24.172682,84.0983336,2.0740524,44.24952508571016,1.0406575881016964,34.60810553534475,0.9486237404515028,36.10832839999999,5.578469799999999,-130.953972
859.393,10.8861038,-56.73305800000001,3.5904818,-1.0184951999999998,-0.194526,0.1497828,-55.4799538,77.91405019999999,137.7243104,-2.1629132,42.8844276,5.231094799999999,-0.9271996,-0.05386,-0.0404936,-28.0816402,84.96683660000001,-1.7931402,57.87951870508142,1.0476677547175344,43.2564061948859,0.9296449480748658,27.3983136,7.052786400000002,-139.51745060000002
879.379,11.2534772,-72.0619354,3.9144114,-1.0285259999999998,-0.1910036,0.17376,-50.1194628,77.0421324,143.0045778,1.2258194000000002,52.13202819999999,5.636169,-0.9294998,-0.0673672,-0.0729142,-36.2022336,85.95518799999999,-9.9428124,73.04030325302013,1.0604436078778352,52.45014202500859,0.9347859104615988,13.917229199999998,8.913055600000002,-152.94739019999997
899.365,9.3803958,-86.6170356,4.2033732,-1.0410568,-0.2059698,0.2205337999999999,-44.607992,75.8649322,148.5036622,5.1751194,59.08947980000001,5.120248,-0.9484774,-0.060363,-0.059021,-51.65394679999999,86.8729492,-25.5260192,87.2248303395014,1.0839086567975735,59.53625301797526,0.9522271517451916,-7.045954800000001,11.008017,-174.0296814
919.351,8.048882599999999,-99.685263,4.316671,-1.049658,-0.2113923999999999,0.303866,-39.2656252,74.3781754,153.89050600000002,4.395549000000001,62.7939468,3.647457,-0.975227,-0.0764074,-0.0512174,-72.0092404,87.4684524,-46.014352,100.10279625969493,1.113015368131887,63.0531882484897,0.9795555187770216,-32.7436152,13.090277,-199.904858
939.337,7.6876214,-111.6158814,3.9037382,-1.06035,-0.2155754,0.3880474,-34.365740800000005,72.59823159999999,158.866562,7.8131812,62.83453899999999,2.557503,-1.0144948,-0.0979092,-0.0363018,-94.1090172,87.693692,-68.3210816,111.94839737764336,1.149519751997294,63.370071117220334,1.019854759931491,-59.7432764,15.095460400000002,-227.1876436
959.323,9.5352858,-121.3824632,3.0291986,-1.0660162,-0.2094706,0.4731037999999999,-30.0494384,70.5444444,163.2434784,13.350881600000005,58.4052498,1.8704906,-1.05459,-0.0945872,0.002578,-115.8090346,87.5681212,-90.342112,121.79408890395824,1.1849454318664805,59.94095410303632,1.0588264506461105,-85.7595962,17.0236768,-253.5855904
979.309,10.8458732,-129.6752426,1.7349570000000003,-1.0607704,-0.2039598,0.5657490000000001,-26.3790286,68.2441384,166.94851680000002,17.390073800000003,50.1592484,1.4942125999999998,-1.0778025999999998,-0.0656926,0.0366746,-133.806674,87.13641799999999,-108.7395568,130.1395850025317,1.219387293903459,53.10929803825643,1.080425373890617,-107.4276454,18.8922796,-275.6880736
999.295,13.9921094,-137.9015808,-0.2630362,-1.0568048,-0.1995442,0.6491081999999999,-23.2692866,65.70267799999999,170.035846,18.233567600000004,40.7126886,1.6247174000000002,-1.0872266,-0.053769,0.045078,-144.7463224,86.5692612,-120.0733612,138.609863648454,1.256182999552183,44.63883630981214,1.089488325404435,-121.4770358,20.8665832,-290.1092072
1019.281,18.923761,-147.16218880000002,-2.2116588,-1.0456686000000002,-0.1781808,0.704644,-20.5802556,62.913504,172.5969942,20.4690708,31.8425284,3.2927404,-1.0800616,-0.0282607999999999,0.0380347999999999,-150.80909100000002,86.09682020000001,-126.5593414,148.3903971874177,1.273457649570884,37.9969947977733,1.0811005404781926,-130.2288354,23.183316200000007,-299.15633560000003
1039.266,20.976596,-156.78588559999997,-4.0304046,-1.0316421999999998,-0.1543558,0.7491044,-18.2746024,59.8748664,174.7277224,19.6129578,24.3001088,4.2028864,-1.0672376,-0.008576,0.0339296,-154.6033384,85.74852920000001,-130.75558940000002,158.2342430207924,1.2842385852768323,31.509167799986766,1.067811247546082,-136.32873600000002,25.873662800000005,-305.4833118
1059.252,20.9118704,-166.3206512,-5.6741504,-1.0106948,-0.150385,0.7964308000000001,-16.331834399999998,56.6068236,176.489493,15.5204128,19.2149824,4.7196516,-1.0627298,0.0033325999999999,0.0268164,-157.4212736,85.4855944,-133.8922152,167.72614978583474,1.2955391333960855,25.14704502203184,1.063073305722498,-141.08943920000002,28.8787708,-310.38170819999993
1079.238,21.9912646,-175.774759,-6.7593266,-0.9840776,-0.1396206,0.8461342000000001,-14.6409854,53.12348540000001,105.9817384,10.2581338,15.8801204,5.6276712,-1.0634072,0.0001521999999999,0.0317145999999999,-159.854312,85.27936580000001,-136.5388248,177.2739972931754,1.3053144139155746,19.725065680816076,1.063880027084746,-145.21332660000002,32.1558804,-242.5205632
1099.224,22.709861,-184.9611696,-7.0669232,-0.9526246,-0.1175276,0.8843616000000001,-13.1489366,49.4554502,35.25979,6.150938,13.754613799999998,5.6957634,-1.0592172,0.0016699999999999,0.0306006,-161.99534,85.1094636,-138.8108188,186.48408363706,1.3051443616862772,16.1079222674985,1.059660446745183,-148.8464034,35.654013400000004,-174.0706088
1119.21,19.6479536,-192.8263582,-7.654782599999999,-0.923674,-0.1117504,0.911309,-11.9231336,45.6338744,-35.6629884,1.7223637999999994,12.4848818,5.1598822,-1.0631922,0.0198519999999999,0.041089,-163.9129762,84.95615699999999,-140.7698488,193.97588044392455,1.3023616639233355,13.618487248494176,1.0641710679988627,-151.9898426,39.3222826,-105.1068604
1139.196,16.7702248,-199.4065828,-8.059268,-0.8812384,-0.1062642,0.9367324,-10.9166362,41.6864928,-106.743683,-4.9652546,12.382132,4.5599752,-1.0643212000000002,0.0279927999999999,0.0380817999999999,-165.75285359999998,84.7978088,-142.51655899999997,200.2727577692773,1.290480835598096,14.098380046404628,1.0653700939638395,-154.8362174,43.111316,-35.772876000000004
1159.182,14.6114236,-205.640912,-7.799884799999999,-0.8519781999999999,-0.0996236,0.9580698,-10.0727452,37.6290558,-177.9319246,-11.093529,13.9967948,3.2275738000000005,-1.0545567999999998,0.0202769999999999,0.0233517999999999,-167.3546054,84.5888762,-143.9011812,206.30685056658604,1.285958575003192,18.14921163526379,1.0550101931822646,-157.28186019999998,46.9598204,34.03074339999999
1179.167,12.1325206,-211.7711946,-7.512795799999999,-0.8137460000000001,-0.0858828,0.9508238,-9.3827902,33.452235200000004,-177.2084076,-15.1766276,16.202023,0.4114599999999999,-1.0437384,0.0226406,0.0019665999999999,-168.5193636,84.3209976,-144.7639466,212.25145233696983,1.2544418306554832,22.20371306635921,1.0439857814733302,-159.1365734,50.8687624,32.444461
1199.153,7.139823,-216.707251,-7.793183799999999,-0.7636613999999999,-0.0782607999999999,0.9570082,-8.885011599999999,29.1729948,-176.5652862,-20.5275584,16.4607976,-2.9271984000000004,-1.0527533999999998,0.0373871999999999,-0.0075794,-169.2209932,84.0332414,-145.052298,216.96484374706637,1.2268529583995955,26.474648287872284,1.0534443370391051,-160.33598160000005,54.8602466,31.512988199999995
1219.139,5.052367800000001,-221.56253340000004,-7.3241264,-0.7178937999999999,-0.0801967999999999,0.9723314,-8.5007748,24.789455600000004,-175.966223,-29.4260274,16.6584734,-8.8256338,-1.0693503999999998,0.0225499999999999,-0.0185256,-169.04512640000002,83.7194214,-144.27847920000002,221.7411226059248,1.2112932701186117,34.94692599551155,1.0697485584638662,-160.5443516,58.929965800000005,31.687743799999996
1239.125,4.6639392,-227.2184844,-6.0223512,-0.6785483999999999,-0.0689093999999999,0.9692958,-8.180023,20.289132,-175.37798759999998,-39.3510708,13.454822600000004,-17.5179822,-1.0932126,0.0176081999999999,-0.0462102,-167.5744904,83.41140759999999,-142.00011,227.34612531527887,1.1852049546169472,45.12669636327925,1.0943304894272297,-159.3944674,63.1222756,33.37787759999999
1259.111,2.5439828,-232.6984832,-5.607557999999999,-0.6158357999999999,-0.061629,0.9665026,-7.9545838,15.667212,-174.8065612,-50.4836106,9.7115376,-26.8488554,-1.1146442,0.0236001999999999,-0.0640323999999999,-164.9147064,83.10754259999999,-138.2972932,232.7799403702792,1.1476842518782766,57.998016673492856,1.1167313062162445,-156.96012260000003,67.44033060000001,36.509268
1279.097,2.5970248,-236.9111052,-5.000346799999999,-0.544775,-0.0714138,0.9763482,-7.7747146,10.9617798,-174.23967280000002,-62.83411579999999,8.099377200000001,-35.354961,-1.1230142,0.0079249999999999,-0.0792774,-161.475763,82.7531862,-133.5584978,236.97809977510065,1.120328317547441,72.55135620170866,1.125836846606736,-153.70104840000002,71.7914064,40.681175
1299.083,4.097564800000001,-240.624124,-3.3437714,-0.4635728,-0.0735876,0.9825208,-7.606773200000001,6.185711,-173.65213920000002,-72.39796159999999,9.323169,-41.078200200000005,-1.1192350000000002,-0.0404736,-0.1035112,-157.73717040000002,82.295543,-128.3234438,240.68223842908108,1.088881076245813,83.76040147772045,1.1247398214909083,-150.1303972,76.10983200000001,45.3286954
1319.069,3.7471118,-244.1985596,-1.5156761999999997,-0.3731368,-0.0823054,0.9690754,-7.4958474,1.342243,-173.0352814,-74.477855,16.090123799999997,-46.422757,-1.0815894,-0.0810015999999999,-0.1243647999999999,-154.181546,81.6235918,-123.2283204,244.23200984289448,1.041687276138362,89.2239616738766,1.0917250078998648,-146.6856986,80.2813488,49.806961
1339.055,2.8377864,-246.810791,0.1896114,-0.2719206,-0.098665,0.9528326,-7.462068,-3.5493296,-172.3844574,-70.7838602,28.771435200000003,-48.0428482,-1.0508184,-0.1065267999999999,-0.1343083999999999,-151.585681,80.6707796,-119.172815,246.8271774707573,0.9957738491003468,90.25666519127098,1.0647093571521573,-144.123613,84.2201092,53.2116424
1359.041,2.5732886,-248.776773,1.6024558000000002,-0.1738812,-0.1055301999999999,0.9269022,-7.4918914,-8.4761612,-171.69617599999998,-61.28954259999999,47.7995774,-49.9458856,-1.051639,-0.1405317999999999,-0.1585272,-150.10762920000002,79.3353486,-116.437535,248.79524204273557,0.9489567867876388,92.3893885687317,1.0727649538794974,-142.61573779999998,87.8115098,55.258641
1379.027,0.8740896000000001,-250.6472076,2.9219318000000003,-0.08783,-0.1167502,0.9015992,-7.6206624,-13.4356526,-170.95989980000002,-46.057802800000005,67.7706646,-50.6311396,-1.0318438,-0.155167,-0.1924055999999999,-149.6226132,77.6273574,-115.016635,250.66576231258665,0.9133596419487124,96.32079981127684,1.0610364463103048,-142.00195079999995,91.06301,55.9432648
1399.013,2.1495972,-252.166446,4.083626000000001,-0.0077612,-0.1314918,0.82873,-7.802951,-18.4172452,-170.16401360000003,-27.2168392,93.6255944,-48.540558,-0.989366,-0.1611656,-0.2393139999999999,-150.06520659999998,75.4800216,-114.936476,252.20867006845947,0.8391327324045225,108.91599530713262,1.0305778103449346,-142.26225559999995,93.89726679999998,55.227537600000005
1418.998,3.2143834,-251.04248360000005,4.752239400000001,0.0901117999999999,-0.1223834,0.755159,-8.050692399999999,-23.3658804,-169.3132202,-9.1027408,124.097116,-34.5751138,-0.9396574,-0.1515581999999999,-0.2924778,-151.7594114,72.903041,-116.55261679999998,251.1080337464602,0.7703005571696024,129.1448511705844,0.9957254545580524,-143.708719,96.2689214,52.760603400000015
1438.984,1.2939356000000004,-247.626346,4.5993196,0.176737,-0.1232439999999999,0.6880560000000001,-8.4343458,-28.236501,-168.40921640000002,7.450342399999999,161.8955536,-15.6964554,-0.9148762,-0.1704526,-0.3500613999999999,-154.42635479999998,69.753208,-119.5940688,247.67243537267447,0.721003543570349,162.8252332700675,0.9942814158693504,-145.992009,97.989709,48.81514760000001
1458.97,2.4137604,-241.9952424,6.2456084,0.2556672,-0.130002,0.6004208,-8.925686200000001,-32.987125400000004,-167.39534020000002,21.512245,199.3811798,8.248903,-0.842191,-0.1794296,-0.3919655999999999,-157.72718799999998,66.03066559999999,-123.70124819999998,242.0878584476915,0.6654106808824758,200.7079369234893,0.9461065972819976,-148.80150179999998,99.017791,43.69409200000001
1478.956,6.184688400000001,-234.1055848,7.5148802,0.3408002,-0.1194488,0.4974599999999999,-9.4710808,-37.5720284,-166.27474999999998,26.8749136,208.8624756,28.434936800000003,-0.7738834000000001,-0.1512546,-0.4408751999999999,-161.23880920000002,62.2287218,-128.223468,234.30780744477005,0.6147188330785709,212.4955066009351,0.9034071135383872,-151.76772839999998,99.8007502,38.051282
1498.942,6.2427622,-222.1772462,6.751116000000001,0.4164978,-0.1048296,0.4249888,-10.1065758,-41.9215264,-165.1061434,18.3026546,171.18378220000002,39.4687078,-0.6870348,-0.1126844,-0.4687396,-164.4863862,59.1963076,-132.302719,222.3674400089784,0.6042144839098448,176.62574373263294,0.8393041183162155,-154.3798104,101.117834,32.8034244
1518.928,4.9762998000000005,-205.1318848,4.751787800000001,0.4716619999999999,-0.1185152,0.3421418,-10.8139272,-45.940313,-163.9465882,2.5335313999999984,110.0398462,40.0427958,-0.6582703999999999,-0.1138042,-0.4940742,-167.029187,57.2964022,-135.2885894,205.2472489671815,0.5946191269899413,117.12647876784712,0.8308914673767206,-156.2152598,103.2367152,28.657998799999994
1538.914,7.8964094,-182.2961106,3.983237400000001,0.5197269999999999,-0.1381888,0.2410702,-11.4912716,-49.511351000000005,-162.807373,-13.781811400000004,43.205417800000006,33.079099,-0.6323445999999999,-0.0968663999999999,-0.5038572,-168.787796,56.6181346,-137.0453002,182.51052408418695,0.5893446702079183,56.13263973295331,0.8143186542072826,-157.2965244,106.1294856,25.76207279999999
1558.9,7.9834028,-152.4846452,2.7591054,0.5626004,-0.1501627999999999,0.1647214,-12.1268524,-52.4921714,-161.7710906,-26.7435584,-26.030321999999995,19.7814156,-0.6717982,-0.0767239999999999,-0.5254888,-169.771051,57.2078204,-137.60213,152.718415407721,0.6051456157008492,42.238607723951056,0.8563514889487143,-157.6441986,109.6999918,24.16896059999999
1578.886,1.9811358,-115.00625499999998,1.1622488000000002,0.594228,-0.1532964,0.1144808,-12.7416838,-54.7389266,-160.9478454,-32.670316400000004,-64.89149520000001,8.7538282,-0.6818367999999999,-0.0715488,-0.537202,-170.30130300000002,58.5088656,-137.4710326,115.02918938450432,0.6242696178780447,73.17708132416084,0.8709802761369971,-157.5596192,113.2477922,23.476812799999998
1598.872,-3.9625368,-72.29126740000001,0.3442360000000003,0.6142239999999999,-0.1668488,0.0708012,-13.25413,-56.1499152,-160.4131104,-28.601271000000004,-57.06775280000001,5.051851399999999,-0.6985212000000001,-0.0895832,-0.5464448,-170.7001798,59.6406008,-137.2751494,72.40060454591077,0.6404080372378846,64.03344684635547,0.8913803542925545,-157.4460498,115.790516,23.137961
1618.858,-4.479894,-27.9396698,1.3013270000000003,0.62417,-0.168984,0.0526584,-13.546347,-56.6904854,-160.1654482,-20.9799674,-31.006864199999995,3.6107276,-0.7169278,-0.0791882,-0.5457948,-171.0616422,60.2522958,-137.2101224,28.326454962546887,0.6487809246938138,37.61146119766827,0.9045154532340064,-157.51529520000005,116.94278119999998,22.9553258
1638.844,-7.198218799999999,16.1662828,1.7818010000000002,0.635576,-0.1424002,0.0636942,-13.6283988,-56.3688446,-160.24138820000002,-15.3608996,-6.804561799999999,4.6244168000000005,-0.705728,-0.0683343999999999,-0.5393284,-171.4811856,60.3829094,-137.33999920000002,17.785889583201914,0.6544399283736285,17.425398949562723,0.8908404589228759,-157.85278680000002,116.751754,22.901388999999995
1658.829,-11.196803200000002,57.97948160000001,1.8935472000000004,0.6353606,-0.1319296,0.0875436,-13.5286888,-55.232058,-160.63842499999998,-14.9624712,13.4401182,9.3656792,-0.6373838000000001,-0.0658698,-0.5242738,-172.1426388,60.107885,-137.7614104,59.08108165481483,0.6547918702072286,22.186217985905422,0.8279250910685821,-158.61395,115.339943,22.8770146
1678.816,-11.2466596,95.2524646,4.363724,0.6310119999999999,-0.1283266,0.1135974,-13.2787336,-53.357766000000005,-161.2271456,-16.528794400000002,24.736449200000003,14.5842798,-0.6609807999999999,-0.100462,-0.5133628,-173.0338864,59.6165168,-138.4216674,96.01333996732278,0.6538717226630311,33.132977237585216,0.8429291760500878,-159.7551528,112.9742828,22.805478200000003
1698.801,-10.0401754,127.5656082,9.9937948,0.6242964000000001,-0.1256844,0.1517138,-12.9900972,-50.827627,-161.84518759999995,-15.5416722,16.5324676,15.1995422,-0.7633242,-0.1116873999999999,-0.4948576,-173.8785734,59.2995604,-139.0587066,128.34977776374674,0.654644667408786,27.31102602991845,0.9165271157484433,-160.8884762,110.1271874,22.78648100000001
1718.787,-10.476803,155.71399839999998,16.545696,0.6107899999999999,-0.1331194,0.1933452,-12.7531662,-47.718545,-162.4227236,-10.0521486,-16.100768999999996,13.8913,-0.7980186,-0.1219983999999999,-0.5103808000000001,-174.4492796,59.63253099999999,-139.5099366,156.94066635177902,0.6543451421989774,23.5212386909755,0.955094684603134,-161.6961134,107.351076,22.912787000000005
1738.773,-7.575580200000002,181.0866028,23.5391238,0.5790895999999999,-0.160242,0.252122,-12.5388438,-44.0848078,-162.9166352,-2.3011748000000005,-55.8614684,8.334791999999998,-0.8286168,-0.1160056,-0.5279432,-174.49883719999997,60.7483926,-139.545569,182.76716739689135,0.6516039949817372,56.5267000182004,0.9893367085577286,-161.95999339999997,104.8332004,23.3710662
1758.759,0.8951545999999986,202.0395722,32.2113042,0.5252816,-0.1607944,0.3392136,-12.2886014,-39.9965616,-163.249768,5.095839,-95.6937362,-2.1905314,-0.9132452,-0.127361,-0.5006056,-173.70490420000002,62.651011,-138.816214,204.5931527563468,0.6456326082183892,95.85435384396212,1.0492109351295382,-161.41630279999998,102.64757260000002,24.433554
1778.745,6.939493799999998,218.6912142,39.074684000000005,0.4334057999999999,-0.1614986,0.4373628,-12.020024,-35.5531056,-163.4517486,9.853602,-123.6287872,-16.1573306,-0.9335796,-0.1026108,-0.446825,-171.9278108,65.0694666,-137.11851800000002,222.26298538481475,0.6365599768281383,125.06890032711962,1.0400732793595844,-159.9077868,100.6225722,26.33323059999999
1798.731,10.2419952,231.8367494,40.8839636,0.3328513999999999,-0.157331,0.5317000000000001,-11.7243536,-30.8437004,-163.628665,10.3540616,-131.8245986,-23.1260724,-0.893673,-0.0477194,-0.4145892,-169.59285599999998,67.6013124,-134.83171380000002,235.6367444132628,0.646720950675761,134.23764975712947,0.9863127175607136,-157.86850239999998,98.4450128,28.796951199999985
1818.717,14.0723944,239.9773866,40.1794532,0.2244062,-0.1401612,0.6367446,-11.3696256,-25.976475400000005,-163.81561259999998,7.161745800000001,-119.9859894,-22.4087434,-0.8727664,-0.0157904,-0.3400405999999999,-167.21090120000002,69.89628300000001,-132.429373,243.72436649413203,0.6895266421343268,122.270519897348,0.9368020790697894,-155.8412756,95.8727584,31.386239599999985
1838.703,15.617880999999995,241.3175812,37.791154,0.0981901999999999,-0.1090717999999999,0.749258,-10.9965346,-21.0888954,-164.01815779999998,6.1017446,-99.5453094,-13.1222344,-0.8624368,-0.0402534,-0.2778376,-165.2930698,71.8202408,-130.5058134,244.75756275098115,0.7634955949416342,100.59171410386593,0.9069792181629964,-154.2965352,92.9091362,33.51234439999999
1858.689,8.195535199999998,239.194333,31.714358,0.0007763999999999,-0.1127962,0.8187035999999999,-10.754587400000002,-16.2722824,-164.309497,12.3723456,-73.2441894,0.0885154,-0.8579799999999999,-0.0375816,-0.2625122,-164.153931,73.26659839999999,-129.5419584,241.42679271340515,0.8264376384122154,74.28185546608908,0.8980282357517495,-153.3993436,89.5388808,34.767538599999995
1878.675,3.076320399999998,235.8328186,27.0096388,-0.0547592,-0.1176596,0.8631106,-10.6115112,-11.539039,-164.664978,21.2732576,-55.13035119999999,17.5881196,-0.8898534,-0.0521636,-0.2610077999999999,-164.0535342,74.4264158,-129.8636412,237.39440318619648,0.8728128432196446,61.65427043940429,0.9288084766610176,-153.442023,85.9654548,34.8013368
1898.66,3.3362117999999983,230.9109192,26.0581062,-0.111636,-0.147818,0.9238082,-10.487184,-6.9031026,-165.0050904,32.5965038,-39.9389972,32.177119600000005,-0.9330714,-0.0995912,-0.2463828,-164.96224999999998,75.3596358,-131.4747954,232.4005331613804,0.9421965548691208,60.77024422427251,0.9701778851072828,-154.475066,82.2627384,33.53029500000001
1918.646,4.224645199999998,226.0934632,26.7701652,-0.1616506,-0.1638896,0.976936,-10.36863,-2.3430226000000003,-165.2999206,47.20425899999999,-23.286454999999997,39.4119202,-1.0165604,-0.1064841999999999,-0.2276406,-166.5105532,76.00096119999999,-134.048117,227.71197481395424,1.0036905228029804,65.75561198907111,1.047164826790014,-156.1419232,78.3439838,31.25180360000001
1938.632,-0.672903800000002,223.0548798,27.0949546,-0.181587,-0.1615049999999999,0.9760858,-10.3635128,2.1658964000000003,-165.56896060000005,53.8852198,-14.901166399999994,40.235234000000005,-1.0963288,-0.047639,-0.170141,-168.3242586,76.47028639999999,-137.027655,224.6955023290243,1.0058832897288037,68.8805903575859,1.1104747957119243,-157.96074579999998,74.30438999999998,28.5413056
1958.618,-2.513380600000002,221.6439818,28.3915222,-0.2319932,-0.179461,0.9825136,-10.4281242,6.6591882,-165.8127502,45.1140684,-13.499181999999994,42.058319,-1.124337,-0.0123886,-0.1321526,-170.689673,76.9075804,-140.3878968,223.4691260175156,1.025358507816754,63.13801770229062,1.1321446359302862,-160.2615488,70.2483922,25.4248534
1978.604,2.7728807999999985,219.8204468,28.4884126,-0.321788,-0.2104038,1.0017808,-10.413169,11.1168428,-166.05299380000002,35.3103912,-11.195778399999991,43.2174986,-1.1085484,-0.0050192,-0.1216839999999999,-101.5520478,77.2709564,-144.05266419999998,221.67613166904204,1.0730247188425253,56.920307148854576,1.1152182492082885,-91.1388788,66.1541136,22.0003296
1998.59,5.042347599999999,216.5087646,26.9053154,-0.4116316,-0.1740466,1.004346,-10.3773122,15.5077036,-166.31429740000002,26.450986,-13.663910799999991,41.5357612,-1.080856,0.0362817999999999,-0.096948,-32.6675202,77.64205319999999,-147.7872804,218.2323679354438,1.0992923545654814,51.10358673504217,1.0858015364012157,-22.290208,62.13434959999999,18.527016999999997
2018.576,-1.9547870000000012,211.3577788,22.875643,-0.5115727999999999,-0.1582394,0.9748564,-10.52217,19.7668542,-166.64882500000002,14.6500048,-19.9048238,38.4004758,-1.0690104,0.0375879999999999,-0.0960284,36.094217,78.0939438,-151.4006654,212.60109805489847,1.1122461229571268,45.66641208607761,1.0739727867402973,46.61638700000001,58.3270896,15.248159599999996
2038.562,-2.0349774000000016,205.48671560000005,20.0015612,-0.6112222,-0.1807566,0.9698648,-10.7206468,23.8982856,-167.046704,4.2292824,-23.303092999999997,30.0407638,-1.0198117999999998,0.0261835999999999,-0.15097,105.2206422,78.5862336,-154.42486879999998,206.46790034175083,1.160561612537413,38.25399930298777,1.0312582747441106,115.941289,54.687948000000006,12.621835199999998
2058.548,4.339192399999999,197.8575286,17.6979632,-0.7162146,-0.1925288,0.977872,-10.8338514,27.866430200000003,-167.4880736,1.8111588,-25.090326,26.9138446,-1.002385,-0.010533,-0.1820808,174.35641800000002,79.069388,-157.38534539999998,198.69486182539447,1.2272996131615947,36.83964964733028,1.0188425050235386,185.1902694,51.2029578,10.1027282
2078.534,6.965358199999999,188.3224608,17.170499999999997,-0.7679366,-0.1535694,0.9568278,-10.9019232,31.6499276,-167.9144376,4.1387582,-25.567742399999997,19.4123132,-0.9980186,-0.0314632,-0.1908862,172.1248262,79.5508348,-159.74400020000002,189.23184596381196,1.2364584995416386,32.36783395047804,1.0165965769422205,183.02674940000003,47.900907200000006,8.170437399999992
2098.519,3.788166399999999,178.71116320000002,16.5711646,-0.8100826,-0.15769,0.9223018,-11.0410704,35.2428712,-168.328665,7.040279600000001,-24.463281599999995,15.341404799999998,-1.0257587999999995,-0.0410264,-0.190751,170.22990439999998,80.000168,-161.8150756,179.5177806045168,1.2376350694796912,29.721648418695377,1.0441504801873145,181.27097480000003,44.7572968,6.513589399999989
2118.51,6.664045399999999,171.3552154,15.997098599999998,-0.8469546000000001,-0.1896812,0.9101172,-11.168942,38.6927186,-168.7649078,7.4840300000000015,-22.6850998,12.9676814,-1.033433,-0.0045921999999999,-0.1891438,168.3839906,80.399437,-163.8393646,172.22928470353634,1.25762648263721,27.180603725244328,1.050609456871715,179.55293260000002,41.70671840000001,4.925543199999993
2138.491,14.6096558,164.3160674,14.8781466,-0.8769769999999999,-0.1842692,0.8841376000000001,-11.174241,41.995556,-169.2227478,9.8930066,-20.918535799999997,13.4093602,-1.0439632,-0.0177457999999999,-0.1746872,166.5047822,80.7666718,-165.9477294,165.6338470683058,1.258865795997095,26.744488414940168,1.0586263241652931,177.67902320000002,38.7711158,3.275018399999999
2158.477,18.0924386,157.9908844,13.309411,-0.8594484,-0.135477,0.8396725999999999,-11.151692400000002,45.16027319999999,-169.71070559999998,15.0679918,-21.077614399999995,12.6552694,-1.0290216,0.0195312,-0.139504,164.529007,81.1267426,-168.25366200000002,159.5794357339186,1.2091549300988356,28.83515301271229,1.0386184511436334,175.6806994,35.96646940000001,1.457043599999997
2178.463,15.180435999999997,155.2956786,9.2817228,-0.8589513999999999,-0.1616757999999999,0.7845554,-11.326802,48.2487124,-170.35027480000002,10.3116562,-25.133163999999997,13.812976,-1.0657352000000002,0.0756526,-0.0711274,161.9435638,81.54886020000001,-171.07839660000002,156.31168800547397,1.1745057460637474,30.47629393831327,1.0707819289830027,173.27036579999998,33.300147800000005,-0.7281218000000024
2198.449,18.0649424,157.20503839999998,4.940310800000001,-0.8448907999999999,-0.1738719999999999,0.7432262,-11.6432342,51.3337068,-171.2110932,-2.0431904000000003,-34.19198339999999,11.803146000000002,-1.0908132,0.0954546,-0.0084325999999999,158.5051146,82.1259476,-102.5118224,158.3166855169138,1.1386207097515308,36.2295543904951,1.095014213011941,170.1483488,30.7922408,68.6992708
2218.435,22.4916252,161.3046844,1.1842596,-0.8413836,-0.130782,0.7281364,-12.0998232,54.4722796,-172.3174652,-11.647805000000002,-45.85705539999999,8.419545600000001,-1.0823632,0.074096,0.0475418,153.6896788,82.9012268,-35.134719600000004,162.86950876183383,1.1203628478657797,48.0565254610357,1.0859376301968175,165.789502,28.4289472,137.1827456
2238.421,23.3291914,165.8668792,-3.0269726,-0.8727604,-0.134591,0.6523256,-12.8935048,57.68007300000001,-173.791394,-13.8092212,-51.5399564,4.062385000000001,-1.0439286,0.075557,0.0531272,148.13294060000004,83.803331,31.5405366,167.52681979326886,1.0978862151901352,53.512285203985215,1.0480068136833842,161.0264454,26.123258,205.3319306
2258.407,22.4230058,168.4008086,-6.648332000000001,-0.9381604,-0.138139,0.5588092,-14.113635,60.91663000000001,-103.6719726,-12.5658456,-53.52950759999999,-4.8337366,-1.0102046,0.0685974,0.0146433999999999,142.6557342,84.7975022,98.2745332,170.01712809191577,1.1006793545142015,55.196681685221584,1.0126368383144473,156.76936919999997,23.880872199999995,201.9465058
2278.393,20.7502038,166.467343,-8.830417800000001,-1.0190112,-0.1179389999999999,0.4990058,-15.768204,64.09807900000001,-33.9517882,-11.4687262,-53.148398,-12.0366078,-0.9688752,0.0443982,-0.058326,137.1987334,85.856932,165.0075442,167.9878671861267,1.1407454676132094,55.68809404125797,0.9716441095454034,152.9669374,21.758853,198.9593324
2298.379,19.6116872,159.10955800000002,-8.282823,-1.1002518,-0.0885294,0.4401536,-17.7514806,67.1334542,35.4815858,-6.369355200000002,-44.80346659999999,-16.0688894,-0.9531092,0.0067277999999999,-0.1258934,132.4841766,86.81471859999999,160.3859896,160.52748947963818,1.188329360766854,48.02216687729235,0.9614112328140544,150.23565720000002,19.6812644,124.90440380000004
2318.364,16.1190252,148.1007186,-7.073420400000001,-1.1574376,-0.0876682,0.3555583999999999,-20.169225,69.931195,104.5681398,1.1076965999999988,-31.951952999999992,-17.548419799999998,-0.9448822,0.0097385999999999,-0.1840374,128.77444300000002,87.57038739999999,156.6297242,149.14314968978545,1.2139889978890088,36.470554283543485,0.962687372310222,148.943668,17.639192399999995,52.0615844
2338.35,10.347921,135.7503494,-5.2509708,-1.1737536000000002,-0.078545,0.3352768,-23.1374352,72.445169,173.25002460000002,2.2801441999999987,-22.019481799999998,-14.409261,-0.9816275999999998,0.019457,-0.1787574,126.1180738,88.136046,153.907007,136.2454018511699,1.2232241671730495,26.413697940262843,0.9979606845890872,149.25550900000002,15.690876999999997,-19.343017600000003
2358.336,7.4215866,123.882341,-3.0160352,-1.155482,-0.0833132,0.3266552,-26.684206800000005,74.684291,169.43049639999998,-0.2109218000000016,-14.997294199999994,-10.4695838,-1.0215294,0.0010739999999999,-0.1414846,124.2097548,88.54915020000001,151.9850128,124.14109242160396,1.2036541701440997,18.29140525690389,1.0312814167711546,150.8939616,13.864859199999998,-17.445483600000003
2378.322,8.587026999999999,113.610106,-1.6179112000000004,-1.1263374,-0.0826549999999999,0.3108628,-30.8652992,76.6600998,164.97176840000003,5.134506999999998,-9.039338199999994,-5.326784999999999,-1.0350064,0.0097332,-0.0994292,122.6759644,88.784688,150.3377898,113.94564868691148,1.1713682034644783,11.68107168299438,1.039816882453752,153.5412636,12.124588199999996,-14.6339786
2398.308,9.1985612,104.483577,-2.5718934000000004,-1.1079496,-0.1016986,0.2933532,-35.971470999999994,78.36407940000001,159.5886264,11.3437324,-6.246462599999994,-1.3596094,-1.0187468,0.0424321999999999,-0.0689562,120.5980652,88.8778016,148.0328002,104.91923573170956,1.1506307058880183,13.02102520912147,1.0219591438142328,156.5695362,10.513722199999998,-11.555826200000002
2418.294,10.313335599999998,94.6166702,-3.7608204,-1.0940308,-0.111547,0.2800827999999999,-42.013522,79.7760302,153.2626772,12.8352324,-2.7539585999999945,-1.7138567999999998,-1.0071666,0.0368054,-0.058175,120.4512788,88.9340912,147.62733459999998,95.2513671346236,1.134809455112831,13.238760661913558,1.0095164824061666,162.4648008,9.158060999999998,-5.635342599999996
2438.28,11.76184,82.0840278,-4.549883800000001,-1.0900248,-0.1142454,0.2580614,-48.4538186,80.8693256,146.5186312,13.1602162,0.4786152000000058,-1.2370738,-0.9946488,0.0356722,-0.0889296,121.7344636,88.9360138,148.64590760000002,83.04715493411123,1.1259670342448576,13.226893608367003,0.999253328716217,170.1882822,8.066688199999998,2.1272764000000053
2458.266,12.682478799999998,66.25929980000001,-5.305804800000001,-1.0988306,-0.1114014,0.2416529999999999,-54.49901139999999,81.64230380000001,140.162903,12.128841999999995,6.080446800000006,0.3513282,-0.9924154,0.0533034,-0.1340482,124.5976562,88.79722139999998,151.2720338,67.67046359435136,1.1305906119490468,13.572180114215604,1.002845201679681,179.0966676,7.154917599999999,11.109130800000004
2478.251,11.0940284,46.23903539999999,-5.524751800000001,-1.1142302000000002,-0.1175047999999999,0.24719,-59.1800486,82.09920079999999,135.2185152,8.151506799999998,13.581518000000006,0.0123815999999999,-0.9922806,0.046771,-0.182998,129.90898280000002,88.53004159999999,156.4304598,47.87116818413838,1.1473531333966367,15.839976249943966,1.0100973139165157,189.0890314,6.430840799999999,21.2119446
2498.238,11.198243,22.568280400000003,-4.635580200000001,-1.1220567999999995,-0.1153172,0.2541564,-61.563621,82.26673000000001,132.59042359999998,5.167274999999998,21.038561000000005,-1.6724140000000003,-1.0044332,0.0229798,-0.213009,137.7399674,88.1710832,92.1681794,25.616723644734613,1.1562460787838544,21.728293731071982,1.0270282170180527,199.3035884,5.904353199999997,-40.42224419999999
2518.223,11.6511352,-2.9346142,-3.0638962000000007,-1.1234928,-0.123361,0.276335,-61.0702424,82.1602632,132.8561616,6.123762999999999,26.270847000000003,0.6306151999999999,-1.0229508,0.029692,-0.2174738,145.085788,87.6619996,27.409686400000005,12.39953111516299,1.1635355775384957,26.982504533642707,1.046233629631107,206.1560304,5.501736399999999,-105.44647519999998
2538.209,13.5741314,-27.776398,-1.9146326000000005,-1.1264059999999998,-0.1294392,0.3314146,-57.8706902,81.7836396,135.8158356,8.3957272,28.309928000000006,2.2314352,-1.0449832,0.0312746,-0.1736744,151.0870606,87.08044279999999,-38.733563200000006,30.975008427954503,1.181262299587098,29.61282765346469,1.0597786495786563,208.9577508,5.296803199999997,-174.5493988
2558.195,16.270288400000002,-51.8894584,-1.2589068000000003,-1.1319997999999998,-0.1355598,0.4033922,-52.5623832,81.0925064,140.862561,10.4102322,26.716414600000007,1.8614572,-1.0485012,0.0333932,-0.1368299999999999,155.63925799999998,86.5368194,-106.36947320000002,54.39506433487869,1.2093491115459256,28.73333893658101,1.0579188631968333,208.2016412,5.444312999999997,-247.2320342
2578.181,20.4002626,-75.43170319999999,-1.3039134000000003,-1.1376406,-0.1312814,0.451623,-46.0571794,80.0138258,147.0592284,12.2224008,22.377137600000005,2.8675204,-1.0472586,0.0460176,-0.1133472,158.14545900000002,86.05062860000001,-176.09183040000002,78.1524967736575,1.231025700334205,25.65825484575268,1.0543793352164863,204.2026384,6.036802799999999,-323.1510588
2598.167,21.6174954,-98.6798294,-1.9219832000000003,-1.1481736000000002,-0.136187,0.4967746,-39.281241,78.47069979999999,153.5364288,13.627451,17.336904600000008,3.4359524,-1.0378602,0.0456316,-0.1189664,159.35772079999998,85.65613859999999,-175.1415374,101.03820493854394,1.2584254121365797,22.317738477766248,1.0456524479919511,198.6389618,7.1854388,-328.6779662
2618.153,21.791578,-121.6637772,-2.8820046000000006,-1.1591026,-0.1340866,0.546541,-32.903132,76.42023139999999,159.6422392,14.882629599999998,11.975398600000004,2.7795016,-1.034798,0.0350585999999999,-0.110581,160.1265226,85.3829408,-174.6640534,123.63354522465067,1.2884894715547035,19.303586832091096,1.0412800602138503,193.0296546,8.9627094,-334.3062926
2638.139,21.0200762,-143.8467728,-3.9587282,-1.1705406,-0.1243162,0.5898733999999999,-27.302399599999998,73.8631498,165.01708960000002,14.756014399999998,6.9350550000000055,2.4077998000000003,-1.0364121999999998,0.0500186,-0.0958206,160.3859862,85.2187806,-174.6960694,145.42836441832833,1.3166512225560572,16.48127570010624,1.0420334428602374,187.6883858,11.3556308,-339.713159
2658.124,19.9142332,-164.0130494,-5.5215572,-1.1817715999999998,-0.1140769999999999,0.6267609999999999,-22.680391200000003,70.8224852,169.4491178,12.5729552,1.8424758000000052,1.9382456,-1.0435706,0.068086,-0.0738354,160.1256194,85.166716,-175.20662539999998,165.30984438727083,1.3425449815989627,12.85421003176438,1.048392563343293,182.8060106,14.3442308,-344.6557432
2678.11,17.466579199999998,-181.5302766,-7.043912800000001,-1.1842636,-0.116416,0.6673768,-19.0630996,67.36074679999999,172.93490579999997,10.687179999999998,-3.5383151999999947,0.7748014000000001,-1.0563748,0.0580904,-0.0482086,159.62278740000002,85.243991,-175.9246308,182.50462848639316,1.3643404093257665,11.284316905173876,1.0590685916224505,178.685887,17.8832442,-348.8595366
2698.096,16.240534200000003,-195.9830964,-8.6233236,-1.1795981999999998,-0.114421,0.701613,-16.2905638,63.5578974,175.6020262,9.4301954,-8.254494999999995,-0.7239012,-1.0601032,0.0676744,-0.019405,158.89369200000002,85.436537,-176.8453796,196.8438232090186,1.3772453958729505,12.553457927382697,1.0624383149579084,175.18425580000002,21.8786396,-352.4474058
2718.082,16.268864999999998,-208.0262116,-10.079578799999998,-1.1775404,-0.0974332,0.729808,-14.145909800000002,59.4795794,105.6405578,6.265871999999999,-10.722554999999996,-2.1770544000000003,-1.0524648,0.0872732,-0.0124269999999999,158.0551728,85.6855558,-177.8127196,208.90471174634047,1.3887816023257222,12.608485377275429,1.05615017729785,172.2010826,26.205976400000004,-283.4532774
2738.068,13.8850416,-218.8571382,-11.2934456,-1.1712593999999998,-0.081432,0.7407384,-12.5060066,55.162153,35.2189972,1.392320799999999,-11.108396599999994,-3.7549904,-1.0456226000000002,0.098922,-0.0319526,157.4534088,85.940338,-178.4456906,219.58775747943645,1.388226613326124,11.808259191646169,1.0507774038118256,169.9594154,30.778185,-213.6646878
2758.054,9.4346544,-227.8566712,-12.6749312,-1.1433054,-0.0704572,0.7501174,-11.3038906,50.6551958,-35.5498992,-0.0576512000000011,-9.869480399999995,-6.2628194,-1.0328655999999998,0.0970386,-0.0399474,157.56571960000002,86.18396440000001,-178.3341368,228.40387298580796,1.3692288225434637,11.68900653878942,1.0381828511009414,168.86961019999998,35.5287686,-142.7842376
2778.04,7.524781,-234.404663,-14.5240668,-1.102852,-0.0584084,0.772845,-10.404289,46.008294,-106.5901854,-1.367741200000001,-5.8005589999999945,-7.8360326,-1.025403,0.1151225999999999,-0.02899,158.34863280000002,86.35968460000001,-177.5225982,234.974715409238,1.3479552919587356,9.844826438841933,1.0322523652381526,168.7529218,40.3513906,-70.93241280000001
2798.026,5.570374200000001,-239.39875780000003,-16.1040772,-1.0551392,-0.040545,0.7984036,-9.7389796,41.249466,-177.82761820000002,-4.284026200000001,-1.1216201999999942,-9.864524,-1.022366,0.1184692,-0.030032,160.137149,86.4507964,-175.6435334,240.00444914079128,1.3237865903893271,10.812943452266383,1.02964513805905,169.8761286,45.2013304,2.1840847999999937
2818.012,0.8927628000000002,-242.29639580000003,-18.6023916,-0.9816176,-0.0391894,0.8041718,-9.3344614,36.4156254,-177.2431272,-5.193621000000001,3.3532300000000057,-12.692769,-1.0237072,0.1152827999999999,-0.0301326,163.1412108,86.46022780000001,-172.526468,243.01108908098635,1.2695673300842931,14.118223521814,1.0306185176341631,172.4756722,50.0446024,4.716659199999998
2837.997,-1.9987032,-242.539334,-21.489417,-0.8926603999999999,-0.0506716,0.8237168,-9.1132688,31.560724400000005,-176.8023618,-4.959791200000001,7.131296200000006,-15.7392104,-1.0269666000000002,0.1078047999999999,-0.0137148,167.1690246,86.4032958,-168.3859224,243.49767636395453,1.215697152820948,17.97714266103488,1.03270052200899,176.2822934,54.8425714,8.416439400000002
2857.983,-2.8849156,-241.4066558,-23.5664678,-0.8073888,-0.0455942,0.8405587999999999,-8.9906954,26.7205396,-176.4562956,-9.0902782,9.895077200000006,-19.5345036,-1.0395124,0.0976998,-0.0117874,100.2724212,86.2781234,-163.0823274,242.57138043703185,1.1664024184202124,23.709545365649003,1.0441600564437234,109.26311660000002,59.5575838,13.373968199999997
2877.969,-6.854542,-239.5704956,-26.048251,-0.7261598,-0.0415074,0.8523844,-9.006440399999999,21.9084846,-176.19156800000002,-13.524664,9.567076400000005,-25.5697402,-1.0495018000000005,0.0842938,-0.0190202,34.76292120000001,86.11954499999999,-156.2971376,241.0799006309285,1.12053116188447,30.46731200896839,1.0530532944394224,43.7693616,64.2110604,19.8944304
2897.955,-9.2674844,-237.1625854,-28.7467658,-0.6504,-0.05183,0.8564952,-9.1188596,17.135720400000004,-175.9975862,-16.9278154,7.958698200000006,-32.471302,-1.0736415999999998,0.0883516,-0.037627,-29.602996799999996,85.9043382,-148.292508,239.078135187383,1.0767035509011011,37.47368763319624,1.0779276792077097,-20.4841372,68.7686178,27.705078200000003
2917.941,-10.457945,-234.67939740000003,-30.466022599999995,-0.570237,-0.0472436,0.8601447999999999,-9.2834158,12.4070322,-175.8415774,-24.7647538,4.591624400000006,-41.3235046,-1.0812568,0.0809934,-0.0588036,-92.805435,85.6030564,-138.9579728,236.87964604565303,1.0330785405171283,48.3942979888283,1.085879395588092,-83.5220192,73.1960242,36.8836046
2937.927,-13.097013,-232.1717466,-31.7495812,-0.4940534,-0.052459,0.8736164000000001,-9.5192178,7.724190800000001,-175.70689120000003,-32.4996482,1.665952800000006,-49.4712096,-1.0929745999999998,0.0275395999999999,-0.0753968,-155.2773618,85.17484440000001,-128.7307542,234.6982905246482,1.0050106084422792,59.21488926902357,1.0959181462424823,-145.758144,77.4506536,46.97613700000001
2957.913,-13.370085800000002,-229.6427092,-31.966185199999995,-0.4238267999999999,-0.076792,0.8731798,-9.778007400000002,3.0914776,-175.5667148,-36.205951600000006,2.858636000000006,-56.5441558,-1.0907766,-0.0099898,-0.0956186,-146.2547392,84.541263,-118.9310456,232.24205062661636,0.9736370631761508,67.20330561941661,1.0950051615757617,-136.47673179999998,81.4497854,56.63566920000001
2977.899,-12.0554444,-227.1048826,-30.4376982,-0.3422354,-0.0830682,0.8727962,-10.0250216,-1.4851498,-175.3851504,-40.25565640000001,8.190660800000007,-61.2536346,-1.0865087999999998,-0.0302284,-0.1061692,-138.84047239999998,83.66975419999999,-110.6602828,229.45242407121256,0.9411687423617724,73.75372904637321,1.0921021141233267,-128.81545079999998,85.154904,64.72486760000001
2997.885,-12.7700242,-224.4229704,-28.7213228,-0.25808,-0.0920189999999999,0.888485,-10.3051712,-6.0020308,-175.157654,-44.4132104,17.77916580000001,-65.5576682,-1.0616536,-0.0791668,-0.1178876,-133.523468,82.51748979999999,-104.41090239999998,226.61345402382813,0.929773293865768,81.15688420830269,1.07110841414348,-123.2182968,88.51952059999999,70.7467516
3017.871,-10.8438652,-221.7695678,-26.468555,-0.1837124,-0.111996,0.8545202,-10.5743078,-10.457416599999998,-174.8695162,-41.9523058,35.24743480000001,-68.0407186,-1.0103418,-0.1160672,-0.1345276,-130.93605359999998,81.0261874,-100.9593628,223.60660772540373,0.8811913084783576,87.36084368595206,1.0258459060233365,-120.3617458,91.483604,73.9101534
3037.856,-10.1458706,-219.2937988,-25.4538406,-0.0805992,-0.0991345999999999,0.8068284,-10.8469418,-14.855008799999998,-174.5476228,-32.352711,48.7539288,-62.17619620000001,-0.947454,-0.12138,-0.1688103999999999,-130.60736419999998,79.4171206,-99.9824646,220.9991105947194,0.81688185620955,85.37870259254287,0.9699995554968878,-119.7604224,94.2721294,74.5651582
3057.843,-13.3028978,-216.078607,-25.818932600000004,0.0271532,-0.1227736,0.7855222,-11.2130374,-19.1829204,-174.21183179999997,-20.3854174,61.5751514,-54.9212112,-0.9605733999999998,-0.1550734,-0.173834,-131.6360996,77.74280100000001,-100.6319504,218.02189975674705,0.7955223314401928,84.99061096485981,0.9884165497051935,-120.4230622,96.9257214,73.5798814
3077.828,-11.1329084,-212.3979124,-25.23105,0.1172546,-0.1539948,0.7377652,-11.5753338,-23.431563200000003,-173.8397554,-4.139448,76.782122,-46.47756,-0.9356516,-0.2054528,-0.2025636,-133.54433,75.9577088,-102.525937,214.18081315893676,0.7627322793610088,89.84872215074174,0.9791255188459546,-121.9689962,99.389272,71.31381839999999
3097.814,-6.9621096,-207.9767608,-23.7694424,0.219351,-0.1421011999999999,0.6543896,-11.897962199999998,-27.592374199999995,-173.4176272,15.6868978,92.4899536,-30.926544199999995,-0.8678155999999999,-0.2087344,-0.2135984,-136.26739200000003,74.13579259999999,-105.69033199999998,209.4463902647877,0.7046512334698635,98.7771300234642,0.9177680762748724,-124.3694298,101.7281668,67.72729519999999
3117.8,-7.5979612,-202.274005,-23.6021336,0.3196114,-0.1336974,0.618734,-12.2680504,-31.646877,-172.9765138,32.481832,106.6707474,-4.09273,-0.8608136,-0.2279306,-0.2410612,-139.8015258,72.3781282,-110.0934204,203.7880340540361,0.7091249569241799,111.5816660558702,0.9225307119585558,-127.5334754,104.0250052,62.88309339999999
3137.786,-7.2669242,-194.1294646,-22.300668,0.3841371999999999,-0.1725416,0.5610846,-12.6805216,-35.5400046,-172.49476020000003,43.2367776,126.6480896,19.3482736,-0.8559232,-0.2322826,-0.2631456,-144.1220274,70.4664156,-115.60712279999998,195.5412411908481,0.701532551284372,135.21654199047524,0.9250974745184206,-131.44150580000002,106.0064202,56.8876374
3157.772,-6.1185812,-184.4916106,-20.297992,0.4394622,-0.1609354,0.4815632000000001,-13.1149262,-39.2433944,-171.96598820000003,52.189993400000006,143.7024232,40.252106600000005,-0.810895,-0.2221982,-0.3085256,-148.875131,68.36698779999999,-121.8313568,185.70568084179624,0.6715134725351682,158.09621731838402,0.8956063794790656,-135.7602048,107.6103822,50.1346314
3177.758,-8.79062,-172.6418426,-18.857851,0.4982888,-0.1584786,0.4023139999999999,-13.651462,-42.708519,-171.40452580000002,56.84779060000001,148.5698654,57.650961800000005,-0.7851258000000001,-0.2072428,-0.332599,-153.595172,66.2428018,-128.1856048,173.89105601107198,0.6597452155638569,169.19902363057722,0.8774931309010231,-139.94371,108.9513208,43.21892100000001
3197.744,-11.6244682,-158.6427534,-18.3811004,0.546769,-0.180101,0.3496058,-14.2805914,-45.8878984,-170.838681,53.95799340000001,133.77449940000002,66.3624276,-0.803903,-0.188755,-0.366023,-157.8202178,64.36306,-133.9943176,160.12656344023907,0.6735108944595032,158.77989022051972,0.9032504192985464,-143.5396264,110.2509584,36.844363400000006
3217.73,-12.4215304,-142.21897099999998,-17.6517828,0.5860684,-0.203171,0.2838514,-14.9336686,-48.7332476,-170.291858,49.647367200000005,104.0678986,60.103033800000006,-0.8020506000000001,-0.16967,-0.3786778,-160.88500979999998,62.8839568,-138.4869812,143.8475427867829,0.6821482551480433,130.02831715005567,0.9030337480256208,-145.9513412,111.6172044,31.80487680000001
3237.716,-12.79945,-124.0070996,-17.075315,0.6269796000000001,-0.197296,0.2329708,-15.5552244,-51.220228,-169.81015340000002,44.2931306,66.4149996,48.2753626,-0.8045633999999999,-0.1796572,-0.3858296,-162.6848786,61.954724,-141.5083068,125.82985756113708,0.6973553786160971,93.29171573284594,0.9101996782945816,-147.1296542,113.174952,28.301846600000005
3257.702,-10.8694922,-102.6372548,-16.575757199999998,0.6621344,-0.2213265999999999,0.183015,-16.0498476,-53.2880814,-169.4490724,36.2052522,28.70258040000001,38.594375,-0.774093,-0.1757094,-0.3918883999999999,-163.6339662,61.6348228,-143.4207214,104.53376325532024,0.7217353516046723,60.20119758048584,0.8852515371079115,-147.5841186,114.9229042,26.028351000000004
3277.687,-8.923422599999999,-78.09409219999999,-17.2918816,0.699134,-0.2167634,0.1539617999999999,-16.338290399999998,-54.88635480000001,-169.3029908,27.9385258,0.7394686000000057,30.6493586,-0.7483915999999999,-0.1645546,-0.4065078,-164.1137604,61.77369699999999,-144.6180206,80.48182326903826,0.7479832601033262,41.47880447022365,0.8674196186348104,-147.77546999999998,116.6600518,24.6849702
3297.674,-9.4783848,-50.5281026,-18.0165332,0.7252798,-0.2273912,0.1218999999999999,-16.4183196,-55.9579628,-169.4283662,22.4342702,-7.612726399999995,24.6866878,-0.7260498,-0.1897302,-0.4068656,-164.385202,62.0262064,-145.4571838,54.47498875006492,0.7698033230153531,34.215239838155945,0.8536307617087379,-147.9668824,117.9841692,23.971182400000004
3317.659,-9.3848634,-20.9603032,-17.7673604,0.7429322,-0.2352158,0.1082446,-16.2694188,-56.4591316,-169.8293458,16.3582702,-2.910831399999993,23.3831048,-0.7186248,-0.2180988,-0.407678,-164.7856322,62.1767878,-146.3020568,29.035996054140764,0.7867602047610442,28.68510996080052,0.8545115806239726,-148.5162134,118.6359194,23.527289000000003
3337.645,-8.3997446,9.4594554,-15.6643524,0.7541697999999999,-0.2468081999999999,0.1014256,-15.9175142,-56.3624382,-170.452478,10.503273,9.662441200000009,21.2377474,-0.7247538,-0.2300536,-0.4132428,-165.3734588,62.0700922,-147.2190674,20.13476947772693,0.7999834543005498,25.587563938018665,0.8654261038582324,-149.4559446,118.4325304,23.2334106
3357.631,-9.5511176,39.9067294,-12.346658,0.7653268,-0.231677,0.1148018,-15.4541806,-55.6594712,-171.2417602,4.867666799999999,23.209652600000005,17.9069328,-0.7408484,-0.2463704,-0.4093847999999999,-166.09213540000002,61.6873216,-148.1526,42.85103105623968,0.8078234933514128,29.71599562848644,0.8815614784289069,-150.6379548,117.3467928,23.0891602
3377.617,-10.8716334,68.7164918,-7.014570599999999,0.7623734,-0.2414028,0.1314951999999999,-14.9746426,-54.36984580000001,-172.0903748,-0.6728972000000002,28.58024960000001,16.181915600000004,-0.7803720000000001,-0.2785654,-0.4057594,-166.9110136,61.198919,-149.0733032,69.92390763384043,0.8104193362071515,32.8502336418722,0.9226157548782268,-151.936371,115.56876479999998,23.0170716
3397.603,-10.4623484,94.8074556,0.2124328000000005,0.754466,-0.2363239999999999,0.1601643999999999,-14.5359488,-52.5357874,-172.890155,-5.2194578,21.413344200000004,16.3101966,-0.8143984,-0.2922282,-0.4064554,-167.77694079999998,60.8535538,-149.94315799999998,95.38322441123212,0.8066725563444934,27.418908852912185,0.9559540088241484,-153.240992,113.3893412,22.946997
3417.589,-10.9694282,118.3231308,8.082551599999999,0.7425138,-0.2312904,0.1903344,-14.2047382,-50.204136,-173.5850646,-6.8929458,0.6913028000000054,14.4062602,-0.8524155999999999,-0.2839908,-0.4039863999999999,-168.4345458,60.906594,-150.54357299999998,119.10507662444756,0.800655466568461,15.985334976569291,0.985123414092346,-154.22980760000002,111.11073000000002,23.041491599999997
3437.575,-10.7998326,139.2434112,15.499984,0.712342,-0.2327853999999999,0.2342956,-13.9736182,-47.4284806,-174.168161,-5.6123706,-32.04337439999999,11.5796968,-0.9199646,-0.260875,-0.3779166,-168.694995,61.590961400000005,-150.727359,140.51908571720983,0.7851844341277532,34.53065195837243,1.0282079495091057,-154.7213768,109.019442,23.440802
3457.582,-4.701860999999999,156.2217422,22.8515692,0.6789531999999999,-0.2364863999999999,0.2776842,-13.7373838,-44.2856728,-174.6164308,-5.9989804,-67.70955099999999,6.3004918000000005,-0.9391758,-0.2482946,-0.3729542,-168.378595,62.948503800000005,-150.2711488,157.95421630260134,0.7707215970146677,68.26615017256394,1.040574950204184,-154.6412112,107.2341766,24.34528199999999
3477.547,0.2713705999999994,170.9824922,28.392244800000004,0.6370127999999999,-0.2303253999999999,0.3292286,-13.4926702,-40.8312424,-174.9639526,-2.7359656,-98.6977552,-3.0571560000000004,-0.9404008,-0.2047628,-0.329864,-167.1836518,64.861743,-148.9311922,173.32399096982718,0.7531444538114583,98.7829873616497,1.0173945780278566,-153.6909816,105.6929854,26.032760399999997
3497.533,2.8349059999999997,183.354474,31.4025192,0.5693364,-0.2437408,0.3810744,-13.2482728,-37.1244502,-175.26637879999998,0.4058656000000001,-114.3030748,-13.5498288,-0.9656036,-0.1633786,-0.2653219999999999,-165.09613359999997,67.009635,-146.70130020000002,186.0457417947314,0.727166564333757,115.10410720790532,1.0146322698174546,-151.84786079999998,104.1340852,28.565078599999996
3517.519,9.8350524,192.9643922,32.7769898,0.5070764,-0.2379683999999999,0.4582048,-12.8994064,-33.2284484,-175.54631039999998,-1.8784876,-116.84364019999998,-18.6696102,-0.9674154,-0.17086,-0.2149258,-162.4939546,69.15383440000001,-143.8836946,195.97529429286607,0.7236760833263457,118.34069171620702,1.0056235852757234,-149.59454820000002,102.3822828,31.66261579999999
3537.505,14.7481208,199.079004,32.867081,0.4394106,-0.2191204,0.540435,-12.4851868,-29.2059226,-175.80748279999997,-4.425709400000001,-108.694461,-19.6574332,-0.9074864,-0.1516426,-0.1858346,-159.60686040000002,71.11516859999999,-140.7293214,202.31213980931537,0.7301817679958327,110.54631353322569,0.9386487856897702,-147.1216736,100.3210912,35.07816139999999
3557.49,9.9392092,202.5539978,31.4293964,0.3593782,-0.2104299999999999,0.6145998,-12.1842472,-25.1127452,-176.0775998,-4.0170912,-97.1701002,-15.747331400000002,-0.8937118,-0.137122,-0.1219244,-156.6685028,72.8498534,-137.5501954,205.21870495242896,0.742405812002627,98.51976370662176,0.9123534313294382,-144.4842556,97.9625986,38.5274044
3577.476,5.4193576,203.601004,29.2049144,0.2692561999999999,-0.2193816,0.7080236,-11.9790958,-21.0001986,-176.375073,-6.9543274,-81.05970579999999,-5.740008999999999,-0.9133754,-0.1593562,-0.1089137999999999,-154.2478638,74.324057,-134.8758636,205.7563250345321,0.7886219663526751,81.55970988968159,0.9335476611475388,-142.268768,95.3242556,41.4992094
3597.462,9.1739586,202.5082336,28.0908326,0.1918278,-0.2104268,0.7952068,-11.713373999999998,-16.902427,-176.6688412,-4.562468600000001,-66.83875559999998,6.7830482000000005,-0.9152104,-0.1897008,-0.1340248,-152.65773299999998,75.6127076,-133.129837,204.6529771792922,0.8446485646571122,67.33680355322815,0.944224081880906,-140.94435900000002,92.5151346,43.5390042
3617.448,6.5108108,200.0274384,27.2154538,0.11355,-0.2088474,0.8356756000000001,-11.522914,-12.835826,-176.94681359999998,1.4362828,-57.08023059999999,15.1330752,-0.9601532,-0.1511446,-0.1258056,-151.6331236,76.796251,-132.1006104,201.9753640810659,0.8688294121529958,59.0696673313775,0.9800846425542848,-140.11020960000002,89.63207700000001,44.846203200000005
3637.434,-0.6678532000000004,198.4080628,25.7796766,0.037654,-0.2164044,0.9012512,-11.4908532,-8.8006146,-177.2364896,3.0983066,-49.22356319999999,25.2765952,-1.0076954,-0.1483838,-0.1272482,-151.5595854,77.920987,-132.086081,200.0769780298225,0.9276326932341272,55.4207988285685,1.026479359600981,-140.0687322,86.72160160000001,45.150408600000006
3657.421,4.309072799999999,197.8309662,25.793746,-0.040161,-0.2499842,0.939335,-11.3715608,-4.7828468,-177.51930520000002,6.6015384,-39.0609928,31.241749,-1.0544802,-0.1784372,-0.1375978,-152.3351866,78.9134262,-133.0139832,199.5519396767011,0.9728593158291902,50.45184187269408,1.0782863632174524,-140.9636258,83.69627299999999,44.505322
3677.406,12.4279764,196.5540862,26.6394098,-0.1081128,-0.235242,0.9605418,-11.1076296,-0.7800604,-177.76408980000002,14.077901400000002,-31.862582799999995,36.3393754,-1.0604866,-0.1312912,-0.1293218,-154.070416,79.8239044,-135.0649904,198.74008542266532,0.9948204489429636,50.33847132141681,1.0763797359353435,-142.96278639999997,80.6039648,42.6990994
3697.392,7.298703399999999,195.1537872,25.5313626,-0.1708114,-0.2299255999999999,0.9652804,-10.966788400000002,3.194236,-178.01038820000002,12.7416724,-30.77712239999999,39.7678742,-1.0926106,-0.0814884,-0.0878004,-156.7437406,80.7500304,-138.0322512,196.95208098935316,1.0068806118549904,51.875478765603006,1.0991574922671818,-145.7769522,77.5557944,39.97813699999999
3717.378,4.325375599999998,192.9570556,24.9089264,-0.2661686,-0.2310734,1.0078756,-10.8973126,7.112296000000001,-178.2554658,6.772954799999999,-27.728803599999992,40.5857024,-1.0768908,-0.065682,-0.0857546,-160.22470679999998,81.6066162,-141.6923646,194.60624037862505,1.0677330494505075,49.618128794943296,1.082294678758886,-149.3273942,74.49432019999999,36.56310119999999
3737.364,12.2324786,189.8485564,24.4182296,-0.3509176,-0.2448229999999999,0.975955,-10.692343,10.9575774,-178.491861,2.3165286000000003,-25.663618999999997,36.8971526,-1.0599686,-0.0736912,-0.0788478,-164.0109068,82.367653,-145.5672974,191.80291404632453,1.0656310925192451,45.00430551535558,1.0654486386064042,-153.3185638,71.4100756,32.92456359999999
3757.349,13.0415146,186.0267272,21.9343694,-0.4248514,-0.2184215999999999,0.9913474,-10.4974634,14.726481799999998,-178.75350039999998,-1.1040264,-28.1561448,33.2101604,-1.0593638,-0.0283186,-0.0734013999999999,-167.779553,83.1425874,-149.3528534,187.76884964439893,1.1004437172864772,43.553439796234144,1.062281210122047,-157.2820896,68.4161056,29.400647
3777.335,6.444674000000001,181.8728332,20.2964098,-0.4783886,-0.1966836,0.9804644,-10.4415272,18.4050564,-179.0242004,-7.4417214,-31.829734799999997,28.0901318,-1.0732582000000002,-0.0604846,-0.0698928,-171.4582366,83.9299806,-152.9162842,183.1152793459105,1.1085353087684129,43.09949813367808,1.0772309660403567,-161.01670940000002,65.5249242,26.1079162
3797.321,5.0690176,177.82339459999997,19.9267012,-0.549831,-0.2012105999999999,0.9742956,-10.419968,21.9989856,-179.28849780000002,-10.7725592,-31.4973412,17.813020799999997,-1.0437794,-0.074243,-0.0832486,-173.8878906,84.6384416,-155.1533508,179.00817866011175,1.1366845429989447,37.75492344592894,1.049722719729034,-163.4679226,62.63945600000001,24.135146999999996
3817.307,9.6622916,175.1288664,18.259343,-0.6057319999999999,-0.2238322,0.9427406,-10.3419352,25.536969,-107.5848722,-8.8114116,-30.674256799999995,15.115559200000002,-1.0369364,-0.0685404,-0.0792918,-104.5172578,85.3033646,-157.626474,176.3430841635252,1.142703788594927,35.31332800155863,1.0422197818235654,-94.1753226,59.7663956,-50.04160180000001
3837.293,11.508659,172.05695780000002,17.180081,-0.645613,-0.1913454,0.9303338,-10.246908,29.0212178,-35.89291060000001,-4.5898722,-28.786869999999997,11.3016644,-1.0448809999999995,-0.059307,-0.0658942,-34.9104096,85.9192642,-159.9445802,173.29512729022656,1.148455566094135,31.26465143607809,1.048635146275214,-24.663501600000007,56.8980464,-124.0516696
3857.279,7.232733,169.215164,15.7712852,-0.675724,-0.1563292,0.8894404,-10.2608288,32.4433404,35.7746796,-4.2863404,-28.0247614,10.486408999999998,-1.0361657999999998,-0.029039,-0.0448818,33.7763428,86.5184846,-163.1905762,170.10237385485226,1.127894484471309,30.22788016495505,1.0375438326075097,44.0371716,54.0751442,-198.9652558
3877.265,6.3592326,168.2302702,12.0403748,-0.7351036000000001,-0.178117,0.8770403999999999,-10.385138199999998,35.8265546,107.3295594,-7.7099052,-28.90289419999999,6.592321199999999,-1.0513874,0.0171015999999999,-0.01821,101.6736238,87.168422,-167.1634582,168.7804321482511,1.1581462911282494,30.631334122648816,1.0516841416039893,112.058762,51.3418674,-274.4930176
3897.251,13.406383,167.7028898,7.7506066,-0.7870536,-0.192281,0.8185336,-10.4826668,39.180150000000005,178.7442262,-10.2362018,-31.744708999999997,8.118740800000001,-1.0438443999999998,0.0121821999999999,-0.0287167999999999,166.09049080000003,87.9648072,-102.58107300000002,168.4163360695203,1.151704218349017,34.32812737337399,1.0443103906456352,176.5731576,48.784657200000005,-281.3252992
3917.236,13.744143400000002,165.9259946,4.537575,-0.8049948,-0.135044,0.7807784,-10.6586872,42.48594899999999,178.0684358,-10.0204362,-34.66326939999999,3.6269576,-1.0067616,-0.0261728,-0.0386996,153.7108964,88.677263,-42.8083008,166.55607688907546,1.1295434563882878,36.26439312283392,1.0078450246613115,164.3695836,46.191314,-220.8767366
3937.222,6.239054399999999,163.1840696,1.3947448,-0.8536254,-0.136245,0.7497581999999999,-11.104769,45.720626,177.2687258,-11.027567,-36.02224199999999,2.1332836,-0.9927728,-0.0067896,-0.0331128,130.16503219999998,89.28961799999999,5.9101762,163.30925167938565,1.1442798530155986,37.732745083866895,0.9933480702210278,141.26980120000002,43.568992,-171.3585496
3957.209,5.6345498,159.5389066,-0.885862,-0.9194146,-0.1423519999999999,0.720641,-11.6909986,48.8699478,176.3392306,-13.6583382,-32.3118698,-0.4879626,-0.9761376,0.0082161999999999,-0.0483332,104.2896522,89.7552048,52.3681404,159.64083319143396,1.1768223100698594,35.08340405172694,0.9773680055631246,115.9806508,40.885257,-123.9710902
3977.194,7.931748999999999,153.68636759999998,-2.5521496,-0.9624258,-0.1303624,0.647312,-12.3631994,51.900322,175.2840944,-12.4501126,-26.6229254,3.4809044,-0.9356906,0.0001447999999999,-0.0962677999999999,80.96685099999999,89.9104736,101.34698260000002,153.91207131301334,1.1671634851996526,29.59564420735901,0.9406297939212004,93.3300504,38.0101516,-73.9371118
3997.18,2.8744916000000003,146.44334099999998,-3.2853787999999997,-0.9793574,-0.0998178,0.6243106,-13.258488,54.7801696,174.1189362,-8.553073999999999,-20.250214799999995,2.4440972,-0.9497896,-4.600000000015702e-06,-0.0861577999999999,60.05861359999999,89.8104584,80.6797684,146.50839067800942,1.1657050379079434,22.117863491274708,0.9536893890518864,73.31710160000002,35.030288799999994,-93.4391678
4017.166,-2.138223,139.0411514,-3.420026,-1.0086711999999998,-0.11933,0.5934236,-14.3816844,57.4964736,172.82629400000002,-5.9265706,-15.349643999999993,3.096039,-0.9932984,0.0253321999999999,-0.0559227999999999,43.594368,89.6603196,64.417534,139.09964183302603,1.1763540315935503,16.74279748109739,0.995193846122071,57.9760524,32.163846,-108.40876
4037.152,-2.3951694,133.40765219999997,-2.9192206,-1.0048992,-0.1076226,0.5656364,-15.6308342,60.077636600000005,171.4113312,-3.9703896,-11.863194999999994,2.1273584,-1.017083,0.0335817999999999,-0.0172945999999999,37.34268,89.4400636,58.2391282,133.4610817837257,1.1581664660990492,12.689564332389963,1.0177841958732703,52.9735142,29.362427000000004,-113.172203
4057.138,-4.2397114,130.601155,-3.282760000000001,-0.9871334,-0.102239,0.5356376,-17.149749800000002,62.5670774,169.760376,-2.7472244000000003,-13.282378399999994,2.4227128,-1.0364012,0.0441343999999999,0.042566,33.51165580000001,89.107802,54.442022,130.7111829695796,1.127737913280528,13.778184030416549,1.0382134448083398,50.6614056,26.5407246,-115.318354
4077.124,-7.4562778,130.6326308,-3.4773048,-0.9690414,-0.0947328,0.51643,-19.0852246,65.0081822,167.7595276,-3.7244342,-16.790039199999995,-1.6197998000000005,-1.0549014,0.0608083999999999,0.117789,27.5901232,88.7116442,48.5872368,130.89145104639945,1.10214131725918,17.274275030800748,1.0631974763671703,46.6753478,23.703461999999995,-119.1722908
4097.11,-10.6631616,133.15434399999998,-4.0403082,-0.9659688,-0.087726,0.481772,-21.6282296,67.4437796,165.21184699999998,-7.978530000000001,-23.602285399999992,-4.9292564,-1.041942,0.0875075999999999,0.1632284,20.666698,88.1539004,41.80788,133.64170917692212,1.0830031549508248,25.397290913026406,1.058274171464238,42.29492760000001,20.7101208,-123.403967
4117.095,-13.0137414,136.55611259999998,-4.869014999999999,-0.9765908,-0.0839274,0.4305532,-24.9875958,69.8805648,161.8877746,-13.374005599999998,-28.43214999999999,-6.534057000000002,-1.0161278,0.0924257999999999,0.1607012,14.2700354,87.5124392,35.658457,137.26119867143873,1.0705836992714022,32.09275744292752,1.032900338909771,39.2576312,17.6318744,-126.2293176
4137.081,-14.7323652,137.6932404,-5.8206268,-1.0083162,-0.0829298,0.3611426,-29.3638576,72.26508779999999,157.5774566,-16.6282618,-31.14154739999999,-9.025798600000002,-0.9801394,0.0907289999999999,0.103627,8.4755346,86.8380602,30.1736268,138.601409562036,1.0742452645672869,36.43844268521293,0.9897694428513946,37.8393922,14.5729724,-127.4038298
4157.067,-17.188241400000003,133.5969208,-5.267603,-1.048617,-0.0774394,0.2923056,-34.7881692,74.4930206,152.2774018,-15.786696,-27.421774399999997,-10.147413000000002,-0.952825,0.0654711999999999,0.0090344,3.5718318,86.2580308,25.5658136,134.80104054135396,1.0913464331516,33.22865438794475,0.9551144324309,38.360001,11.765010200000004,-126.71158819999998
4177.053,-19.809423,123.20090939999996,-3.5521188,-1.0937522000000002,-0.0719149999999999,0.2357408,-41.0473522,76.4529572,146.2115662,-13.7764032,-17.786381199999994,-8.4321234,-0.9350224,0.0555697999999999,-0.0833808,0.0414527999999999,85.89817980000001,22.2988168,124.8338690602404,1.1211776696913296,24.02593070733184,0.94037612101884,41.088805,9.445222600000005,-123.9127494
4197.039,-21.846239200000003,105.7658852,-0.6987002,-1.1233840000000002,-0.0736226,0.1900234,-47.527288,78.0585586,139.99430999999998,-13.396786600000002,-2.0722355999999933,-3.8557960000000007,-0.9373034,0.0306183999999999,-0.1730994,-1.4851746,85.8698808,21.0375262,108.0007815772306,1.1417183502222956,14.093800565548776,0.9536448774834791,46.042113400000005,7.811322200000001,-118.9567838
4217.025,-22.048116,82.6166424,3.1246242000000004,-1.1411444,-0.0924308,0.1685928,-53.3262238,79.27835680000001,134.50224759999998,-12.6619878,15.305289600000004,0.466676399999999,-0.9536866,0.0155305999999999,-0.2375111999999999,-1.3613335999999998,86.2093216,21.4240128,85.56513482131703,1.1572283813715596,19.869464302027225,0.9829399273004226,51.9648902,6.930964800000001,-113.0782348
4237.011,-19.9404166,56.16273559999998,7.5463896,-1.1403924,-0.108793,0.1724788,-57.4816292,80.1362884,130.65902999999997,-10.6755604,32.4129334,6.173585399999999,-0.97633,-0.00692,-0.2504505999999999,1.9944098,86.972258,25.0246328,60.07346402740605,1.15848162664593,34.67966260127074,1.0079651076998448,59.476039,6.835969600000001,-105.6343972
4256.997,-17.7516398,28.976146199999995,11.7300444,-1.1250974,-0.1257657999999999,0.2094497999999999,-59.416083400000005,80.68268119999999,129.0425962,-7.886337200000002,44.29220060000001,10.172459399999996,-1.005664,-0.0170588,-0.2075958,16.667953599999997,87.88454899999999,39.8629254,35.94901536646991,1.151316817672894,46.12453011866239,1.0270088119052727,76.084037,7.2018678,-89.1796708
4276.983,-14.586663,3.704951799999995,14.7824352,-1.104056,-0.149896,0.2737108,-58.8814474,80.96188959999999,129.871121,-2.7970184,49.9660398,11.601081,-1.0337584,-0.014316,-0.136712,41.23448,88.7300842,64.4402372,21.095444905431396,1.1473125398027513,51.37132980168689,1.042857395989768,100.1159274,7.768194599999998,-65.4308838
4296.969,-8.3985316,-18.070818000000006,16.2172704,-1.0877104,-0.1675226,0.345916,-56.044919400000005,80.996878,132.91239760000002,4.2275692,48.6723574,13.420111599999998,-1.0495388,0.0138471999999999,-0.0606827999999999,67.8807888,89.17615799999999,90.9622194,25.692210014944976,1.153618487557702,50.66527520472556,1.051382822700238,123.9257082,8.179279999999997,-41.9501782
4316.955,-2.5165678,-37.3411202,15.426685600000004,-1.0775986,-0.1612817999999999,0.4094748,-51.4903532,80.758049,137.5804946,8.917045400000001,42.8546478,13.523725399999998,-1.0487803999999998,0.0416251999999999,-0.0125397999999999,94.7937396,89.2499862,117.6548828,40.48055088414796,1.164001792768482,45.81403371699889,1.0496810140624817,146.2840928,8.491937199999999,-19.92561180000001
4336.941,0.6566268,-55.80282320000001,13.036085599999998,-1.084365,-0.1728266,0.4724336,-45.9628858,80.17455600000001,143.179892,9.621440799999998,35.278038800000004,12.637077599999998,-1.0473392,0.0515451999999999,-0.0003231999999999,120.2516068,88.8979384,142.86377399999998,57.30903736423659,1.1953702327319011,38.68860135635085,1.0486068910501782,166.2144926,8.723382399999997,-0.316118000000003
4356.927,4.7021014,-74.9795256,10.1715638,-1.1002882,-0.1822972,0.5173310000000001,-39.9752372,79.1691438,149.1828918,10.6253296,27.076829000000004,11.0236342,-1.0513176,0.0464051999999999,-0.0162095999999999,135.1869644,88.3448546,157.5575988,75.81226633543156,1.2294298498686618,31.10583239167997,1.0524660991162422,175.1622016,9.1757108,8.374707
4376.912,7.1043992000000005,-95.3968962,7.621508999999999,-1.125836,-0.1725028,0.5570024,-34.0370786,77.6943116,155.12080079999998,11.1518342,19.574535800000007,8.576350199999998,-1.0533042,0.0416825999999999,-0.0347321999999999,139.9178406,87.7634718,162.087506,95.96420005410152,1.2678783808037744,24.105593553422647,1.0547006696675791,173.9549192,10.069160199999995,6.966705200000002
4396.898,8.0235592,-116.7910492,5.200818,-1.1580876,-0.162567,0.6030464,-28.5564218,75.72045899999999,160.6021912,11.0520138,13.332832000000003,6.734662599999998,-1.0651268,0.0472783999999999,-0.0506507999999999,142.0318696,87.40869280000001,163.9940336,117.18180397716128,1.315773490885008,18.581364280145127,1.0673780261582306,170.5882914,11.6882338,3.3918424000000016
4416.884,10.2997806,-138.33979960000002,3.4605476000000004,-1.1850164,-0.1553936,0.6417182,-23.7243814,73.24249879999999,165.4169342,11.6466254,7.553714200000004,5.768448399999999,-1.0782834,0.0543335999999999,-0.0448443999999999,142.4472534,87.1869658,164.1839812,138.76584962975642,1.3565446131259966,15.032547301328188,1.080582366604175,166.17163480000002,13.944466999999998,-1.2329529999999975
4436.87,13.010841,-158.38344580000003,1.8392454,-1.1981558,-0.1380834,0.6759762,-19.6685868,70.2856804,169.417334,14.6198022,1.1923188000000056,4.983371999999998,-1.0890926,0.0686889999999999,-0.0239675999999999,141.218103,87.0923018,162.665866,158.92759581221335,1.3826019562389025,15.491747382988864,1.0915197276941542,160.8866898,16.806621399999997,-6.751468
4456.856,14.715905800000002,-176.27238480000003,-0.1335692,-1.205049,-0.1242775999999999,0.7106204,-16.420444,66.902838,172.5820802,14.870230800000002,-4.085279999999995,4.081294599999999,-1.0849764,0.0866086,-0.0057753999999999,138.7277192,87.09780859999998,159.8787658,176.88563923429436,1.404481885664219,15.95212344284164,1.088443013389346,155.1481632,20.1949706,-12.7033144
4476.842,16.8061954,-192.44320700000003,-2.0663974,-1.1955344,-0.1091888,0.7327155999999999,-13.838829,63.1456534,175.0320862,12.464669,-7.113493999999994,3.3182509999999987,-1.0718258,0.1077653999999999,0.0008728,135.5295166,87.1538434,156.4306212,193.1867131106137,1.4064483090793491,14.730260006754731,1.0772301001933804,149.36834560000003,24.008189999999995,-18.601465
4496.828,17.5144484,-206.3233704,-4.2227262,-1.1743734,-0.0908634,0.7533748,-11.8110176,59.07647480000001,176.91265560000002,8.4651142,-8.070225199999992,1.7746663999999988,-1.0576264,0.1261533999999999,0.0146766,132.3434678,87.2421674,153.0739502,207.10847518276992,1.3982069336697482,11.829460428483014,1.0652247109864097,144.1544854,28.1656926,-23.83870539999999
4516.814,16.994768,-217.5621124,-6.7211696000000005,-1.1434756,-0.0851326,0.7739254000000001,-10.2564328,54.7685852,106.3161224,2.4206432,-6.960435999999994,-0.3795710000000014,-1.0456478,0.1263543999999999,0.0254894,129.7938828,87.34634679999999,150.4745972,218.3283513703981,1.3833815569622432,7.379109496127778,1.0535627487513783,140.0503156,32.5777616,44.158474800000015
4536.799,16.2181438,-226.68273320000003,-9.1322618,-1.1121493999999998,-0.0715898,0.8104006,-9.0614766,50.2819588,35.36272579999999,-2.6782262,-3.965793199999994,-2.6078628000000017,-1.0329108,0.1293857999999999,0.0250398,128.5005082,87.43786600000001,149.233905,227.4455713460335,1.377951566588884,5.449895381303799,1.041284013889736,137.5619848,37.1559072,113.8711792
4556.786,14.2418936,-234.05831900000004,-11.1864328,-1.0704814,-0.0560158,0.8328896,-8.158063,45.6486772,-35.854983600000004,-7.620899199999999,0.2283626000000058,-4.720036600000002,-1.0274538,0.1294393999999999,0.0292556,128.8438676,87.50234520000001,149.7295472,234.75788486269937,1.3574878575456062,8.96710653438326,1.035988300869349,137.0019306,41.853668000000006,185.58453080000004
4576.771,10.2628066,-239.1275084,-13.8644068,-1.0082892,-0.050621,0.8384192,-7.538152800000001,40.9050042,-107.2934906,-12.9194988,4.972674800000005,-7.045737200000002,-1.0284538,0.1233297999999999,0.0276182,131.0780718,87.5303802,152.22307139999998,239.7488524452556,1.3123095486226868,15.533298316881073,1.0361902447300495,138.61622459999998,46.625376,259.516562
4596.757,7.4338152,-241.731427,-16.821678600000002,-0.930743,-0.0532048,0.858801,-7.118285,36.1102246,-178.9017822,-15.5832252,8.371711600000006,-8.815329400000001,-1.0350396,0.0947411999999999,0.02472,134.8013338,87.53511660000001,156.259674,242.43001728087592,1.2675379443602626,19.76442498981425,1.0396604960012668,141.9196188,51.424892,335.1614562000001
4616.743,4.8246864,-243.2061462,-18.6423936,-0.8583868000000001,-0.0465786,0.8809134000000001,-6.841783,31.270664,-178.6162352,-15.8446174,9.422568600000004,-10.475691400000002,-1.0424094,0.0724861999999999,0.0273598,139.5527408,87.54684300000001,161.329367,243.96730516085847,1.2308557521869736,21.20322640265209,1.0452847291790115,146.3945238,56.276179,339.94560220000005
4636.729,0.3065211999999999,-243.452304,-20.7666618,-0.7740154,-0.0434318,0.872596,-6.7261386000000005,26.408820400000003,-178.4201994,-18.4038208,9.284850000000006,-13.123564000000002,-1.0416744,0.0757927999999999,0.0250818,145.1952152,87.57184459999999,95.34155579999998,244.3365967686176,1.1672231748489232,24.43638663188788,1.0447292476227703,151.9213538,61.1630242,273.76175520000004
4656.715,-2.3305078000000004,-242.21646720000004,-23.3606788,-0.6780619999999999,-0.054786,0.8719388,-6.7136606,21.5583948,-178.30194980000002,-20.8891628,7.307979200000005,-17.7473884,-1.0472258,0.0763365999999999,0.024257,152.44074440000003,87.644075,31.00612779999999,243.35153495191133,1.1059144870130964,28.36782468736352,1.050284511327383,159.154405,66.08568019999998,209.3080776
4676.701,-1.8701424,-240.15090940000005,-24.8736118,-0.5999046,-0.0629554,0.8945102,-6.718919,16.7454652,-178.2269316,-24.5832176,3.281180000000006,-22.628308,-1.0757878,0.0410035999999999,0.027806,89.9696994,87.7713624,-30.971359400000004,241.44285717788463,1.078887116149952,33.5729214204575,1.0769279732079575,96.6886184,71.0258972,147.25557220000002
4696.687,-2.488766,-238.5077544,-24.7810526,-0.538917,-0.0628017999999999,0.8847419999999999,-6.7489276,11.952203,-178.1567594,-30.768960600000003,-0.0273465999999945,-30.7851094,-1.092494,0.0457333999999999,0.0037826,31.0715608,87.84475259999999,-89.24088760000001,239.8045942702046,1.0378554839361016,43.52531039534184,1.0934573571814858,37.8204884,75.89254960000001,88.91587180000002
4716.672,-4.918730200000001,-236.3607634,-24.957564,-0.4488082,-0.050239,0.8667948000000001,-6.8394642,7.201308399999999,-178.092874,-37.0143556,-3.3025279999999944,-38.966035600000005,-1.0668456000000002,0.0485225999999999,-0.0289633999999999,-25.2097808,87.77462019999999,-144.7545046,237.7256493999444,0.977387324869358,53.84534466464583,1.0683411699872287,-18.37031660000001,80.5733118,33.33836940000001
4736.659,-7.474014800000001,-233.18712760000005,-24.785792,-0.3656556,-0.072417,0.8635133999999999,-6.9872664,2.5140036,-178.02380060000002,-42.79013440000001,-4.445305999999995,-44.8409624,-1.082624,-0.0019804,-0.0346827999999999,-80.9902618,87.50327159999999,-127.6430788,234.6197622977156,0.9405336951326728,62.14071335575344,1.0831812147447906,-74.0029954,84.989268,50.3807218
4756.644,-5.7855054,-229.20625920000003,-22.571088600000003,-0.2924748,-0.0786086,0.8773454,-7.1097416,-2.0885448,-177.9090332,-44.9258454,-1.373883799999995,-46.3250886,-1.0916283999999998,-0.0574188,-0.0493907999999999,-138.905478,86.9950106,-112.6210068,230.3875764223845,0.9281464170755388,64.54636299125191,1.094252682612494,-131.79573639999998,89.0835554,65.2880264
4776.63,-4.401814400000001,-224.8792358,-19.0309014,-0.2204765999999999,-0.0832148,0.8372636,-7.2232826,-6.596108599999999,-177.7238006,-46.2961564,6.553314800000005,-50.341596200000005,-1.0479227999999998,-0.0461054,-0.0974384,-128.5883896,86.172188,-101.3399826,225.72598847297263,0.8697959358214776,68.70630495263892,1.0534524879953342,-121.365107,92.7682966,76.38381800000002
4796.624,-5.525332800000001,-219.9467376,-16.7976684,-0.1207648,-0.0699064,0.8041545999999998,-7.3791116,-11.0002032,-177.493979,-42.45925100000001,12.627614600000006,-47.7640052,-0.9718506,-0.0740346,-0.1046339999999999,-123.1643264,85.21097280000001,-95.0406386,220.65642602722988,0.8161713437637711,65.14326395501504,0.9802667925996064,-115.7852148,96.211176,82.4533404
4816.602,-8.691776,-214.00101920000003,-16.4013816,-0.0458882,-0.1083724,0.7895756,-7.610802,-15.2846206,-177.2538576,-33.82561940000001,24.88165140000001,-44.2157218,-1.0212288,-0.1231554,-0.1097508,-122.0790512,84.12870960000001,-93.2727294,214.8045355830779,0.7982981473712437,60.97785793613756,1.0344664096041205,-114.46824920000002,99.4133302,83.9811282
4836.588,-3.7458222000000014,-207.470587,-13.5883038,0.0278568,-0.1116582,0.7476896,-7.774963199999999,-19.4275014,-176.9539094,-25.5064988,41.03995100000001,-41.6110488,-0.9712155999999998,-0.100368,-0.1261302,-123.9547288,82.91653000000001,-94.6534316,207.94883422188184,0.7564940798721692,63.767848021967815,0.9845010434018848,-116.1797656,102.3440314,82.3004778
4856.574,-3.967289200000001,-200.435394,-12.3075054,0.111567,-0.1021488,0.6861228,-7.9684038,-23.4174904,-176.6292604,-18.755236,51.7115444,-35.158154,-0.901113,-0.1016912,-0.1636072,-127.1266404,81.678264,-97.4843552,200.852087966998,0.7025995086180178,65.28352391175422,0.9214733066227584,-119.1582366,105.0957544,79.1449052
4876.56,-8.254236800000001,-192.625903,-13.3157606,0.1914041999999999,-0.1209878,0.6619514,-8.2640248,-27.250202,-176.32109699999998,-4.525523399999999,62.65253940000001,-23.3383666,-0.9349682,-0.1456992,-0.1700293999999999,-131.132367,80.446155,-101.4591522,193.26194765672935,0.699609370640817,67.01119616055585,0.9614071919619906,-122.8683422,107.696357,74.86194479999999
4896.546,-7.160392400000001,-183.5968504,-12.085423600000002,0.250548,-0.1602547999999999,0.6225767999999999,-8.5819036,-30.897679,-175.97494820000003,8.4653414,83.1144118,-19.2501712,-0.9384302000000002,-0.1529658,-0.2042529999999999,-135.8355714,78.950142,-106.4197358,184.1334629004554,0.6899694001369046,85.73352054539602,0.9725065882813752,-127.2536678,109.847821,69.5552124
4916.532,-0.8919466000000004,-173.9704924,-8.66199,0.3166947999999999,-0.1374911999999999,0.5752238,-8.8298956,-34.3475912,-175.5518798,17.648741,103.6602432,-7.554894600000003,-0.8286644000000001,-0.1518634,-0.2469424,-141.1049562,77.2196732,-112.1790298,174.18828280167358,0.6708813952636635,105.4229600778945,0.8779110028953278,-132.27506060000002,111.5672644,63.37284999999999
4936.517,-1.5415458000000004,-163.8004942,-7.574007,0.3787778,-0.1361602,0.5476816,-9.1453158,-37.5982768,-175.0917298,28.8625632,120.8338638,12.086686399999998,-0.8373652,-0.1867302,-0.292767,-146.6503998,75.2913498,-118.505661,163.98275472028692,0.6796818055645156,124.81970270531367,0.9065104312979968,-137.505084,112.8896266,56.5860688
4956.505,-2.9776574000000005,-153.0165862,-5.3745572,0.4250503999999999,-0.1578976,0.5215477999999999,-9.567646,-40.63486400000001,-174.55927119999998,41.548258,148.9604324,23.2332476,-0.8610748000000001,-0.1878456,-0.3321442,-152.135788,72.8374328,-125.0943526,153.13989669903097,0.6910944959343547,156.38175071814626,0.9418362650843513,-142.568142,113.4722968,49.4649186
4976.49,0.7957085999999995,-141.293924,-0.8770497999999997,0.478773,-0.1533592,0.4767036,-10.0171054,-43.4332466,-173.9049224,47.9812994,169.341925,32.5665348,-0.77882,-0.1750944,-0.3695062,-157.133719,69.95500999999999,-131.3867492,141.29888650603576,0.6928123497792169,178.9957313560792,0.8796325784950214,-147.1166136,113.3882566,42.5181732
4996.475,2.1503301999999995,-129.7295472,2.910274,0.5331627999999999,-0.1391552,0.4502402,-10.5385486,-45.992189800000006,-173.14123519999998,48.5685668,164.6114532,43.9891602,-0.7793028,-0.1854122,-0.4005808,-161.534195,67.1544798,-137.12611380000004,129.7800024327367,0.7115778092991095,177.1747228605794,0.8956313501242126,-150.9956464,113.1466696,36.0151214
5016.461,0.5514363999999997,-118.011902,7.0327522,0.581516,-0.1693618,0.407566,-11.212255,-48.295350600000006,-172.2480194,45.993419200000005,141.827594,42.3960558,-0.8178430000000001,-0.1692076,-0.408389,-164.7239654,64.6950658,-141.57407840000002,118.22255579739196,0.7300372058403873,155.00931125881593,0.9296665853238784,-153.5117104,112.9904164,30.673941
5036.447,1.0188463999999997,-105.64196940000002,11.986301,0.64622,-0.1683256,0.3635316,-11.9934716,-50.3261398,-171.21605219999998,39.117360000000005,107.59327620000002,31.304327799999992,-0.8065163999999999,-0.1517776,-0.4194624,-166.5664978,62.77376300000001,-144.46292720000002,106.32466862567658,0.7603216557575616,118.68631713819812,0.9216582058141076,-154.57302620000002,113.0999028,26.753124999999997
5056.433,1.7855579999999995,-91.94115920000002,15.517758200000005,0.705639,-0.1707068,0.3142832,-12.8325526,-52.0670608,-170.1030762,29.1645834,62.1658332,20.931932799999995,-0.7935518,-0.1265104,-0.415287,-167.4002686,61.66132640000001,-146.0506714,93.2585963435263,0.7911012196233046,71.7865555176559,0.9045400118073276,-154.56771600000002,113.7283872,24.0524048
5076.419,2.0657264,-76.79444520000001,16.5822512,0.7618204000000001,-0.1726738,0.2756244,-13.668023599999998,-53.492824600000006,-169.00396419999998,17.0664704,19.8868828,11.663538199999996,-0.7983152,-0.1166934,-0.4073694,-167.624289,61.3292762,-146.69837040000002,78.59150777275725,0.8283449601089875,28.684327476130083,0.9038110069096084,-153.95626540000004,114.8221008,22.3055938
5096.405,2.3397027999999995,-58.93708080000001,15.4581308,0.813362,-0.1857742,0.2312734,-14.402278,-54.56507259999999,-168.0345886,6.765737599999999,-3.4566626,6.278016599999996,-0.797133,-0.1026916,-0.3990462,-167.6654054,61.4352316,-146.9044006,60.97546646191373,0.8657697049315135,9.855821327122769,0.8973318528470947,-153.2631274,116.0003042,21.130188
5116.391,0.7694705999999997,-37.83682960000001,11.4400734,0.8493612,-0.1924431999999999,0.203453,-14.949079799999998,-55.243262400000006,-167.342398,-0.9937720000000012,-11.5210158,5.648946599999997,-0.8024298,-0.0990914,-0.3977636,-167.78472000000002,61.69682379999999,-147.0206664,39.53597145108602,0.8943388376340816,12.869809071679548,0.9010707913182848,-152.8356402,116.9400862,20.3217316
5136.377,-1.2191482000000005,-15.328573200000012,6.3455952,0.8614326,-0.2051904,0.198249,-15.2534424,-55.508602,-166.999768,-4.942547600000002,-8.189591,6.755576399999997,-0.8250738,-0.1019332,-0.3961591999999999,-168.0463442,61.9017104,-147.209259,16.634844667852626,0.9074535197991797,11.710507675663925,0.920912191499993,-152.7929018,117.4103124,19.790509000000004
5156.363,-0.8291520000000006,7.075920599999989,2.0531464,0.8622744000000001,-0.2064516,0.1989534,-15.2752382,-55.361589,-166.9942444,-9.484412000000004,-2.3472322,9.684162599999995,-0.8305956,-0.1088522,-0.3959557999999999,-168.5368166,62.00301420000001,-147.5579224,7.414280512392363,0.908692389871006,13.756692016967582,0.9265629216290926,-153.26157840000002,117.3646032,19.436322
5176.348,-2.6769736000000006,29.300747399999988,-2.1476454,0.8471426,-0.2187222,0.2160256,-15.0628522,-54.806134,-167.321695,-11.1714194,2.6114368,11.802071999999995,-0.8437802000000001,-0.1174858,-0.4136958,-169.1663668,62.00700500000001,-148.02911980000002,29.50105704238145,0.9011975617826316,16.459317029095544,0.9470544620302044,-154.10351459999998,116.813139,19.2925752
5196.334,-5.170734800000001,50.94436419999999,-5.0561432,0.8241213999999999,-0.2282504,0.247061,-14.6843536,-53.8455918,-167.9188448,-10.1219596,2.3633986000000005,11.181510399999995,-0.8556950000000001,-0.1274898,-0.4303684,-169.7416506,62.00584619999999,-148.46625360000002,51.45511953317258,0.8901199159434193,15.266495796738106,0.9662735336578356,-155.057297,115.851438,19.452591199999997
5216.32,-4.411501800000001,70.61550579999998,-5.3154454,0.8005972,-0.2101926,0.2913588,-14.1837658,-52.50264979999999,-168.6579898,-9.778120800000002,-7.3411142,9.103581399999998,-0.8636286,-0.1254096,-0.4432234,-170.1745608,62.183256400000005,-148.7501312,70.95255433965444,0.8775116842983004,15.243975806306576,0.9787895120084196,-155.990795,114.6859062,19.9078586
5236.306,-3.2596418000000007,87.97398359999998,-4.24284,0.7684804,-0.2085942,0.3290828,-13.626428999999998,-50.8184648,-169.4547794,-10.607009,-25.902695600000005,6.330560799999998,-0.8711316,-0.1206636,-0.4578564,-170.39880699999998,62.708857,-148.7802918,88.13653468558299,0.8616084694997143,28.69728696784484,0.9914950589410316,-156.77237799999995,113.5273218,20.6744876
5256.292,-3.124991800000001,104.24320359999996,-2.8665298,0.734237,-0.2188666,0.3717204,-13.0586116,-48.8076462,-170.2784792,-9.884869000000002,-47.793542200000005,1.6122307999999967,-0.887077,-0.120219,-0.4567812,-170.2457032,63.6464136,-148.40890800000005,104.3294208918817,0.8515765476695093,48.8316761879296,1.0049911823311883,-157.18709159999997,112.4540598,21.869571200000003
5276.278,-0.8465384000000004,118.58860019999996,0.3316553999999998,0.7029068,-0.1964933999999999,0.4138307999999999,-12.5028184,-46.5086432,-171.0473298,-9.286618200000005,-70.49163539999999,-5.988586800000003,-0.8966290000000001,-0.121276,-0.4419216,-169.5182922,64.99822420000001,-147.42393180000002,118.5920854018617,0.8390134425373886,71.35247095104863,1.0069489224203778,-157.01547380000002,111.5068674,23.623398
5296.264,-0.4076418000000004,130.49061899999998,3.692629,0.6597928000000001,-0.1719126,0.4608328,-12.021566,-43.9693808,-171.73151560000002,-10.833044200000002,-94.8697112,-12.516473400000002,-0.9050352,-0.1075932,-0.4058639999999999,-168.16758420000002,66.799396,-145.73585799999998,130.54349209275773,0.8229503937215414,96.30305839475436,0.9976926362468956,-156.1460182,110.7687768,25.995657600000005
5316.25,0.2846435999999996,140.6891724,5.8455272,0.6021454,-0.189722,0.5002812000000001,-11.5998454,-41.215573,-172.35164479999997,-13.394141200000002,-110.3299392,-14.2929816,-0.9189924,-0.1101328,-0.3874002,-166.3686676,68.87367880000001,-143.52637,140.8108463181082,0.8055152382783334,112.05528914504292,1.00337190505497,-154.7688222,110.0892518,28.8252748
5336.236,4.154255999999999,150.16247879999997,7.687408400000001,0.5493794,-0.1789105999999999,0.5503616,-11.152813,-38.258442200000005,-172.92284519999998,-12.563492000000002,-114.4420348,-17.785307200000005,-0.9308866,-0.0978082,-0.3342353999999999,-163.932135,70.99369680000001,-140.6804654,150.4165021870352,0.7979502607877762,116.49522656571315,0.9938961759962456,-152.77932200000004,109.252139,32.242379799999995
5356.222,4.8568792,157.55755019999998,9.2291062,0.4961248,-0.1358841999999999,0.6023966,-10.7397814,-35.1425506,-173.44377419999998,-13.502921400000002,-114.3441162,-19.882052400000003,-0.9147778,-0.0864872,-0.2984626,-160.8312348,73.053383,-137.145416,157.90233469407534,0.7921401370188484,116.8426369247546,0.966115098078609,-150.09145340000003,108.1959336,36.2983582
5376.208,-0.8248062000000008,163.97483839999998,8.4809542,0.4284628,-0.1485456,0.6432118,-10.4635616,-31.8845508,-173.9680388,-13.999841,-111.9108002,-12.748870400000005,-0.935611,-0.0880476,-0.2673613999999999,-157.5457124,75.0700364,-133.43628819999998,164.19608557367062,0.7869991016020539,113.50134997393464,0.9770375844340484,-147.0821508,106.9545872,40.5317506
5396.194,0.4162113999999992,169.57688299999998,8.1885882,0.3595627999999999,-0.1694846,0.6926012,-10.1892576,-28.4957534,-174.4883482,-10.4779198,-100.4408112,-3.0944866000000038,-0.956541,-0.1013888,-0.2464877999999999,-154.39523319999998,76.8974168,-129.96742840000002,169.77498477877813,0.7985655007715021,101.03325791622704,0.9929786548538092,-144.2059756,105.3931702,44.5209198
5416.179,5.013,173.6780976,9.6783636,0.3005196,-0.1486402,0.7445324,-9.8658718,-25.0145182,-174.9596556,-3.901128800000001,-87.2282516,0.4940847999999967,-0.9502514,-0.0936296,-0.1994128,-151.071518,78.48301699999999,-126.476251,174.0197761087197,0.8165380785303035,87.31684146198076,0.9754535816746792,-141.2056462,103.4975352,48.48340460000001
5436.165,-0.2813994000000004,176.0099244,10.5802568,0.2331214,-0.1291488,0.7785734,-9.691082599999998,-21.485156,-175.389215,-0.1410204000000014,-75.9850532,8.275883999999996,-0.9561516,-0.1091718,-0.1709435999999999,-148.059024,79.9008652,-123.3985028,176.32786083563192,0.8229225594592483,76.43453704014634,0.9774282983824236,-138.3679414,101.3860212,51.9907122
5456.151,-4.9548376,178.6201172,10.5453386,0.1548512,-0.1771478,0.8203894,-9.6429246,-17.9085156,-175.809619,4.2199008,-62.624512800000005,16.130073999999997,-1.002383,-0.129947,-0.1644888,-145.7113616,81.1365052,-121.1024456,178.99972304551972,0.8534629487087533,64.80599087618891,1.0240676085217422,-136.068437,99.0450208,54.7071734
5476.137,5.1593508,179.955841,13.7343056,0.0781672,-0.1815748,0.8567537999999999,-9.4386576,-14.3004,-176.1521574,14.559126799999998,-45.8637026,18.8471084,-0.9654022,-0.1178754,-0.1550296,-144.2137268,82.1133972,-119.8812664,180.5529140197104,0.8792648025284078,51.67843732545592,0.9848503412022356,-134.77506920000002,96.4137972,56.27089099999999
5496.123,7.409687,178.58433839999998,16.051028,0.0043124,-0.1424426,0.906328,-9.2268082,-10.7192818,-176.422064,23.3388292,-32.016838,17.600072399999995,-0.9734003999999998,-0.0949752,-0.1421878,-143.3398438,82.8478332,-119.4679608,179.45725085117198,0.9174633151644376,43.35367818801835,0.9883046078026956,-134.11303560000002,93.567115,56.9541032
5516.109,-0.5023522,176.47814039999997,16.1321552,-0.0606482,-0.1434214,0.9271334,-9.1925632,-7.1788504,-176.673004,28.059517,-20.813695000000003,19.8868054,-0.9938084,-0.0926056,-0.1405291999999999,-143.5578002,83.418013,-120.252168,177.2146518439484,0.9401192709102182,40.19989331881097,1.0079580294409882,-134.365237,90.5968634,56.42083600000001
5536.095,0.2576536000000001,175.12253719999998,16.6848706,-0.1195436,-0.1768416,0.9672024,-9.1620652,-3.6555738,-176.90528239999998,33.4408944,-11.8992466,22.427979,-1.0048103999999998,-0.06757,-0.1364987999999999,-145.1040558,83.870407,-122.4809476,175.9157591794485,0.9904767066202416,41.98689950382148,1.0162881320027306,-135.9419906,87.52598079999999,54.42433480000001
5556.081,7.499642600000001,173.1013092,17.993009199999996,-0.1716196,-0.1667898,0.9836606,-9.0075416,-0.1607984,-177.0971984,36.1827636,-5.7835836,23.7559678,-1.0054136,-0.0310614,-0.1174877999999999,-147.7257264,84.2345564,-125.8453612,174.1954542057657,1.0123538415398838,43.66907632531642,1.0127313072991078,-138.71818480000002,84.39535479999999,51.25183720000001
5576.067,3.3557970000000004,170.1385742,17.0320934,-0.2059905999999999,-0.1497316,0.9950346,-8.9461496,3.282718,-177.2909454,33.3131132,-4.7877546,21.6612522,-1.0466774,-0.0372524,-0.0877155999999999,-150.3490966,84.55345600000001,-129.15332940000002,171.02189336427202,1.0271054154876609,40.02369238410969,1.0510068256009948,-141.40294699999998,81.270738,48.13761600000001
5596.053,-1.2002095999999995,168.6704986,16.2460194,-0.2240018,-0.1670712,0.9777932,-8.9824408,6.6992058,-177.49603259999998,28.8518408,-3.8938236,23.319191399999998,-1.0523856000000005,-0.0559632,-0.0648406,-153.637857,84.8600432,-133.0404662,169.4553355530646,1.0169410672398476,37.30114297613808,1.055865348541167,-144.6554162,78.16083739999999,44.4555664
5616.039,1.8104576000000008,168.0777862,16.476732000000002,-0.2674438,-0.1713866,1.004664,-8.972204199999998,10.106027,-177.6976622,23.822911,-3.725770400000001,24.858657,-1.0695376,-0.0172212,-0.0393203999999999,-157.9074738,85.16153999999999,-137.80929260000002,168.89316939418873,1.0536836838985408,34.63185356620529,1.0703986833882786,-148.9352696,75.055513,39.8883696
5636.024,6.789870400000001,167.2930054,15.9988792,-0.3224316,-0.169325,0.979226,-8.8778864,13.4962188,-177.9059234,16.042415799999997,-6.8436482,21.079158199999995,-1.0593552000000002,-0.00032,-0.0360347999999999,-161.899356,85.4698836,-142.1413666,168.19338908372532,1.0447567426820277,27.359194721447484,1.0599679471465542,-153.0214696,71.97366480000001,35.764556799999994
5656.01,2.897186200000001,166.4221436,13.1551944,-0.3663182,-0.154526,0.956508,-8.8958026,16.8596388,-178.1712706,11.3581446,-12.765584,20.608377399999995,-1.0564316,-0.0087184,-0.0129849999999999,-166.0848296,85.8780624,-146.5744354,166.96641191568526,1.0358449992113878,26.77074527682029,1.0565473705433752,-157.18902699999998,69.0184236,31.596835199999997
5675.996,-2.576708399999999,165.7075624,10.4993046,-0.4266804,-0.1354523999999999,0.9638788,-9.0604884,20.1962048,-178.5023772,6.449379199999998,-16.6840956,20.1112134,-1.0516413999999998,0.0169685999999999,-0.0238917999999999,-170.8654906,86.350911,-151.50634760000003,166.05984180352607,1.0627633120781692,26.91494830899126,1.0520496117993483,-161.80500220000002,66.1547062,26.996029599999996
5695.983,-0.794725599999999,164.35401019999998,8.2600936,-0.5093262000000001,-0.145658,0.9553384,-9.2342536,23.5017802,-178.89516899999998,2.0420737999999985,-22.5693378,16.356426799999998,-1.0332112,0.0356703999999999,-0.0343541999999999,-103.46024459999998,86.9212144,-156.166046,164.56336592292269,1.092383123947363,27.94776863720811,1.0343973957330133,-94.225991,63.4194342,22.729122999999998
5715.968,0.8243926000000009,162.44185499999998,5.5340154,-0.5718436,-0.162936,0.9131664,-9.4281474,26.7548316,-107.3622222,-1.8514434000000013,-24.6892198,12.901060399999997,-1.0228736,0.0068809999999999,-0.0348581999999999,-36.1544034,87.5059206,-160.84716480000003,162.53818383828272,1.089690835533602,27.91814421555565,1.023490519665522,-26.726256,60.751089,-53.4849426
5735.954,-2.6349407999999994,160.2580446,2.8588272,-0.6180892,-0.151921,0.9102162,-9.7468578,29.952119,-35.9085174,-1.9394304000000016,-24.5273176,11.373380999999997,-1.0183171999999998,-0.0186098,-0.0445315999999999,30.7939668,88.0852022,-165.887204,160.30519849647595,1.1106789725839237,27.105432929559985,1.0194603022533244,40.54082459999999,58.1330832,-129.9786866
5755.94,-3.4211991999999998,157.29832779999998,2.5641266,-0.665389,-0.1381792,0.8967946,-10.1138696,33.0886146,35.5156494,0.9677303999999982,-22.6087,9.957772199999996,-1.0072626000000002,-0.018617,-0.0495325999999999,95.56559459999998,88.65176699999999,-101.1618592,157.35642115231,1.1252006786448363,24.723410869137307,1.008651583308389,105.67946419999998,55.5631524,-136.6775086
5775.926,-1.300681399999999,155.0795288,2.0990108,-0.705678,-0.1612686,0.861391,-10.4936844,36.17687339999999,106.8948394,1.9557217999999983,-21.3402328,5.800371999999995,-1.0208266,-0.0034144,-0.0240545999999999,159.8445252,89.1501022,-36.962188800000014,155.09918720377888,1.1251593024594162,22.200781496505364,1.0211156786457058,170.3382096,52.9732288,-143.8570282
5795.912,-1.8170849999999996,154.21278079999996,0.8941427999999998,-0.7332774,-0.1585868,0.833348,-10.9609288,39.2345368,178.2056884,-0.6049090000000017,-20.3309516,7.092347599999995,-1.0475450000000002,0.0123689999999999,0.0068536,143.5433992,89.4914978,18.7528014,154.2260777278371,1.12130031998078,21.54100513762181,1.0476404397592527,154.504328,50.256961,-159.452887
5815.897,-4.349352399999999,152.93232419999998,-0.4200124000000002,-0.7695328,-0.1382706,0.8163164,-11.569769,42.2548874,177.420111,0.0834895999999982,-21.9841546,4.742419399999995,-1.0262672,0.0339619999999999,-0.0030419999999999,123.2398378,89.7626602,70.4866012,152.99473540592643,1.1303415209613243,22.490010354722063,1.0268335001371156,134.8096068,47.5077728,-106.9335098
5835.883,-5.384488599999999,150.29626459999997,-0.6759308000000002,-0.8051322000000001,-0.1387452,0.7508934,-12.2881694,45.2224794,176.5675048,-0.1292382000000017,-21.7986516,4.666998799999996,-0.9934732,0.0354693999999999,0.0039852,101.4447946,89.94933160000001,120.7461228,150.3942045181367,1.1096526430209772,22.29302114765343,0.9941141580692028,113.732964,44.7268522,-55.82138200000001
5855.869,-6.246986199999999,147.84922179999998,-1.3653376,-0.8380105999999999,-0.1480701999999999,0.709373,-13.136566000000002,48.1281808,175.61771240000002,-1.6777768000000013,-21.0495768,0.2091753999999955,-1.000263,0.0348955999999999,0.0118312,79.04206180000001,90.0,98.443155,147.9874365282761,1.107879326898647,21.11737135151252,1.000941431534233,92.1786278,41.8718192,-77.1745574
5875.855,-6.558658999999999,146.0079988,-1.3767336,-0.8640547999999999,-0.1554788,0.6737292,-14.1131558,50.980504,174.5552948,-3.9393546000000015,-20.9384912,2.6832799999999954,-1.0098454,0.0257319999999999,0.0290604,56.4796796,89.7847412,76.03770219999998,146.1617156332822,1.1066505273053096,21.47414538358672,1.0105911015704223,70.5928354,38.8042372,-98.5175926
5895.841,-6.735863599999999,144.93843379999998,-1.0031188,-0.8849192,-0.1494516,0.6492046,-15.2295122,53.7892672,173.35224599999998,-3.610097600000002,-19.9907914,-1.1817314000000043,-1.0059558,0.0176889999999999,0.0345478,41.2209976,89.450412,60.888390400000006,145.09833802687643,1.1076481318236222,20.34848973711773,1.0067042876433376,56.4505098,35.6611448,-112.4638556
5915.827,-6.008798599999999,144.74377439999998,-0.1606722000000001,-0.9003028000000001,-0.1476168,0.6015866,-16.5105174,56.577054800000006,171.984564,-2.686698800000001,-21.4665748,-4.719069800000004,-1.0021776,0.0185439999999999,0.065413,29.335194,88.9859878,49.058432,144.86853248283182,1.0928139313852292,22.14275962618906,1.0044813001976494,45.8457114,32.408933000000005,-122.926132
5935.813,-6.865223399999998,145.32726739999998,-0.2153206,-0.9181634,-0.141201,0.5645964,-18.0591176,59.3496392,170.3539,-3.088633800000001,-23.3269898,-5.781640400000003,-1.0169784,0.0273439999999999,0.0890194,19.632187,88.4072922,39.4085026,145.48949207844458,1.0870744438140012,24.230465897186512,1.0212331829601504,37.6913046,29.057653,-130.9453974
5955.799,-7.504405799999999,146.32739859999998,-0.2331232,-0.9465704,-0.1440005999999999,0.5253325999999999,-19.9573856,62.10952,168.37640960000002,-5.981669400000001,-25.112331,-5.939518600000004,-1.015322,0.0429087999999999,0.1108092,13.0180632,87.7106872,32.8923466,146.5198895504659,1.0921108165288356,26.48938312351202,1.022251733970689,32.975448799999995,25.601167200000003,-135.484063
5975.785,-7.697692199999999,147.27406000000002,-0.3932638,-0.9834952,-0.1352396,0.4854419999999999,-22.300235800000003,64.8485572,165.9486784,-8.812151600000002,-27.647376599999998,-8.839486800000005,-1.0186734000000002,0.0453891999999999,0.1132919999999999,7.2083714,87.0828232,27.23904,147.47561788480812,1.10508212056625,30.334270645113328,1.0259584555956447,29.5086072,22.234266,-138.7096384
5995.771,-8.6148238,147.1036682,-0.110745,-1.0228862,-0.1360106,0.4313057999999999,-25.2454766,67.5401266,162.93689260000002,-10.0322272,-28.4078396,-10.186151400000004,-1.005903,0.0372863999999999,0.1111244,2.7053248,86.4544692,22.9174254,147.35574862032277,1.1184005340558631,31.80265104791533,1.0127091158419184,27.9508014,18.9143426,-140.0194672
6015.757,-10.1329096,145.83297739999998,0.2165705999999999,-1.053886,-0.1377464,0.3803722,-29.008374600000003,70.13912640000001,159.13975820000002,-10.2107736,-27.1293298,-8.878108600000004,-1.0062766,0.0357377999999999,0.0887012,0.0311289999999999,85.8669434,20.4307582,146.1847463216852,1.1288634914115168,30.31635276910828,1.0108104119654882,29.0395036,15.727816999999998,-138.709
6035.743,-12.268095999999998,142.66260999999997,0.9786878,-1.0789088,-0.1378233999999999,0.3454518,-33.748567,72.58582900000002,154.4158354,-9.267118400000005,-24.360692,-10.690513000000005,-0.9935204,0.0283769999999999,0.05644,-2.6921252000000004,85.349443,17.877633799999998,143.19247292119505,1.1412170847074803,28.171082094262044,0.995526751496493,31.056441800000005,12.763614,-136.5382016
6055.728,-13.4997884,135.70894319999996,2.2440952,-1.0950094,-0.1359424,0.2929163999999999,-39.4737074,74.80787799999999,148.750296,-9.133639600000002,-18.8577486,-7.549233200000005,-0.9761422,0.0153115999999999,-0.0019602,-4.4852824,84.9604278,16.256952,136.39720493680306,1.1416330144118467,22.271707983705976,0.976264248090362,34.988425,10.1525498,-132.493344
6075.714,-14.8931554,124.4148422,3.5003316,-1.1026136000000002,-0.1512646,0.242862,-46.0764046,76.7173248,142.26146699999998,-6.017897000000001,-9.0376958,-4.950322800000004,-0.9616672,-0.0042884,-0.0508936,-5.6044924,84.7832258,15.252491999999998,125.35194995982076,1.1391311079775324,11.933177510627525,0.9630225087978784,40.471912200000006,8.065901,-127.008975
6095.7,-15.227115799999998,109.1545562,4.6819656,-1.1065026000000002,-0.1642146,0.2180866,-53.1472626,78.25758820000001,135.3394684,-1.9190168000000012,2.4920561999999995,-1.8306308000000044,-0.9538128,-0.0236898,-0.0932142,-6.0605356,84.8509062,14.833581199999998,110.31093779261036,1.1396825012956373,3.639255240918029,0.9586495455324224,47.086727,6.593317999999999,-120.5058872
6115.686,-12.898984399999998,90.44582119999998,6.2008766,-1.10245,-0.1770724,0.206271,-60.0504898,79.420401,128.56778119999998,2.813331799999999,14.1219314,2.374611799999996,-0.9696502,-0.0486498,-0.1172858,-5.7169682,85.16217019999999,15.125446399999998,91.57118128375453,1.1354727485865788,14.593922141901963,0.9779285619521092,54.333521600000005,5.741769199999999,-113.44233479999998
6135.672,-9.8150522,69.94353579999998,7.570599400000001,-1.0918262,-0.1992948,0.2179942,-66.1577202,80.25105599999999,122.563318,7.010190199999999,24.157148,5.899659199999997,-0.9940652,-0.053036,-0.10153,-4.6095386,85.6946272,16.103554799999998,71.03342470393697,1.1310722079279996,25.8363415523604,1.0006431831812177,61.5481816,5.4435711999999965,-106.4597632
6155.658,-6.3935474,48.83692239999999,8.2516298,-1.0835026,-0.2439992,0.2840843999999999,-70.7893822,80.810579,117.9985048,10.5641328,31.0427392,5.697665399999996,-1.0060248,-0.0678064,-0.0657049999999999,-3.4678130000000005,86.3827636,17.049385799999996,49.94008242099642,1.1463932310209968,33.282366951068994,1.01044581899328,67.3215692,5.572184599999995,-100.949119
6175.644,1.4707706000000005,26.154250999999988,8.0983796,-1.0740746,-0.2854778,0.3440644,-73.1297684,81.15224,115.60243699999998,14.301607999999998,33.462820400000005,7.001843599999996,-1.01243,-0.079679,-0.0462589999999999,-1.553945,87.1534486,18.6994224,27.418821339994192,1.163406262663804,37.05836146279516,1.016613566219731,71.5758234,6.001208599999996,-96.9030146
6195.63,9.1596024,2.782366999999988,6.428368399999999,-1.0684588,-0.3166824,0.3750893999999999,-72.9047912,81.283133,115.6543032,17.835157,31.4852626,7.184204599999997,-1.028829,-0.0610246,-0.0194027999999999,1.2143496,87.9366152,21.139242799999995,11.530993128733243,1.1758333248209798,36.89210460166604,1.030819858992831,74.1191408,6.6534821999999965,-94.5150604
6215.615,12.7164274,-20.055175000000013,3.3673424,-1.0762930000000002,-0.3324112,0.4104028,-70.27133699999999,81.17898720000001,118.07476979999998,16.7076066,27.7915778,4.545784999999996,-1.0387094,-0.0650006,0.0017388,3.020131,88.67730120000002,22.649158799999995,23.984506768723307,1.1988887713137863,32.744160947870405,1.0407426766853372,73.291468,7.498313999999996,-95.425611
6235.601,17.5519878,-42.71185720000001,0.1121848,-1.0984574,-0.3296458,0.4502768,-65.431668,80.7897324,122.6351748,16.699132599999995,22.405437600000003,3.244192999999996,-1.0503042,-0.0581124,-0.0016035999999999,5.2472062,89.2410402,24.5904624,46.17778260845677,1.2320812512536017,28.13164502586234,1.0519118475919738,70.6788742,8.451307799999999,-98.0447124
6255.587,23.1534056,-65.8988214,-2.8969228,-1.1168286,-0.2994778,0.4472588,-58.8815092,80.0412706,128.822098,19.144641799999995,17.053683,2.301634599999996,-1.0550468,-0.042339,-0.0201906,8.3468958,89.638524,27.3709064,69.90798963277638,1.2397715550246506,25.74185182434848,1.056089012081652,67.228405,9.5972534,-101.4511916
6275.573,23.9503322,-88.2608522,-5.476456199999999,-1.1352708,-0.2516442,0.4595186,-51.581835,78.8610856,135.7714022,21.328876599999997,12.3879354,0.3713157999999957,-1.0547564,-0.0186086,-0.017926,10.965235000000002,89.8881638,29.633221799999998,91.61652698105904,1.2503287313631724,24.668194014072657,1.055072833889168,62.54707,11.0270782,-106.1381804
6295.559,22.5886138,-110.1902452,-6.8361096,-1.1530296,-0.223443,0.4953799999999999,-44.2996672,77.2099762,142.763019,21.3043748,8.110298400000001,-0.8347032000000043,-1.0506546,-0.010403,-0.0189242,11.807056800000002,90.0,30.1075904,112.68925416873113,1.274678538740321,22.81118267841472,1.0508765085659686,56.106724,12.790023799999997,-112.6554286
6315.545,24.4858974,-132.1226364,-7.1424864,-1.164691,-0.195922,0.5430222,-37.4379694,75.0671036,149.3314882,21.9066972,4.0462086,-0.5896848000000043,-1.0423474,0.0093701999999999,-0.0058222,12.370830799999998,90.0,30.2631872,134.56212443605415,1.2999090988441615,22.28503790462455,1.0424057755728526,49.8088002,14.9328964,-119.068301
6335.531,26.5182068,-153.3097992,-7.560762599999999,-1.1679356,-0.1822728,0.5737916000000001,-31.3385888,72.4083602,155.132532,20.2395146,0.3279515999999999,-0.4681758000000043,-1.0341076,0.0252393999999999,0.0152429999999999,12.984542199999998,90.0,30.4653344,155.7699423949481,1.3139763086135765,20.24758484548864,1.0345278656175094,44.323131,17.5916398,-124.6671976
6355.517,26.8762234,-171.9999694,-8.0525554,-1.1646076,-0.1765804,0.6128996,-26.2495564,69.27682480000001,159.9466738,16.4540024,-3.7379222,-0.4575506000000043,-1.0362434,0.0376927999999999,0.0456324,12.321211,90.0,29.4294784,174.27324667405986,1.3278318490389058,16.87944341215133,1.0379322941045626,38.5707674,20.7231752,-130.5171954
6375.503,27.2020546,-188.063623,-8.1052798,-1.155867,-0.1678372,0.65701,-22.1171148,65.7398338,163.82044679999998,11.7320486,-6.885888400000001,-0.2130348000000043,-1.0342066,0.0443377999999999,0.0657912,11.0780658,89.9557648,27.884818199999994,190.1935162695716,1.340097006747213,13.60521250242081,1.0372452043706155,33.1951806,24.215931,-135.9356286
6395.489,28.1941006,-201.4882354,-8.2237914,-1.1392912,-0.1488,0.694678,-18.7831832,61.8686698,166.8875396,7.542760599999999,-9.5708708,0.4402125999999956,-1.0374006,0.0572943999999999,0.0813334,10.785262,89.75155179999999,27.3714984,203.6174036231664,1.342647906966469,12.193793194588949,1.0421601484931573,29.5684452,27.882882,-139.5160412
6415.475,28.213359000000004,-212.5112152,-8.655272,-1.1178781999999998,-0.144852,0.7270137999999999,-16.1160256,57.7287544,169.2904724,3.040425799999998,-12.1961666,1.0352357999999957,-1.0385628,0.0696802,0.0974284,11.225393,89.4358658,27.691381799999995,214.5505160684485,1.341336213381895,12.611993575238722,1.04544742237113,27.3414186,31.7071114,-141.5990906
6435.46,26.330115,-221.1415252,-9.1281282,-1.0923166,-0.1384443999999999,0.7633601999999999,-14.02325,53.4014032,171.151715,-2.5087864000000013,-13.268920799999998,0.7894905999999957,-1.0341408,0.0621963999999999,0.1003271999999999,10.6324264,89.05249780000001,27.1093842,222.8904929514292,1.3397914768615895,13.527067819930004,1.0408559619166524,24.6556764,35.65109460000001,-144.0423308
6455.446,23.760312000000003,-228.02547600000003,-9.6385204,-1.059787,-0.1302992,0.7930352,-12.3748404,48.9347024,172.6166716,-6.677938000000002,-11.2574146,0.7730177999999956,-1.0228874,0.0619081999999999,0.0994136,10.2917202,88.65692900000002,26.8781892,229.4625703832003,1.3300493206376522,13.111895207301425,1.0295699695362914,22.6665606,39.722226600000006,-145.7384824
6475.449,20.0136036,-233.5188444,-10.8564152,-1.019251,-0.1212606,0.8231615999999999,-11.107969399999998,44.3584236,173.7627838,-11.558035800000004,-7.350974199999999,-0.1920114000000042,-1.0170064,0.0464945999999999,0.0998398,9.6640402,88.3403716,26.468551599999994,234.6262064858999,1.3157400023666987,13.698973743345787,1.0229524676807618,20.7720096,43.981948,-147.2942322
6495.418,15.7845642,-238.1917174,-12.48517,-0.9762638,-0.1303146,0.8455081999999999,-10.1634802,39.67907,174.6597962,-14.144301400000003,-1.6270393999999997,-1.341625800000004,-1.0087568,0.0417581999999999,0.0870824,8.803264599999999,88.25553740000001,25.888174,239.04042790890887,1.2980589425872926,14.300646107446337,1.013369317279362,18.9667448,48.5764674,-148.7716222
