Timestamp (ms),Wrist Gyroscope X (deg/s),Wrist Gyroscope Y (deg/s),Wrist Gyroscope Z (deg/s),Wrist Accelerometer X (g),Wrist Accelerometer Y (g),Wrist Accelerometer Z (g),Wrist Roll (deg),Wrist Pitch (deg),Wrist Yaw (deg),Arm Gyroscope X (deg/s),Arm Gyroscope Y (deg/s),Arm Gyroscope Z (deg/s),Arm Accelerometer X (g),Arm Accelerometer Y (g),Arm Accelerometer Z (g),Arm Roll (deg),Arm Pitch (deg),Arm Yaw (deg),Wrist Gyroscope Magnitude (deg/s),Wrist Accelerometer Magnitude (g),Arm Gyroscope Magnitude (deg/s),Arm Accelerometer Magnitude (g),Difference Roll (deg),Difference Pitch (deg),Difference Yaw (deg)
0.0,0.430277,0.393645,0.469765,-0.913797,-0.375511,-0.15034,-111.486519,65.968185,106.310799,-0.360926,0.125916,0.064396,-0.971303,-0.216208,0.097419,-64.866951,76.370026,-99.113014,0.7488483411071963,0.9993175591022104,0.3876457936673633,0.9998329253600324,46.619568,10.40184099999999,-205.423813
19.985,0.3765435,0.5000565,0.4357769999999999,-0.9111245,-0.3751029999999999,-0.149583,-111.5003015,65.97039000000001,106.291363,-0.1093085,0.2264824999999999,0.112733,-0.970063,-0.214897,0.0976839999999999,-64.8778495,76.37318450000001,-99.1255225,0.762720856089238,0.9966068377240094,0.2755928160665658,0.9983712277675074,46.622452,10.4027945,-205.4168855
39.97,0.3100836666666666,0.502282,0.3541589999999999,-0.912087,-0.3762833333333333,-0.1490906666666666,-111.511434,65.971359,106.28508,0.0203536666666666,0.3137646666666667,0.174132,-0.9708486666666666,-0.2142446666666666,0.0988723333333333,-64.887558,76.37760433333334,-99.13790133333332,0.6883804799225821,0.9978576398467648,0.3594224411736449,0.9991114297526243,46.623876,10.406245333333333,-205.4229813333333
59.956,0.43319275,0.43156825,0.31055775,-0.91246025,-0.377115,-0.1483607499999999,-111.514967,65.9724425,106.28610425,0.0209447499999999,0.06849925,0.177007,-0.971873,-0.2142435,0.10212625,-64.87224575,76.3786355,-99.12381175,0.6858230304865005,0.9984038978267388,0.1909510614061231,1.0004334942215365,46.64272125,10.406192999999998,-205.409916
79.941,0.5300014,0.3191338,0.2722934,-0.912045,-0.3777886,-0.1484048,-111.5124588,65.9735258,106.28072360000002,-0.2006889999999999,-0.4527762,0.1299277999999999,-0.9710768,-0.2148644,0.1018918,-64.83098600000001,76.3742508,-99.0778366,0.6759375429638156,0.99828567703739,0.5120191355997157,0.9997693738021984,46.6814728,10.400725,-205.3585602
99.926,0.8728006,0.1069315999999999,0.1689456,-0.9124674,-0.3772844,-0.1476696,-111.5014496,65.9771056,106.2680938,-0.3128939999999999,-0.7361428,0.1306989999999999,-0.970185,-0.2157896,0.1014694,-64.77918700000001,76.36911,-99.018042,0.8954093310873414,0.998371967410083,0.8104881898145339,0.9990596202577302,46.7222626,10.3920044,-205.2861358
119.911,1.4018338,-0.2432502,0.0707202,-0.914754,-0.376913,-0.1456786,-111.4614822,65.98247219999999,106.2757658,-0.2758475999999999,-0.9225088,0.129325,-0.9697372,-0.2164617999999999,0.1016722,-64.7137024,76.3619688,-98.9448806,1.4245385250355709,1.000030271833288,0.9715139423231144,0.9987908610794954,46.7477798,10.3794966,-205.2206464
139.896,1.9860104,-0.643476,0.0070887999999999,-0.9149948,-0.3754236,-0.1445181999999999,-111.3918534,65.9904938,106.31210000000002,-0.3989719999999999,-0.9596776,0.229912,-0.968417,-0.217026,0.1022138,-64.6443832,76.3557906,-98.8652372,2.0876659030049804,0.9995218224707452,1.0644337839761382,0.9976870408477,46.7474702,10.365296800000005,-205.17733719999995
159.881,2.6556466,-0.9763314,-0.0057866,-0.9137878,-0.3739298,-0.1448173999999999,-111.2966874,66.0009826,106.3718886,-0.7516514,-0.4519153999999999,0.4897762,-0.966342,-0.2162836,0.1004096,-64.6144364,76.3592558,-98.818617,2.829437285301988,0.9978996533217356,1.0045337634771463,0.9953278577258452,46.682251,10.358273200000005,-205.1905056
179.866,3.5022752,-1.1637624,0.0827814,-0.913061,-0.3716514,-0.1438938,-111.1791506,66.0154694,106.4456434,-1.1710566,0.697803,0.8627312,-0.9660862,-0.2146104,0.1015078,-64.661264,76.379817,-98.8425702,3.691493906316894,0.9962482514521168,1.613259963758476,0.9948286300059122,46.5178866,10.364347600000002,-205.2882136
199.851,4.1688434,-1.272611,0.1572428,-0.9129132,-0.3735072,-0.1410546,-111.0414598,66.0315384,106.5344206,-1.6190382,1.7159246,1.2632752,-0.96573,-0.2113236,0.1016273999999999,-64.77494659999999,76.41767100000001,-98.9263028,4.361595963543207,0.9964007925364372,2.676106529434028,0.9937908357636028,46.266513200000006,10.386132600000002,-205.4607234
219.837,4.5579796,-1.5439612,0.1506942,-0.914449,-0.3757106,-0.1388878,-110.8819078,66.0488236,106.6412886,-2.262125,2.8203974,1.7659842,-0.9650636,-0.2111342,0.0996674,-64.9703384,76.4739866,-99.0806424,4.81473809911144,0.9983312323784126,4.023748402199298,0.9929043222170804,45.911569400000005,10.425163,-205.721931
239.822,5.653930399999999,-2.1207992,-0.0372379999999999,-0.9158524,-0.3756362,-0.1402382,-110.676613,66.06643679999999,106.769693,-2.5975686,4.0867828,2.2386274,-0.9628954,-0.2133715999999999,0.0943393999999999,-65.265657,76.5486082,-99.330078,6.038717155440284,0.9997774382708584,5.334848537879267,0.9907547191005855,45.410956,10.482171400000002,-206.099771
259.807,7.6314714,-3.20379,-0.581499,-0.9242288,-0.3777286,-0.1345644,-110.3714556,66.08273779999999,106.959024,-1.7928972,5.6901116,2.6873246,-0.9619178,-0.215804,0.0878136,-65.67008039999999,76.6435652,-99.7072874,8.297093899680716,1.0074648121670355,6.54320746239851,0.9897315033471452,44.70137520000001,10.560827400000004,-206.6663114
279.792,10.6640166,-5.1944158,-1.4095474,-0.940329,-0.384372,-0.130068,-109.9033066,66.0972092,107.2576202,0.5010279999999998,7.5007368,3.4160542,-0.962144,-0.2201522,0.0785596,-66.1723738,76.764691,-100.2308302,11.94529319109464,1.0241475222100571,8.257209449747286,0.990131142148857,43.730932800000005,10.6674818,-207.4884504
299.777,15.6474856,-8.2356358,-2.3120544,-0.9551542000000002,-0.3868652,-0.1242314,-109.1892884,66.11569219999998,107.7171982,3.7241396,10.0664224,4.2863022,-0.9653278,-0.2342392,0.0669483999999999,-66.8299162,76.9152648,-100.9777494,17.832977827076675,1.037987316634765,11.557441855585289,0.9955942208209329,42.3593722,10.7995726,-208.6949476
319.762,22.1525602,-12.6461248,-3.6322262,-0.9704988,-0.3876465999999999,-0.1223314,-108.1422014,66.1355728,108.4013642,7.7561886000000015,13.790963200000002,4.3163144,-0.9727062,-0.2403128,0.0535597999999999,-67.7546828,77.09084920000001,-102.0794036,25.76535392809044,1.052189516541084,16.40060052504699,1.0033824024460063,40.38751860000001,10.955276400000002,-210.4807678
339.747,29.0195882,-18.3039686,-5.9032784000000005,-0.9723014,-0.3935092,-0.1243092,-106.6973054,66.134346,109.3700042,12.819567,19.887712800000003,3.3625444,-0.9733806,-0.230898,0.0350208,-69.17433919999999,77.2915998,-103.789604,34.81408424295075,1.0562538899957907,23.899144824130097,1.0010045630730162,37.522966200000006,11.157253800000005,-213.1596082
359.733,36.8810988,-24.3374414,-9.346923999999998,-0.9506368,-0.4001693999999999,-0.1217494,-104.81223,66.077266,110.6527022,17.4592992,27.826136400000003,2.0222008,-0.9606414,-0.2162681999999999,0.0173996,-71.2943848,77.50960219999999,-106.3093672,45.16515793015199,1.0385898086400425,32.91216023876352,0.984838352119453,33.517845200000004,11.432336200000004,-216.9620694
379.718,42.7457362,-30.537273,-13.852132,-0.91895,-0.4135204,-0.1005007999999999,-102.5029374,65.92917179999999,112.2558792,21.798296,35.5596652,0.4722566,-0.941857,-0.2130222,0.0001606,-74.14047559999999,77.7154342,-109.6580154,54.32867167989608,1.0127036261990967,41.71185112094584,0.96564646322254,28.362461800000005,11.786262400000004,-221.9138946
399.713,43.9665942,-36.9917042,-19.4216222,-0.8961368000000001,-0.4287472,-0.0727304,-99.8624374,65.6584092,114.18668200000002,27.6947884,41.191371,-1.6214278,-0.9285942,-0.203029,-0.0077435999999999,-77.4721772,77.8781692,-113.6232666,60.65185070587132,0.996079834604757,49.66245440462069,0.950561900380822,22.390260200000004,12.219760000000004,-227.8099486
419.688,42.8846628,-42.9243118,-25.3977458,-0.8801908,-0.4527236,-0.044385,-96.9956786,65.23883359999999,116.3878722,33.5286252,43.9133338,-3.5347860000000004,-0.922026,-0.195298,-0.0050892,-80.9720842,77.9801636,-117.880754,65.77717186604134,0.9907898518992816,55.36284227980075,0.9424962352373828,16.0235944,12.741330000000003,-234.26862620000003
439.673,40.6551764,-47.554812600000005,-30.849526000000004,-0.8804383999999998,-0.4745788,-0.015325,-94.0276716,64.67174680000001,118.7496506,35.7393316,43.1134322,-4.8592862,-0.9307146,-0.1931532,0.005985,-84.34119580000001,78.01049359999999,-122.051622,69.75669734126546,1.0003157847544943,56.21103558601519,0.9505649086455904,9.6864758,13.338746800000004,-240.8012726
459.658,36.073633,-50.9291604,-35.018526599999994,-0.9063612,-0.4885454,0.0193166,-91.0953992,63.9848746,121.1677354,35.5531086,39.128786,-5.870999,-0.9589446,-0.2015988,0.010769,-87.3183046,77.963698,-125.81975400000002,71.56384270078378,1.0298254045041615,53.19355275045268,0.9799657103141924,3.777094599999998,13.9788234,-246.9874894
479.643,31.226187600000003,-53.6586718,-37.8782152,-0.9469142,-0.4957981999999999,0.0427284,-88.2809264,63.206015,123.5924912,34.96263879999999,34.873042600000005,-7.075190000000001,-0.999105,-0.2093892,0.0154472,-89.8422716,77.8491152,-129.1157362,72.72610974133032,1.0697140147962163,49.885604392217,1.0209276439050323,-1.5613452000000052,14.643100199999996,-252.7082274
499.629,27.3942318,-55.7808032,-40.0858324,-0.9749976,-0.5096746,0.0597725999999999,-85.62144459999999,62.3389236,125.9558076,32.0115344,31.641695200000004,-8.2639806,-1.0264799999999998,-0.216474,0.0117315999999999,-92.049512,77.6804124,-132.03011460000002,73.95144285779793,1.1017991112728671,45.76274232527224,1.049123354765568,-6.428067400000003,15.341488799999995,-257.9859222
519.614,23.4912742,-57.7723024,-42.4160164,-0.9848988,-0.522214,0.0785196,-83.1394576,61.37738280000001,128.2282472,28.4661616,30.255117600000005,-8.881486800000001,-1.0332604,-0.2219964,-0.0037166,-94.1413866,77.47448119999999,-134.755249,75.42279055684496,1.1175412456019689,42.48029313700317,1.0568459059563415,-11.001929000000002,16.097098399999997,-262.9834962
539.599,19.9381922,-60.0903878,-45.0023408,-0.9885224,-0.5363401999999999,0.1186234,-80.80470419999999,60.3147958,130.4315782,28.226186600000005,29.840844600000004,-9.310971599999998,-1.0278776,-0.2316396,-0.0196576,-96.1340258,77.2339554,-137.37532040000002,77.67623118842644,1.130888525216062,42.117547513540906,1.0538385484065764,-15.329321600000004,16.919159599999993,-267.80689859999995
559.584,15.945444600000002,-64.1443954,-48.4464196,-0.9841756,-0.5636588,0.1432984,-78.600093,59.1238236,132.6022218,28.1114166,29.802380600000003,-10.7806276,-1.0193674,-0.23914,-0.0236328,-98.0086686,76.9428528,-139.8753082,81.95008381193074,1.1431742150238344,42.363375268454405,1.0473090971716994,-19.4085756,17.819029199999996,-272.47753
579.569,11.8270664,-69.18833459999999,-52.7219918,-0.9644936,-0.5914388,0.1665478,-76.5180418,57.780616,134.7559176,24.656294000000003,29.162485000000004,-13.0349444,-1.0043068,-0.2376804,-0.0296583999999999,-99.7668794,76.59411619999999,-142.1881196,87.78675050205943,1.143584683471775,40.35211445142314,1.0324745719682202,-23.248837599999995,18.8135002,-276.9440372
599.554,9.4917588,-74.41393719999999,-57.35638659999999,-0.9457762,-0.6128328000000001,0.1908388,-74.535675,56.2802772,136.8809482,20.707871200000003,28.68236420000001,-15.353103999999998,-0.9902082,-0.2341943999999999,-0.0347574,-101.4221848,76.1899506,-144.3175722,94.43136459106996,1.143011858568283,38.56438445213468,1.0181195279501123,-26.8865098,19.9096734,-281.1985204
619.539,9.179368,-79.60050199999999,-61.8472666,-0.934957,-0.6317124000000001,0.2221086,-72.6237472,54.6281608,138.9656956,15.417695000000004,27.7067374,-17.840621399999996,-0.9881402,-0.231407,-0.0360576,-102.9486054,75.7326112,-146.2097382,101.22047767829838,1.1500162513446148,36.38208884057816,1.0155148472685172,-30.3248582,21.1044504,-285.1754338
639.524,10.7192572,-84.7351974,-66.47833499999999,-0.9236128,-0.650763,0.245652,-70.767369,52.8228934,140.9880558,8.1347152,26.3336882,-20.3437858,-0.9901318,-0.2317084,-0.037484,-104.3562592,75.225267,-147.83380119999998,108.23273616475258,1.15624305039937,34.25647889489245,1.0175730019304756,-33.5888902,22.4023736,-288.821857
659.51,15.209653,-89.1173096,-70.4725664,-0.899618,-0.6625232,0.2708126,-68.9293456,50.8797004,142.922388,2.627699200000001,24.9060714,-20.985133,-0.9891646,-0.2386106,-0.0475956,-105.6650772,74.7028274,-149.24542839999998,114.62814239847503,1.1496038451488408,32.674041725738,1.0186495793278865,-36.73573160000001,23.823127,-292.1678164
679.495,21.0080144,-92.6259002,-73.72953820000001,-0.8703622000000001,-0.667556,0.2954268,-67.1035278,48.8183426,144.744092,0.4223446000000014,23.867678,-20.2603346,-0.9856482,-0.2536192,-0.0585569999999999,-106.8744598,74.1874832,-150.511743,120.23701119071544,1.1359746328519311,31.31015148760527,1.019438078070895,-39.770932,25.3691406,-295.25583500000005
699.48,26.5018806,-95.9004654,-76.53650839999999,-0.8403486000000001,-0.6758065999999999,0.325043,-65.29676119999999,46.6469994,146.45026560000002,1.151338400000001,22.7954478,-19.2629416,-0.9811628,-0.2695188,-0.0647148,-107.93222799999998,73.68606880000002,-151.6395902,125.52723233361166,1.1263007067273465,29.86668611678989,1.019563057881326,-42.6354668,27.0390694,-298.0898558
719.465,31.8290958,-99.0406554,-78.5017488,-0.8032298000000001,-0.68392,0.354089,-63.5088072,44.3797408,148.0453492,3.295170800000001,21.722196,-18.0335242,-0.9749886,-0.2724792,-0.0698026,-108.8381774,73.2110246,-152.656848,130.3252367201588,1.112790949787533,28.423932605035045,1.014751244162509,-45.32937020000001,28.8312838,-300.7021972
739.45,35.7962798,-101.822296,-79.8585022,-0.756475,-0.6906076000000001,0.3823216,-61.7620406,42.0289818,149.5315796,6.056479600000001,20.6814996,-15.9808686,-0.9719166,-0.2766144,-0.0716181999999999,-109.609825,72.7791766,-153.59452500000003,134.26292855385998,1.0933266157143162,26.828968151244325,1.0130481578948554,-47.84778440000001,30.750194800000003,-303.1261046
759.435,38.7080596,-103.9252944,-81.4005906,-0.7187167999999999,-0.6979178,0.4171652,-60.07676239999999,39.601957000000006,150.9002868,7.7812420000000015,19.716974800000003,-14.110005,-0.9672572,-0.274127,-0.0730728,-110.28688359999998,72.39020260000001,-154.4716522,137.56757192068426,1.085205002868177,25.4636812622689,1.008003837879936,-50.2101212,32.7882456,-305.371939
779.421,42.756497,-106.0671234,-82.9973954,-0.6818606,-0.7110298,0.4527964,-58.4235328,37.0971526,152.157614,9.9762504,18.626185,-12.202578399999998,-0.9608694,-0.2674106,-0.0712562,-110.86112819999998,72.0482408,-155.28936779999998,141.30435359622072,1.0842148468700104,24.40006678896334,0.999927936847031,-52.4375954,34.9510882,-307.44698179999995
799.406,47.399395600000005,-108.2766846,-84.29964600000001,-0.6413598,-0.7143418,0.4794589999999999,-56.7837424,34.5225074,153.3107268,8.8179028,17.2193942,-9.7800058,-0.9603372,-0.2588515999999999,-0.0726079999999999,-111.4091584,71.76662139999999,-156.0563752,145.1791081627742,1.07308319014151,21.677441266285907,0.997258045939164,-54.625416,37.244114,-309.36710200000005
819.391,49.9359122,-110.6138872,-85.712799,-0.6011932,-0.7185024,0.5104724,-55.1928702,31.8743644,154.3649228,6.825541000000001,15.473867800000004,-7.48165,-0.9574084,-0.2732074,-0.075963,-111.9219316,71.53280179999999,-156.7462188,148.57897321342222,1.0668931688288943,18.49334154113469,0.998520658361318,-56.7290614,39.6584374,-311.1111416
839.376,52.24146879999999,-113.243706,-86.5175538,-0.5614018,-0.720397,0.5339486,-53.6430388,29.1622942,155.3390928,4.891951400000001,13.448465000000002,-5.5866428,-0.9534674,-0.2833645999999999,-0.0840138,-112.3915864,71.34239960000001,-157.3503632,151.7846999092191,1.0579437253910058,15.362388392791624,0.9982253743450724,-58.7485476,42.1801054,-312.689456
859.362,53.6410706,-115.8236894,-86.255568,-0.5168532,-0.716045,0.5561862000000001,-52.1343878,26.405584999999995,156.2547606,3.790767200000001,11.1819544,-3.9928996,-0.9516718,-0.2902439999999999,-0.0891243999999999,-112.7854126,71.19437860000001,-157.85179739999998,154.05360915066052,1.043647814852156,12.463918620720989,0.9989314056163217,-60.6510248,44.788793600000005,-314.10655800000006
879.346,53.3752222,-118.2459352,-85.5900558,-0.4737312,-0.7099808,0.5763734,-50.69366599999999,23.6144126,157.1202758,1.2651716000000015,8.966801800000002,-2.7192142,-0.9523674,-0.2894816,-0.0912264,-113.1330094,71.0874328,-158.251361,155.42417182687217,1.029903045169612,9.45506845894896,0.9995626630573392,-62.439343400000006,47.4730202,-315.37163680000003
899.331,51.5606036,-120.2663484,-84.55122840000001,-0.4285808,-0.7063938000000001,0.6038662,-49.3438996,20.7969858,157.941574,-1.1908025999999985,6.8493628000000015,-1.9829562,-0.9531916,-0.29114,-0.0962664,-113.4327256,71.0091186,-158.54819940000002,155.79281313659976,1.023390487697399,7.229377351425851,1.0013011263748384,-64.088826,50.2121328,-316.4897734
919.317,51.0655924,-121.1746278,-81.8924746,-0.3737928,-0.698865,0.619707,-48.05661859999999,17.989319000000002,158.72919620000002,-3.4925385999999987,4.778563600000002,-1.1638296,-0.9561286,-0.2876832,-0.0982218,-113.6876144,70.9644348,-158.74871819999998,154.91082126740895,1.00606665356021,6.032163400436952,1.0032901102350409,-65.6309958,52.975115800000005,-317.47791440000003
939.302,49.9557282,-121.4076188,-79.6917894,-0.347365,-0.6864544,0.6415792,-46.8394868,15.1959882,159.4742736,-5.286023199999999,3.203914000000002,-0.3607314,-0.9574222,-0.2825298,-0.0990761999999999,-113.9150514,70.9498,-158.88197,153.57788245855045,1.00175144440974,6.191706819066953,1.0031432850531972,-67.07556459999999,55.75381180000001,-318.3562436
959.287,47.1213776,-122.1764466,-78.78089,-0.3121232,-0.6823758,0.6589796,-45.7255242,12.3993006,160.173471,-7.522545199999999,1.6148450000000014,0.2359972,-0.9552462,-0.2813826,-0.1041098,-114.1237092,70.9579818,-158.94725939999998,152.8199494827705,0.9986549642494348,7.69753891438529,1.001254373600056,-68.398185,58.5586812,-319.1207304
979.272,44.8554924,-122.7321258,-78.37142500000002,-0.2669338,-0.6762778,0.6774772,-44.6981422,9.590962199999998,160.8244324,-9.424364,-0.3947845999999987,0.7290599999999999,-0.9563866,-0.2866384,-0.1111013999999999,-114.2815248,70.9875152,-158.9178922,152.37214364300357,0.9937709358172636,9.460762134653484,1.004579724111571,-69.58338260000001,61.396553,-319.7423246
999.257,43.477457400000006,-122.8097412,-78.1829254,-0.2198524,-0.6698354,0.6859222,-43.7395216,6.7754108,161.42238780000002,-10.517763399999998,-2.534998799999999,1.5655562,-0.9592532,-0.288304,-0.1121488,-114.3669236,71.0489868,-158.78889440000003,151.93778878107238,0.9836177130022415,10.931629890814058,1.0079004174360084,-70.627402,64.273576,-320.2112822
1019.242,41.3309402,-122.9385726,-79.2874908,-0.1815744,-0.6595373999999999,0.6957686,-42.8609152,3.939173,161.9565766,-11.7234776,-4.969316599999999,2.3633940000000004,-0.9577028,-0.288446,-0.1121583999999999,-114.3640596,71.14400020000001,-158.5412902,152.01528031122902,0.9757319250081344,12.95066275168855,1.006466718145414,-71.50314440000001,67.2048272,-320.4978668
1039.227,38.6570984,-123.118872,-79.82615799999999,-0.1189028,-0.6560273999999999,0.7035948000000001,-42.0678176,1.0895069999999998,162.4420412,-13.1221284,-8.0652148,2.9337208,-0.9554694,-0.2958902,-0.1162673999999999,-114.236322,71.26847219999999,-158.1322418,151.73939304050427,0.9693066944912946,15.679434340835712,1.0069711480947008,-72.1685044,70.1789652,-320.57428300000004
1059.213,36.6011096,-123.0052186,-79.5213408,-0.0661568,-0.6452473999999999,0.7139062,-41.3395956,-1.7631106000000003,162.8915742,-13.889098199999998,-10.913801199999998,3.278605,-0.9612866,-0.2972284,-0.1107032,-113.965413,71.42205179999999,-157.5571198,150.97539093976457,0.9645636276531684,17.96572726577996,1.0122607606720513,-72.6258174,73.1851624,-320.44869400000005
1079.198,34.170291000000006,-122.508481,-78.7512618,-0.0168532,-0.6323166,0.7165162,-40.6817886,-4.6039398,163.3118012,-14.8519702,-13.6685882,3.4980784,-0.9631434,-0.2910194,-0.1055432,-113.5591476,71.6034148,-156.81962600000003,149.5917709603178,0.955773915655915,20.485308752748,1.0116703352407643,-72.877359,76.2073546,-320.1314272
1099.183,31.2971702,-122.065143,-78.0734528,0.0309597999999999,-0.6227955999999999,0.7217862,-40.099402,-7.433789,163.7068268,-15.869104799999995,-16.2387262,3.5900296,-0.9630752,-0.2923833999999999,-0.104713,-113.0233368,71.8024642,-155.9247926,148.23925266356426,0.9538386588442722,22.98723620361581,1.011912400269707,-72.92393480000001,79.2362532,-319.6316194
1119.168,28.3353218,-121.8190812,-77.8399902,0.0782697999999999,-0.6140674,0.7261314,-39.5909722,-10.2608026,164.0770324,-16.412031399999996,-18.2735914,3.1061922,-0.966189,-0.2903188,-0.1011438,-112.3580612,72.00547019999999,-154.8832184,147.31545431575685,0.9541864301072196,24.757369555590525,1.01392122851476,-72.767089,82.2662728,-318.9602508
1139.153,26.048787800000003,-121.269246,-77.7392274,0.1304333999999999,-0.6011986,0.7237975999999999,-39.1402298,-13.084923,164.4208128,-17.3107352,-20.2841558,2.5339788,-0.9713818,-0.2874348,-0.0957846,-111.5628846,72.20992120000001,-153.6874574,146.3835948732195,0.9499134667133,26.786742583637192,1.0175343017409486,-72.4226548,85.2948442,-318.1082702
1159.138,24.7296854,-120.6731812,-77.374045,0.1755208,-0.5872236,0.7194798,-38.7272668,-15.8975044,164.7439636,-18.0531648,-22.5003714,2.0191948,-0.970093,-0.2856963999999999,-0.0954546,-110.627185,72.4135636,-152.32912900000002,145.46586142656645,0.9451403547821032,28.918171105279875,1.015782674730732,-71.8999182,88.311068,-317.0730926
1179.124,22.4677022,-121.0967194,-77.33918320000001,0.2183774,-0.5744814,0.7123978,-38.3742912,-18.7177604,165.058435,-18.6384626,-24.6148978,1.5796062,-0.9696902,-0.2845476,-0.0906474,-109.5414184,72.61505439999999,-150.802603,145.43232910750413,0.940865661623146,30.915702119523697,1.0146346001238868,-71.16712720000001,91.3328148,-315.861038
1199.109,21.031744,-120.9843598,-77.3734926,0.2683906,-0.5553424,0.7018789999999999,-38.0576658,-21.5428438,165.3577362,-19.7335352,-27.1016612,1.2423506,-0.9716224,-0.27224,-0.0839758,-108.2931426,72.8224014,-149.0840698,145.14202330482942,0.9343836610553076,33.54781492590158,1.0125298221619945,-70.23547679999999,94.3652452,-314.44180600000004
1219.094,20.2049996,-120.5179628,-77.33411120000001,0.3152046,-0.5376034000000001,0.6891702000000001,-37.762773,-24.3644506,165.63997820000003,-21.7772104,-30.1120838,1.4900109999999998,-0.9733136,-0.2650235999999999,-0.0809823999999999,-106.877423,73.0425994,-147.1486816,144.61461240618857,0.9291538732205556,37.19145891685632,1.011995564027669,-69.11465000000001,97.40705,-312.7886598
1239.079,19.342202,-119.9650286,-77.4553072,0.3547782,-0.5193946,0.6743022,-37.4869482,-27.179967,165.90238979999998,-23.690671,-32.8552028,2.5303168,-0.9757496,-0.2646594,-0.0732346,-105.2988036,73.282402,-145.0054686,144.1008448228323,0.9221289381801442,40.58466146917738,1.0136543723309637,-67.8118554,100.462369,-310.9078584
1259.064,18.1863582,-119.1038224,-77.5388902,0.4014964,-0.5030406,0.6537132,-37.2373244,-29.988875200000003,166.14416219999998,-25.00551,-35.9966368,3.0442994,-0.9784842,-0.2657125999999999,-0.0700688,-103.508229,73.526802,-142.615683,143.27855257615184,0.9173822280355992,43.93519261489648,1.0163386011471969,-66.2709046,103.5156772,-308.75984520000003
1279.049,17.268392400000003,-117.08052519999998,-77.12097639999999,0.4431948,-0.4869464,0.639834,-37.0034636,-32.7625,166.3588076,-26.0856746,-38.5993094,2.971138,-0.9799902,-0.2650976,-0.0620752,-101.5140488,73.75725700000001,-139.9939058,141.25753699565047,0.9181100014573418,46.68186764161281,1.017109069901965,-64.5105852,106.519757,-306.3527134
1299.034,16.5295856,-115.2621704,-76.6189362,0.478805,-0.4741247999999999,0.6173168,-36.7858008,-35.501554600000006,166.5535218,-26.9279886,-40.6310478,2.3699442,-0.9807066,-0.2703582,-0.0514904,-99.3355636,73.9529342,-137.16581119999998,139.38815053599797,0.9138537003056232,48.80179557023213,1.0185922898210842,-62.5497628,109.4544888,-303.719333
1319.019,16.6721996,-112.8692032,-75.7683624,0.5188396,-0.4548891999999999,0.5884094000000001,-36.5606894,-38.1988176,166.7249938,-26.351917,-42.3454574,2.3659368,-0.9744442,-0.2694088,-0.0413454,-96.9732086,74.1208388,-134.161046,136.9608119546714,0.9068320334070472,49.93154262519533,1.0118458590774784,-60.4125192,112.3196564,-300.8860398
1339.005,16.432433600000003,-110.5921294,-75.23758679999999,0.5548476,-0.4366578,0.5664362000000001,-36.3246444,-40.85610440000001,166.8637114,-25.771258,-44.347834,1.7205824,-0.96835,-0.2617122,-0.0291206,-94.3998824,74.2462356,-130.951253,134.76401013153432,0.9051938257616652,51.32103392556808,1.0035153249817363,-58.075238,115.10234,-297.8149644
1358.99,16.0817542,-107.8316924,-75.33757,0.5946192,-0.4164792,0.5427837999999999,-36.059439600000005,-43.475596800000005,166.944055,-26.118199800000003,-45.7650926,1.8784818,-0.967542,-0.2520829999999999,-0.0092605999999999,-91.6746596,74.33903799999999,-127.5793612,132.5218704874872,0.9064442457116269,52.72696421521181,0.9998845530186774,-55.61522,117.8146348,-294.5234162
1378.975,16.7394826,-104.1922606,-75.7603652,0.6337492,-0.3908478,0.5123460000000001,-35.7207502,-46.049972,166.93685580000002,-26.675789599999995,-47.167289800000006,2.8957408,-0.9641452,-0.2489085999999999,-0.0017543999999999,-88.84141059999999,74.4087936,-124.0841844,129.9071606259308,0.9038243606926514,54.26542446753215,0.995758271748902,-53.1206604,120.45876560000002,-291.0210402
1398.97,17.2761044,-100.229997,-75.8937408,0.6682724,-0.3694512,0.4874058,-35.3008978,-48.5659738,166.8340452,-26.5817948,-48.5263108,4.458478,-0.9628176,-0.2551196,0.0068422,-85.89949179999999,74.4581468,-120.478238,126.9030179880577,0.9058954706017908,55.50921257524725,0.996067546341492,-50.59859399999999,123.0241206,-287.3122832
1418.945,17.5796634,-96.325787,-75.435965,0.6998886,-0.3471084,0.465024,-34.802191,-51.0155816,166.63910500000003,-24.6836244,-49.3211098,5.4137088,-0.9706168,-0.2674539999999999,0.0182288,-82.8545698,74.4698564,-116.8047454,123.6053664769774,0.9091620396477846,55.41806048929472,1.006956257097437,-48.0523788,125.485438,-283.44385040000003
1438.93,17.793443200000002,-92.1316724,-74.23889779999999,0.7321139999999999,-0.3264884,0.4427854,-34.225192,-53.384932000000006,166.35506560000002,-22.6845638,-49.9700616,6.5322498,-0.9684434,-0.2673882,0.0250519999999999,-79.73254080000001,74.4474198,-113.0915588,119.65059810419416,0.9157753517013438,55.265421183174425,1.004990881156043,-45.5073488,127.8323518,-279.4466244
1458.915,18.0561416,-87.89437240000001,-72.69682159999999,0.757679,-0.3006278,0.4166082,-33.5552512,-55.669229,165.972305,-19.1379754,-49.3182656,6.105501800000001,-0.9738752,-0.2730042,0.0303462,-76.64223480000001,74.36489420000001,-109.4826492,115.482781486295,0.915432648249493,53.25251709011464,1.0118720720758727,-43.0869836,130.0341232,-275.45495420000003
1478.901,17.4187912,-83.7011672,-71.0559966,0.7823376,-0.280989,0.3973912,-32.795836599999994,-57.862214400000006,165.4787718,-14.8349368,-48.331466,5.4224342,-0.9750596,-0.2698108,0.0419694,-73.5955522,74.2255662,-106.006395,111.16768563899656,0.9213721855646608,50.84691483484991,1.012571242868945,-40.7997156,132.0877806,-271.4851668
1498.886,16.5006238,-79.07956240000001,-69.6188566,0.8022422,-0.2583372,0.3791462,-31.9168224,-59.9566382,164.8389098,-11.1008338,-45.5813912,4.6340486,-0.9727768,-0.2608439999999999,0.0506318,-70.7364686,74.04801640000001,-102.7997086,106.6425476508133,0.9241658386562014,47.14197854576982,1.0084135432080827,-38.8196462,134.0046546,-267.6386184
1518.871,14.7793404,-74.1702562,-68.6602338,0.8201224,-0.2385498,0.3645678,-30.8945708,-61.94879760000001,164.0110352,-8.7573674,-42.5483644,4.1942144,-0.9663508,-0.2548914,0.0559424,-68.1138734,73.8460404,-99.8836976,102.14638276954976,0.9286637921544266,43.642252821399325,1.0009660566534513,-37.2193026,135.79483800000003,-263.89473280000004
1538.856,12.80094,-68.7808,-68.01771679999999,0.8343268,-0.2202816,0.3502216,-29.690918,-63.8297416,162.950351,-4.967404399999999,-37.260901,4.1014314,-0.9688722,-0.257448,0.0585418,-65.8276886,73.6490158,-97.3922532,97.57598225080083,0.931278884976654,37.81364289953886,1.0042011526502448,-36.1367706,137.4787574,-260.3426042
1558.841,11.7438522,-62.77355359999999,-66.65886520000001,0.8435514,-0.204902,0.3351636,-28.2748302,-65.5772218,161.646698,-1.4148571999999988,-31.656566,5.7233218,-0.9541222,-0.2585076,0.0632146,-63.8347564,73.5012284,-95.2768798,92.3138202319636,0.93053663700626,32.200875830248826,0.9905409822131338,-35.55992619999999,139.0784502,-256.92357780000003
1578.827,10.5227718,-57.2598726,-64.7900602,0.8540545999999999,-0.1833402,0.3141176,-26.6515532,-67.1972452,160.10656120000002,2.437834200000001,-25.4638678,7.2022982,-0.9512032,-0.2687362,0.0688595999999999,-62.1468452,73.4100952,-93.5569976,87.1043835707637,0.9282740734001784,26.574888490533493,0.990832133811192,-35.495292,140.6073404,-253.6635588
1598.812,9.5826446,-52.0581102,-62.0481628,0.8669992000000001,-0.1621166,0.2920122,-24.8407768,-68.6863496,158.360205,7.360661000000002,-20.6961386,8.383946599999998,-0.9453502,-0.2681306,0.0780042,-60.6249594,73.3687728,-92.112468,81.55886476637937,0.9291073833228536,23.51170014905308,0.9857310355842712,-35.784182599999994,142.05512240000002,-250.47267300000004
1618.797,8.5483358,-46.795015,-58.626976,0.8820288,-0.1361732,0.2761744,-22.85177,-70.0334336,156.41887200000002,11.2739756,-15.725619599999998,8.9026076,-0.9422074,-0.2615328,0.0849262,-59.3041152,73.37575840000001,-90.9596314,75.49814427324928,0.9342324355550068,21.29915631457916,0.9815124296396048,-36.4523452,143.409192,-247.3785034
1638.782,7.9603712,-41.41214,-54.2970428,0.8948008,-0.1117512,0.254475,-20.7299202,-71.2306642,154.3402618,13.785789,-12.868775199999998,8.9479486,-0.9368504,-0.2588994,0.0970436,-58.0862678,73.4013612,-89.96784199999999,68.74955785927952,0.936970825590146,20.87388650081479,0.9767983576979848,-37.3563476,144.63202540000003,-244.30810380000003
1658.767,5.640572799999999,-36.579044800000005,-50.0189254,0.9108528,-0.094327,0.2421897999999999,-18.5437368,-72.2837846,152.15927419999997,15.3789736,-11.077535,8.601853,-0.939173,-0.2534482,0.1092945999999999,-56.9319016,73.4325456,-89.07711939999999,62.22327119465251,0.9472097473215106,20.813853216051346,0.978890812910919,-38.3881648,145.7163302,-241.2363936
1678.752,3.2219579999999994,-31.5594216,-46.213325600000005,0.9271582,-0.0775056,0.2297159999999999,-16.2863888,-73.1929124,149.8660094,16.254854200000004,-9.8656468,8.638216400000001,-0.9372412,-0.2403086,0.1210701999999999,-55.79825579999999,73.47406020000001,-88.228459,56.0539879766991,0.9583313031069162,20.88468468564553,0.975103729630566,-39.511867,146.6669726,-238.0944684
1698.737,0.2715972000000001,-26.118877000000005,-43.1081498,0.9428154,-0.0593394,0.2172506,-13.947073,-73.9549744,147.43747539999998,15.979102000000005,-9.560843,8.9496982,-0.9418058,-0.2351702,0.1356236,-54.651207,73.516553,-87.3619322,50.40418712725578,0.9693399125538368,20.660070606562225,0.9801514927594815,-40.704134,147.4715274,-234.7994076
1718.722,-3.9819124,-20.5249576,-40.5716408,0.9497618,-0.0488272,0.2010332,-11.5749592,-74.57050939999999,144.89483919999998,15.445838600000002,-9.808661999999998,9.851453,-0.9389086,-0.2351786,0.1497605999999999,-53.4484588,73.5601076,-86.4274336,45.64194943303031,0.9720318511763488,20.78063777892062,0.9794317589114004,-41.8734996,148.13061699999997,-231.3222728
1738.707,-8.899081200000001,-15.3586406,-38.355236000000005,0.9573548,-0.0401242,0.1926412,-9.2265742,-75.0489762,142.2811796,15.642971400000002,-9.210654199999995,10.8148428,-0.9402372,-0.2361653999999999,0.1611948,-52.22273319999999,73.616353,-85.473828,42.263525833747686,0.9773683013307318,21.13053548308484,0.9827531999276522,-42.996159,148.6653292,-227.7550076
1758.693,-13.7418636,-10.487461,-36.0173878,0.955418,-0.027309,0.1877356,-6.956374800000001,-75.39731900000001,139.65328059999996,16.320536,-7.956834799999998,10.8760718,-0.9327412,-0.235228,0.1677904,-51.0424048,73.68115399999999,-84.5818404,39.95094338514567,0.974070835058909,21.16506681209729,0.9764691375018464,-44.08603000000001,149.07847299999997,-224.235121
1778.678,-17.447262799999997,-6.475427600000001,-33.0337086,0.9479092,-0.0208314,0.1838044,-4.856502,-75.63400879999999,137.1275116,16.5328024,-6.6431755999999975,10.072469600000002,-0.9233928,-0.2367904,0.1720446,-49.9618972,73.74219679999999,-83.797882,37.91522182032988,0.965789757726784,20.467534807416484,0.9686708940673092,-45.1053952,149.3762056,-220.9253936
1798.663,-21.0332284,-3.187326,-29.341450400000003,0.9392244,-0.0122306,0.188146,-3.023944,-75.7730714,134.8056458,16.558694600000003,-4.474467799999998,8.888985,-0.9136418,-0.2344894,0.1691609999999999,-49.0534446,73.80949719999998,-83.1928618,36.24191572657967,0.9579618877845402,19.31903939846728,0.9583016546686122,-46.0295006,149.5825686,-217.9985076
1818.648,-23.4275866,-0.546172,-24.7436626,0.9297262,-0.0055948,0.1971412,-1.5545757999999998,-75.8311082,132.80974740000002,17.2249442,-1.1807663999999989,7.503056000000001,-0.9078222,-0.2303945999999999,0.1625021999999999,-48.3730942,73.8993302,-82.838243,34.07930393386465,0.9504139947890708,18.82521610297259,0.9505944369324072,-46.8185184,149.73043839999997,-215.6479904
1838.634,-24.7314952,1.6347003999999998,-19.5749652,0.918164,0.0019351999999999,0.2058965999999999,-0.4959158,-75.82512219999998,131.2107148,17.740065000000005,2.9991594000000013,6.251388,-0.9000964,-0.221386,0.1571731999999999,-47.9530656,74.0282182,-82.7651458,31.583197475977546,0.940968801707368,19.04690828552964,0.9401535539938144,-47.4571498,149.85334039999998,-213.9758606
1858.618,-24.2695536,3.7563022,-14.2092154,0.9169152,0.0114125999999999,0.2095333999999999,0.1663453999999999,-75.76691,130.0303498,17.0902,7.014392600000001,6.3433956,-0.903028,-0.2082908,0.1557658,-47.7348542,74.21710060000001,-82.889418,28.372924425314267,0.9406210592716708,19.532416832666517,0.939738054246118,-47.9011996,149.98401059999998,-212.9197678
1878.604,-23.5085624,6.613229799999999,-8.7716228,0.9216708,0.023446,0.214867,0.4391462,-75.6463076,129.268158,15.993922,10.6735568,7.2338626,-0.9140498,-0.1961986,0.1539998,-47.6759758,74.4739366,-83.15736079999999,25.948577630532693,0.9466755548643052,20.544077585050857,0.9474686622374592,-48.115122,150.12024419999997,-212.4255188
1898.589,-23.0297648,9.8214886,-2.9450856,0.9264648,0.0297014,0.2194486,0.280692,-75.4597704,128.9610108,14.962889,13.831516800000005,8.1217932,-0.9238942,-0.1921396,0.1516712,-47.765551,74.78783419999999,-83.5578918,25.20922914836105,0.9525633243217796,21.93541494931358,0.9557731276779234,-48.046243,150.2476046,-212.5189026
1918.574,-22.142553,13.217379,3.2554358000000008,0.932633,0.0299541999999999,0.2200871999999999,-0.3188517999999999,-75.2063952,129.12771300000003,13.8093204,16.639986400000005,8.6207234,-0.9343214,-0.1892064,0.1526158,-48.014064000000005,75.1457826,-84.099031,25.992106941057543,0.9587178638110796,23.278817608318278,0.965425876340882,-47.6952122,150.3521778,-213.226744
1938.559,-21.1144612,17.346598,9.5895028,0.9439872,0.0351644,0.22161,-1.3172688,-74.8692202,129.7299164,12.233137800000002,18.479645400000003,8.426061,-0.9552252,-0.1816066,0.1566352,-48.4113396,75.5254518,-84.7616668,28.9600327674386,0.9702882875162412,23.70960688242745,0.9848709183226194,-47.0940708,150.394672,-214.4915832
1958.544,-20.979886,22.3123672,16.1685424,0.9527274,0.0385424,0.2223252,-2.7070082,-74.4274126,130.7429138,10.3201822,19.647401800000004,7.420284,-0.96775,-0.1772376,0.1584284,-48.9852158,75.90288860000001,-85.566548,34.632630711241525,0.979082994369507,23.400580607593827,0.9965203396219868,-46.2782076,150.3303012,-216.3094618
1978.529,-22.30812,27.297879,23.0864194,0.9516522,0.0366106,0.2277958,-4.4921634,-73.8701662,132.1424652,8.548946,20.416095200000004,5.651498,-0.9748228,-0.179643,0.1574772,-49.7695382,76.25761120000001,-86.55043020000001,42.14035093050054,0.9792206964187594,22.84383616143276,1.0036683552691494,-45.2773748,150.1277774,-218.6928954
1998.514,-23.5123684,31.767623200000003,30.1986802,0.9489556,0.0254681999999999,0.2338041999999999,-6.6325666,-73.19751900000001,133.89124139999998,7.508938000000002,21.7474234,3.545744799999999,-0.9772966,-0.1828295999999999,0.1533172,-50.8177078,76.5898408,-87.78267960000001,49.73905545319864,0.977665466261461,23.278893457667586,1.006002719093522,-44.1851412,149.78735980000002,-221.673921
2018.5,-23.912776,36.1347916,37.113225,0.9452556,0.0143768,0.2403832,-9.0190164,-72.4004714,135.8960632,7.503544800000002,22.1920238,1.3877885999999997,-0.9843622,-0.1813458,0.1489358,-52.05758599999999,76.88749399999999,-89.2104612,57.05204194331901,0.9754480634825414,23.467319022497296,1.0119471885864992,-43.0385696,149.2879654,-225.10652440000004
2038.485,-25.10371,40.2518326,43.408094,0.94022,0.0002241999999999,0.2467362,-11.5655902,-71.4776838,138.0533996,8.22347,21.7883548,-0.6909374000000001,-0.983165,-0.1821628,0.1406868,-53.4233604,77.13928080000001,-90.7803816,64.30139118351453,0.9720557859794262,23.29882525412605,1.0097472350163084,-41.8577702,148.6169646,-228.83378120000003
2058.47,-26.7434278,44.0056932,49.1115166,0.9331822,-0.0202796,0.2606578,-14.1981092,-70.42767,140.277896,9.213285800000005,21.3705882,-2.8099748,-0.986522,-0.1907945999999999,0.129288,-54.9237174,77.3410738,-92.5060026,71.15934954212563,0.9691144252738374,23.441045915724324,1.0130861872600772,-40.7256082,147.76874379999998,-232.7838986
2078.455,-26.9661832,47.7521362,54.7536622,0.9254388,-0.0513434,0.2717374,-16.8459752,-69.24350100000001,142.5259246,11.121354000000002,21.8236602,-5.2275866,-0.9856902,-0.19893,0.1147936,-56.6141646,77.4954774,-94.4629194,77.49454866215443,0.9658749048545364,25.04564475071224,1.0120948008348822,-39.7681894,146.7389784,-236.98884400000003
2098.44,-27.487649,51.6953536,60.1746446,0.911394,-0.075413,0.2840015999999999,-19.44078,-67.91563540000001,144.72331839999998,13.875132400000002,23.1321094,-7.756907200000001,-0.9812194,-0.2053348,0.099573,-58.538975400000005,77.6040116,-96.713919,83.9581341152395,0.957592320670733,28.067479290461943,1.0074069055532624,-39.0981954,145.519647,-241.4372374
2118.426,-29.399197800000003,55.80261840000001,65.3154122,0.8980466,-0.1006536,0.2968942,-21.9575218,-66.438564,146.8156676,16.569707400000002,26.593267000000004,-10.0493876,-0.981834,-0.208442,0.0860269999999999,-60.844174,77.68598180000001,-99.4077652,90.7983927304633,0.9511913629539328,32.90512489248351,1.00739600736205,-38.8866522,144.12454580000002,-246.2234328
2138.411,-31.059198,60.4484024,70.3970284,0.8767298,-0.1274728,0.314874,-24.3616958,-64.79928720000001,148.771585,19.8356286,31.517491,-11.9726122,-0.9843724,-0.2084066,0.0751358,-63.6079748,77.75321339999999,-102.6366256,97.84898947186905,0.9402393805961756,39.11710423566407,1.00899341982342,-39.246279,142.5525006,-251.4082106
2158.396,-31.2359532,64.7259718,75.4178178,0.8511862000000001,-0.1615806,0.3273646,-26.6333156,-63.0068374,150.5989806,23.8196282,35.2905962,-13.913248,-0.9807116,-0.2074046,0.0681436,-66.6887868,77.7866362,-106.2712616,104.17765326345656,0.9261715924708336,44.79262592935576,1.0047166071568043,-40.0554712,140.79347360000003,-256.8702422
2178.381,-31.7480244,69.32420420000001,79.3688966,0.8271496,-0.1826162,0.343527,-28.717161,-61.0685432,152.2313628,27.2456686,38.439731,-14.851383800000002,-0.9762022,-0.1946202,0.065637,-69.9668578,77.79630119999999,-110.1792802,110.06000222046058,0.9140765487701782,49.40144712038595,0.9975750464510827,-41.2496968,138.8648444,-262.410643
2198.366,-31.6255394,74.19472640000001,82.357326,0.8036486,-0.2074914,0.3590058,-30.5819086,-58.9913246,153.6438506,28.9827932,40.083745400000005,-14.6925422,-0.9817008000000002,-0.1829612,0.0682798,-73.2849166,77.7845642,-114.1661454,115.27255230011212,0.9043168237899591,51.60019131035048,1.0009362579675694,-42.703008,136.77588880000002,-267.809996
2218.351,-30.6709676,78.99431279999999,84.7250368,0.7760104,-0.2325968,0.3800008,-32.2091116,-56.7829712,154.8314696,29.056067,38.7293936,-14.722717800000002,-0.9796738000000002,-0.1841056,0.0674422,-76.4265182,77.71914519999999,-117.9758744,119.82963560416032,0.8948150760235547,50.606119961430025,0.9991016348193212,-44.2174066,134.5021164,-272.807344
2238.336,-29.4972974,82.6034696,87.1351396,0.7464487999999999,-0.2655748,0.4033526,-33.644263,-54.463855,155.846353,28.4903278,36.45578379999999,-15.351784,-0.9723776,-0.193903,0.0598726,-79.3335068,77.582042,-121.5355606,123.63638743094064,0.8890495516804673,48.74833558806342,0.9933283941484408,-45.6892438,132.045897,-277.3819136
2258.322,-28.9031586,86.1054076,89.41617740000001,0.7168436,-0.2944324,0.4312394,-34.9120804,-52.0398734,156.7016876,28.175894,35.221616399999995,-15.8193042,-0.9739128,-0.1996734,0.0506458,-82.0576296,77.39268200000001,-124.9038834,127.45503746752094,0.8868610968709136,47.798469116699984,0.9954599970511324,-47.1455492,129.4325554,-281.60557099999994
2278.307,-27.169965,89.2776244,91.694728,0.6860736,-0.3253588,0.4565521999999999,-36.0245866,-49.5208296,157.431073,28.4033766,33.8389344,-15.827189,-0.9810642,-0.2037496,0.043501,-84.5639498,77.166716,-128.0565536,130.83051769217565,0.8859995737466468,46.92893771704887,1.0029422720290535,-48.5393632,126.6875456,-285.4876266
2298.292,-26.0013806,92.19142,93.4232802,0.6526408,-0.3524353999999999,0.486791,-37.0031488,-46.9188186,158.0424102,28.152593000000003,32.1456002,-15.397649,-0.9751986,-0.201039,0.0393294,-86.8287142,76.92158959999999,-130.959909,133.80298575910092,0.8871956958184593,45.42021245623021,0.9964817061378096,-49.8255654,123.8404082,-289.0023192
2318.277,-25.0225746,94.4515138,94.132051,0.6180838,-0.3836578,0.5170416,-37.864268,-44.2579476,158.5428802,28.0488402,31.12775,-14.3278106,-0.9694662,-0.1917555999999999,0.0358396,-88.9060456,76.680638,-133.67227780000002,135.67630863268192,0.892498127423156,44.28273267558257,0.988898073616265,-51.0417776,120.93858559999998,-292.21515800000003
2338.262,-22.8225616,96.7679614,93.7776992,0.5860352000000001,-0.4123789999999999,0.5363028,-38.5853716,-41.5581406,158.925296,26.680782600000004,29.412323,-12.331938,-0.968695,-0.1909884,0.034634,-90.7668138,76.4613754,-136.1375336,136.67174008822514,0.8950499363543243,41.58155359339807,0.9879504470951768,-52.181442200000006,118.019516,-295.06282960000004
2358.247,-20.0030844,98.9062198,92.9013366,0.5537162,-0.4380764,0.5605688,-39.1621362,-38.8303468,159.19641099999998,25.578431200000004,27.8668384,-9.6893696,-0.9650934,-0.1910096,0.027316,-92.455426,76.27889400000001,-138.405252,137.16129936212303,0.9015264510333794,39.04741615408442,0.984193122243658,-53.2932898,115.1092408,-297.60166300000003
2378.232,-19.0078354,100.7608768,91.8943374,0.5202574,-0.4618681999999999,0.5793368,-39.6506814,-36.0834852,159.374243,24.3661574,25.4641098,-7.667240799999999,-0.9677494,-0.2027024,0.0201788,-93.9289656,76.12021480000001,-140.42819200000002,137.6903095583829,0.9053292905127062,36.068228343421794,0.9889561912115016,-54.27828420000001,112.2037,-299.80243499999995
2398.218,-18.1528666,101.8978854,91.1749618,0.4824933999999999,-0.4934231999999999,0.6008861999999999,-40.0797364,-33.322072000000006,159.48883959999998,23.844223,23.3190834,-6.551948,-0.9721608,-0.2157654,0.0109854,-95.2148726,75.970134,-142.2479766,137.93324209203664,0.9150576816202572,33.98903711028879,0.9958775064770564,-55.1351362,109.292206,-301.7368162
2418.203,-16.997214,102.5873996,91.2576752,0.4461818,-0.5216445999999999,0.612114,-40.4656006,-30.547931,159.569455,22.8510902,20.6223548,-6.2201908,-0.9802608,-0.2296231999999999,0.0082518,-96.2695434,75.8176622,-143.8104796,138.35115873515687,0.9197145406898816,31.402939582370685,1.0068297483676771,-55.8039428,106.3655932,-303.3799346
2438.188,-17.032326,103.1148744,91.75811,0.4067436,-0.545625,0.6255742000000001,-40.8391992,-27.7572416,159.6278076,20.6536678,18.0595776,-7.3517218,-0.9861974,-0.2311218,0.0006901999999999,-97.1364866,75.64321,-145.13459160000002,139.07669899113276,0.924386324256044,28.40369958487404,1.0129180986526205,-56.2972874,103.4004516,-304.7623992
2458.173,-18.663277,104.320784,92.1830002,0.3678523999999999,-0.5609076,0.6346961999999999,-41.2299494,-24.944473,159.6545716,17.427904400000003,15.362033,-8.6420156,-0.9964014,-0.226532,0.0010395999999999,-97.8146804,75.45026399999999,-146.1988282,140.45942264094134,0.9234565448454842,24.787261714422428,1.021828546143687,-56.584731,100.394737,-305.8533998
2478.158,-19.865117400000003,105.7940856,91.9966782,0.3229682,-0.585808,0.65748,-41.627733,-22.1074308,159.6363862,13.5681894,12.5198598,-9.408133,-0.9982902,-0.2197636,0.0007253999999999,-98.3254882,75.25299679999999,-147.0114442,141.59943586430794,0.9379549144149948,20.720898135737684,1.02219366536198,-56.6977552,97.3604276,-306.6478304
2498.143,-20.6303762,108.009935,91.0660752,0.2799542,-0.5981348,0.6601754,-42.0234056,-19.2517704,159.552997,9.636543400000004,9.9197754,-9.1851968,-1.0013096,-0.2155508,-0.0068908,-98.7212508,75.06981820000001,-147.6236604,142.77530785534944,0.933793955770672,16.60219120903199,1.024270738407302,-56.6978452,94.3215886,-307.17665739999995
2518.128,-22.3468954,110.4550048,89.5702424,0.2327691999999999,-0.6103394,0.6741466,-42.4299722,-16.378770600000003,159.3906098,7.582562400000002,7.281910600000001,-7.680340800000001,-1.0005492,-0.2200505999999999,-0.0080608,-98.9686156,74.9226472,-148.0404634,143.95318733178965,0.9387061957569898,13.01956640370296,1.0244930183645178,-56.5386434,91.3014178,-307.4310732
2538.113,-24.0192598,112.5469758,88.22044839999998,0.1839862,-0.6279669999999999,0.6779807999999999,-42.8587234,-13.4919076,159.1572938,7.042582000000001,4.487811,-5.602213600000001,-0.9968882,-0.2365672,-0.0075184,-99.0315276,74.8167832,-148.2559114,145.0054968577493,0.942258690619556,10.056003481426902,1.0246007269925397,-56.1728042,88.3086908,-307.4132052
2558.099,-24.8428958,113.9871492,87.1800782,0.1299456,-0.6471682,0.6900742,-43.30036679999999,-10.594252999999998,158.8685394,6.808899600000002,1.5236836,-3.7311786,-0.9911258,-0.2473653999999999,-0.0088276,-98.9015898,74.75122080000001,-148.2669434,145.63861331882708,0.95494237499246,7.912295445753218,1.0215664046279909,-55.601223000000005,85.34547380000001,-307.13548280000003
2578.084,-25.601430200000003,114.3329974,86.80110640000001,0.0736574,-0.6657795999999999,0.6883014000000001,-43.7681632,-7.694554199999999,158.548941,6.848631000000002,-0.9372992,-3.1862008000000004,-0.982757,-0.2596408,-0.0039488,-98.5885908,74.6967454,-148.09001159999997,145.81460693297498,0.9604408912540532,7.611448738735768,1.016484264066631,-54.8204276,82.3912996,-306.6389526
2598.069,-24.7631806,114.1971942,86.76232619999999,0.0195172,-0.683632,0.6901930000000001,-44.2358428,-4.795772599999999,158.2092102,6.325811800000002,-2.7161396,-2.9665252,-0.9796922,-0.2611016,-0.0020328,-98.1606214,74.6512406,-147.7831664,145.54008219118174,0.9716480894690424,7.496237790915018,1.0138910121602025,-53.9247786,79.4470132,-305.99237660000006
2618.054,-24.211762,114.2721728,86.74469619999999,-0.0308405999999999,-0.6910402,0.6900772,-44.7086364,-1.8984478,157.8465882,4.824973800000001,-4.3025116,-3.1292588,-0.9764476,-0.258617,-0.0069138,-97.6631818,74.6072524,-147.3720398,145.49563984672528,0.9770845626578284,7.182216849705838,1.0101388364305175,-52.95454540000001,76.5057002,-305.218628
2638.039,-24.477889800000003,114.476166,86.04450100000001,-0.0828364,-0.6998832,0.7073678,-45.197258,0.9887142,157.44736340000003,3.568783800000001,-5.131876,-2.5975142,-0.9736706,-0.2535454,-0.0036984,-97.1375182,74.57801959999999,-146.905542,145.28460284372707,0.9985327071678924,6.769006508323071,1.0061477949725277,-51.9402602,73.58930539999999,-304.35290540000005
2658.024,-24.4139024,113.34681580000002,85.2832598,-0.1349442,-0.7203722000000001,0.6945281999999999,-45.7126916,3.8461974,157.027765,2.524118800000001,-5.8502546,-2.1364098,-0.9642902,-0.267247,-0.0058574,-96.592877,74.5499832,-146.3971772,143.9332264784965,1.0097105843962022,6.72018611608865,1.000655214326993,-50.8801854,70.70378579999999,-303.4249422
2678.01,-24.1847512,112.5116382,84.1595292,-0.1822386,-0.7228708000000001,0.6950886,-46.2417008,6.6697716,156.5780336,1.2401762000000014,-5.3415706,-1.2105076,-0.9624008,-0.2685612,-0.0088238,-96.1314802,74.5370484,-145.94764419999998,142.5713760760527,1.0192650600665951,5.615669339579082,0.9992088257379036,-49.8897794,67.8672768,-302.5256778
2697.995,-25.6101522,110.543181,82.660678,-0.2346808,-0.7393272,0.6985128,-46.8226104,9.439066,156.10668040000002,0.7094172000000014,-5.0395216,-0.9785916,-0.9602584,-0.275906,-0.0046337999999999,-95.6991026,74.5235458,-145.517682,140.38683146479804,1.0438390289275066,5.182440760887959,0.99912050710062,-48.8764922,65.08447980000001,-301.6243624
2717.98,-25.3303284,108.1032136,80.6603284,-0.2896092,-0.75611,0.6938106,-47.4278198,12.1415132,155.611142,0.1902946000000013,-3.8169636,-0.7207136000000001,-0.9596736,-0.279928,-0.0073822,-95.3759292,74.50982680000001,-145.1895142,137.23709012178497,1.0662780920083652,3.889068172678268,0.9996937534054116,-47.9481094,62.3683136,-300.80065620000005
2737.973,-24.9322452,105.3568924,78.11902119999999,-0.334952,-0.7535732,0.6681572,-48.0597954,14.7641214,155.0871398,0.0971880000000014,-1.6155394,-0.5505844,-0.9555406,-0.2756134,-0.014727,-95.23253,74.49649819999999,-145.044461,133.50757693907917,1.061366785788061,1.7095485491262656,0.994604177065892,-47.1727346,59.7323768,-300.1316008
2757.95,-26.4346496,103.7408752,74.5228298,-0.3736399999999999,-0.751984,0.6684898,-48.7560394,17.2989292,154.5026672,0.5166018000000013,0.6432863999999998,-0.344292,-0.9622112,-0.2709218,-0.0095914,-95.2352064,74.48691260000001,-145.0602752,130.44007071500891,1.0732965100847205,0.8939976473415359,0.9996704507359612,-46.479167,57.18798340000001,-299.5629424
2777.935,-26.901519,101.0953108,70.6599598,-0.4109032,-0.7651606,0.6517484,-49.5070144,19.72731,153.8643248,1.2771934000000011,2.0418306,0.4537782,-0.9586186,-0.2721528,-0.015683,-95.34075,74.4891388,-145.19762880000002,126.24097397118568,1.0858582598411084,2.450756992215908,0.9966256685951852,-45.8337356,54.7618288,-299.06195360000004
2797.921,-25.977789,99.4845306,67.0712498,-0.4335284,-0.753636,0.6216824,-50.2895134,22.0652684,153.15810219999997,2.5595980000000016,3.3039396,1.6402278,-0.9602184,-0.2723685999999999,-0.016304,-95.5195922,74.5125992,-145.43757340000002,122.76224948967356,1.0688325877200415,4.489755676865391,0.998233364690101,-45.2300788,52.4473308,-298.5956756
2817.906,-27.905702,98.2251236,63.55588660000001,-0.4548242,-0.7482190000000001,0.6101332,-51.160974,24.3128652,152.37898539999998,3.208857200000001,3.692654800000001,2.1912912,-0.9654672,-0.2739224,-0.0041902,-95.689813,74.54666280000001,-145.684076,120.275740828565,1.0672203364858075,5.360431057774396,1.0035825592713534,-44.528839000000005,50.2337976,-298.06306140000004
2837.891,-28.3841452,96.544629,60.5043082,-0.4818434,-0.7572154,0.5947886,-52.097729400000006,26.4719064,151.5338682,2.7451512000000013,3.0001894,3.0524872000000003,-0.9670952,-0.2745092,-0.0043123999999999,-95.8253462,74.59858080000001,-145.885013,117.41931867560342,1.0767180238162075,5.084748730556668,1.0053094168172505,-43.7276168,48.1266744,-297.4188812
2857.876,-27.0451346,94.4535934,58.0609192,-0.5124126,-0.7508286,0.5694623999999999,-53.0596916,28.5521634,150.63702080000002,2.2146754000000017,2.2141852,3.950446,-0.9622918,-0.2673174,-0.00659,-95.9272902,74.6723524,-146.03967300000002,114.12270129143268,1.0726591649869404,5.041173159709971,0.998752986874132,-42.8675986,46.120189,-296.6766938
2877.861,-26.9962366,92.8654556,55.6539566,-0.5400121999999999,-0.7376208,0.5420638,-54.0768274,30.560551799999995,149.679425,0.3061880000000016,2.1890066,4.31479,-0.9650102,-0.2653941999999999,-0.0026475999999999,-96.0606658,74.7542448,-146.187906,111.58025147665438,1.0627938577221454,4.847980376433837,1.0008425337101936,-41.9838384,44.193693,-295.86733100000004
2897.846,-28.1697202,90.5254776,53.4997498,-0.5754797999999999,-0.7417622,0.5294234,-55.16677639999999,32.4894924,148.6761108,-2.7360089999999984,1.8357898,4.3525922,-0.962732,-0.271141,-0.0089939999999999,-96.2422744,74.83276359999999,-146.322168,108.8605459269656,1.0778113462125178,5.459022650380366,1.0002255934243034,-41.075498,42.3432712,-294.99827880000004
2917.831,-27.214832,87.8308884,51.9832634,-0.6015872,-0.7331552,0.5016202,-56.283555,34.346019,147.6405426,-4.289616999999998,1.893173,4.6170408,-0.9600128,-0.2703912,-0.0180894,-96.4796036,74.91503739999999,-146.48066420000004,105.62751398965734,1.0728683663613725,6.580424284457851,0.9975285477587296,-40.1960486,40.5690184,-294.1212068
2937.817,-27.174433600000004,85.5763092,50.323497,-0.6267368,-0.7248422,0.4781026,-57.4503716,36.131257,146.5621522,-5.411498999999998,1.9246126,4.429524,-0.9647474,-0.2669664,-0.0180142,-96.740686,74.99510339999999,-146.6405732,102.92817344189017,1.0708768965207158,7.25321569744453,1.0011658783325368,-39.2903144,38.86384640000001,-293.2027254
2957.802,-27.3765804,83.2918962,48.6048728,-0.6474819999999999,-0.7229866,0.4545727999999999,-58.6756554,37.8400912,145.4386108,-7.7476037999999985,1.6510572,4.4739966,-0.9707674,-0.2615386,-0.0173992,-97.028415,75.07973480000001,-146.779831,100.2469490153861,1.0717177774971356,9.097692020301512,1.0055319569030912,-38.3527596,37.23964360000001,-292.21844180000005
2977.787,-27.093917,81.1859574,46.9976058,-0.6659862,-0.7159878000000001,0.4324168,-59.9497474,39.4764758,144.2682312,-9.3808786,0.6332584000000001,4.7842312,-0.9738802,-0.2571328,-0.0192128,-97.2802566,75.174823,-146.8479614,97.64228063851078,1.0691868112081817,10.54944395142047,1.007436872698096,-37.3305092,35.6983472,-291.11619260000003
2997.772,-27.0343932,79.4829726,45.4287444,-0.6813204,-0.7061992,0.4142172,-61.278572,41.0438036,143.0451202,-11.5232132,-0.6911913999999999,5.005546000000001,-0.9767582,-0.2501997999999999,-0.0163958,-97.4721648,75.2811034,-146.8102692,95.45769831074436,1.06512472805425,12.582435327161598,1.008427163182805,-36.1935928,34.2372998,-289.85538940000004
3017.757,-26.39489200000001,77.110086,43.75907959999999,-0.7045277999999999,-0.7065726000000001,0.3889752,-62.6483428,42.536059,141.7789824,-15.201972,-2.0334206000000004,5.1120802,-0.9743602,-0.2478068,-0.0208144,-97.6463286,75.3925812,-146.677649,92.50682533769168,1.0709369571821865,16.16688331115557,1.0055939780635323,-34.997985799999995,32.85652220000001,-288.4566314
3037.742,-25.4071944,73.917758,42.4951376,-0.7279093999999999,-0.6980252,0.3648192,-64.0294296,43.9564424,140.499362,-18.352847,-3.1900218,4.9298816,-0.9713648,-0.2545244,-0.0254548,-97.801303,75.4979218,-146.45968639999998,88.9673939972892,1.072466467136404,19.269327042735632,1.0044800603881792,-33.7718734,31.5414794,-286.95904840000003
3057.727,-25.1472514,70.1522398,41.7270582,-0.747672,-0.686566,0.3412849999999999,-65.4172988,45.3103502,139.23143,-20.6588816,-4.4151212,4.188223000000001,-0.9730086,-0.2636014,-0.0259484,-97.897589,75.5863038,-146.13376780000002,85.41000168573757,1.070916310065824,21.536571130782097,1.0084169540514876,-32.4802902,30.2759536,-285.3651978
3077.713,-24.5815856,66.73389499999999,41.2832702,-0.7567746,-0.6853132,0.3229082,-66.8074706,46.599489,137.97219239999998,-22.254814,-5.7851926,3.5779442,-0.9737778,-0.265336,-0.03379,-97.9291976,75.6641008,-145.7072114,82.23123184585866,1.0708088918787702,23.27115992579666,1.0098456123432136,-31.121727,29.0646118,-283.6794038
3097.698,-22.083986600000003,62.7758468,39.9426514,-0.7808921999999999,-0.6755669999999999,0.2944377999999999,-68.1581588,47.8153368,136.7278992,-22.3919464,-6.554918600000001,3.535492,-0.9680716,-0.2628996,-0.0398884,-97.9161284,75.7424104,-145.230954,77.61394724189701,1.0737211079133535,23.59800680386297,1.0039272418164973,-29.757969600000003,27.9270736,-281.9588532
3117.683,-20.0567984,58.77330919999999,38.3811486,-0.7981809999999999,-0.6600708,0.2701985999999999,-69.4669006,48.956489,135.50892960000002,-21.6224206,-6.5240816,3.3235584,-0.962897,-0.2627674,-0.0487332,-97.9071226,75.81423339999999,-144.7735596,73.00472316386336,1.070417513503773,22.828463675091527,0.9992958840573696,-28.440222,26.8577444,-280.2824892
3137.668,-18.5931776,55.2483238,36.4753606,-0.8055526000000001,-0.6477564,0.2461128,-70.751297,50.018706,134.3048402,-20.3646062,-6.4940446000000005,3.1585697999999995,-0.9651326,-0.2621638,-0.0504368,-97.8763686,75.882553,-144.319522,68.76434735293297,1.0625793407701658,21.607090598443367,1.0013763849859052,-27.1250716,25.863847000000003,-278.6243622
3157.653,-17.16892,52.5924866,34.0812906,-0.8137888,-0.63835,0.2298319999999999,-72.02364659999999,50.9995836,133.0958802,-18.5642398,-5.9981154,3.1731913999999994,-0.9651992,-0.260101,-0.0605488,-97.87014,75.9494032,-143.9265532,64.97904146491565,1.059512001692024,19.76556428146323,1.0014630213158546,-25.846493400000007,24.949819600000005,-277.0224334
3177.638,-16.131954,49.6228752,31.5179544,-0.8298776,-0.6243142,0.210647,-73.28297119999999,51.900374,131.89300240000003,-16.537193,-5.6309654,3.3677888,-0.9709962,-0.2539956,-0.054282,-97.838733,76.0229536,-143.5503814,60.95942201607041,1.0596401322677431,17.79124855249489,1.0051337825174318,-24.55576180000001,24.1225796,-275.4433838
3197.624,-16.319689599999997,47.7254258,29.7952272,-0.8219808000000001,-0.6162766000000001,0.2005355999999999,-74.56206519999999,52.73277979999999,130.6819002,-15.604924799999996,-6.5514736,3.6952496,-0.9820464,-0.2497466,-0.0426502,-97.6882952,76.1090422,-143.0725922,58.58160206354273,1.046739609522617,17.323116173236617,1.0142029064859557,-23.126230000000003,23.376262400000005,-273.7544924
3217.609,-16.6734444,46.8972452,28.5255026,-0.8137846,-0.6092380000000001,0.1850976,-75.8894548,53.51265099999999,129.4320238,-16.366732399999997,-9.0495536,4.453792,-0.9930432,-0.2406226,-0.0262565999999999,-97.3169924,76.22234340000001,-142.3541228,57.36775796639974,1.0332847803809555,19.22499968769172,1.022117136995834,-21.4275376,22.7096924,-271.7861466
3237.594,-17.6104314,46.9970934,28.0165636,-0.8085758000000001,-0.600343,0.1734802,-77.2916276,54.2602758,128.12303179999998,-18.9957942,-12.3448136,5.5017842,-0.9964882,-0.2288598,-0.0132244,-96.7039034,76.3686936,-141.334619,57.47853441151117,1.0219109167567788,23.31317759317396,1.0225167116241376,-19.412275800000003,22.1084178,-269.4576508
3257.579,-18.850787200000003,47.067562200000005,28.0704028,-0.811914,-0.5928283999999999,0.1529284,-78.7795686,54.9883984,126.752643,-23.7658988,-16.3732772,6.2210502000000005,-0.9923138,-0.2232134,-0.0035177999999999,-95.8290498,76.53591320000001,-139.94935,57.95390498374377,1.0168760744403027,29.522933757179374,1.0171151726952263,-17.049481200000002,21.5475148,-266.701993
3277.564,-20.2375664,46.903132,28.3016032,-0.8196161999999999,-0.5813694,0.1328104,-80.348137,55.7019764,125.33018359999998,-28.9319764,-19.8488022,6.6161676,-0.9849262,-0.2242993999999999,-0.0052389999999999,-94.7606004,76.7089722,-138.2590606,58.39900366353936,1.0136072695610268,35.70445183581694,1.010157060762236,-14.412463400000002,21.0069958,-263.58924420000005
3297.549,-23.4489968,45.8033898,28.6492682,-0.8349982,-0.5714146,0.104172,-82.0157044,56.4016408,123.8809358,-32.559524999999994,-22.1100272,6.3415256,-0.9808274,-0.2273137999999999,-0.0121418,-93.5695252,76.8688248,-136.3678466,58.89470720270783,1.0171472089527651,39.86465750443392,1.0068969041408562,-11.5538208,20.467184,-260.2487824
3317.534,-25.483693,44.3081238,28.5882884,-0.852966,-0.5583676,0.079651,-83.7455322,57.079415,122.4192262,-34.02277719999999,-23.2867408,5.8564574,-0.9795412,-0.2307286,-0.0150742,-92.2905762,77.0078948,-134.3564636,58.56550757259728,1.0225799018593902,41.64276358222685,1.0064610677323989,-8.545043999999999,19.9284798,-256.7756898
3337.52,-27.526603,42.3292968,27.9164568,-0.8708628,-0.5507557999999999,0.0627658,-85.516632,57.7189032,120.9673464,-34.2312386,-23.791262,5.2130836,-0.9808338,-0.232674,-0.016638,-90.954779,77.1223342,-132.2826112,57.695856008628255,1.0323146387158908,42.011642246683984,1.008190932582931,-5.438147000000001,19.403430999999998,-253.2499576
3357.505,-28.7372906,40.2299002,27.2255476,-0.880539,-0.5416128,0.039155,-87.31369,58.3184212,119.5255052,-32.3343978,-23.505921800000003,5.1912768,-0.985832,-0.2289083999999999,-0.0116033999999999,-89.576416,77.2266844,-130.2049088,56.44029751206733,1.0345175057338758,40.31117705513668,1.0121256970881234,-2.262725999999998,18.9082632,-249.730414
3377.49,-30.633155,38.681169,26.5773756,-0.8830041999999999,-0.5298128,0.0203012,-89.1600264,58.8795724,118.08004,-29.9397818,-23.7995424,4.913781800000001,-0.993331,-0.2270781999999999,0.0059045999999999,-88.0669508,77.313301,-128.0443346,56.04444588221085,1.0299563869324369,38.56104257225186,1.0189729381967905,1.093075600000003,18.4337286,-246.1243746
3397.475,-32.486467000000005,38.003054000000006,26.5585412,-0.8805422,-0.5167588,0.0051572,-91.0779112,59.414589,116.6021454,-28.7990638,-24.7899866,4.5928476,-0.9987712,-0.2217803999999999,0.026031,-86.39056380000001,77.37998639999999,-125.7386354,56.6123552075084,1.0209901175183431,38.27562880556602,1.0234295621754337,4.687347400000002,17.965397399999997,-242.3407808
3417.46,-36.6299452,37.9594054,27.4539238,-0.8783173999999999,-0.5099897999999999,-0.0086546,-93.1358428,59.93694000000001,115.0651688,-29.598015999999998,-26.147077000000003,4.202949200000001,-0.9981848,-0.213768,0.0422429999999999,-84.5703308,77.423294,-123.2710206,59.46753127289512,1.0156800447719547,39.716205367053455,1.021691794928412,8.565512000000002,17.486354,-238.3361894
3437.445,-39.300564,38.0187842,28.832824,-0.880372,-0.4959062,-0.0316606,-95.320288,60.45872039999999,113.453769,-31.763494999999995,-27.2563654,4.0508234000000005,-0.9869848,-0.2027587999999999,0.0474317999999999,-82.6873734,77.4489242,-120.695012,61.816616071888326,1.0109303691030358,42.050424963980205,1.008712001544405,12.632914600000005,16.9902038,-234.148781
3457.43,-41.9311128,37.5736472,29.796048000000003,-0.8819127999999999,-0.4771624,-0.0512822,-97.6106658,60.9737114,111.7897676,-34.7993052,-27.3792304,3.4404675999999994,-0.9734742,-0.1978898,0.0421859999999999,-80.8861176,77.4486618,-118.139058,63.70087645374039,1.0040338673642637,44.41228115066463,0.9942796636790276,16.7245482,16.474950399999997,-229.9288256
3477.415,-45.2035654,36.0911704,29.975399,-0.8935418,-0.4604698,-0.0686088,-99.9742462,61.471672,110.124335,-37.5097964,-25.5330996,2.5304076,-0.9602634,-0.2015404,0.023565,-79.3853472,77.42161100000001,-115.8318436,65.14951612194149,1.007549776684368,45.445868500614125,0.9814681041362068,20.588899,15.949938999999995,-225.9561786
3497.401,-46.0075074,32.763299,28.755983000000004,-0.9122438,-0.452799,-0.0769666,-102.2690064,61.9334946,108.5588946,-37.343233,-21.9278884,1.5477136,-0.9491616,-0.2100816,0.0037746,-78.289577,77.3744828,-113.9392304,63.380052515130856,1.0213420301519955,43.33295233379291,0.9721400460727252,23.9794294,15.440988199999998,-222.498125
3517.386,-41.2867886,27.7209898,26.319407,-0.9271362,-0.4543382,-0.0810883999999999,-104.2986602,62.34377440000001,107.1881318,-33.288834599999994,-17.6181976,0.936597,-0.9491036,-0.2153147999999999,-0.0068588,-77.5461412,77.324028,-112.488411,56.26511684182699,1.03565441240997,37.67525195190089,0.9732446505218716,26.752519,14.980253599999994,-219.6765428
3537.371,-31.1317838,22.2872632,23.7099408,-0.9344984,-0.4587268,-0.0800744,-105.92302399999998,62.7058586,106.0454438,-27.3074914,-13.771626199999996,1.00403,-0.9618714,-0.2183114,0.0014365999999999,-77.0071488,77.28588399999998,-111.370053,45.03411325046293,1.0440926425256334,30.600079264513354,0.9863359069442216,28.9158752,14.580025399999991,-217.4154968
3557.356,-17.107317000000002,17.3075172,21.6195966,-0.9347708,-0.4586804,-0.0859166,-107.0882462,63.034797600000005,105.1063446,-22.0748444,-11.3282278,1.961913,-0.9727564,-0.2178894,0.0187031999999999,-76.5173676,77.2739898,-110.411206,32.55176498614962,1.0447802735658631,24.889286912092786,0.9970359141292556,30.570878600000004,14.239192199999996,-215.5175506
3577.342,-1.2403837999999994,13.771469200000002,20.4204828,-0.9206518,-0.45442,-0.1010018,-107.8270782,63.34433220000001,104.2958022,-17.983858599999998,-10.2716632,3.5475348,-0.9764784,-0.2128144,0.0384966,-75.9530608,77.29620359999998,-109.462326,24.661468603531038,1.0316485045045527,21.012168812291584,1.0001410014220395,31.874017400000003,13.951871399999996,-213.7581282
3597.327,13.1299598,12.3473882,20.3627546,-0.9054216,-0.4407759999999999,-0.1183123999999999,-108.2626586,63.6536636,103.510588,-15.8443084,-9.636764799999998,5.1538192,-0.9728908,-0.2084656,0.0475474,-75.343962,77.351535,-108.5124832,27.19366864935543,1.0139376607643686,19.24762834302237,0.996110019202076,32.9186966,13.697871399999997,-212.0230712
3617.312,22.5550946,12.0384106,20.4545366,-0.8961053999999999,-0.416902,-0.1454833999999999,-108.5508026,63.96610720000001,102.6903396,-14.8327956,-8.3149152,6.1195746,-0.9602684,-0.2103267999999999,0.0414436,-74.82892000000001,77.4289994,-107.6786332,32.74207827413955,0.9989882808064968,18.072045633506335,0.9839056534128464,33.7218826,13.462892199999995,-210.3689728
3637.297,24.578570000000003,11.5557442,19.899357,-0.8858526,-0.391268,-0.1691116,-108.8198088,64.272558,101.855989,-11.8692146,-5.3370054,5.8765244,-0.9429898,-0.22132,0.0236012,-74.5737748,77.5100816,-107.168889,33.669359011929274,0.9830687717577646,14.279195386445192,0.96890108986701,34.246033999999995,13.237523599999998,-209.024878
3657.282,20.6222254,10.4741704,18.2278616,-0.8836816000000001,-0.3738372,-0.1764616,-109.1267134,64.55701760000001,101.0716812,-5.370323799999999,-0.7031389999999998,4.8351594,-0.9318818,-0.2335259999999999,0.002266,-74.6799622,77.58841559999999,-107.1591386,29.44892807090601,0.9755952637015824,7.26040967119458,0.9606993372555432,34.446751199999994,13.031397999999996,-208.2308198
3677.267,14.4327356,7.9520228,15.5587338,-0.8970689999999999,-0.371882,-0.1729909999999999,-109.4220108,64.8084976,100.4368148,3.5909982000000014,5.479933,3.6591014,-0.927811,-0.239447,-0.0196348,-75.239914,77.67276460000001,-107.7944902,22.66302541521077,0.9863847620305172,7.504262576187897,0.958412042339327,34.1820968,12.864266999999998,-208.231305
3697.252,8.7406588,3.707472800000001,11.711712000000002,-0.9074552,-0.374946,-0.1663972,-109.60121,65.01433560000001,100.0543014,13.6302308,12.6744166,3.0242286,-0.9250964,-0.2383598,-0.0405538,-76.31794740000001,77.77811139999999,-109.1628038,15.07675922709192,0.9958651872070234,18.85656348428001,0.9561711950500495,33.28326259999999,12.7637758,-209.2171052
3717.237,4.2121126,-1.9855944,7.126966800000001,-0.9145218,-0.380813,-0.1489191999999999,-109.553073,65.17063739999999,100.0177276,23.5512406,20.801386,2.8101778000000004,-0.9279602,-0.237989,-0.0555898,-77.9968596,77.9062562,-111.3465624,8.513409037788117,1.0017712272634307,31.547673330813115,0.9596036279470184,31.5562134,12.7356188,-211.36429
3737.222,0.262688,-9.1091992,1.9645484000000004,-0.9268088,-0.3914274,-0.1285342,-109.191388,65.2742368,100.4079314,31.825541800000003,28.8522058,2.7533558000000005,-0.9360106,-0.2333052,-0.0620369999999999,-80.2935516,78.04694520000001,-114.3299974,9.322336910161916,1.0142539138686328,43.04527684369674,0.9666414790543596,28.8978364,12.7727084,-214.7379288
3757.207,-2.532858,-17.397372,-3.3241164,-0.938424,-0.4116364,-0.110332,-108.4447724,65.3210294,101.2782698,37.24300000000001,35.81001439999999,2.0050444,-0.9479716,-0.22822,-0.0596128,-83.146469,78.16824799999999,-117.992824,17.89227967575113,1.0306586630912098,51.70510983814055,0.9768767623044372,25.2983034,12.8472186,-219.2710938
3777.193,-3.1940322,-25.629317000000004,-8.4215932,-0.9441334,-0.4332067999999999,-0.0873832,-107.27825,65.30668,102.6203826,40.0018722,40.475521,0.6133272,-0.9657036,-0.2209052,-0.0485836,-86.357547,78.24191900000001,-122.079799,27.16591547523132,1.0424451219148372,56.91040107028621,0.9918381504201984,20.920703,12.935239,-224.7001816
3797.178,-2.1572566,-32.8465506,-13.050007399999998,-0.948671,-0.4593721999999999,-0.0635295999999999,-105.7172012,65.22344799999999,104.37019639999998,40.558615,41.8973922,-0.6375932000000001,-0.9902202,-0.2075308,-0.0242738,-89.6203918,78.2639068,-126.2349366,35.40977739970499,1.0559524110725824,58.31637204908697,1.012024848905955,16.096809399999998,13.0404588,-230.605133
3817.163,1.1649244,-38.19381559999999,-17.0140512,-0.9504852,-0.4812847999999999,-0.0456902,-103.8277604,65.06508319999999,106.408049,38.8137146,39.9913222,-1.466603,-1.0071502,-0.1862474,0.0003351999999999,-92.6555954,78.2436736,-130.126149,41.8282504676055,1.066369902288188,55.74909162232219,1.0242264064775133,11.172164999999998,13.1785904,-236.534198
3837.148,5.525148,-41.1512886,-20.254907,-0.946379,-0.4990589999999999,-0.0301379999999999,-101.721965,64.82456520000001,108.5903808,34.058953,35.7017396,-2.2383436,-1.0147204,-0.1714532,0.0140245999999999,-95.3023772,78.18441759999999,-133.5268448,46.19758729025838,1.0703277050352382,49.39267832375643,1.0291989017539611,6.4195878,13.3598524,-242.11722560000004
3857.133,9.2654746,-42.771563,-23.1812116,-0.9435092,-0.5127062,-0.0184944,-99.5010728,64.4956544,110.8229904,26.8694808,30.841496,-3.0118964000000004,-1.0154264,-0.1706336,0.0058765999999999,-97.5780074,78.08790580000002,-136.4028442,49.52397593358381,1.0739736034160432,41.01509958422529,1.0296801123132755,1.9230653999999991,13.5922514,-247.2258346
3877.118,11.9630614,-44.6240662,-26.273977,-0.941664,-0.5201652,-0.0131232,-97.2105058,64.0718004,113.08339680000002,20.6837338,26.7549586,-3.6912326000000006,-1.0029696,-0.1840727999999999,-0.014757,-99.5514814,77.95493,-138.8438416,53.14832066659004,1.0758601872758746,34.018669164214515,1.0198277223497114,-2.340975600000002,13.883129600000004,-251.9272384
3897.104,13.048702600000002,-47.247648000000005,-30.202166,-0.9411794,-0.5257934000000001,-0.0071032,-94.8759216,63.534958,115.3819336,16.9758012,24.1974626,-4.9270426,-0.9908971999999998,-0.200507,-0.0345702,-101.3119688,77.77743360000001,-140.9915436,57.57412363351011,1.0781130821570435,29.966160438777187,1.0115707670474072,-6.436047200000002,14.242475600000006,-256.3734772
3917.089,11.239945600000002,-50.63860340000001,-34.5296584,-0.9401662,-0.5379958,0.0036925999999999,-92.5442718,62.8737656,117.7323914,13.9724984,22.3124662,-6.6182238,-0.991204,-0.219915,-0.0492138,-102.8931106,77.5507842,-142.8952758,62.31293477773409,1.083220014463747,27.14549218067397,1.0164988809395907,-10.3488388,14.677018600000002,-260.6276672
3937.074,9.413219000000002,-54.6132296,-39.0328322,-0.9390094,-0.559159,0.0206092,-90.2128204,62.0799544,120.139647,12.4706364,20.7254576,-7.5258584,-0.995501,-0.2349026,-0.0600772,-104.3034148,77.2967864,-144.5947266,67.78477357664946,1.0930792193130376,25.33179641492591,1.024602724204655,-14.090594400000004,15.216832000000004,-264.7343736
3957.059,10.243438,-58.144629,-43.5115218,-0.9337486,-0.5778258000000001,0.0404949999999999,-87.8689024,61.15157000000001,122.5607332,13.758071600000005,18.6885542,-7.5984972,-0.9981984,-0.2350467999999999,-0.0577306,-105.4447754,77.0472044,-146.0473846,73.34151916179103,1.09882161799475,24.418922006007392,1.0271221281469698,-17.575873000000005,15.895634400000002,-268.60811780000006
3977.044,12.2926684,-60.8215294,-47.6689568,-0.9252436,-0.5970304000000001,0.0627098,-85.54390099999999,60.0913412,124.935509,14.171333600000002,16.0961246,-7.2002032,-1.003443,-0.2233018,-0.0507888,-106.3074922,76.8242216,-147.2249908,78.24766819112048,1.1029295248932092,22.621999232218723,1.0292429501034632,-20.763591200000004,16.732880400000003,-272.1604998
3997.029,14.650176399999998,-63.3000648,-51.063862,-0.915671,-0.6100028,0.0860484,-83.2615098,58.9143782,127.232976,12.321900600000005,12.9459668,-6.898365799999999,-1.0032412000000002,-0.2267966,-0.0545736,-106.9225588,76.6208082,-148.1114196,82.63802922741054,1.1036127597084948,19.157628806655385,1.0300038257045263,-23.66104900000001,17.70643,-275.3443956
4017.015,16.320253400000002,-66.7480544,-54.2849146,-0.9092778,-0.6208918000000001,0.1105202,-81.0223068,57.6214698,129.47167380000002,11.365367400000002,10.083799,-7.129344399999999,-0.9940996,-0.239359,-0.0641336,-107.3078172,76.42030460000001,-148.7423034,87.57000279978791,1.1065746515658672,16.783388513145823,1.024519333272984,-26.285510400000003,18.7988348,-278.21397720000004
4037.0,18.652849,-70.8028166,-57.234768,-0.9050854000000002,-0.6294039999999999,0.1344726,-78.80903479999999,56.2165618,131.6592622,11.638927,7.639304,-8.225163,-0.9867374,-0.2417702,-0.067594,-107.458719,76.21155519999999,-149.1381256,92.93431165249926,1.1105907692124584,16.17024717474393,1.018171142295243,-28.649684200000003,19.99499340000001,-280.7973878
4056.985,21.6960378,-75.262274,-60.56123660000001,-0.9042106,-0.6381086,0.169552,-76.60048379999999,54.6901038,133.8020722,10.981395400000002,5.7824834,-9.0896738,-0.983932,-0.2357514,-0.06864,-107.457068,76.0017652,-149.36342480000002,99.0090466694397,1.1196103229473726,15.383443339929562,1.014106677241581,-30.856584200000004,21.3116614,-283.165497
4076.97,25.3702858,-80.156607,-63.7379356,-0.8972110000000001,-0.642502,0.2019248,-74.384024,53.0416412,135.9027162,10.4507278,4.1638092,-9.269202,-0.9829832,-0.2413118,-0.0709504,-107.3368974,75.7968382,-149.4557922,105.50477468757458,1.1218600729948631,14.576457879762884,1.0146532982066534,-32.9528734,22.755197000000003,-285.3585084
4096.955,28.6978904,-85.2314666,-66.5314826,-0.885074,-0.6466027999999999,0.2305988,-72.17592160000001,51.273245200000005,137.9540802,11.146579400000002,2.9867448,-9.1135518,-0.9798636,-0.2451574,-0.0692756,-107.113089,75.6017592,-149.4560364,111.86782374369956,1.1201013226513394,14.704547025737131,1.0124395953019023,-34.9371674,24.328514,-287.41011660000004
4116.94,33.2301418,-89.6498108,-68.9137832,-0.8674286,-0.6562424,0.2698242,-69.9733964,49.3878388,139.92990419999998,11.649053,2.0123588000000003,-8.7163328,-0.9798962,-0.2325934,-0.0625254,-106.815184,75.429637,-149.3904146,117.8577125836935,1.1206656783186322,14.68756212640826,1.0090617811329294,-36.8417876,26.0417982,-289.32031880000005
4136.926,37.8038718,-93.8317306,-71.1348404,-0.8479134,-0.6646432000000001,0.3056974,-67.7895218,47.388812400000006,141.8150514,10.231130000000002,1.096955,-7.8107238,-0.9824592,-0.2241764,-0.0563112,-106.4977112,75.2874862,-149.2755494,123.66766719395687,1.1198922348032243,12.918464987327694,1.009282957959283,-38.7081894,27.898673799999997,-291.0906008
4156.91,41.391464,-97.6323792,-72.6348968,-0.8220357999999999,-0.6719584000000001,0.3294646,-65.6540054,45.2934138,143.5990082,8.546207400000002,0.1348065999999999,-6.5082036,-0.9778796,-0.2324826,-0.0562334,-106.1731444,75.171991,-149.118576,128.53467622965616,1.1116734549611949,10.743023217059122,1.0067069418030652,-40.519139,29.8785772,-292.71758420000003
4176.896,43.858454,-101.415622,-74.22726279999999,-0.7942503999999999,-0.6807608,0.3622176,-63.583371,43.0977572,145.284671,8.185187,-0.3704292,-5.3760468,-0.969176,-0.236103,-0.0542954,-105.84240400000002,75.0790954,-148.9479004,133.11040123032183,1.107009735488609,9.799815468312245,0.9989968648830486,-42.259033,31.981338200000003,-294.2325714
4196.881,46.3781006,-105.0449036,-75.8900756,-0.7634711999999999,-0.6984374,0.3952874,-61.58155359999999,40.7980654,146.86654360000003,7.913045200000001,-0.8005755999999999,-4.518886999999999,-0.972388,-0.2300456,-0.0447652,-105.4934248,75.0108154,-148.75354,137.6396147995581,1.1076800998243852,9.14754313175551,1.000231635049802,-43.9118712,34.21275000000001,-295.6200836
4216.866,49.0782486,-108.0059356,-77.1482374,-0.7301284000000001,-0.7083360000000001,0.4195879999999999,-59.6507362,38.41199279999999,148.3356628,6.012914400000001,-1.4397822000000002,-3.475546,-0.974593,-0.2306072,-0.0412916,-105.1556716,74.966858,-148.5316954,141.51256885662667,1.100400590297261,7.092780298534575,1.0023553225136284,-45.5049354,36.55486520000001,-296.8673582
4236.851,51.1343528,-110.3552078,-78.341374,-0.6926526,-0.7143946000000001,0.4501584,-57.798825,35.94774879999999,149.6890502,4.399787000000001,-2.0455006,-2.3421682,-0.9704014,-0.2380837999999999,-0.041674,-104.8297806,74.9433914,-148.2887298,144.67330370550027,1.0921400340095957,5.387759295575537,1.0000497463728493,-47.0309556,38.9956426,-297.97778
4256.836,51.8067414,-113.61684420000002,-79.3075072,-0.6551546,-0.7213035999999999,0.4818913999999999,-56.0321198,33.4010156,150.9564118,3.7741630000000015,-2.3168954,-1.7010208000000002,-0.9689814,-0.2433546,-0.0394134,-104.5052782,74.93084400000001,-148.0345428,147.92703079130467,1.0870721018718492,4.744025970327609,0.9998499042289696,-48.4731584,41.52982840000001,-298.9909546
4276.822,52.4876938,-116.4408782,-79.9111618,-0.6189006,-0.7296318,0.5140314,-54.34620600000001,30.7847314,152.139264,2.6178786000000014,-2.6109246,-1.4692374,-0.9758738,-0.2401113999999999,-0.0350344,-104.1833346,74.92747499999999,-147.759323,150.66263603380756,1.0861071753918026,3.978551767764482,1.0055896614025823,-49.8371286,44.1427436,-299.898587
4296.807,52.6161888,-118.8542862,-80.7999192,-0.5826632,-0.7256842,0.5473734,-52.7459474,28.1038056,153.2347628,0.3372740000000014,-3.016802,-0.8998362,-0.9762732,-0.2339718,-0.0352218,-103.8946856,74.9401596,-147.470877,153.04715487285375,1.0796905120410385,3.166157488993629,1.0045360816957845,-51.1487382,46.836354,-300.70563980000003
4316.792,52.6923378,-121.1860048,-82.0567064,-0.543343,-0.7278236,0.5765396,-51.229918,25.3538564,154.2433718,-1.9288933999999984,-3.3076984,-0.0439103999999999,-0.9731958,-0.2368444,-0.0365902,-103.648929,74.9682312,-147.17964780000003,155.5500989631017,1.0758005013635754,3.82928538726931,1.002269513496764,-52.419011,49.6143748,-301.4230196
4336.777,52.4460114,-123.943567,-83.0723146,-0.5038218000000001,-0.7207318,0.60172,-49.790014,22.537708,155.1826816,-3.642103799999999,-3.5366056,0.6326082,-0.9737742,-0.2435292,-0.0359878,-103.42920080000002,75.00645599999999,-146.8800842,158.15688845400882,1.0655316476231385,5.115925370315035,1.0044091723929645,-53.6391868,52.468748000000005,-302.0627658
4356.762,51.4271026,-126.2675888,-83.603377,-0.458125,-0.7175710000000001,0.6288428,-48.43854760000001,19.6649844,156.05765100000002,-5.362403199999998,-3.9906794,0.8649544,-0.9780808,-0.2422477999999999,-0.03659,-103.2179336,75.0518036,-146.553421,159.93053338559508,1.0584091471533303,6.740106547157392,1.008298009535613,-54.779386,55.386819200000005,-302.61107200000004
4376.747,50.6013824,-128.53279579999997,-83.8813706,-0.4104656,-0.709063,0.6522243999999999,-47.1635178,16.7424924,156.87756059999998,-7.245153999999999,-4.6701912,1.1649075999999998,-0.9803206,-0.2391036,-0.0348867999999999,-102.9983932,75.1074706,-146.1792938,161.60836559624647,1.047210110105761,8.698272934600936,1.0096613784490125,-55.8348754,58.3649782,-303.0568544
4396.732,49.530278,-130.64004219999998,-83.8035218,-0.3610896,-0.704034,0.6730160000000001,-45.9645934,13.7781136,157.64998780000002,-9.2876378,-5.203454600000001,1.6927453999999995,-0.9788632,-0.2364608,-0.0328978,-102.7859726,75.1764084,-145.7704344,162.92053072236826,1.038749300187567,10.779681937212764,1.007556023006026,-56.8213792,61.3982948,-303.4204222
4416.717,47.498250600000006,-132.6666046,-83.5601486,-0.3077615999999999,-0.6891,0.6889462,-44.8513266,10.7763764,158.3840302,-11.0762568,-5.8975682,2.298868,-0.9763394,-0.2314272,-0.0298858,-102.562564,75.2619246,-145.31348859999997,163.82554813034267,1.021872241979887,12.757333947758108,1.003837802602512,-57.7112374,64.4855482,-303.6975188
4436.703,45.165731,-133.9770996,-83.67408300000001,-0.2538664,-0.6832469999999999,0.7083223999999999,-43.8281134,7.7419698,159.0697876,-13.0152856,-6.7467316,2.9739754,-0.9805424,-0.2246326,-0.0291072,-102.3250656,75.36725759999999,-144.80180639999998,164.28986164667486,1.0163637313480445,14.958628821245984,1.0063649597796815,-58.4969522,67.6252878,-303.871594
4456.688,44.084549800000005,-134.764563,-84.4313094,-0.2013006,-0.6706184,0.7153746,-42.869959,4.6763564,159.69639279999998,-15.087011999999998,-7.9801114,3.8321186,-0.9837342,-0.219733,-0.0246325999999999,-102.038736,75.496344,-144.19750040000002,165.0260009169712,1.0010053887487718,17.492433850354267,1.008276912619445,-59.168777,70.81998759999999,-303.8938932
4476.673,42.0535348,-135.364859,-85.194574,-0.146619,-0.6593204,0.7247356,-41.9902982,1.5819952000000002,160.2663634,-17.961323,-9.7874542,4.672473999999999,-0.982892,-0.2212718,-0.023113,-101.6749664,75.646045,-143.454425,165.3791410072811,0.9906776523796832,20.98178726677264,1.0077559743847913,-59.6846682,74.06404979999999,-303.7207884
4496.675,40.8873764,-135.6645538,-85.384256,-0.0894036,-0.6477653999999999,0.7233417999999999,-41.1704596,-1.5296018,160.7903228,-20.8697674,-11.9748784,4.636587199999999,-0.9862546,-0.2271802,-0.0240078,-101.1922104,75.7976472,-142.52878719999998,165.4301057223319,0.9750981369879445,24.503935293909283,1.0123662152373714,-60.02175079999999,77.327249,-303.31911
4516.643,39.7432876,-136.07953179999998,-85.17985999999999,-0.0364957999999999,-0.6323148,0.7280208,-40.4017218,-4.6521524,161.2793792,-23.0687024,-14.094773800000002,4.7059896000000006,-0.990509,-0.2292796,-0.0211712,-100.5719086,75.9543108,-141.4168854,165.3867480597618,0.96497058760841,27.440372027511582,1.0169195807764742,-60.1701868,80.60646320000001,-302.6962646
4536.628,37.9602586,-136.6454896,-84.5221862,0.0191514,-0.6200586,0.7237144,-39.6973204,-7.78255,161.7473022,-25.0432744,-16.4312354,4.2181802,-0.990434,-0.2282289999999999,-0.0151105999999999,-99.7743392,76.1056552,-140.0828004,165.09685345587312,0.9532061562554452,30.24804346802584,1.016501999520591,-60.077018800000005,83.8882052,-301.83010260000003
4556.614,36.286734,-136.9352814,-83.794748,0.0760852,-0.6067132,0.7240966,-39.0484496,-10.9166944,162.19623719999998,-27.244713,-18.4400836,3.633555,-0.9912382,-0.2243884,-0.012453,-98.8346236,76.24792959999999,-138.55764779999998,164.58905841175303,0.9477371739278986,33.098546668477496,1.0163948053796812,-59.786174,87.16462399999999,-300.753885
4576.599,35.0481194,-136.5520386,-83.2735244,0.1354182,-0.5854699999999999,0.7099406,-38.4419532,-14.0491492,162.6174226,-28.9605432,-19.775741,2.7793654,-0.9950696,-0.2176499999999999,-0.0080626,-97.7897246,76.3739732,-136.8897094,163.73548725090097,0.9301230377318904,35.178372142054336,1.018626544354171,-59.3477714,90.4231224,-299.507132
4596.584,32.6151028,-135.71045840000002,-83.3876356,0.1925786,-0.5660494,0.7041408,-37.892404,-17.1780596,162.9978944,-30.5115564,-21.5550626,2.530595,-0.9957474,-0.212251,-0.002886,-96.604231,76.4935044,-135.0463044,162.58711886478304,0.9237492661122714,37.44301949221409,1.0181216531455168,-58.71182700000001,93.671564,-298.04419880000006
4616.569,30.6946568,-134.1486574,-83.9980116,0.2417324,-0.5565990000000001,0.6939938,-37.3868468,-20.293717800000003,163.3250978,-33.113286,-23.5934252,1.739481,-0.9987048,-0.2125148,-0.000286,-95.2758314,76.59074260000001,-133.0029176,161.22558789176765,0.9218809003603448,40.69600983554962,1.0210650809610913,-57.8889846,96.8844604,-296.3280154
4636.554,30.0498942,-132.2761568,-84.45282119999999,0.2934655999999999,-0.5356375999999999,0.6749854,-36.8927566,-23.3927224,163.5984102,-35.1844416,-25.3571268,1.0615352,-0.9959104,-0.2138068,-0.0026562,-93.8355482,76.6632904,-130.80166939999998,159.78816228947798,0.9102939015121874,43.38266551557117,1.0186058746899311,-56.9427916,100.0560128,-294.4000796
4656.539,29.5979964,-129.983736,-84.5706236,0.3426885999999999,-0.5153006,0.6600964,-36.399179,-26.4617052,163.8169344,-36.9481858,-27.5078142,0.3512700000000001,-0.9934364,-0.2179856,-0.0006929999999999,-92.241995,76.7065766,-128.406746,157.87337771614625,0.9048190107547918,46.06486368791232,1.017071326358835,-55.84281599999999,103.1682818,-292.22368040000003
4676.524,29.1626082,-127.7976748,-84.4837248,0.3887792,-0.4989423999999999,0.6406305999999999,-35.9052458,-29.499595,163.98615139999998,-38.0616264,-29.8068812,-0.3199579999999999,-0.9915832,-0.225181,-0.0034839999999999,-90.4930264,76.7172044,-125.82832820000002,155.9493608752386,0.9002779296010537,48.34500950673042,1.0168362029054827,-54.5877806,106.2167994,-289.8144796
4696.51,29.166909,-125.2865542,-83.8112854,0.4292968,-0.4783166,0.6189512,-35.3970878,-32.491504400000004,164.1097048,-38.4680838,-31.6340244,-1.7891486,-0.9892786,-0.2348448,-0.0006821999999999,-88.6184628,76.67358859999999,-123.1117388,153.5309766930572,0.892290928065079,49.83679387457122,1.016771701957642,-53.221375,109.165093,-287.22144360000004
4716.495,28.760374,-122.6267274,-82.36061860000001,0.4805776,-0.4503204,0.5871334,-34.884831199999994,-35.436836400000004,164.1993654,-36.9103354,-33.446245600000005,-3.395284,-0.9861918,-0.2406012,0.000813,-86.60877339999999,76.5716216,-120.286525,150.49167711746873,0.8823088584353441,49.92546602202796,1.0151176605683103,-51.7239422,112.008458,-284.4858904
4736.48,28.0823338,-118.9178696,-80.53041379999999,0.5224478,-0.4276384,0.5673374,-34.3623496,-38.3050322,164.2444642,-34.604349400000004,-35.4686708,-4.4695528,-0.9814322,-0.2431087999999999,0.0091128,-84.43560599999999,76.4196106,-117.3390212,146.3394161825735,0.8818718899693765,49.75404011683917,1.0111350527788658,-50.073256400000005,114.7246428,-281.58348540000003
4756.465,27.0345956,-115.076036,-78.52526399999999,0.5599372,-0.4033592,0.5389976,-33.835921400000004,-41.0930158,164.2464752,-32.034735,-36.867689,-5.6350832,-0.9769638,-0.2454332,0.0147096,-82.17992819999999,76.213922,-114.3567046,141.91398982129468,0.8756407510927298,49.16507806758643,1.007428456271134,-48.3440068,117.3069378,-278.6031798
4776.45,25.3127152,-110.4670196,-76.317389,0.5976204,-0.3772942,0.5218534,-33.3003518,-43.7827734,164.19001459999998,-28.717839,-38.137524600000006,-6.3132224,-0.9678016,-0.2398004,0.0295548,-79.8269528,75.96576519999999,-111.340486,136.63103539782026,0.8785397127855747,48.15643089471424,0.9975057167784854,-46.52660100000001,119.7485386,-275.53050060000004
4796.435,23.691565,-105.6250944,-74.5804962,0.6328868000000001,-0.3535765999999999,0.496085,-32.7412872,-46.3774206,164.0598328,-25.943553599999998,-39.2842706,-6.780392000000001,-0.9687832,-0.237562,0.0389976,-77.43695199999999,75.67777240000001,-108.33975660000002,131.45417921312486,0.8784431916218601,47.56359538180184,0.9982471664132084,-44.6956648,122.055193,-272.3995894
4816.42,22.7958348,-99.9324766,-73.087117,0.6650465999999999,-0.3298303999999999,0.4764074,-32.1171756,-48.8615156,163.8271302,-24.121162,-40.3095284,-6.731821600000001,-0.960309,-0.2260602,0.051854,-75.0326018,75.361644,-105.3585082,125.88834987801742,0.882065237786004,47.455304846928094,0.987919747156134,-42.9154262,124.2231596,-269.1856384
4836.406,21.1347806,-94.4333448,-72.0303956,0.6911073999999999,-0.30355,0.4537148,-31.422642,-51.2419034,163.4716066,-22.4866138,-41.087857,-6.576786799999999,-0.9580684,-0.2264464,0.0588149999999999,-72.6609954,75.01445620000001,-102.4396926,120.63462791179956,0.8806981097821205,47.298138627809166,0.9862211898841556,-41.2383534,126.2563596,-265.9112992
4856.391,18.5406534,-88.93443740000001,-71.0566268,0.7213038,-0.27936,0.440355,-30.658797400000005,-53.51584379999999,162.977762,-20.7850048,-41.5844008,-6.2433528,-0.9552766,-0.2264338,0.0712748,-70.33253780000001,74.6418472,-99.596141,115.33487849019453,0.8900751134142781,46.90691067013827,0.9843300998166418,-39.6737404,128.157691,-262.573903
4876.376,16.8599184,-83.8666258,-70.1502014,0.7439427999999999,-0.2602148,0.4213758,-29.802902800000005,-55.68852439999999,162.34270940000002,-19.3616074,-41.7044798,-5.8215472,-0.960229,-0.237978,0.0791202,-68.0907874,74.2447602,-96.8659134,110.6296457916794,0.8937114728124059,46.34680019485887,0.992438041881225,-38.2878846,129.93328459999998,-259.2086228
4896.361,15.107347199999998,-79.2251784,-68.863414,0.7718453999999999,-0.2359081999999999,0.4067632,-28.8461714,-57.7636222,161.5630616,-16.6107652,-41.5947012,-4.6928996,-0.951559,-0.2378346,0.0847489999999999,-65.9016502,73.8441528,-94.241536,106.05201846107678,0.9037999232145574,45.033987110875415,0.9844857644675008,-37.0554788,131.607775,-255.8045976
4916.346,11.4653762,-75.11436,-67.738008,0.7928643999999999,-0.2122056,0.394099,-27.8097888,-59.746817,160.6250916,-12.9036228,-40.1748624,-3.5844258000000004,-0.9500962000000002,-0.2476112,0.093148,-63.8190354,73.446759,-91.7993668,101.79420247452794,0.91048294616633,42.34821316820013,0.9862406630857808,-36.0092466,133.19357599999998,-252.4244584
4936.332,8.029852,-71.4034904,-66.6357482,0.8188718000000001,-0.1950778,0.381085,-26.6826626,-61.6437516,159.5235534,-9.738757199999998,-37.8604074,-2.9700224,-0.956198,-0.2541616,0.1056794,-61.896133600000006,73.0573088,-89.58491380000001,97.99622392020316,0.9240303837607724,39.20554646157898,0.9950280748315196,-35.213471000000006,134.70106040000002,-249.1084672
4956.317,6.0940534,-67.6707038,-65.49086539999999,0.8408512,-0.1768988,0.3584266,-25.421595,-63.45547260000001,158.2458618,-6.183423,-35.435566800000004,-2.2887880000000003,-0.956001,-0.2566532,0.1153108,-60.1148554,72.68351579999998,-87.5883012,94.36903671475248,0.9310174829563836,36.04376041623759,0.9965467162496096,-34.6932604,136.13898840000002,-245.83416300000005
4976.302,3.5653774000000005,-64.17890020000002,-64.1594642,0.860955,-0.1507378,0.3397846,-24.0139688,-65.181965,156.7709138,-3.036378999999999,-32.9730566,-1.8763132,-0.9506712,-0.257108,0.1274004,-58.4698154,72.3239242,-85.79664,90.81894071897707,0.9377734112092324,33.16568422636474,0.9930312764931424,-34.4558466,137.5058892,-242.56755380000004
4996.287,0.3870037999999999,-60.3968178,-62.8076424,0.8785776000000001,-0.129236,0.3204336,-22.4518706,-66.813836,155.07771,-1.0352163999999986,-30.8692282,-1.802434,-0.951035,-0.2571402,0.1424164,-56.957706,71.9711776,-84.18370360000002,87.13624570839559,0.9440753332900506,30.93912880129077,0.9954250773764944,-34.5058354,138.7850136,-239.26141360000005
5016.272,-1.6783046,-56.786070200000005,-61.41004339999999,0.8941188,-0.1122948,0.3062517999999999,-20.695275,-68.34660040000001,153.1496948,-0.3077959999999985,-29.2986216,-1.6629286,-0.9580468,-0.261339,0.15494,-55.565809,71.6238966,-82.70930940000001,83.65804148723296,0.9517608500162844,29.34738996173766,1.0050662403599278,-34.870534,139.97049700000002,-235.8590042
5036.257,-2.3249246,-52.9629288,-59.6470108,0.9094526,-0.0901588,0.2873006,-18.7006894,-69.773552,150.97384340000002,1.1035874000000014,-28.4388266,-1.398739,-0.9526094,-0.257642,0.165817,-54.2262254,71.280487,-81.3174132,79.80127191245056,0.9580053630458236,28.49458254343143,1.0006694492295445,-35.525536,141.05403900000002,-232.2912566
5056.242,-4.211782,-49.118061,-57.8269866,0.9191204,-0.0681262,0.2723487999999999,-16.4732058,-71.08722379999999,148.5312928,2.0532776000000013,-27.171002800000004,-0.7057853999999999,-0.9468286,-0.258824,0.1736864,-52.9521402,70.9530076,-80.011795,75.98870576113153,0.961039727422358,27.25761315836592,0.9968155427655208,-36.4789344,142.04023139999998,-228.5430878
5076.227,-5.840407600000001,-44.9524528,-56.0398552,0.9307618,-0.0571818,0.25518,-14.0080308,-72.2780136,145.82117,2.388672000000001,-26.1812368,-0.0771721999999999,-0.947346,-0.2558653999999999,0.1830306,-51.731926,70.64034280000001,-78.76826020000001,72.07842079643069,0.9668009717571036,26.290090715889725,0.998214279185346,-37.7238952,142.9183564,-224.5894302
5096.212,-6.179988,-40.8144936,-54.3039764,0.9350874,-0.0440388,0.2447102,-11.2645866,-73.338005,142.8295196,3.293277000000001,-23.9102406,1.0620542,-0.942131,-0.2626042,0.1871822,-50.6026802,70.363788,-77.6366424,68.21244015834898,0.9675799416731624,24.15933024883668,0.9957956431996878,-39.3380936,143.701793,-220.466162
5116.198,-6.5733496,-36.7877428,-52.4022934,0.939646,-0.032183,0.2300666,-8.266530399999999,-74.26717980000001,139.57965080000002,5.868743000000001,-21.0876404,1.8536572,-0.9347596,-0.261818,0.1934332,-49.5445878,70.1284456,-76.6334076,64.36262346162138,0.967936460332268,21.96740237385552,0.9898184569800664,-41.27805740000001,144.39562539999997,-216.2130584
5136.183,-7.548881400000001,-32.9824338,-50.596034200000005,0.9444422,-0.0222179999999999,0.2183552,-5.0484974000000005,-75.0658676,136.0946472,8.0864194,-17.954784600000004,2.6126178,-0.9301536,-0.263785,0.1944002,-48.5797638,69.940065,-75.7738556,60.866946913166416,0.9696100773155566,19.864295620886494,0.986184406476801,-43.53126640000001,145.0059326,-211.8685028
5156.168,-7.7808828,-28.9886958,-48.7423516,0.9475682,-0.0123444,0.2124806,-1.6393064,-75.7254136,132.41844480000003,10.690210400000002,-15.1303108,3.659001000000001,-0.9305912,-0.259469,0.2000216,-47.6528168,69.8015364,-75.0095276,57.24249698283869,0.9711775755437108,18.88372822349617,0.986576294031536,-46.0135104,145.52695,-207.4279724
5176.153,-7.071661799999999,-25.3713304,-47.153311200000005,0.9449386,-0.0036719999999999,0.2100004,1.9410484,-76.25041660000001,128.5893098,12.862956400000002,-11.942379,4.698697800000001,-0.9283696,-0.2555347999999999,0.1989186,-46.789103,69.71987899999999,-74.35758200000001,54.010624547431306,0.9679992816909112,18.17013551252898,0.9832277242028724,-48.7301514,145.9702956,-202.9468918
5196.138,-6.192628999999999,-22.0409606,-45.2556274,0.9516494,0.009913,0.2048446,5.6159256,-76.6501298,124.6883088,14.8484174,-9.306342,5.01006,-0.927862,-0.2538742,0.2030434,-45.9854752,69.67555379999999,-73.8115814,50.71710174556531,0.9734968712011972,18.22592115392763,0.9831615445862394,-51.6014008,146.3256836,-198.4998902
5216.124,-4.6903316,-19.078159000000003,-42.917379,0.953908,0.0217346,0.2013198,9.2897632,-76.9367524,120.8241364,15.969861400000005,-6.514907600000001,5.6866306,-0.9267474,-0.253621,0.2017444,-45.252932,69.6784226,-73.3640854,47.20038963374011,0.9751628208526,18.16089925506455,0.9817765315890984,-54.5426952,146.615175,-194.1882218
5236.109,-2.4467174000000003,-16.333344399999998,-40.2367272,0.953816,0.0350966,0.2013366,12.8796348,-77.120311,117.0951812,15.6786476,-3.9360824,6.6199848,-0.9246626,-0.2485553999999999,0.2034746,-44.5882866,69.7299516,-72.9829942,43.494353439172926,0.9754656117399118,17.468169164992837,0.9788680317351668,-57.4679214,146.8502626,-190.0781754
5256.094,0.1421018,-14.072698,-37.0026894,0.9537456,0.0461014,0.1960436,16.2852064,-77.226271,113.6096708,15.0343668,-0.84117,6.8149286,-0.9241946,-0.250252,0.2042086,-44.0513388,69.82534799999999,-72.7235094,39.58863529794427,0.9747764367803932,16.528248663090118,0.9790111717887188,-60.3365452,147.051619,-186.3331802
5276.079,2.2837504,-12.1004788,-32.8239228,0.958148,0.0646814,0.185493,19.4068032,-77.27820119999998,110.4608654,14.406073400000002,1.5900384,6.76499,-0.9143342,-0.2535071999999999,0.2058836,-43.6255874,69.9492462,-72.5683536,35.05776677227329,0.9780792025490368,15.994632306488391,0.9709073006680092,-63.0323906,147.2274474,-183.029219
5296.064,3.836347,-10.2940784,-27.9785482,0.9541738,0.074104,0.1756142,22.1302208,-77.2971816,107.752023,12.975866000000002,3.6356254,7.0231738,-0.913818,-0.2488255999999999,0.2058862,-43.2913756,70.10618439999999,-72.4806156,30.058023351336303,0.9730258941385272,15.195915264441547,0.9692092878681056,-65.4215964,147.403366,-180.23263860000003
5316.049,4.9733448,-8.0821096,-22.882838799999995,0.955492,0.0871918,0.1663665999999999,24.4089608,-77.2907836,105.5226056,10.7081924,4.3988162,6.832311999999999,-0.912491,-0.2426408,0.2104402,-43.026358,70.27007139999999,-72.4196048,24.772544593418026,0.973778834051552,13.442300982426492,0.967367283239246,-67.4353188,147.560855,-177.9422104
5336.035,4.8225246,-5.6825352,-17.7287122,0.955743,0.0980336,0.153746,26.1960798,-77.26980739999999,103.7943388,8.8286212,5.1406066,6.371676,-0.9122264,-0.2378665999999999,0.2156986,-42.8329842,70.43627160000001,-72.3961748,19.23161943485969,0.9729815523913904,12.040292503009592,0.96709017691965,-69.02906399999999,147.706079,-176.19051359999995
5356.02,3.9444584,-2.7539654,-12.7208986,0.9568962,0.1112554,0.1427428,27.475827599999995,-77.2321518,102.5689926,6.286542000000002,5.0921444,6.113081599999999,-0.9090874,-0.2354174,0.2187549999999999,-42.6928544,70.595697,-72.3758774,13.600159509550236,0.9738601586241424,10.140035086550435,0.96421730076084,-70.168682,147.8278488,-174.94486999999998
5376.005,2.2719912,0.7036657999999999,-7.581659999999999,0.955372,0.1119636,0.1370758,28.1756154,-77.17733619999998,101.9032868,4.265002400000002,5.913194,6.121589,-0.9112714,-0.2348828,0.217254,-42.6264236,70.7669982,-72.39055019999999,7.945983760779219,0.9716281598711516,9.519976924266295,0.9658078456451884,-70.80203900000001,147.94433440000003,-174.293837
5395.99,0.2078874,4.4342764,-2.3282832,0.9540132,0.1126979999999999,0.1351138,28.2756286,-77.1041626,101.8097382,3.187263200000001,7.911074600000001,5.931133,-0.908598,-0.2355951999999999,0.2147606,-42.674289,70.9635482,-72.5027006,5.012676632506625,0.9701019348133886,10.388555563528955,0.9629005863428476,-70.9499176,148.0677108,-174.3124388
5415.975,-2.2137212,8.1991622,3.3577816,0.9508664,0.1124652,0.1375776,27.741542599999995,-77.0138656,102.3164368,2.5406510000000013,10.7151026,5.689567800000001,-0.9078328,-0.2366628,0.210024,-42.8678458,71.1970106,-72.7541792,9.132443244090643,0.9673277251695828,12.39514070041662,0.9613946922235842,-70.6093884,148.2108762,-175.07061600000003
5435.96,-4.529349000000001,11.6616294,9.3802412,0.9477914,0.1071875999999999,0.1418878,26.56559,-76.9114104,103.4334914,2.1860934000000016,13.830816,5.4238438,-0.907412,-0.236599,0.2044942,-43.2188284,71.47157279999999,-73.163394,15.636416712179386,0.9643287133008952,15.016276407491238,0.959788259137733,-69.7844184,148.3829832,-176.5968854
5455.946,-6.7948284,15.030068599999998,15.634411599999998,0.946344,0.1025142,0.1491284,24.759000200000003,-76.7913864,105.1511168,1.9780150000000012,16.7314952,5.0214034000000005,-0.9078662,-0.2326102,0.1959934,-43.7249938,71.78407899999999,-73.73104839999999,22.726800944795706,0.9634912595473818,17.580385862471267,0.9574664250458288,-68.48399400000001,148.5754654,-178.8821652
5475.931,-8.783220199999999,18.466452,21.8637704,0.944426,0.0978218,0.1561806,22.360596,-76.63969719999999,107.4361144,1.5337226000000015,18.820709,4.567792799999999,-0.9147382,-0.229312,0.1933618,-44.35826099999999,72.11943219999999,-74.42310460000002,29.93625331690504,0.9622379923114656,19.427715340208263,0.9626623258352224,-66.718857,148.75912939999998,-181.859219
5495.916,-9.901612,22.0471806,27.8216078,0.9459928,0.0916876,0.1647212,19.4460456,-76.435675,110.2297684,1.189859000000001,19.8390224,4.637263,-0.923345,-0.224322,0.1891757999999999,-45.0555038,72.46993259999999,-75.1749006,36.853248882352034,0.9645942501254297,20.40849779770064,0.968851811173742,-64.5015494,148.9056076,-185.404669
5515.901,-10.5277476,26.0434796,33.3583318,0.9462808,0.0837326,0.1713756,16.110872,-76.151857,113.4458772,1.2903428000000017,20.654846,5.1455256,-0.9305454,-0.2189338,0.1838016,-45.7873376,72.8384934,-75.96439480000001,43.61048726721376,0.9653124349280704,21.3251982763463,0.973462777103552,-61.8982096,148.99035039999998,-189.410272
5535.886,-11.2774628,30.788483,38.5773556,0.945623,0.0738618,0.1812946,12.4363714,-75.75329439999999,117.000345,2.194472200000001,21.6303096,5.6949182,-0.9426154,-0.2144423999999999,0.1802828,-46.549621,73.2267502,-76.8037396,50.629282216278,0.9656739385617694,22.474832478421643,0.9833672880520076,-58.9859924,148.9800446,-193.8040846
5555.871,-11.614009,35.7366738,43.0217986,0.9443276,0.0589909999999999,0.1912442,8.5727994,-75.21995539999999,120.74920360000002,3.9799914000000016,22.6969098,6.223081,-0.9505516,-0.2112542,0.1780014,-47.3352396,73.6333922,-77.7036284,57.12153896840183,0.9653024905367228,23.868740711356576,0.9898793763293384,-55.908039,148.8533476,-198.452832
5575.857,-11.7958136,40.4423058,46.635475,0.940611,0.0456937999999999,0.2045335999999999,4.6819028000000005,-74.5405944,124.532016,7.223497400000002,24.5721058,5.8896512,-0.9501614,-0.2092759999999999,0.1719218,-48.2129618,74.0547422,-78.7648742,62.84575439424913,0.963675759894582,26.28032133349708,0.98800821633284,-52.894864600000005,148.59533660000002,-203.2968902
5595.842,-12.2002948,44.4747614,49.641773,0.9360092,0.0272914,0.2190561999999999,0.8755749999999999,-73.7201628,128.230844,10.7234228,26.4840862,4.2900502,-0.9539524,-0.2127116,0.1691852,-49.2504762,74.46735980000001,-80.0624862,67.75807864289959,0.9616879232667112,28.892960199936425,0.991914834115994,-50.1260512,148.18752260000002,-208.2933302
5615.827,-12.9834476,48.06350880000001,52.0260404,0.9362166,0.0064405999999999,0.2327636,-2.7476364,-72.7654524,131.73755179999998,14.653592200000002,27.8319954,2.324212,-0.9646846,-0.2111598,0.1646732,-50.429577,74.860176,-81.586464,72.0095804004721,0.9647392896160496,31.539652720511462,1.0011603774677862,-47.6819406,147.6256284,-213.3240158
5635.812,-13.4747132,51.7496912,53.4186476,0.9351536,-0.0076996,0.2473394,-6.0649052,-71.6787,134.932254,18.366266000000003,28.8199344,0.7403964000000001,-0.9703655999999998,-0.2055618,0.1604832,-51.7211412,75.2335478,-83.3020876,75.58538447696483,0.9673408490420944,34.18269346368411,1.004798441860277,-45.656236,146.9122478,-218.2343416
5655.797,-14.2986788,55.6336434,54.202442,0.9283376,-0.0263808,0.2714352,-9.0472414,-70.45950280000001,137.7760468,21.540007600000003,30.0519938,-0.3656207999999999,-0.9749784,-0.2050496,0.1576706,-53.1412224,75.5935134,-85.21421219999999,78.97758677085099,0.96756587061628,36.97604545286974,1.0087062193875282,-44.093981,146.0530162,-222.990259
5675.783,-14.698181600000002,59.0065316,54.340650800000006,0.9212298,-0.0514718,0.2948574,-11.6860442,-69.12749140000001,140.2657624,24.1314768,30.496300400000003,-0.555301,-0.9795342,-0.2050492,0.1529762,-54.6238778,75.94275819999999,-87.241974,81.55190766116951,0.9686354200306946,38.89294113122045,1.012390310678999,-42.9378336,145.07024959999998,-227.50773640000003
5695.768,-14.6967076,62.2598008,53.8703276,0.9124166,-0.0709048,0.3147068,-13.9665166,-67.69759180000001,142.3929964,26.4351088,31.1260558,-0.4818377999999999,-0.9859768,-0.1992146,0.14582,-56.1782022,76.288446,-89.38833179999999,83.63186118739017,0.9677664556001307,40.83966814995024,1.016415357711305,-42.2116856,143.9860378,-231.7813282
5715.753,-14.370304,65.2536514,53.3590202,0.9012208,-0.0867178,0.3345996,-15.9097562,-66.18278539999999,144.1855164,27.812774,32.1046088,-0.6273282,-0.9844842,-0.1985888,0.1327938,-57.8818902,76.6271194,-91.7126726,85.50865274806489,0.9652335466143104,42.4811704693577,1.0130552032606714,-41.972134,142.8099048,-235.898189
5735.738,-14.556982,67.9295014,53.4081192,0.8844168,-0.1074679999999999,0.35997,-17.5970528,-64.5893658,145.71551219999998,28.886241600000005,33.5432594,-1.0880338,-0.9808424,-0.2036608,0.1245608,-59.7978654,76.9508362,-94.2732468,87.62847757368797,0.9608958570241836,44.28034578116121,1.0094775519995678,-42.2008126,141.540202,-239.988759
5755.723,-14.3621284,69.27577679999999,53.91551059999999,0.8667463999999999,-0.1337934,0.3824029999999999,-19.09709,-62.945493,147.0611542,29.9211724,34.291668,-2.1438596,-0.9783726,-0.2076783999999999,0.113193,-61.9091166,77.2404908,-97.0516602,88.95103297140632,0.9567560034854864,45.560851462601725,1.0065564651356227,-42.8120266,140.18598379999997,-244.1128144
5775.708,-13.9004486,70.2715882,54.9022478,0.8526674,-0.1549216,0.4055142,-20.447143,-61.25908559999999,148.26804819999998,30.5296968,35.450618799999994,-3.6009044,-0.9815578,-0.20259,0.1021512,-64.2587542,77.4938218,-100.0840486,90.25284146731462,0.9568093663687454,46.92307825048121,1.007438976068665,-43.8116112,138.7529074,-248.3520968
5795.693,-13.6384532,71.71932519999999,56.06346979999999,0.8367549999999999,-0.17277,0.4280244000000001,-21.6717018,-59.52362579999999,149.3567994,30.4302418,35.97101740000001,-4.220301399999999,-0.9811624,-0.1971986,0.0924692,-66.7676278,77.71553660000001,-103.2750016,92.04771403379584,0.9556219388023488,47.3045944143316,1.0050460168392092,-45.095926000000006,137.2391624,-252.631801
5815.679,-13.599958,73.4553238,56.84823300000001,0.814907,-0.1937968,0.4548686,-22.7771064,-57.7342148,150.3263094,30.4437798,36.0291672,-4.235599599999999,-0.982026,-0.1965598,0.0878182,-69.3600342,77.90728920000001,-106.5498032,93.87419798531916,0.9531715803595908,47.35889485205461,1.0053471320411074,-46.5829278,135.641504,-256.87611260000006
5835.663,-13.720218,74.7000122,57.3807814,0.79372,-0.2191168,0.4810375999999999,-23.7833824,-55.903392,151.19203499999998,30.972840400000003,35.202704600000004,-4.4349054,-0.984831,-0.2009249999999999,0.0748105999999999,-71.9701752,78.0572008,-109.850911,95.1887087774714,0.9536250746787228,47.09793667991924,1.0078985961188556,-48.1867928,133.9605928,-261.04294600000003
5855.649,-13.782109600000002,75.9705872,57.715892,0.7767068,-0.2391698,0.5057748,-24.6913556,-54.0369248,151.9553834,31.9027484,34.4625026,-4.2260284,-0.9895578,-0.1944012,0.0639704,-74.551921,78.18109,-113.1405136,96.39813719100012,0.9572271385169352,47.15197511203869,1.0104992222552376,-49.8605654,132.2180148,-265.095897
5875.634,-13.5172528,77.96229100000001,57.574201,0.756599,-0.2552729999999999,0.5252508,-25.4870308,-52.1292764,152.60408940000002,32.3782744,33.5496936,-3.1916186,-0.9931382,-0.1853648,0.0592319999999999,-77.05713180000001,78.2947176,-116.3608902,97.85511515509135,0.9557691950626156,46.73458059150036,1.0120237266004588,-51.570101,130.423994,-268.9649796
5895.619,-13.217934,79.758606,56.9403358,0.7350026,-0.2730734,0.54789,-26.1777244,-50.1881166,153.1429474,32.3341648,32.1072288,-1.9256646,-0.9910536,-0.1859292,0.0530669999999999,-79.4466872,78.3988802,-119.4612504,98.88554419786722,0.9565465780056503,45.60789995911675,1.0097390811366074,-53.26896280000001,128.5869968,-272.6041978
5915.604,-13.5251938,80.8213456,55.9973518,0.7119045999999999,-0.2928362,0.5730212,-26.791016000000003,-48.2290886,153.5866698,32.005155200000004,30.6998946,-0.9789365999999996,-0.9893006,-0.1885568,0.0471214,-81.7299452,78.4895938,-122.4455354,99.25081450816997,0.959642899823179,44.35957399134956,1.0082111734773425,-54.9389292,126.7186824,-276.0322052
5935.589,-13.478045,81.4127274,54.7318932,0.6916414000000001,-0.3129194,0.59188,-27.3310818,-46.2682854,153.9443848,31.245572400000004,29.2935606,-0.1521651999999998,-0.9890412,-0.184367,0.0372436,-83.91600919999999,78.57125880000001,-125.314084,99.02156337376694,0.9626049612849084,42.8301487445188,1.0067674864274272,-56.584927400000005,124.8395442,-279.2584688
5955.574,-13.2450172,82.4250304,53.3322716,0.6702201999999999,-0.325952,0.6113846000000001,-27.7930336,-44.301445,154.2134094,30.152459800000003,27.2758074,0.8525560000000002,-0.9941932,-0.1854122,0.0300126,-85.9453702,78.6484072,-127.9996706,99.06385471545808,0.96396626077327,40.66776798701457,1.0117798965159568,-58.1523366,122.9498522,-282.21308000000005
5975.56,-14.3843494,83.34593339999999,52.0332636,0.6466687999999999,-0.3419924,0.6282626,-28.2204522,-42.32927,154.40835579999998,29.366416000000005,24.902729,1.3015084,-0.9979346,-0.1982888,0.0213538,-87.7878676,78.7061418,-130.4776566,99.30213815847874,0.9642889780091648,38.52565670365358,1.0176678725679809,-59.5674154,121.0354118,-284.8860124
5995.545,-16.5916562,83.8630874,51.22446600000001,0.6212388,-0.3604634,0.6508822000000001,-28.6526532,-40.3518858,154.5516174,29.3475148,22.4944812,1.2427906000000004,-0.998552,-0.2036811999999999,0.0106224,-89.4232284,78.7437654,-132.7431762,99.66065623255844,0.9692879590925704,36.99760583968672,1.019168760961206,-60.77057520000001,119.0956512,-287.2947936
6015.53,-18.2456994,84.673532,50.8474756,0.5963142,-0.3784762,0.662281,-29.0900102,-38.36436679999999,154.65401,29.4011564,20.1322908,1.0184032000000005,-1.0002445999999998,-0.2007142,0.0039808,-90.83515020000002,78.7662308,-134.7817168,100.43892842340952,0.9682205234599606,35.647921055663204,1.0201917940659195,-61.745140000000006,117.13059760000002,-289.4357268
6035.515,-19.8409066,85.7327774,50.7527894,0.5700096,-0.3882971999999999,0.6752544,-29.530343400000003,-36.3604224,154.71686699999998,28.7348162,17.2210476,0.8608796000000003,-1.001586,-0.202308,0.0035926,-91.9606354,78.7762954,-136.5151244,101.58551238886687,0.9652223393287994,33.51112138044539,1.021819920061632,-62.430292,115.1367178,-291.2319914
6055.5,-22.0121802,86.5023424,50.8340226,0.5392243999999999,-0.4099567999999999,0.6826942,-30.0017014,-34.3413642,154.7541656,27.710988800000003,14.6683348,-0.0985347999999998,-0.9972368,-0.2028754,8.420000000000024e-05,-92.8483688,78.76204519999999,-137.98542460000002,102.71946831804291,0.9617166433701976,31.3539256742346,1.0176638297046037,-62.8466674,113.1034094,-292.7395902
6075.485,-23.6422924,87.24209920000001,51.2328102,0.5055486,-0.4218512,0.7006058,-30.4891342,-32.30174480000001,154.7674804,26.160188800000004,11.8120468,-1.029996,-0.9949108,-0.2000207999999999,-0.0013591999999999,-93.4713866,78.729361,-139.1546324,103.898713677018,0.9614501073363296,28.721783012498577,1.0148190320514885,-62.98225239999999,111.0311058,-293.92211280000004
6095.47,-24.607571,88.42583640000001,51.5925568,0.4722592,-0.4354332,0.7015803999999999,-30.984526400000004,-30.2390864,154.7546998,24.0750734,9.7238944,-2.0002388,-0.995078,-0.1924963999999999,-0.0029917999999999,-93.9186248,78.6817688,-140.10234359999998,105.2922267345545,0.951233873088548,26.04158667928597,1.013530483490359,-62.9340984,108.9208552,-294.8570434
6115.456,-25.7219326,89.6179506,51.7093704,0.434706,-0.4482,0.718271,-31.484293,-28.1502074,154.70824,22.63195,7.741489400000001,-2.5100194,-0.9934904,-0.1919976,-0.0053809999999999,-94.1930174,78.62560579999999,-140.8445158,106.6154485690858,0.9517172772819668,24.05069679492028,1.011886954387159,-62.7087244,106.7758132,-295.5527558
6135.441,-27.144326,90.9461274,51.8431198,0.3974764,-0.460218,0.7258321999999999,-31.998679600000003,-26.0351222,154.62860740000002,22.0481456,6.155915200000001,-3.0383576,-0.9933192,-0.1922843999999999,-0.0033515999999999,-94.3068098,78.560988,-141.411563,108.14675951524605,0.9469004586744058,23.092155231893543,1.011764575775689,-62.30813020000001,104.5961102,-296.0401704
6155.426,-28.6754138,93.0327606,52.189347,0.3634741999999999,-0.4658243999999999,0.7307648,-32.527005599999995,-23.8827796,154.50894200000002,21.168951400000005,4.4976062,-3.014908,-0.9946994,-0.192577,-0.0040768,-94.274443,78.49968580000001,-141.811682,110.45859786247765,0.9397462735334682,21.85046075382175,1.0131778805262184,-61.7474374,102.3824654,-296.320624
6175.411,-29.680873400000003,94.93219,52.43393160000001,0.3266327999999999,-0.4837349999999999,0.733092,-33.068701,-21.6953342,154.35282320000002,21.4196868,3.3981456000000003,-2.7183312,-0.9896474000000002,-0.1901711999999999,-0.0049044,-94.1338532,78.44727800000001,-142.1064574,112.43839258463456,0.9370765266107351,21.85725739066517,1.0077654066178103,-61.0651522,100.1426122,-296.4592806
6195.396,-30.7773006,96.7006622,53.014324,0.2888808,-0.4912526,0.7460522,-33.6206152,-19.470373,154.16404440000002,21.8223822,2.3558368,-2.5512898,-0.9863964,-0.1962845999999999,0.000497,-93.870227,78.3966982,-142.284616,114.49357558971704,0.93881580660971,22.09695480274816,1.0057364213048663,-60.2496118,97.8670712,-296.4486604
6215.381,-32.1145812,97.9904068,53.9809202,0.2483092,-0.5063356000000001,0.7504614000000001,-34.1999136,-17.2120864,153.95670479999998,21.0238928,1.0352016,-3.2264598,-0.9824542,-0.199235,0.0054432,-93.4809174,78.3329944,-142.3188048,116.3933241046051,0.9387361245429732,21.29520494523475,1.0024671908590723,-59.28100380000001,95.5450808,-296.2755096
6235.367,-32.3755748,98.7481018,55.4020362,0.2059813999999999,-0.520856,0.7565367999999999,-34.7887748,-14.922544000000002,153.74348460000002,18.866078800000004,0.5658334,-4.260965799999999,-0.9778962,-0.1988016,0.0047578,-93.0923006,78.24976219999999,-142.309506,117.76566166688688,0.9413114466722478,19.349545893202112,0.997910662733814,-58.3035258,93.1723062,-296.05299060000004
6255.352,-32.8097332,99.3178756,56.856639,0.1582344,-0.5330458,0.7606122,-35.392453800000006,-12.6020398,153.525467,17.3479376,0.7829732,-5.1104258,-0.9762336,-0.19768,0.0026482,-92.7614458,78.1506716,-142.327835,119.05123436877328,0.9421819723545128,18.101945692734738,0.9960504189709474,-57.368992000000006,90.7527114,-295.853302
6275.337,-34.5585674,99.4809402,58.239521,0.1114411999999999,-0.5400794,0.7717556,-36.0332612,-10.2598184,153.30405879999998,16.8838732,1.3001740000000002,-5.743792000000001,-0.9781702,-0.203364,0.0044834,-92.4831636,78.0365998,-142.3906096,120.34364898126432,0.9485312886210764,17.88146451505632,0.9990965706775295,-56.449902400000006,88.2964182,-295.6946684
6295.322,-36.736209,99.4549744,59.4318994,0.0670374,-0.557142,0.7695788,-36.7292726,-7.9028392,153.0779418,16.320521000000003,2.0509578,-6.255794399999999,-0.978812,-0.2041107999999999,0.0014484,-92.2946154,77.9125062,-142.5331878,121.54419628632236,0.95244566804212,17.598318021444356,0.9998681152448056,-55.5653428,85.8153454,-295.6111296
6315.307,-38.0603562,99.8095642,60.4992464,0.0272726,-0.5718816,0.7752334000000001,-37.4580742,-5.5309442,152.8369934,16.944212200000003,3.2650142000000004,-5.918216200000001,-0.980276,-0.1993802,-0.0006015999999999,-92.2153688,77.79827579999998,-142.79993280000002,122.76277381532527,0.9637319044240884,18.24258555673436,1.0003468709655663,-54.7572946,83.32921999999999,-295.6369262
6335.292,-38.8910478,100.2946808,60.965883,-0.009318,-0.5886724,0.7646666000000001,-38.2159354,-3.150482,152.5685058,16.5982388,3.8157929999999993,-5.452107,-0.9797512,-0.2021882,-0.0035215999999999,-92.2022248,77.6924362,-143.12688899999998,123.64617052592232,0.96505804426538,17.882597077050175,1.0004023609464543,-53.9862894,80.8429182,-295.69539480000003
6355.278,-40.5948282,100.6457856,61.402520200000005,-0.039026,-0.5985150000000001,0.7648088,-39.01547839999999,-0.7689502000000001,152.2711272,16.2125314,4.213008599999999,-5.55912,-0.9798867999999998,-0.2086098,0.0065316,-92.203798,77.58186939999999,-143.4623838,124.69075235373349,0.9719443062534192,17.64934647611803,1.0018676815172949,-53.1883196,78.3508196,-295.733511
6375.263,-42.2181314,100.9958954,62.0795146,-0.0679148,-0.6221436,0.7509378,-39.86730179999999,1.6148891999999997,151.94615779999998,13.0495482,3.6033088,-6.226016799999999,-0.980535,-0.2080422,0.0117353999999999,-92.1970382,77.4600326,-143.7253202,125.84278938233616,0.9775390828753804,14.900933787053848,1.002431126222146,-52.3297364,75.84514340000001,-295.67147800000004
6395.248,-42.451887,101.176065,63.22765059999999,-0.1018828,-0.6383044,0.7397921999999999,-40.7403716,4.0077392,151.600232,11.5402096,2.8959722,-6.4809988,-0.9807028,-0.2145934,0.0172389999999999,-92.140515,77.3313002,-143.9072202,126.63528196810188,0.9823976339426108,13.548669235046903,1.004054526593252,-51.400143400000005,73.32356100000001,-295.5074522
6415.233,-43.6158556,101.3270278,64.2444018,-0.1339538,-0.6445386,0.7202198,-41.6542518,6.405809199999998,151.2298736,9.085533000000002,1.9224554,-7.2468006,-0.9813116,-0.2195436,0.0226664,-92.0300704,77.18662859999999,-143.9843932,127.65912652506232,0.97575108902652,11.77959522204556,1.005825836954132,-50.3758186,70.78081940000001,-295.2142668
6435.218,-45.6918694,101.561592,65.1520854,-0.1763726,-0.6591750000000001,0.7184326,-42.627311,8.812389999999999,150.82862540000002,7.551473400000001,0.9001556000000001,-7.366230400000001,-0.9794788,-0.2131974,0.0291182,-91.8455902,77.045192,-143.95507200000003,129.02440905041965,0.9908402370708004,10.58755783554466,1.0028358393014485,-49.2182792,68.232802,-294.7836974
6455.203,-46.4442764,101.1821166,65.971876,-0.2212148,-0.6703924,0.6974986000000001,-43.6415886,11.219993,150.3996734,4.630603200000001,0.2918292,-7.7107778,-0.9762784,-0.2120932,0.0321486,-91.6613128,76.89898400000001,-143.86645819999998,129.41089580454565,0.9924042798772889,8.999096874620015,0.999568192908698,-48.0197242,65.678991,-294.2661316
6475.189,-47.6271996,100.7050062,66.6024584,-0.2686406,-0.6752428,0.6877116,-44.7000214,13.623538399999996,149.94006639999998,1.587815200000001,0.4089032,-8.410961799999999,-0.9707336,-0.2144384,0.024016,-91.5698562,76.73799460000001,-143.8095186,129.79112404322572,1.0005337853839618,8.569284528907913,0.9944266276701966,-46.8698348,63.114456200000006,-293.749585
6495.174,-48.9444756,100.1691588,66.862903,-0.3140112,-0.6831539999999999,0.6723222000000001,-45.81185000000001,16.016593,149.4409758,-1.3715015999999989,1.0418136,-8.8785162,-0.9690804,-0.2132858,0.0198846,-91.5987228,76.5692386,-143.8148958,130.00026870759163,1.0086226063569466,9.044027981469869,0.9924731993676,-45.7868728,60.552645600000005,-293.2558716
6515.159,-49.0535058,98.904361,66.780475,-0.3645532,-0.6967242,0.6659113999999999,-46.9530372,18.3831516,148.9070068,-3.1211209999999987,2.2524042,-8.929105999999999,-0.9654016,-0.216841,0.0112385999999999,-91.779213,76.3976092,-143.93918159999998,129.0269386497044,1.0304181865368254,9.723356155981053,0.9895183549048092,-44.8261758,58.0144576,-292.8461884
6535.144,-47.579958600000005,97.5274552,66.4980104,-0.4048178,-0.6992503999999999,0.6445756,-48.098374,20.7157794,148.3340912,-3.0714721999999983,4.107421,-8.7377136,-0.9670898,-0.2269654,0.0092548,-92.1088302,76.2243868,-144.2179292,127.26917287907638,1.0335890272310169,10.131756397695256,0.9934090926623532,-44.0104562,55.5086074,-292.5520204
6555.129,-46.1790644,95.7249054,65.8413584,-0.4470634,-0.7089006,0.6301456,-49.2512496,23.0026938,147.7229462,-1.5817743999999987,5.9464326,-8.0898246,-0.965405,-0.232836,-0.0033613999999999,-92.5776946,76.0599596,-144.6693758,125.023389726305,1.048565315800251,10.164021496317453,0.9930914942395588,-43.326445,53.0572658,-292.39232200000004
6575.114,-43.8366358,94.1461702,64.927643,-0.4800586,-0.7095212,0.6088718,-50.397283,25.2400524,147.0663758,0.7997590000000014,7.964150999999999,-7.024876400000001,-0.972287,-0.2294643999999999,-0.0024439999999999,-93.147734,75.9183244,-145.274695,122.47755233970288,1.0510002195616517,10.649704411116725,0.9990004476337137,-42.750451000000005,50.67827200000001,-292.3410708
6595.099,-41.6825814,92.4364336,63.18373219999999,-0.512531,-0.7161502000000001,0.6010861999999999,-51.54320740000001,27.4097988,146.3558502,1.6577474000000012,8.835658200000001,-6.2127232,-0.9781152,-0.2256222,0.0032864,-93.7458312,75.7953384,-145.9279542,119.47433140041484,1.0662381322910377,10.9277130191661,1.003805520023097,-42.202623800000005,48.3855396,-292.2838044
6615.085,-38.3508866,91.1863038,61.5562946,-0.5321225999999999,-0.7158677999999999,0.5738726,-52.677117,29.517577,145.58255000000003,0.6303354000000014,8.570692,-4.8541856,-0.9817836,-0.2259354,0.0058036,-94.3318952,75.70039220000001,-146.54847719999998,116.51141535744016,1.0606370394901168,9.870015294547647,1.007461921848702,-41.6547782,46.1828152,-292.1310272
6635.07,-35.8645874,90.1162446,60.0781802,-0.5468741999999999,-0.7126178000000001,0.5487728,-53.8201614,31.5660028,144.74334100000002,-0.5273775999999987,7.6062072,-3.7217938,-0.9839222,-0.2284419999999999,0.0057132,-94.8616224,75.62830360000001,-147.0875,114.09028839617744,1.0526381645761853,8.484354082193414,1.01010954043167,-41.041461000000005,44.0623008,-291.830841
6655.055,-34.5034226,89.6625002,58.7593126,-0.5609256,-0.7083546000000001,0.5269322,-55.001599,33.5637872,143.8274626,-2.497732599999998,5.8965228000000005,-2.5447118,-0.9911076,-0.2298212,0.013952,-95.2776044,75.58286899999999,-147.47009880000002,112.6166370056117,1.0459738579301876,6.89080600634511,1.0175002295091635,-40.2760054,42.0190818,-291.2975614
6675.04,-32.502408200000005,89.0698,57.9394106,-0.583958,-0.7124984,0.5145018,-56.2054488,35.516842999999994,142.8427306,-4.8585558,2.9454912,-0.8806227999999999,-0.9923758,-0.2289988,0.0206704,-95.503497,75.57672439999999,-147.60896300000002,111.11620544058738,1.0551649245354016,5.74951992664352,1.018664539612153,-39.2980482,40.0598814,-290.45169360000006
