Timestamp (ms),Wrist Gyroscope X (deg/s),Wrist Gyroscope Y (deg/s),Wrist Gyroscope Z (deg/s),Wrist Accelerometer X (g),Wrist Accelerometer Y (g),Wrist Accelerometer Z (g),Wrist Roll (deg),Wrist Pitch (deg),Wrist Yaw (deg),Arm Gyroscope X (deg/s),Arm Gyroscope Y (deg/s),Arm Gyroscope Z (deg/s),Arm Accelerometer X (g),Arm Accelerometer Y (g),Arm Accelerometer Z (g),Arm Roll (deg),Arm Pitch (deg),Arm Yaw (deg),Wrist Gyroscope Magnitude (deg/s),Wrist Accelerometer Magnitude (g),Arm Gyroscope Magnitude (deg/s),Arm Accelerometer Magnitude (g),Difference Roll (deg),Difference Pitch (deg),Difference Yaw (deg)
0.0,8.799510955810547,-2.876054048538208,11.296323776245115,-0.9273854494094848,0.2146060913801193,0.2866012156009674,38.43123245239258,66.02600860595703,-72.9765396118164,-7.029898643493652,-5.086779594421387,6.940023422241211,-1.0370265245437622,0.077186033129692,-0.0629435628652572,127.7162094116211,81.5330810546875,15.359127044677734,14.605136452950504,0.994102511322568,11.11119825587107,1.0417982474662668,89.28497695922852,15.507072448730469,88.33566665649414
10.817,11.719533920288086,-0.2461154013872146,11.208941459655762,-0.9680973887443542,0.2266702950000763,0.3550575375556946,38.99087524414063,65.8888168334961,-72.54862213134766,0.0384394079446792,-7.300224304199219,9.316999435424805,-1.0734593868255615,0.1094554811716079,-0.0606180131435394,126.14066314697266,81.49088287353516,13.72876262664795,16.218767423746257,1.055773570281134,11.836436581987428,1.080726654172964,87.14978790283203,15.602066040039062,86.2773847579956
32.43,8.233527183532715,0.8063914775848389,9.404584884643556,-0.961801290512085,0.247596874833107,0.3508078157901764,39.46329116821289,65.78428649902344,-72.16349792480469,-0.1392886042594909,-7.119913101196289,6.541000843048096,-1.0452241897583008,0.097885325551033,-0.0847075134515762,124.91481018066406,81.48259735107422,12.457262992858888,12.525472204653989,1.0532958076804957,9.669397908485257,1.0532096214188689,85.45151901245117,15.69831085205078,84.62076091766357
50.521,8.467836380004883,1.9466073513031008,6.521290302276611,-0.9857124090194702,0.2232491374015808,0.2560054063796997,39.92229461669922,65.78343963623047,-71.81096649169922,-0.0235804915428161,-5.835874080657959,5.583012104034424,-1.0369127988815308,0.091694951057434,-0.1168609112501144,124.02597045898438,81.46446990966797,11.525009155273438,10.863736021518951,1.0425967095388091,8.076385731171566,1.0474982525579517,84.10367584228516,15.6810302734375,83.33597564697266
73.101,10.110265731811523,1.4790760278701782,5.66264009475708,-0.9742084741592408,0.1912927478551864,0.2351922839879989,40.3521728515625,65.80247497558594,-71.51741790771484,0.2362940013408661,-3.444108247756958,2.9465596675872803,-0.98121839761734,0.1031294018030166,-0.1315352469682693,123.63797760009766,81.44778442382812,11.09209156036377,11.682064539575746,1.0202894084293708,4.538714614512488,0.9953525699640264,83.28580474853516,15.645309448242188,82.60950946807861
95.228,15.106225967407228,-0.9579755663871764,4.172158241271973,-0.9312695264816284,0.2104518264532089,0.3023052513599396,40.71694946289063,65.76143646240234,-71.38505554199219,-3.7949278354644775,1.2141170501708984,0.495449423789978,-0.9534070491790771,0.0942862778902053,-0.1424873173236847,123.91950225830078,81.41844177246094,11.406010627746582,15.701040874871222,1.001469603737729,4.015099951362682,0.9685956531085842,83.20255279541016,15.657005310058594,82.79106616973877
110.628,11.438379287719728,-3.4230573177337646,4.112771034240723,-0.934037983417511,0.2778778076171875,0.316582441329956,40.98896408081055,65.65616607666016,-71.28177642822266,-4.159040927886963,4.704898357391357,-0.9647483825683594,-0.954284965991974,0.0839884281158447,-0.1313642263412475,124.65705108642578,81.38255310058594,12.188594818115234,12.628092797818514,1.024630407801379,6.353300672476552,0.9669386807538044,83.66808700561523,15.72638702392578,83.47037124633789
133.326,1.8877993822097776,-5.582208633422852,2.6235127449035645,-0.8918870687484741,0.2567356824874878,0.2848601937294006,40.96225357055664,65.54915618896484,-71.33595275878906,-1.9673453569412231,5.22615385055542,-2.027084827423096,-0.9474151134490968,0.1125364601612091,-0.1003489941358566,125.39713287353516,81.35291290283203,12.953287124633787,6.4503998990142986,0.9708352507169346,5.9407242589369815,0.9593381951540648,84.43487930297852,15.803756713867188,84.28923988342285
154.915,0.7042424082756042,-3.805315971374512,1.3696253299713137,-0.8601192831993103,0.1947058290243148,0.2392099797725677,40.89853286743164,65.52152252197266,-71.40406036376953,-2.4631216526031494,3.076334476470948,-1.2941851615905762,-0.9590481519699096,0.100592017173767,-0.0638671591877937,125.7464370727539,81.3550033569336,13.33935832977295,4.105150491286622,0.9137488471183608,4.147977497422988,0.9664218156367878,84.84790420532227,15.833480834960938,84.74341869354248
178.58499999999998,11.804012298583984,-1.9924707412719729,1.69753897190094,-0.8539724946022034,0.229489117860794,0.2766206562519073,41.121768951416016,65.4864273071289,-71.40198516845703,1.208404302597046,-0.2470954060554504,-0.5050346255302429,-0.9900588989257812,0.0684224218130111,-0.0524828098714351,125.79312896728516,81.40380096435547,13.342784881591797,12.090752026283118,0.926527530200194,1.3328004618896383,0.9938071726853702,84.67136001586914,15.917373657226562,84.74477005004883
201.266,12.359015464782717,0.1198468059301376,2.317183256149292,-0.8855671882629395,0.2742191553115845,0.3549165725708008,41.41024398803711,65.43528747558594,-71.33666229248047,6.214837074279785,-2.357714891433716,-1.0494706630706787,-0.9822487831115724,0.0921176895499229,-0.0405615828931331,125.66618347167967,81.47842407226562,13.071728706359863,12.574933986236612,0.9926687078543032,6.729369067139714,0.9873923144621782,84.25593948364258,16.043136596679688,84.40839099884033
210.163,2.638164758682251,3.40613317489624,1.0426675081253052,-0.8738657832145691,0.2762858271598816,0.2882576286792755,41.61940002441406,65.47320556640625,-71.15608978271484,2.400301694869995,-2.237625360488892,-1.272265911102295,-0.9834527373313904,0.13900987803936,-0.0353564321994781,125.37059020996094,81.53404998779297,12.71167278289795,4.432698053283345,0.9607641364322624,3.519527813336864,0.9938576910478676,83.75119018554688,16.06084442138672,83.8677625656128
232.356,4.311117649078369,5.642159461975098,-0.1942135691642761,-0.9080319404602052,0.2549894154071808,0.262974351644516,41.88618087768555,65.58567810058594,-70.9653091430664,1.0931860208511353,-2.7548978328704834,-0.2507683038711548,-1.021546721458435,0.1032890155911445,-0.0496796853840351,125.04084014892578,81.59262084960938,12.326668739318848,7.103338488978098,0.9791307964151036,2.974458352030709,1.0279564173660876,83.15465927124023,16.006942749023438,83.29197788238525
252.283,9.214266777038574,9.14793586730957,0.4676678478717804,-0.9103524684906006,0.2774821817874908,0.2683542668819427,42.39364242553711,65.7297592163086,-70.6268310546875,3.644303798675537,-4.624109268188477,-0.4613023400306701,-1.0241538286209106,0.1061581671237945,-0.0438615605235099,124.54598999023438,81.6760482788086,11.72227954864502,12.992542325764376,0.9888134256017264,5.905602132730014,1.0305748190294146,82.15234756469727,15.9462890625,82.34911060333252
274.78000000000003,9.973369598388672,11.569867134094238,-2.081563949584961,-0.8880972266197205,0.2891359627246856,0.330669641494751,42.85821914672852,65.9076156616211,-70.34386444091797,12.049816131591797,-7.268770217895508,0.106523722410202,-0.9938979148864746,0.1343104839324951,-0.069831408560276,123.89446258544922,81.7543716430664,10.79173469543457,15.41631717119459,0.990786909823014,14.072826176329002,1.005360033486201,81.0362434387207,15.846755981445312,81.13559913635254
295.14,8.34540843963623,11.784255981445312,-2.9648118019104004,-0.9050273299217224,0.2860144078731537,0.3341541290283203,43.26258850097656,66.10189056396484,-70.08859252929688,16.13113784790039,-6.492717742919922,0.9036742448806764,-0.9760875105857848,0.130372017621994,-0.0941473171114921,123.43462371826172,81.80134582519531,9.975512504577637,14.74125639426058,1.006249318689433,17.41222613849396,0.9892458787478856,80.17203521728516,15.699455261230469,80.06410503387451
318.436,5.088701248168945,11.063862800598145,-3.86476731300354,-0.9303267002105712,0.285268485546112,0.2621498703956604,43.62028884887695,66.32865905761719,-69.8315200805664,12.036041259765623,-7.34495735168457,0.4859568178653717,-1.004008650779724,0.1086298376321792,-0.0954023748636245,122.87281799316406,81.87567901611328,9.142064094543455,12.776555359220897,1.0077739987313248,14.108537902053335,1.0143645427528187,79.25252914428711,15.547019958496094,78.97358417510986
340.126,2.920259952545166,10.607551574707031,-3.431982040405273,-0.9385770559310912,0.2764450013637543,0.2474016994237899,43.94215774536133,66.55049133300781,-69.54649353027344,11.56139087677002,-8.234872817993164,-0.6490583419799805,-0.9857905507087708,0.0930163115262985,-0.1307597309350967,122.43001556396484,81.97242736816406,8.444215774536133,11.525040968524712,1.0092355173977283,14.20915782392741,0.9987658140479568,78.48785781860352,15.42193603515625,77.99070930480957
350.742,4.168335437774658,8.34237289428711,-3.169741630554199,-0.945183277130127,0.2825566530227661,0.2477747350931167,44.23245620727539,66.73249053955078,-69.33055877685547,12.04849338531494,-6.963131427764893,-0.068374827504158,-0.973971426486969,0.1176335886120796,-0.1383685767650604,122.0719223022461,82.02852630615234,7.826708316802978,9.849744556769618,1.0171538766992625,13.9160363341485,0.990759236050215,77.8394660949707,15.296035766601562,77.15726709365845
372.51,5.123723030090332,4.446488380432129,-2.6968295574188232,-0.9377574324607848,0.3112777471542358,0.291495531797409,44.41686630249024,66.82209777832031,-69.25019073486328,8.00948429107666,-5.215578556060791,-0.125862181186676,-0.9714609384536744,0.1594797968864441,-0.1207125484943389,121.69195556640624,82.05057525634766,7.266526222229004,7.300457949208652,1.03017109407453,9.55876244982048,0.9918375269771924,77.27508926391602,15.228477478027344,76.51671695709229
399.768,1.7456095218658447,2.4685213565826416,-4.009451389312744,-0.9094123840332032,0.3089996576309204,0.2882346212863922,44.42658233642578,66.89633178710938,-69.28670501708984,0.6864041090011597,-1.8031094074249268,-2.564390182495117,-0.9631117582321168,0.1862740963697433,-0.0991971790790557,121.6251449584961,82.07038116455078,7.167318344116211,5.021598424206699,1.0027915384351276,3.209119995275229,0.9859626657032028,77.19856262207031,15.174049377441406,76.45402336120605
420.919,2.782275438308716,0.6678290963172913,-3.1787352561950684,-0.906894326210022,0.3130774199962616,0.2729707956314087,44.446250915527344,66.9363784790039,-69.33899688720703,-3.877842903137207,0.1947361528873443,-2.1502013206481934,-0.9751601219177246,0.1219016090035438,-0.0596380233764648,121.67686462402344,82.10678100585938,7.280176162719727,4.276845817361371,0.9974907744390872,4.438350309514809,0.9845577481735116,77.2306137084961,15.170402526855469,76.61917304992676
429.993,1.6320359706878662,1.2475396394729614,-5.854090690612793,-0.8928620219230652,0.2851022779941559,0.2259489297866821,44.39250564575195,67.0466537475586,-69.47392272949219,-0.0363600850105285,-0.4673221409320831,-1.1150662899017334,-0.9777085185050964,0.1085840761661529,-0.0415596291422843,121.61312103271484,82.14411926269531,7.198716640472412,6.2040530603465,0.964125934710683,1.2095804520835045,0.9845972026817524,77.22061538696289,15.09746551513672,76.6726393699646
451.173,5.150822162628174,2.914304494857788,-3.981046915054321,-0.8858758211135864,0.2675642967224121,0.267805278301239,44.463661193847656,67.14212036132812,-69.54080963134766,8.437824249267578,-1.729032278060913,-1.80863893032074,-0.9836885929107666,0.0955584421753883,-0.0329166091978549,121.61476135253906,82.21600341796875,7.012767791748047,7.132522287356235,0.9633723529353716,8.801000253401668,0.9888671128391496,77.1511001586914,15.073883056640623,76.5535774230957
472.32,7.2901291847229,4.2562665939331055,-2.302210807800293,-0.885838508605957,0.3135547041893005,0.3227594494819641,44.66920471191406,67.19467163085938,-69.48641204833984,11.89659595489502,-0.9340441226959229,-2.390048027038574,-0.9699805974960328,0.1046487838029861,-0.0350783541798591,121.81291961669922,82.2824478149414,6.950627326965332,8.74996934006811,0.9935794271613954,12.170199805620214,0.97623983651671,77.14371490478516,15.087776184082031,76.43703937530518
489.778,1.673357009887695,4.175922393798828,-2.5435433387756348,-0.8968425393104553,0.3237311542034149,0.299846351146698,44.784915924072266,67.2563247680664,-69.39306640625,12.252375602722168,1.0174758434295654,-1.8250705003738403,-0.9589179754257202,0.1194896101951599,-0.067896194756031,122.30030822753906,82.29943084716797,7.170400619506836,5.16798454310776,0.9995180012459454,12.429273805555937,0.9687163381514232,77.5153923034668,15.043106079101562,76.56346702575684
512.263,0.673555314540863,2.0935535430908203,-2.220792293548584,-0.9125759601593018,0.2804350256919861,0.2548726499080658,44.8231086730957,67.31961059570312,-69.36446380615234,8.270907402038574,2.383855104446411,-0.9340061545372008,-0.9661619067192078,0.1235090345144271,-0.0832932516932487,122.8486785888672,82.27975463867188,7.531646728515625,3.1254698223817723,0.9881289158640668,8.658119998521911,0.977579192382702,78.02556991577148,14.96014404296875,76.89611053466797
535.3710000000001,3.2888991832733154,1.0757560729980469,-0.7968796491622925,-0.908689558506012,0.2876619398593902,0.2598296999931335,44.929500579833984,67.3425064086914,-69.32976531982422,6.787651062011719,3.1946892738342285,-1.4309355020523071,-0.975414514541626,0.1253615617752075,-0.0725492909550666,123.45492553710938,82.26253509521484,7.978145599365234,3.5509331367370294,0.9879157749423988,7.63713446961712,0.9861097281577126,78.52542495727539,14.920028686523438,77.30791091918945
549.8629999999999,2.47201943397522,-0.4894122183322906,-1.7418533563613892,-0.9178720116615297,0.2972508072853088,0.3143948912620544,44.88721084594727,67.33479309082031,-69.4305191040039,5.41834020614624,5.08447790145874,-1.3153395652770996,-0.977472186088562,0.1212638393044471,-0.0784137099981308,124.2718734741211,82.22174835205078,8.665590286254883,3.063406195148064,1.0147370200574284,7.54588923135945,0.9880817290160152,79.38466262817383,14.886955261230469,78.09610939025879
572.655,0.9745849967002868,-3.1133933067321777,-0.6112684011459351,-0.935360550880432,0.2933077812194824,0.338591992855072,44.737892150878906,67.2710189819336,-69.60836029052734,3.337113857269287,5.953028678894043,-2.6675586700439453,-0.9887903332710266,0.0892266482114791,-0.0516177490353584,125.2303466796875,82.2173080444336,9.556047439575195,3.319138872725504,1.0370985258367742,7.327397123552147,0.9941489375022036,80.4924545288086,14.9462890625,79.16440773010254
594.853,-0.1632563471794128,-5.455489158630371,-0.5672156810760498,-0.934511661529541,0.2735694646835327,0.3560488522052765,44.454872131347656,67.17428588867188,-69.89742279052734,8.500885963439941,8.277122497558594,-3.196056365966797,-0.9784108400344848,0.0716976299881935,-0.0821400731801986,126.74153137207033,82.18851470947266,10.903681755065918,5.487326145190064,1.0367849741863704,12.287823049565684,0.9844670201001954,82.28665924072266,15.01422882080078,80.80110454559326
617.114,3.443385124206543,-8.801403999328613,0.0526791810989379,-0.9261806011199952,0.2755051851272583,0.2807750105857849,44.236083984375,67.04654693603516,-70.20341491699219,19.85497665405273,5.937669277191162,-1.083302021026611,-0.9930039048194884,0.1039057821035385,-0.1300936192274093,128.07510375976562,82.11986541748047,11.83652114868164,9.451158054393431,1.0062545500480722,20.75209766859821,1.0068651927169725,83.83901977539062,15.073318481445312,82.03993606567383
638.537,2.7722671031951904,-13.517303466796877,0.9934307336807252,-0.9522222876548768,0.3019437789916992,0.3299506902694702,43.86759948730469,66.81765747070312,-70.66446685791016,15.67307949066162,5.313792705535889,-2.191347599029541,-0.9952858090400696,0.1305547654628753,-0.0984515026211738,129.15603637695312,82.07406616210938,12.590372085571287,13.834372502125222,1.052028891612666,16.693825743003817,1.0086283194665808,85.28843688964844,15.25640869140625,83.25483894348145
649.728,-0.4640368521213531,-17.768980026245117,2.6401185989379883,-0.9095518589019777,0.3176133036613464,0.4049577414989471,43.3122673034668,66.46334075927734,-71.23985290527344,5.0130720138549805,4.086078643798828,-4.536466121673584,-0.9986950159072876,0.1529077887535095,-0.0466192550957202,129.8652801513672,82.08834075927734,13.188223838806152,17.970036382536428,1.0450615135458037,7.899775602667272,1.01140787104176,86.55301284790039,15.625,84.42807674407959
672.134,-3.736169815063477,-20.5528507232666,2.3515281677246094,-0.9123679399490356,0.3186068832874298,0.4251587688922882,42.60338973999024,66.06694030761719,-71.9002456665039,2.61440658569336,2.844589948654175,-4.276499271392822,-1.0202934741973877,0.1169053614139556,-0.0318250842392444,130.41648864746094,82.13614654541016,13.678264617919922,21.02161560069716,1.05578671268916,5.763268151797599,1.0274621516162716,87.8130989074707,16.06920623779297,85.57851028442383
694.649,-4.003711700439453,-23.133888244628903,4.109883785247803,-0.9365732669830322,0.3251742720603943,0.4047805666923523,41.92525863647461,65.62103271484375,-72.51596069335938,10.659656524658203,1.3834879398345947,-3.4133334159851074,-1.0013082027435305,0.050269179046154,-0.0835065171122551,131.22662353515625,82.19706726074219,14.262046813964844,23.83479887524663,1.070866517736482,11.277994551871204,1.006040976125561,89.30136489868164,16.576034545898438,86.77800750732422
717.49,-6.17078971862793,-27.48204231262207,4.711548328399658,-0.94079327583313,0.3176897466182709,0.347553551197052,41.17069625854492,65.1270751953125,-73.16692352294922,17.721240997314453,0.9200254678726196,-1.7973809242248535,-0.9943422079086304,0.0964106321334838,-0.1374245733022689,132.012451171875,82.19746398925781,14.68629264831543,28.55766067231557,1.0520514407142336,17.835902206874767,1.0084130848835209,90.84175491333008,17.070388793945312,87.85321617126465
739.692,-6.659329414367676,-32.79014205932617,6.84193229675293,-0.9322564005851746,0.3220467865467071,0.3980398178100586,40.32865905761719,64.50446319580078,-73.90142822265625,21.18977737426757,-1.3039910793304443,-1.6159733533859253,-1.0116562843322754,0.1372512578964233,-0.0982947647571563,132.3755645751953,82.2240982055664,14.631037712097168,34.15189778142943,1.063603227580356,21.291275860897787,1.0256452633351365,92.04690551757812,17.719635009765625,88.53246593475342
749.796,-6.642425537109375,-36.43803405761719,7.169182300567627,-0.8927913308143616,0.3545503914356231,0.4441103935241699,39.44332885742188,63.78663635253906,-74.66759490966797,17.89537811279297,-4.307835578918457,-1.3353890180587769,-1.0219584703445437,0.1515496522188186,-0.0482230372726917,132.13211059570312,82.30065155029297,14.035491943359377,37.72597669854135,1.0583082642031223,18.4549524248744,1.0342590939993748,92.68878173828124,18.514015197753903,88.70308685302734
772.341,-12.394861221313477,-37.57767868041992,6.787511348724365,-0.9010637998580932,0.3309328556060791,0.4547613859176636,38.42873764038086,63.06254577636719,-75.43637084960938,14.90257453918457,-6.345469951629639,0.8240587711334229,-1.0203876495361328,0.1212278231978416,-0.0424757711589336,131.45346069335938,82.38526153564453,13.052285194396973,40.147040115226034,1.0621866335329466,16.218223998368895,1.0284412144496675,93.02472305297852,19.322715759277344,88.48865604400635
797.095,-9.021833419799805,-40.86289596557617,7.939172744750977,-0.9232729077339172,0.2997225522994995,0.4574163556098938,37.46699523925781,62.28740692138672,-76.243896484375,12.73220920562744,-5.918500900268555,2.089788913726806,-0.9925804734230042,0.0810792595148086,-0.0740848034620285,130.85574340820312,82.44596099853516,12.194069862365724,42.59342917421788,1.073077906254623,14.195246453171544,0.9986382731740818,93.38874816894533,20.15855407714844,88.43796634674072
817.053,-1.885987877845764,-46.99900817871094,9.162945747375488,-0.9440784454345704,0.308319479227066,0.4824782609939575,36.59736633300781,61.39576721191406,-77.16516876220703,9.56757354736328,-2.500105142593384,2.3911640644073486,-0.9650276899337769,0.1079419776797294,-0.1241940110921859,130.6395721435547,82.4227523803711,11.77900505065918,47.92101099546279,1.1041423299270603,10.173822039486469,0.9789555992359914,94.04220581054688,21.02698516845703,88.94417381286621
839.554,2.199021577835083,-58.15679168701172,10.738602638244627,-1.0061819553375244,0.3359510004520416,0.5540825724601746,35.66967010498047,60.29386138916016,-78.18798828125,-0.9371843934059144,11.03299617767334,-2.311800718307495,-0.8894704580307007,0.0912365987896919,-0.2171841114759445,132.27879333496094,82.28544616699219,13.443734169006348,59.18078828343176,1.196775960259754,11.311487161508216,0.9201362675960834,96.60912322998048,21.99158477783203,91.63172245025636
849.745,5.624501705169678,-75.99552154541016,13.229575157165527,-1.0805003643035889,0.4068713188171386,0.5615763068199158,34.66962814331055,58.87532424926758,-79.47860717773438,-6.355663299560547,24.502872467041016,-0.644313395023346,-0.8877611756324768,0.0983800068497657,-0.3412955999374389,134.74708557128906,81.95337677001953,16.058542251586914,77.34323482522208,1.2838976811715497,25.32193426388403,0.9561805359056278,100.07745742797852,23.07805252075196,95.53714942932127
874.5889999999999,12.286453247070312,-96.19493103027344,12.901100158691406,-1.1258662939071655,0.3604089617729187,0.3919459581375122,33.5593147277832,57.17301559448242,-81.08403015136719,-18.370838165283203,37.2602424621582,-1.510491132736206,-0.9643322229385376,0.1044739186763763,-0.3097333610057831,138.08126831054688,81.41210174560547,19.82152557373047,97.83077263630342,1.2454281053448335,41.57036139722528,1.0182269839289857,104.52195358276369,24.239086151123047,100.90555572509766
899.559,19.18331718444824,-111.5229263305664,23.233051300048828,-1.0422757863998413,0.4307425022125244,0.7279906868934631,32.6798095703125,54.99674224853516,-82.59222412109375,-19.908187866210938,39.18745422363281,-1.4399096965789795,-1.083374261856079,0.1304673999547958,-0.1384927034378051,141.01153564453125,80.8179931640625,23.199127197265625,115.52115576050473,1.3423294522326965,43.978015559822246,1.0999553457339442,108.33172607421876,25.821250915527344,105.79135131835938
910.77,8.701774597167969,-120.09795379638672,29.281572341918945,-0.9172694683074952,0.4884007275104522,0.8116039633750916,31.773727416992188,52.61007690429688,-83.92427062988281,-18.944305419921875,29.806865692138672,-7.088597774505615,-1.1243667602539062,0.0608596391975879,-0.0532971806824207,143.45729064941406,80.4844970703125,26.07080841064453,123.9219507029888,1.318567230552925,36.021995622691435,1.1272733016956538,111.68356323242188,27.874420166015625,109.99507904052734
932.598,5.473227024078369,-127.10609436035156,38.76095581054688,-0.8885045647621155,0.5157489776611328,0.7757930159568787,31.07918357849121,49.959415435791016,-84.9635009765625,-12.046509742736816,21.78804016113281,-7.304670810699463,-1.0320504903793335,0.0416701883077621,-0.0696908608078956,145.41368103027344,80.2651138305664,28.30309295654297,132.99747040055635,1.2873586031751565,25.946007529052984,1.035239796069477,114.33449745178224,30.30569839477539,113.26659393310548
1125.269,-4.019973278045654,-135.41598510742188,47.46109771728516,-0.8512367010116577,0.5052374601364136,0.7759599089622498,30.382741928100582,47.08626937866211,-85.79869079589844,-7.7318115234375,18.110530853271484,-3.801487684249878,-0.9324046969413756,0.1445243507623672,-0.1234458088874816,146.59469604492188,79.99304962158203,29.66080093383789,143.5486154732932,1.257768894746172,20.05551160740515,0.9515800936198208,116.21195411682127,32.90678024291992,115.45949172973631
1125.312,9.136834144592283,-146.75973510742188,52.79280853271485,-0.8590713739395142,0.5189270377159119,0.8533768653869629,30.00508689880371,43.96924591064453,-86.58963012695312,-8.821000099182129,17.876380920410156,5.37340259552002,-0.9759373068809508,0.1877392381429672,-0.1220922172069549,146.7186737060547,79.6158218383789,29.978979110717773,156.23374225742117,1.3173993207727923,20.645786325904776,1.0013022310986106,116.71358680725098,35.646575927734375,116.5686092376709
1125.351,12.310766220092772,-157.93807983398438,59.46574401855469,-0.8385055065155029,0.5771089792251587,0.9220870733261108,29.779773712158203,40.5908432006836,-87.30725860595703,-4.384900569915772,16.87273597717285,6.088475704193115,-1.0277018547058103,0.1392483711242675,-0.1188833117485046,146.9191436767578,79.2731704711914,30.27688217163086,169.2104214824018,1.3734594384816166,18.465809182485906,1.0438843100836497,117.1393699645996,38.68232727050781,117.58414077758788
1125.384,-2.246912002563477,-168.1210479736328,63.44794464111328,-0.8464805483818054,0.5793636441230774,0.9509619474411012,29.30684471130371,37.023555755615234,-88.00579071044922,2.632121086120605,17.292821884155273,13.119430541992188,-1.0144230127334597,0.169654294848442,-0.1225835308432579,146.60191345214844,78.8376235961914,29.926891326904297,179.7091457452335,1.3987566537469287,21.86525115051912,1.035791171307108,117.29506874084473,41.81406784057617,117.93268203735352
1125.415,0.1867199838161468,-179.9606170654297,66.64279174804688,-0.8230795860290527,0.5404082536697388,0.985408902168274,28.89567375183105,33.240108489990234,-88.72075653076172,-4.666409969329834,15.381824493408203,16.392751693725586,-1.0341514348983765,0.1992847472429275,-0.1084765419363975,145.72195434570312,78.40074920654297,29.1657829284668,191.9039349541748,1.3930297161383949,22.958619619655195,1.0587496214575605,116.82628059387208,45.160640716552734,117.88653945922852
1125.446,5.2797932624816895,-191.10372924804688,71.64329528808594,-0.8025856018066406,0.5549193620681763,1.023485779762268,28.6447982788086,29.23263359069824,-89.40218353271484,-8.680700302124023,11.238015174865724,19.47640609741211,-1.052719235420227,0.1577270627021789,-0.1194664314389228,144.48057556152344,78.00794219970703,28.115541458129883,204.15992091774828,1.414072942956288,24.1034839240538,1.0711525769810553,115.83577728271484,48.77530860900879,117.51772499084473
1135.191,0.9922863245010376,-202.772705078125,77.77047729492188,-0.7336457371711731,0.57196444272995,1.08566415309906,28.364362716674805,24.96396827697754,-90.04515838623047,-3.1400630474090576,5.506027221679688,18.745718002319336,-1.0531249046325684,0.0863578245043754,-0.0747593492269516,143.25103759765625,77.75756072998047,26.97811889648437,217.1773507885433,1.4297013830660987,19.788336845982304,1.0593010426254297,114.88667488098145,52.79359245300293,117.02327728271484
1135.231,-25.06977081298828,-211.06082153320312,81.2970199584961,-0.7019684314727783,0.5663051009178162,1.0446388721466064,27.63798713684082,20.550870895385746,-90.6366729736328,8.865227699279785,-2.283691167831421,17.9360408782959,-1.0730596780776978,0.1313734650611877,-0.0898310095071792,141.8834686279297,77.6181411743164,25.45648956298828,227.5617921554901,1.3801201104648917,20.137255768798543,1.0847975250282766,114.24548149108888,57.06727027893066,116.0931625366211
1135.267,-23.56837272644043,-222.50946044921875,82.64881134033203,-0.6586576104164124,0.4590127170085907,1.0269968509674072,26.978843688964844,15.84032154083252,-91.23628997802734,9.777509689331056,-21.023107528686523,19.6967716217041,-1.0789483785629272,0.1571185141801834,-0.0552214607596397,139.26490783691406,77.74165344238281,22.61783790588379,238.5304051863088,1.3035509403287766,30.422583029802823,1.0917258084474264,112.28606414794922,61.90133190155029,113.85412788391112
1252.623,-18.34886932373047,-230.0044860839844,87.04076385498047,-0.5759261250495911,0.5026112198829651,1.0132346153259275,26.489477157592773,10.951212882995604,-91.76426696777344,11.10568904876709,-37.96015167236328,26.11113166809082,-1.134587049484253,0.1186348348855972,-0.0353457555174827,135.1729278564453,78.01321411132812,18.24449157714844,246.60664872763584,1.26923336134911,47.393044228294784,1.141319989897144,108.68345069885254,67.06200122833252,110.00875854492188
1252.692,-26.22086334228516,-235.96417236328125,87.42073059082031,-0.4879204034805298,0.4603643417358398,1.000737190246582,25.88730430603028,5.947621822357178,-92.28482055664062,23.625164031982425,-50.84504699707031,27.15788650512696,-1.0941559076309204,0.1127227768301963,-0.0393367707729339,130.2161865234375,78.36659240722656,12.74938678741455,253.00001670066325,1.2047724146979375,62.297014206924246,1.1006502424270823,104.32888221740724,72.41897058486938,105.03420734405518
1254.104,-34.50916290283203,-239.4895477294922,86.3580093383789,-0.3997744619846344,0.4090895354747772,0.9692206978797911,25.1679744720459,0.8833969831466675,-92.78923797607422,32.47475051879883,-56.62355422973633,34.96535873413086,-1.0894086360931396,0.1646969467401504,-0.0183958336710929,124.19578552246094,78.53584289550781,6.015467166900635,256.9121086535597,1.1254166471528055,74.05006837453006,1.101941317564732,99.02781105041504,77.65244591236115,98.80470514297484
1254.159,-23.85333251953125,-241.63330078125,84.68377685546875,-0.3093807697296142,0.3066629469394684,0.8200960159301758,24.706178665161133,-4.210597991943359,-93.28750610351562,32.468441009521484,-66.42981719970703,46.380462646484375,-1.0515416860580444,0.2183046638965606,0.0043856077827513,116.65388488769533,78.42154693603516,-2.3234050273895264,257.15165871764503,0.928609766828152,87.28268780277794,1.0739721026881517,91.94770622253418,82.63214492797852,90.9641010761261
1254.207,-19.24603843688965,-239.33663940429688,88.08561706542969,-0.1732915490865707,0.4407337307929992,0.8378408551216125,24.365982055664062,-9.293766021728516,-93.67852783203124,28.89998817443848,-65.52023315429688,47.2935791015625,-1.0638659000396729,0.2443576455116272,0.0289670880883932,109.3836669921875,78.06214904785156,-10.319762229919434,255.75674554281883,0.9624206361848516,85.81837153728715,1.0919525650775908,85.01768493652344,87.35591506958008,83.35876560211182
1254.2469999999998,-38.27316665649414,-235.8559112548828,77.44296264648438,-0.1355940997600555,0.3364820778369903,0.800288200378418,23.707782745361328,-14.230508804321287,-94.1957550048828,22.22899627685547,-62.17466735839844,52.59789276123047,-0.9882159233093262,0.2751930058002472,-0.0047361771576106,102.8427505493164,77.36259460449219,-17.4168758392334,251.17774308893632,0.8786735185836462,84.41774611730551,1.025828607954344,79.13496780395508,91.59310340881348,76.77887916564941
1254.293,-25.419408798217773,-235.62484741210932,74.43697357177734,-0.1085593104362487,0.269805371761322,0.714785099029541,23.35397720336914,-19.1435489654541,-94.73126983642578,10.996603965759276,-53.415184020996094,65.96539306640625,-0.9852500557899476,0.2663037478923797,-0.0072384220547974,97.50704193115234,76.22647094726562,-23.087867736816406,248.4070814130632,0.77168503957789,85.58937004781673,1.020631056420226,74.1530647277832,95.37001991271973,71.64340209960938
1272.383,-11.26858901977539,-232.88525390625,69.80964660644531,-0.0345234721899032,0.2502460777759552,0.6521480679512024,23.350950241088867,-23.970855712890625,-95.33777618408205,7.024228096008301,-48.3480339050293,67.6173095703125,-1.077778935432434,0.1743327677249908,-0.0699420198798179,93.51529693603516,75.0143051147461,-27.37815284729004,243.3842832739861,0.69936547820634,83.42045742115113,1.0940252436344398,70.16434669494629,98.98516082763672,67.95962333679199
1433.853,-26.14705276489257,-223.59832763671875,69.66926574707031,0.0379778668284416,0.31093230843544,0.632892906665802,23.06853103637696,-28.62799453735352,-95.8768081665039,8.598045349121094,-33.63605499267578,45.16822814941406,-0.9586483240127563,0.2328563630580902,-0.0535698235034942,91.21847534179688,74.15149688720703,-29.94325828552246,235.6558657873031,0.7061689954293646,56.96910929138153,0.9879769334044716,68.14994430541992,102.77949142456056,65.93354988098145
1433.922,-25.93905639648437,-218.3613128662109,58.85155487060547,0.1294665932655334,0.1557655930519104,0.5486118793487549,22.921337127685547,-33.106536865234375,-96.59931182861328,0.9626645445823668,-26.04263496398925,43.51369094848633,-0.9207926988601683,0.2677637934684753,-0.0700034797191619,89.58219909667969,73.28170013427734,-31.70829391479492,227.6356806699757,0.5848072442379363,50.720674865910176,0.961486937269359,66.66086196899414,106.38823699951172,64.89101791381836
1433.977,-11.662646293640137,-211.4540863037109,55.15227127075195,0.2197199314832687,0.2180359065532684,0.5051072239875793,23.1395320892334,-37.42870330810547,-97.38072204589844,-3.386394023895264,-16.07843017578125,34.32766342163086,-0.9364778399467468,0.2915277481079101,-0.0963153168559074,88.70137786865234,72.5864486694336,-32.59297180175781,218.83925826832444,0.5924101725679232,38.057483592472586,0.9855231163647292,65.56184577941895,110.01515197753906,64.78775024414062
1434.033,-21.31613540649414,-198.80050659179688,45.55062103271485,0.2776817083358764,0.2423485964536667,0.4325793087482452,23.33719825744629,-41.40966796875,-98.34236907958984,-11.43129539489746,-5.655966281890869,26.404748916625977,-0.9715725183486938,0.276467502117157,-0.1027342304587364,88.36505126953125,72.07323455810547,-32.730079650878906,205.0631076675887,0.5682999487106282,29.32362928317965,1.0153530224731062,65.02785301208496,113.48290252685548,65.61228942871094
1434.086,-24.8631649017334,-185.76730346679688,36.70890426635742,0.3512372672557831,0.1787142157554626,0.4321730136871338,23.595304489135746,-45.07977294921875,-99.44712829589844,-12.830244064331056,10.903524398803713,16.881065368652344,-0.8969680666923523,0.3175086379051208,-0.1264679878950119,88.97747039794922,71.7371597290039,-31.83176040649414,190.98484667295563,0.5848759719648431,23.842658724360493,0.9598737415787528,65.38216590881348,116.81693267822266,67.6153678894043
1434.1509999999998,-11.359557151794434,-173.26312255859375,27.22052001953125,0.3849039375782013,0.1204748079180717,0.3595792949199676,24.278364181518555,-48.45391082763672,-100.72949981689452,-12.108346939086914,28.820873260498047,19.59163475036621,-0.8697435855865479,0.2302624583244323,-0.1388168036937713,90.5526885986328,71.35360717773438,-29.922069549560547,175.75581323976985,0.5403355344980018,36.892911965399854,0.910354221921506,66.27432441711426,119.8075180053711,70.80743026733398
1434.328,-2.8703436851501465,-160.41934204101562,23.69775390625,0.4353287816047668,0.1895537823438644,0.3848945796489715,25.324432373046875,-51.5238151550293,-102.16207885742188,-9.457001686096191,42.57619094848633,17.14357566833496,-0.8992020487785339,0.2105499058961868,-0.1260268092155456,92.92073822021484,71.01172637939453,-27.226993560791016,162.18565816355166,0.6112165098698779,46.86223536354964,0.9320827989194188,67.59630584716797,122.53554153442384,74.93508529663086
1435.846,-13.492802619934082,-145.52438354492188,19.225975036621094,0.4813497960567474,0.2057682275772094,0.3336851596832275,26.338438034057617,-54.29301834106445,-103.74225616455078,-2.5105154514312744,69.47380828857422,10.763742446899414,-0.8853883743286133,0.2050428986549377,-0.166576087474823,96.85946655273438,70.68708038330078,-23.00597381591797,147.40773400598357,0.6207930214145128,70.3475008611722,0.9239603652773768,70.52102851867676,124.98009872436523,80.73628234863281
1448.867,-15.35184383392334,-131.6981658935547,12.98426914215088,0.5218344330787659,0.1230189949274063,0.2397430688142776,27.417694091796875,-56.79367446899414,-105.42681121826172,-11.050126075744627,92.21549224853516,0.5340993404388428,-0.7691418528556824,0.1986844688653946,-0.1620196104049682,101.8478775024414,70.39490509033203,-17.538118362426758,133.22416167491252,0.5873002534513957,92.8767331414868,0.810743524265457,74.43018341064453,127.18857955932616,87.88869285583496
1472.032,-1.5875728130340576,-118.35431671142578,11.5905122756958,0.6117899417877197,0.0990646034479141,0.2108488976955413,28.816938400268555,-59.00907516479492,-107.1221923828125,-18.28314781188965,99.62866973876952,-8.471945762634277,-0.8093560934066772,0.2609889209270477,-0.1847689151763916,107.10913848876952,70.0628662109375,-11.569708824157717,118.93109200910509,0.6546434038377984,101.64604858445423,0.8702367808801484,78.29220008850098,129.07194137573242,95.5524835586548
1493.79,-1.300339698791504,-102.3023681640625,7.260217666625977,0.6886790990829468,0.2019809335470199,0.1869088560342788,30.3613338470459,-60.892555236816406,-108.92356872558594,-18.003170013427734,97.36151123046876,-24.05044937133789,-0.8245882391929626,0.303857684135437,-0.2049131095409393,112.2883758544922,69.85822296142578,-5.6841325759887695,102.5679100687658,0.7416266712398278,101.89112873344942,0.902366133498614,81.92704200744629,130.7507781982422,103.23943614959715
1516.369,-20.072025299072266,-84.32868957519531,1.814207911491394,0.7619785070419312,0.2182406485080719,0.1407826244831085,31.50742530822754,-62.35832595825195,-110.68165588378906,-14.41643524169922,95.06822967529295,-25.03750991821289,-0.9072698354721068,0.2667932510375976,-0.1681852489709854,117.26204681396484,69.53459930419922,-0.1414399445056915,86.70354915124507,0.805021722198492,99.36135466858818,0.9605224990223952,85.7546215057373,131.89292526245117,110.54021593928336
1537.828,-31.42399406433105,-64.07305145263672,-1.5751099586486816,0.8386480212211609,0.2086619138717651,0.0529426373541355,32.25307846069336,-63.430213928222656,-112.22463989257812,-3.8280978202819824,79.60015106201172,-21.765748977661133,-0.7747247815132141,0.2780791521072387,-0.1902335882186889,121.45589447021484,69.1202392578125,4.423473358154297,71.38140021594687,0.8658367170828505,82.61105380380576,0.8448167375318365,89.20281600952148,132.55045318603516,116.64811325073242
1549.092,-28.90781784057617,-41.81332778930664,-5.572777271270752,0.8919256329536438,0.1437203139066696,-0.0031595055479556,32.7760009765625,-64.07605743408203,-113.45166778564452,-3.8106131553649902,35.13124084472656,-11.79583740234375,-0.8298676013946533,0.2633642256259918,-0.2331086546182632,123.35419464111328,68.92576599121094,6.516933917999268,51.13777624843623,0.9034361326759616,37.25408213783499,0.9013215830335088,90.57819366455078,133.00182342529297,119.9686017036438
1572.301,-14.963322639465332,-16.28248405456543,-6.983302116394043,0.9040470123291016,0.1864286810159683,-0.0094883134588599,33.08425521850586,-64.27365112304688,-114.12610626220705,-2.5787220001220703,22.309871673583984,-10.6058988571167,-0.8890687823295593,0.307799369096756,-0.2193669080734253,124.5814971923828,68.83370208740234,7.863569736480713,23.190231129696546,0.9231179132152196,24.836772572399337,0.9660774253065956,91.49724197387695,133.10735321044922,121.98967599868774
1593.798,-11.46615219116211,8.892524719238281,-8.684457778930664,0.8853888511657715,0.2479603886604309,0.0319543406367301,32.95576858520508,-64.02969360351562,-114.23783111572266,-2.3166604042053223,14.63185214996338,-15.116863250732422,-0.919482946395874,0.3211108148097992,-0.208729013800621,125.58195495605467,68.89900970458984,8.965494155883789,16.91063123798709,0.9200102455944742,21.165480559348165,0.996056647637488,92.6261863708496,132.92870330810547,123.20332527160645
1616.62,-15.556927680969238,32.09281539916992,-9.457048416137695,0.8894146084785461,0.2183868885040283,0.0158468093723058,32.26792526245117,-63.38664627075195,-113.81746673583984,-4.313881874084473,13.850455284118652,-15.351932525634766,-0.8152858018875122,0.271609365940094,-0.2053798735141754,126.55607604980467,68.96875762939453,10.092157363891602,36.89718910515105,0.9159706874200716,21.121707333276056,0.883540309703209,94.28815078735352,132.35540390014648,123.90962409973145
1639.416,-9.343876838684082,54.06380081176758,-10.33554744720459,0.8882622122764587,0.1563718765974044,0.0253392979502677,31.3143367767334,-62.35792922973633,-112.95571899414062,-6.400966644287109,7.641844749450684,-14.403227806091309,-0.8542620539665222,0.286990612745285,-0.2083894312381744,127.18765258789062,69.09263610839844,10.891340255737305,55.83033345435432,0.9022771201629104,17.516367671128197,0.9249613093004406,95.87331581115724,131.45056533813477,123.84705924987792
1648.883,3.103099822998047,75.9130630493164,-9.574938774108888,0.8592174649238586,0.1282587051391601,0.0322410091757774,30.24345016479492,-60.95457077026367,-111.6686782836914,-9.606281280517578,-0.0301591753959655,-20.29097366333008,-0.796432375907898,0.2783859372138977,-0.2116935700178146,127.64224243164062,69.38723754882812,11.610097885131836,76.57742371331717,0.869335625720486,22.45005928326778,0.8698375865755898,97.3987922668457,130.3418083190918,123.27877616882324
1673.023,2.6121981143951416,95.67300415039062,-12.575854301452637,0.8202898502349854,0.1962589025497436,0.1281574517488479,29.03287506103516,-59.16658401489258,-110.21160125732422,-13.302960395812988,-16.27635955810547,-19.694412231445312,-0.9269811511039734,0.3180563449859619,-0.1752800941467285,127.23472595214844,69.8912582397461,11.510614395141602,96.53133902293531,0.8531221059539618,28.80552913763958,0.9955787284248104,98.20185089111328,129.05784225463867,121.72221565246582
1694.546,-0.8738099336624146,115.2016372680664,-15.782787322998049,0.7828639149665833,0.1286784559488296,0.0722402781248092,27.70620918273925,-56.9884147644043,-108.66948699951172,-14.416871070861816,-27.88755416870117,-12.247961044311523,-0.8795006275177002,0.3192660212516784,-0.1830421388149261,126.03585052490234,70.39519500732422,10.58087158203125,116.28102660677838,0.796650934955662,33.69828480396394,0.9533921390025452,98.32964134216309,127.38360977172852,119.25035858154295
1716.2710000000002,19.127609252929688,133.85104370117188,-18.649627685546875,0.7489873766899109,0.0516387708485126,0.0896689444780349,26.78130531311035,-54.4366569519043,-107.0873031616211,-12.914463996887209,-36.130470275878906,-22.43621826171875,-0.9197418689727784,0.1953513026237487,-0.1633534729480743,124.87390899658205,71.2204818725586,9.631179809570312,136.49093723920024,0.7561012979088083,44.44747633522681,0.954343540923567,98.09260368347168,125.65713882446288,116.7184829711914
1736.453,27.12581443786621,151.8570556640625,-22.212303161621094,0.6883208155632019,0.219345822930336,0.2428356409072876,26.083955764770508,-51.536231994628906,-105.52311706542967,-4.298184394836426,-45.50426483154297,-34.019222259521484,-1.0164217948913574,0.2590713798999786,-0.07711923122406,123.52076721191406,72.3385238647461,8.331313133239746,155.85172945982822,0.7621464975117519,56.977363839457645,1.0517502654328346,97.43681144714355,123.874755859375,113.85443019866943
1758.823,1.018075466156006,164.62620544433594,-27.958213806152344,0.6427950859069824,0.2263519614934921,0.2897797226905823,25.042869567871094,-48.348426818847656,-104.12175750732422,9.613179206848145,-54.354583740234375,-24.62345314025879,-0.9241870641708374,0.2478394210338592,-0.0820256769657135,121.4758529663086,73.35877227783203,6.001626968383789,166.98648363231683,0.7405356308920908,60.44128086488281,0.9603511440513796,96.4329833984375,121.70719909667967,110.123384475708
1778.834,17.752859115600586,177.69485473632812,-32.667259216308594,0.5432152152061462,0.0696584060788154,0.1627265363931656,24.45562744140625,-44.8471565246582,-102.8251953125,8.031525611877441,-58.64436721801758,-8.386582374572754,-0.81686931848526,0.198223203420639,-0.1489057093858719,118.5242919921875,74.08866882324219,2.764554023742676,181.5427641941386,0.5713273923202152,59.78295722010942,0.8536631842504531,94.06866455078124,118.9358253479004,105.58974933624268
1789.011,52.377662658691406,187.37127685546875,-32.99879455566406,0.4933746457099914,0.1677292138338089,0.381385862827301,24.612842559814453,-41.20588302612305,-101.52033996582033,2.01423716545105,-55.57933044433594,-12.831501007080078,-1.0283336639404297,0.2326557487249374,-0.0774858519434928,115.35874938964844,74.84581756591797,-0.5510491728782654,197.33305698276536,0.6457606418536919,57.07684768883149,1.0571673845987295,90.74590682983398,116.05170059204102,100.96929079294203
1812.381,44.1776008605957,197.11737060546875,-38.20918655395508,0.4494993686676025,0.33461594581604,0.544352650642395,24.778812408447266,-37.296363830566406,-100.32867431640624,4.653629302978516,-47.34019470214844,-29.26709747314453,-1.0540130138397217,0.251499593257904,-0.0210073683410882,112.90062713623048,75.79141998291016,-3.177882671356201,205.5890564921362,0.781240885955374,55.85081283767862,1.0838066194100322,88.1218147277832,113.08778381347656,97.15079164505003
1828.779,21.684728622436523,202.15777587890625,-46.49091720581055,0.3569122850894928,0.233819380402565,0.4704582691192627,24.62499237060547,-33.246482849121094,-99.29916381835938,11.657020568847656,-31.443187713623047,-26.642555236816406,-0.960659921169281,0.2063293755054474,-0.0504137799143791,111.52003479003906,76.54097747802734,-4.824770450592041,208.56509580074115,0.6351290143603388,42.829731865650125,0.983860175300684,86.8950424194336,109.78746032714844,94.47439336776732
1853.11,41.51533508300781,206.6547088623047,-49.7906494140625,0.2444988936185836,0.1786843389272689,0.4690632820129394,24.9650993347168,-29.04368019104004,-98.34066009521484,22.49065399169922,-23.65778923034668,-18.05680274963379,-0.9933711290359496,0.1229299530386924,-0.0621237717568874,110.6815948486328,77.10469055175781,-6.196382999420166,216.5843958162555,0.5583262169120639,37.30373485029382,1.0028745367061398,85.71649551391602,106.14837074279784,92.14427709579468
1873.382,75.04721069335938,206.9559783935547,-53.0986442565918,0.1808541566133499,0.2466915845870971,0.7439208030700684,26.04685401916504,-24.85183906555176,-97.41878509521484,16.05403709411621,-15.888330459594728,-25.882617950439453,-1.0409879684448242,0.3000710010528564,-0.007151995319873,110.24746704101562,77.67938995361328,-6.9990949630737305,226.456015260304,0.8043526124224589,34.35230798332123,1.0833972988506115,84.20061302185059,102.53122901916504,90.41969013214111
1888.971,59.13444900512695,207.0868377685547,-58.07250213623047,0.1196051090955734,0.5508270859718323,0.7541842460632324,26.887157440185547,-20.62875747680664,-96.54015350341795,18.010942459106445,9.192340850830078,-20.607181549072266,-1.012345552444458,0.2559323608875274,-0.0424894317984581,111.95708465576172,77.98296356201172,-5.644749164581299,223.0566227227565,0.9415464607612046,28.871250578724627,1.0450599230274282,85.06992721557617,98.61172103881836,90.89540433883668
1911.486,9.73319149017334,206.76158142089844,-76.624755859375,0.0087324399501085,0.3646048903465271,0.5986992716789246,26.91399383544922,-16.24990463256836,-96.00711059570312,22.16514015197754,6.565837860107422,-20.92810440063477,-0.9814025163650512,0.1897885799407959,-0.0251744724810123,113.61078643798828,78.33246612548828,-4.433783054351807,220.7180096384616,0.7010376591032468,31.183156007144227,0.9999021743492188,86.69679260253906,94.58237075805664,91.57332754135132
1933.507,51.75395965576172,213.08740234375,-71.41554260253906,-0.0389662012457847,0.1666382253170013,0.5959711074829102,27.77890014648437,-11.808884620666504,-95.3076171875,9.50870132446289,-1.2489725351333618,-18.38735580444336,-1.1276832818984983,0.2738402187824249,-0.0459045097231864,114.24848175048828,78.6629867553711,-4.0006303787231445,230.618501215476,0.6200550168579665,20.738133637108152,1.161363540718022,86.4695816040039,90.4718713760376,91.30698680877686
1961.673,101.23699188232422,210.61997985839844,-72.25846099853516,-0.0603013932704925,0.5300184488296509,1.0659617185592651,29.674802780151367,-7.422070026397705,-94.54205322265624,5.133077621459961,-1.924248099327088,-15.967391967773438,-1.066591739654541,0.1632342487573623,0.1457577645778656,114.75648498535156,78.9732666015625,-3.591933488845825,244.6037400098592,1.191985821880434,16.882204324916003,1.08881067454421,85.0816822052002,86.3953366279602,90.95011973381042
1968.779,15.98713493347168,208.63389587402344,-83.65753173828125,-0.2025985717773437,0.7680376172065735,0.8497054576873779,29.93278312683105,-2.9740707874298096,-93.90170288085938,38.89176559448242,30.04525375366211,-26.75869941711425,-0.791882336139679,0.1606022715568542,-0.090029776096344,119.61234283447266,79.1466293334961,0.5556297302246094,225.3492258861685,1.1631540429170537,55.95815131572508,0.8130043570013723,89.6795597076416,82.1207001209259,94.45733261108398
1991.22,-6.935544013977051,213.02609252929688,-91.32102966308594,-0.3684722185134887,0.258912980556488,0.4069357514381408,29.791309356689453,1.6293365955352783,-93.37615966796876,33.92340469360352,-1.690537929534912,-11.79159927368164,-1.1165684461593628,0.3193523287773132,-0.1240523755550384,120.6097412109375,79.32042694091797,0.895298182964325,231.87873625625224,0.6069632716362836,35.95409737329372,1.1679469152042294,90.81843185424805,77.69109034538269,94.27145785093307
2013.424,94.82049560546876,214.4669342041016,-79.76178741455078,-0.3681793510913849,0.2424834668636322,0.7502691149711609,31.741493225097656,6.131494045257568,-92.56529235839844,-19.15293884277344,-46.91603088378906,21.436731338500977,-1.3355209827423096,0.1872745305299759,0.0701241046190261,114.60093688964844,79.40154266357422,-4.803948879241943,247.6871716204477,0.870205729211138,55.02256328709831,1.3504093583720558,82.85944366455078,73.27004861831665,87.7613434791565
2036.0170000000005,98.8295440673828,209.91815185546875,-79.91436767578125,-0.2305430471897125,1.0945543050765991,1.4096556901931765,33.850006103515625,10.50804328918457,-91.6147918701172,26.29748916625977,-30.591815948486328,6.381322860717773,-0.8969982862472534,0.1881110072135925,0.0024656895548105,111.73825073242188,79.51834106445312,-8.215282440185547,245.3960379060802,1.7995356034997572,40.8428503036741,0.9165139148918594,77.88824462890625,69.01029777526855,83.39950942993164
2058.55,-56.33171081542969,204.43130493164065,-115.2237319946289,-0.7130894660949707,0.5793843865394592,0.6242299675941467,32.79188537597656,15.185065269470217,-91.27328491210938,30.95280647277832,-1.5214581489562988,-3.84755277633667,-0.5707171559333801,0.2458387017250061,-0.0970387831330299,112.3856201171875,79.58052825927734,-8.202446937561035,241.3336455909468,1.1107861659491016,31.22810794471848,0.6289445641504996,79.59373474121094,64.39546298980713,83.07083797454834
2068.4680000000003,11.208795547485352,198.97970581054688,-93.69880676269533,-0.8735138773918152,0.176665186882019,0.3837171196937561,33.20412826538086,19.543840408325195,-90.67366790771484,-18.420976638793945,-8.732991218566895,23.29164123535156,-1.0673837661743164,0.1545402407646179,-0.1926365047693252,110.4342803955078,79.21382904052734,-9.830927848815918,220.2226755146482,0.9702968155148268,30.95315924727052,1.0955818606009302,77.23015213012695,59.66998863220215,80.84274005889893
2094.435,95.68758392333984,194.6171417236328,-83.68753051757812,-0.7941673994064331,0.5460284948348999,0.8557863235473633,35.4268913269043,23.70959854125977,-89.8035888671875,-29.93921089172364,-41.96868896484375,35.49089431762695,-1.540837287902832,0.098978042602539,0.0636932402849197,104.60467529296876,78.8176498413086,-15.182976722717283,232.4554760247505,1.2888829299134796,62.58858347743513,1.5453261887275376,69.17778396606445,55.10805130004883,74.62061214447021
2113.413,46.93147659301758,194.6383209228516,-93.6617202758789,-0.5413191914558411,0.8835346102714539,1.3906139135360718,36.75596618652344,27.94310569763184,-88.92292785644531,19.3344783782959,-27.94980812072754,-5.031047821044922,-0.9063992500305176,0.2556442320346832,-0.0830058157444,102.23890686035156,79.05032348632812,-18.000770568847656,221.04107607389372,1.7342049853192223,34.35586224101965,0.9454118358027264,65.48294067382812,51.10721778869629,70.92215728759766
2136.2000000000003,-38.161434173583984,182.7309112548828,-117.14303588867188,-1.0022486448287964,0.6174927353858948,0.6132988333702087,36.15431594848633,32.27142333984375,-88.58917999267578,-0.0709762573242187,-2.5967254638671875,-23.83077049255371,-0.3177757263183594,0.2516959607601166,-0.3098484575748443,102.5129623413086,79.53044128417969,-17.743867874145508,220.38459983274527,1.3273790277568698,23.971934486656863,0.5102336088123058,66.35864639282227,47.25901794433594,70.84531211853027
2158.589,8.371278762817383,154.3117218017578,-103.55169677734376,-1.2722042798995972,0.2629689276218414,0.4672980904579162,36.42342758178711,35.983741760253906,-88.41466522216797,-35.179908752441406,23.349912643432617,29.179935455322266,-0.7832626104354858,0.1021952778100967,-0.3111841678619385,103.49838256835938,78.85250091552734,-16.0838680267334,186.02456746089973,1.3805882413069617,51.32555926108172,0.8489875016988304,67.07495498657227,42.86875915527344,72.33079719543457
2169.6710000000003,53.13516616821289,140.30316162109375,-76.85553741455078,-1.1295843124389648,0.6319050192832947,0.8316099047660828,37.8322639465332,39.16819381713867,-87.8323745727539,-15.79924488067627,12.5760498046875,30.78524398803711,-1.65286386013031,-0.1452935189008712,0.0409726798534393,103.67332458496094,78.19042205810547,-15.649709701538086,168.5677806577454,1.5384536736634884,36.81717554202835,1.6597433257145031,65.84106063842773,39.0222282409668,72.18266487121582
2197.853,20.028383255004883,147.15773010253906,-78.38671112060547,-0.7082914113998413,0.5020250678062439,1.0527324676513672,38.73357009887695,42.446083068847656,-87.05809783935547,26.544639587402344,-30.375577926635746,-10.383954048156738,-1.42033851146698,-0.1457734256982803,0.1590764969587326,101.56512451171876,78.52667236328125,-18.390609741210938,167.93156387363973,1.364533451629523,41.65477315838413,1.4366338123129043,62.8315544128418,36.0805892944336,68.66748809814453
2218.841,-10.15040397644043,156.63812255859375,-69.52039337158203,-0.7578320503234863,0.5935506224632263,0.6289320588111877,39.45115661621094,45.7444953918457,-85.7414779663086,41.78471374511719,-47.89728546142578,-37.69448471069336,-0.8835783004760742,0.3173521161079407,0.1231783777475357,98.10359954833984,79.4460678100586,-22.79972267150879,171.67299506359606,1.1498553354767989,73.89848736570588,0.9468874755824422,58.652442932128906,33.70157241821289,62.941755294799805
2228.354,-3.989278793334961,162.03041076660156,-67.94768524169922,-0.8979020118713379,0.4295754432678222,0.4303305149078369,40.52893829345703,49.13788604736328,-84.16191864013672,6.576901435852051,-51.52122497558594,-11.744756698608398,-1.034393072128296,0.3401001989841461,0.1004563421010971,92.74221801757812,79.75250244140625,-28.416019439697266,175.74599935187604,1.0844111012167783,53.250648497378506,1.0934937812737675,52.21327972412109,30.61461639404297,55.74589920043945
2258.48,24.25148582458496,162.2922821044922,-55.4992561340332,-0.9227803945541382,0.5661569833755493,0.6658720970153809,42.61963653564453,52.2641716003418,-82.06575775146484,-1.649017333984375,-58.40006256103516,-11.0025053024292,-0.9478111863136292,0.3151621222496032,0.1065789088606834,86.10748291015625,79.93380737304688,-35.16270065307617,173.22553745569718,1.2710008009368263,59.45032958891468,1.0045059840618455,43.48784637451172,27.66963577270508,46.90305709838867
2268.971,-3.0696187019348145,156.8992156982422,-61.56229019165039,-0.9253953099250792,0.4396913945674896,0.7172732949256897,44.23904037475586,55.3661994934082,-79.9224853515625,-26.66330337524414,-42.58712768554688,-26.14433860778809,-0.7297943234443665,0.138439267873764,-0.0794246867299079,80.3271484375,80.34965515136719,-40.52021026611328,168.57254230550055,1.25066621514359,56.64028277316469,0.7470431488764142,36.08810806274414,24.983455657958984,39.40227508544922
2291.215,-16.561927795410156,144.47201538085938,-51.32416915893555,-1.1556248664855957,0.4454389214515686,0.3678562343120575,45.96964645385742,58.201751708984375,-77.480712890625,-36.76747512817383,-21.90110206604004,-18.05430221557617,-0.9259625673294068,-0.0518176555633544,-0.190215602517128,76.67562103271484,80.62452697753906,-43.555213928222656,154.20969820462875,1.2919763441743175,46.44850188649084,0.9467173395287014,30.705974578857425,22.422775268554688,33.925498962402344
2310.769,-0.4202003479003906,126.7164077758789,-40.0650634765625,-1.1969926357269287,0.407682865858078,0.289730966091156,48.23287582397461,60.5982666015625,-74.85453796386719,-1.7391774654388428,-14.552064895629885,-22.579439163208008,-1.0674344301223757,-0.0250218454748392,-0.1577100306749344,74.27558898925781,80.99474334716797,-46.04036331176758,132.90008983945864,1.2972820517570072,26.91873704147216,1.0793121926195108,26.042713165283203,20.39647674560547,28.81417465209961
2334.125,16.811674118041992,111.24269104003906,-35.21320724487305,-1.1454074382781982,0.5097329020500183,0.4783072173595428,50.82143783569336,62.55213165283203,-72.29367065429688,29.137657165527344,-11.554132461547852,-6.315409183502197,-1.0396136045455933,0.2514230608940124,-0.0401752181351184,73.61455535888672,81.01750946044922,-47.39106750488281,117.88782236071378,1.3418508207970017,31.974762472766933,1.070338287859404,22.79311752319336,18.465377807617188,24.902603149414062
2358.38,4.934736728668213,97.6790771484375,-38.83195495605469,-1.011495590209961,0.4570549130439758,0.5526521801948547,53.02065658569336,64.3606185913086,-69.99346923828125,20.49188041687012,-10.250141143798828,-8.928651809692383,-0.9753555655479432,0.2830145061016083,0.0148727307096123,72.71199035644531,81.0630111694336,-48.80499649047852,105.23057761345194,1.239938286700576,24.590717346710843,1.0156952732134013,19.69133377075196,16.702392578125,21.18847274780273
2368.502,-0.2214792668819427,87.6803207397461,-35.01359558105469,-1.0112910270690918,0.4439292848110199,0.3682203292846679,55.14856719970703,65.91139221191406,-67.64950561523438,-0.0861658453941345,-5.038878917694092,-18.820762634277344,-1.012568116188049,0.0984691306948661,0.0201997980475425,71.39009094238281,81.4259033203125,-50.2237434387207,94.41313242131127,1.164203144748283,19.48380946929796,1.0175452773521083,16.24152374267578,15.514511108398438,17.425762176513672
2390.909,1.0394830703735352,77.95835876464844,-27.831117630004883,-1.0408412218093872,0.4458723664283752,0.3250397145748138,57.41720199584961,67.19811248779297,-65.25655364990234,-7.641933441162109,-1.3301897048950195,-13.278904914855955,-1.0023367404937744,0.100607082247734,0.0140313999727368,70.56909942626953,81.69971466064453,-50.96941757202149,82.78379874629093,1.1780506916992044,15.378487152771111,1.0074708961192285,13.151897430419922,14.501602172851562,14.28713607788086
2414.241,5.866944313049316,68.2470932006836,-22.036924362182617,-1.014397144317627,0.4467200338840484,0.3715148270130157,59.74825668334961,68.23841094970703,-62.90921401977539,-9.42282485961914,5.005819320678711,-5.552341461181641,-1.0073227882385254,0.2028210163116455,0.0180379003286361,70.96989440917969,81.81167602539062,-50.44526672363281,71.95632565146565,1.1690096756501347,12.028148282586702,1.0276969058095833,11.221637725830078,13.573265075683594,12.463947296142578
2436.101,5.090664386749268,55.2014274597168,-18.24112701416016,-1.0034186840057373,0.4591963291168213,0.4363225102424621,61.858097076416016,69.0968017578125,-60.81343460083008,-7.8485822677612305,6.759753704071045,-10.118945121765137,-0.9971511960029602,0.1487144082784652,0.0062005119398236,71.41925811767578,82.05074310302734,-49.903656005859375,58.35967076873906,1.186628693834113,14.480592671945878,1.0081988540303266,9.561161041259766,12.953941345214844,10.909778594970703
2458.421,-0.9270023703575134,43.68330383300781,-15.125123023986816,-1.0060935020446775,0.4130590856075287,0.3720331192016601,63.45153045654297,69.73160552978516,-59.157501220703125,-2.606906652450561,14.639968872070312,-13.007125854492188,-0.978524923324585,0.0344015844166278,-0.0365833938121795,72.87776184082031,82.43645477294922,-48.45241165161133,46.2369950759374,1.1494566476567825,19.756264167710903,0.9798126551951531,9.426231384277344,12.704849243164062,10.705089569091797
2469.491,4.622413158416748,24.12041664123535,-7.765651702880859,-0.9944934844970704,0.4815560281276703,0.3841017484664917,64.54027557373047,70.08338165283203,-58.13648986816406,8.958699226379395,31.12407684326172,-9.601921081542969,-0.8832799792289734,0.1259216964244842,-0.1927693486213684,77.25782775878906,82.78868103027344,-44.28914642333984,25.757844411447632,1.1698066729627756,33.78110921254911,0.9127977963958186,12.717552185058594,12.705299377441406,13.84734344482422
2490.741,-1.6618032455444336,-4.245648384094238,-4.044788360595703,-1.0015511512756348,0.5397739410400391,0.4947934150695801,64.19954681396484,70.1195068359375,-58.50950622558594,-2.799492120742798,46.488548278808594,-11.572558403015137,-0.9338212609291076,0.2265546768903732,-0.2025390118360519,84.25035095214844,83.1745834350586,-37.24818420410156,6.094869408795771,1.2406776936995614,47.98902359077975,0.9820240426281092,20.0508041381836,13.055076599121094,21.26132202148437
2510.717,-9.072075843811035,-32.6136360168457,1.4868937730789185,-1.0298347473144531,0.5282890796661377,0.5148642063140869,62.46070861816406,69.79924011230469,-60.205169677734375,-25.931798934936523,50.64801025390625,-13.057536125183104,-1.0345759391784668,0.1816942393779754,-0.0676095634698867,92.50372314453124,83.44123077392578,-28.48746490478516,33.88454909612309,1.2667810029417683,58.37960592828826,1.0525831195790365,30.043014526367188,13.641990661621094,31.71770477294922
2534.755,-14.389930725097656,-55.494903564453125,10.157010078430176,-1.0472403764724731,0.5847988724708557,0.5757368803024292,59.84685897827149,69.08436584472656,-62.70472717285156,-24.647266387939453,46.79939651489258,-14.785801887512209,-1.0595035552978516,0.1249389573931694,-0.0565352626144886,100.56697082519533,83.6300277709961,-19.94478225708008,58.22301333351267,1.3304792680450774,54.92077195390601,1.0683415945670978,40.72011184692383,14.545661926269531,42.75994491577149
2555.731,-19.550994873046875,-72.73477172851562,16.031522750854492,-1.0766547918319702,0.4914490282535553,0.5258714556694031,56.739654541015625,68.0445556640625,-65.61285400390625,-26.08651351928711,38.09032440185547,-9.018821716308594,-1.0793514251708984,0.1057760193943977,-0.0523484088480472,107.05008697509766,83.62861633300781,-12.968186378479004,77.00388393215206,1.2950862813086872,47.03953811190215,1.0857847029712178,50.31043243408203,15.584060668945312,52.644667625427246
2575.6130000000003,-11.340417861938477,-92.3002700805664,26.736291885375977,-1.0982059240341189,0.5334383845329285,0.6163750290870667,53.6254997253418,66.54895782470703,-68.71410369873047,-21.326038360595703,26.435503005981445,-3.3590447902679443,-1.067586064338684,0.1000409126281738,-0.021188411861658,111.11500549316406,83.52921295166016,-8.478341102600098,96.76142949548075,1.367673549557355,34.13090847369697,1.072472441495285,57.489505767822266,16.980255126953125,60.23576259613037
2598.138,-13.211313247680664,-109.2136688232422,35.420623779296875,-1.0475845336914062,0.5675079822540283,0.6935765743255615,50.526893615722656,64.64527893066406,-71.7668685913086,-13.651164054870604,19.68590545654297,1.5028733015060425,-1.042634129524231,0.1054149642586708,-0.0134510779753327,113.72415161132812,83.35901641845703,-5.605445384979248,115.5715572469094,1.3786033256904109,24.003078591241565,1.048035864957448,63.19725799560547,18.71373748779297,66.16142320632935
2608.0950000000003,-13.547859191894531,-126.97624969482422,42.81618881225586,-1.0775561332702637,0.5669212341308594,0.7143746614456177,47.5417594909668,62.33102416992188,-74.74053955078125,-12.5792875289917,13.776918411254885,5.292959213256836,-1.0264980792999268,0.0885280445218086,-0.0234152264893054,115.1252899169922,83.1638412475586,-3.979134321212769,134.6838464688787,1.4116862480637684,19.39219876343629,1.0305744972125206,67.58353042602539,20.83281707763672,70.76140522956848
2635.535,-9.933892250061035,-146.4816436767578,53.16617202758789,-1.1055376529693604,0.5703563094139099,0.7376914024353027,44.86507797241211,59.53390502929688,-77.56987762451172,-10.859253883361816,8.465593338012695,7.229182243347168,-1.0155128240585327,0.0856480151414871,-0.034748651087284,115.62181854248048,82.97587585449219,-3.270455837249756,156.14799389536688,1.4462739806303029,15.551551092268566,1.0197104231483556,70.75674057006836,23.441970825195312,74.29942178726196
2655.948,-10.535736083984377,-164.75537109375,60.625465393066406,-1.1402591466903689,0.5752766132354736,0.7346300482749939,42.36716842651367,56.23810958862305,-80.24270629882812,-1.7192447185516355,7.716111660003662,12.009491920471191,-0.9985429644584656,0.1184996291995048,-0.0811382979154586,115.95499420166016,82.67945861816406,-2.902337074279785,175.87149027968272,1.4733687288575268,14.377832859641089,1.0088179406506104,73.58782577514648,26.441349029541016,77.34036922454834
2678.13,-21.18539428710937,-184.1356506347656,69.6190185546875,-1.1465705633163452,0.6091768741607666,0.8228910565376282,39.96664810180664,52.482887268066406,-82.64636993408203,1.6699384450912476,5.28632926940918,13.374805450439451,-0.9553301930427552,0.1362636834383011,-0.058810256421566,115.7970962524414,82.37552642822266,-3.099909782409668,197.9938547286422,1.5371630400206275,14.47823858043895,0.966789643833472,75.83044815063477,29.89263916015625,79.54646015167236
2688.332,-21.865333557128903,-203.0761260986328,73.45929718017578,-1.141823172569275,0.5411498546600342,0.8005289435386658,37.783790588378906,48.39313125610352,-84.88032531738281,-0.9465951919555664,8.691659927368164,13.363389015197754,-0.9769051671028136,0.1080636158585548,-0.0267887935042381,115.9695816040039,82.06975555419922,-2.9179723262786865,217.05822754504769,1.4958107875188869,15.969381976831755,0.9832289102960786,78.185791015625,33.6766242980957,81.96235299110413
2709.037,-14.162301063537598,-217.2983856201172,82.45713806152344,-1.1199620962142944,0.5726432204246521,0.835539698600769,36.12716293334961,43.94369125366211,-86.76287078857422,3.744058609008789,12.537643432617188,16.04298973083496,-0.9908882975578308,0.0978151559829711,0.0159944668412208,116.39192199707033,81.70186614990234,-2.574176073074341,232.8483171118498,1.510086733533176,20.70236694715891,0.995832940782019,80.2647590637207,37.75817489624024,84.18869471549988
2728.256,-29.137603759765625,-226.8636932373047,88.4634017944336,-1.0732471942901611,0.5751832723617554,0.870110034942627,34.478851318359375,39.259307861328125,-88.34851837158203,-0.0069283097982406,14.813859939575195,15.824505805969238,-0.97736656665802,0.1479013264179229,-0.0065879970788955,116.96946716308594,81.28831481933594,-1.9906336069107056,245.2384731627042,1.496591731155942,21.67638065531193,0.9885158621299804,82.49061584472656,42.02900695800781,86.35788476467133
2750.51,-30.148935317993164,-237.26138305664065,90.58747863769533,-1.0465924739837646,0.5215007066726685,0.8605765700340271,33.0092887878418,34.39805221557617,-89.76741790771484,-4.012350559234619,21.827014923095703,13.627875328063965,-0.9801914691925048,0.1585524678230285,-0.0066689029335975,118.28302764892578,80.84668731689453,-0.578833818435669,255.7499041577404,1.451864603381142,26.042974550163954,0.9929545183928976,85.27373886108398,46.44863510131836,89.18858408927917
2773.142,-28.31864356994629,-247.396484375,94.2064437866211,-1.015534281730652,0.5809316039085388,0.9045867323875428,31.781869888305664,29.236257553100582,-91.01499938964844,1.9694273471832275,26.79817581176757,11.03723430633545,-0.9620339274406432,0.1842416673898697,-0.0166604779660701,120.21432495117188,80.38300323486328,1.3443530797958374,266.23639891208165,1.4788740859861973,29.04894855321249,0.9796590432775713,88.43245506286621,51.146745681762695,92.35935246944427
2788.207,-49.63274002075195,-255.42306518554688,92.06315612792967,-0.9930670857429504,0.5491718053817749,0.8665754795074463,30.261001586914062,23.911970138549805,-92.19361877441406,1.701897144317627,37.603458404541016,7.207207202911377,-0.9366750121116638,0.1986288428306579,-0.0473376587033271,123.23678588867188,79.84308624267578,4.391139984130859,276.0072024911365,1.4278392662676829,38.3257142599793,0.958673223497008,92.9757843017578,55.93111610412598,96.58475875854492
2810.4460000000004,-48.28411102294922,-265.8331298828125,89.29972076416016,-0.932995617389679,0.4863959848880768,0.8913474678993225,28.88191795349121,18.40848159790039,-93.33740234375,-1.7943856716156006,40.60061264038086,8.36744213104248,-1.0605937242507937,0.1985134780406952,-0.0213815532624721,126.00907135009766,79.24986267089844,7.253277778625488,284.5576364273602,1.3789714227329457,41.49269398977485,1.07922371161122,97.12715339660645,60.84138107299805,100.59068012237547
2833.857,-43.95913696289063,-270.7855224609375,88.183837890625,-0.8026273846626282,0.4720372557640075,0.8943758606910706,27.71991729736328,12.806285858154297,-94.38824462890624,-0.5404518246650696,19.441320419311523,12.451680183410645,-1.2323338985443115,0.1074768081307411,-0.0220512300729751,126.7339324951172,78.87963104248047,8.020895957946777,288.1555034388292,1.2910995583712663,23.09331867036577,1.237208292299694,99.0140151977539,66.07334518432617,102.40914058685304
2855.852,-43.006378173828125,-272.3229675292969,86.12808990478516,-0.6870895028114319,0.4806831479072571,0.8814570307731628,26.689382553100582,7.177828311920166,-95.35991668701172,22.549285888671875,-9.017535209655762,9.19240379333496,-1.2175350189208984,-0.0156559608876705,-0.023017780855298,125.9037094116211,78.8376693725586,6.724734306335449,288.8380083684271,1.2165996755938788,25.96702760899208,1.2178532135054418,99.21432685852052,71.65984106063843,102.08465099334715
2868.002,-63.57404327392578,-270.6654663085937,84.89466857910156,-0.5958881378173828,0.4645175635814667,0.8684251308441162,25.35409927368164,1.5712231397628784,-96.21224975585938,48.84751892089844,-24.626903533935547,14.10435676574707,-1.0672543048858645,0.0875075384974479,0.0142148165032267,123.94307708740234,78.90972137451172,3.7518115043640137,290.70355756921685,1.1510957595042866,56.49333909562058,1.0709301478619004,98.5889778137207,77.33849823474884,99.9640612602234
2890.629,-62.38614273071289,-273.7964782714844,80.4927978515625,-0.4983333945274353,0.3387141525745392,0.8279294967651367,24.124568939208984,-4.073306083679199,-97.0393524169922,49.497318267822266,-32.63642501831055,31.27221298217773,-1.033839464187622,0.2727877199649811,-0.0276909992098808,120.15233612060548,78.70276641845703,-1.0734671354293823,292.12263319478825,1.0239778810449458,67.0303816077798,1.069581212116539,96.02776718139648,82.77607250213623,95.9658852815628
2914.125,-51.1363525390625,-274.4692687988281,77.8562240600586,-0.3708279430866241,0.3243665695190429,0.7088680267333984,23.196308135986328,-9.723650932312012,-97.8191375732422,21.68976211547852,-39.04287338256836,35.863319396972656,-1.0412412881851196,0.2580801844596863,0.0044520376250147,115.21563720703124,78.42024230957031,-6.484028339385986,289.8446095597652,0.8632617877100265,57.279747038221,1.0727574853950763,92.01932907104492,88.14389324188232,91.3351092338562
2935.346,-46.99650192260742,-268.9594421386719,74.60921478271484,-0.2162205278873443,0.3158937692642212,0.6654052734375,22.41304016113281,-15.258169174194336,-98.54352569580078,9.355756759643556,-32.872703552246094,39.78647232055664,-1.087876796722412,0.1962157189846038,-0.0439658835530281,110.95083618164062,77.9565200805664,-11.002209663391112,283.04485093179227,0.7676616234111701,52.45100764612524,1.1063044482149835,88.53779602050781,93.21468925476074,87.54131603240967
2958.365,-53.89604187011719,-265.3233947753906,70.89765930175781,-0.1006025299429893,0.4099491238594055,0.7491752505302429,21.55401611328125,-20.706541061401367,-99.25231170654295,12.696837425231934,-10.651416778564451,46.3889045715332,-1.0391340255737305,0.2187631726264953,-0.0293895564973354,108.76730346679688,77.15596771240234,-13.445624351501465,279.8709796296704,0.8599085469926884,49.26045906546415,1.0623184997136152,87.21328735351562,97.86250877380373,85.8066873550415
2967.8680000000004,-71.5112533569336,-261.4443054199219,57.88819122314453,-0.1135490909218788,0.2956570386886596,0.5394632816314697,20.470853805541992,-26.001052856445312,-100.11888885498048,17.204376220703125,11.50036907196045,63.941184997558594,-0.9206713438034058,0.1855897158384323,-0.0998057574033737,108.41582489013672,75.87174224853516,-14.128507614135742,277.1606517460086,0.6255614380729738,67.20657846391833,0.9444789331354194,87.94497108459473,101.87279510498048,85.99038124084473
2991.767,-50.46292495727539,-259.2218322753906,53.38122177124024,-0.014852900058031,0.0976799055933952,0.4133153259754181,19.88431930541992,-31.233985900878903,-101.00546264648438,3.381891965866089,14.705336570739746,40.95977020263672,-0.9729242920875548,0.2139956802129745,-0.1114809215068817,108.6357192993164,75.00559997558594,-13.947381973266602,269.4290629483848,0.4249606232147098,43.65073758804463,1.0023990348877572,88.75139999389648,106.23958587646484,87.05808067321777
3014.011,-20.84067344665528,-250.79611206054688,53.23887634277344,0.1908664405345916,0.124905452132225,0.4046177864074707,19.930179595947266,-36.27095413208008,-101.84911346435548,-20.35273170471192,33.99463653564453,16.59988021850586,-1.0533915758132937,0.2093017101287841,-0.1512190550565719,110.3126449584961,74.48403930664062,-11.775275230407717,257.2302498708844,0.4644856544307714,42.9584104024265,1.0845774386688347,90.38246536254884,110.7549934387207,90.07383823394775
3035.304,-27.634796142578125,-235.3797607421875,54.0803108215332,0.3222367167472839,0.3068188428878784,0.4623605012893677,19.84677505493164,-41.06376647949219,-102.60075378417967,-22.28113555908203,62.41318130493164,3.2151923179626465,-0.982970416545868,0.1641643941402435,-0.1718747764825821,114.07161712646484,73.98519134521484,-7.442939758300781,243.08844839573297,0.6416786868236168,66.34901403974247,1.0112970517601283,94.2248420715332,115.04895782470705,95.1578140258789
3055.248,-54.18578720092773,-220.4502716064453,40.0289306640625,0.3179042935371399,0.2095599770545959,0.3394337892532348,19.47110748291016,-45.48430633544922,-103.6167449951172,-22.41485977172852,93.20211791992188,-1.167075753211975,-0.8505959510803223,0.2504329085350036,-0.2134056687355041,119.39956665039062,73.14253997802734,-1.47274649143219,230.51407131897187,0.5100919731962857,95.86669280390876,0.9120154017997651,99.92845916748048,118.62684631347656,102.143998503685
3077.833,-42.454734802246094,-207.4531097412109,34.271263122558594,0.3962950706481933,0.0103544602170586,0.1409862041473388,19.423194885253903,-49.62475204467773,-104.70143127441406,-36.22608184814453,109.44046020507812,-7.387728691101074,-0.8031649589538574,0.2635843455791473,-0.2851396203041076,124.9365005493164,72.06868743896484,5.082714080810547,214.50808079054644,0.4207542128444091,115.51676013107826,0.8921072029710945,105.5133056640625,121.69343948364258,109.7841453552246
3087.764,-16.957624435424805,-190.47772216796875,29.605541229248047,0.5204768776893616,0.0800628811120987,0.1816253215074539,19.99710273742676,-53.41075897216797,-105.8682632446289,-42.45132827758789,119.5548858642578,-18.68418502807617,-0.8962398767471313,0.2599522471427917,-0.3231815099716186,130.47402954101562,70.89014434814453,11.79966640472412,193.5092032443613,0.5570403958008097,128.2364409078427,0.987556264652215,110.47692680358888,124.3009033203125,117.66792964935304
3110.29,-25.31574058532715,-168.7035675048828,19.25986862182617,0.5731353759765625,0.2242807149887085,0.1647896319627761,20.65512466430664,-56.70841598510742,-107.28714752197266,-34.1027946472168,99.2811508178711,-18.000093460083008,-0.8831579089164734,0.253608226776123,-0.3297685086727142,134.65792846679688,69.77381896972656,16.93349266052246,171.6762154452041,0.637135480972508,106.50704612861456,0.9762337292280334,114.00280380249023,126.48223495483398,124.22064018249512
3137.707,-45.79933166503906,-142.50323486328125,5.751885890960693,0.599811851978302,0.1710404753684997,0.006194447632879,21.201398849487305,-59.41219329833984,-109.00892639160156,-15.534400939941406,71.4062271118164,-2.615138530731201,-0.7145330905914307,0.2187256217002868,-0.3368376493453979,137.1699981689453,68.76229095458984,19.978710174560547,149.7926397349562,0.6237527339975347,73.12322361905328,0.8196694682339046,115.968599319458,128.1744842529297,128.9876365661621
3147.924,-29.97026634216309,-114.21654510498048,-2.974088191986084,0.7098952531814575,0.0191073138266801,-0.0162376668304204,22.185630798339844,-61.51442337036133,-110.82844543457033,-5.53746509552002,23.837759017944336,3.965983867645264,-0.7952222228050232,0.2270927131175995,-0.351085364818573,137.81015014648438,68.3250961303711,20.79376602172852,118.12062157350825,0.7103379630537373,24.791758766172915,0.8984488952544072,115.62451934814452,129.83951950073242,131.62221145629883
3170.204,-0.9889925122261048,-82.03372192382812,-7.012742519378662,0.7798964977264404,0.0425199717283248,-0.0266626328229904,23.62173080444336,-62.97239303588867,-112.47307586669922,1.2725104093551636,-0.5540681481361389,15.773870468139648,-0.8387039303779602,0.1811251193284988,-0.3582703471183777,137.4137420654297,68.0908203125,20.386138916015625,82.33886200639586,0.7815096871765563,15.834811770284622,0.9298323683909504,113.79201126098631,131.06321334838867,132.85921478271484
3187.801,14.967255592346191,-47.939239501953125,-12.345099449157717,0.7785796523094177,0.1040467098355293,-0.0442060567438602,25.15604782104492,-63.7445182800293,-113.85415649414062,4.934930801391602,-3.571934461593628,16.342634201049805,-0.774692177772522,0.1719695180654525,-0.3326099216938019,136.91102600097656,67.90941619873047,19.8139705657959,51.71644713630119,0.7867440297013343,17.441156797694543,0.8604364273174131,111.75497817993164,131.65393447875977,133.66812705993652
3210.005,25.0517578125,-15.06651782989502,-16.095962524414062,0.777006983757019,0.0628194436430931,-0.0489880889654159,26.51109504699707,-63.8759994506836,-114.80524444580078,6.531476974487305,-4.3232269287109375,14.328275680541992,-0.7905852794647217,0.2101652026176452,-0.3198041319847107,136.50079345703125,67.74224853515625,19.29988479614257,33.37170266261584,0.7810800011313128,16.329420275165937,0.8783331824154899,109.98969841003418,131.61824798583984,134.10512924194336
3234.157,37.75221633911133,15.26011848449707,-15.949357986450195,0.7912834882736206,0.1302112340927124,0.0264380536973476,27.558439254760746,-63.45928955078125,-115.13092041015624,9.345987319946287,3.209027051925659,1.7693465948104858,-0.7910234332084656,0.2029458284378051,-0.3397808670997619,136.87884521484375,67.63416290283203,19.55888557434082,43.73194570169382,0.8023611998231969,10.0387210827453,0.8845089704532572,109.320405960083,131.09345245361328,134.68980598449707
3254.105,34.620540618896484,45.337833404541016,-20.064083099365234,0.81451416015625,0.1243759766221046,0.0151393162086606,28.115617752075195,-62.4698371887207,-114.97876739501952,7.678810119628906,9.604768753051758,-1.7994937896728516,-0.8187341094017029,0.1543924063444137,-0.3198148608207702,137.58705139160156,67.51638793945312,20.203800201416016,60.47039276522693,0.8240945938125122,12.427947761074066,0.8924371699096956,109.47143363952635,129.98622512817383,135.18256759643555
3267.738,50.59550476074219,73.67884826660156,-21.10933303833008,0.7996039390563965,0.0628166571259498,0.0791859850287437,28.52061080932617,-60.971961975097656,-114.28919219970705,7.576148986816406,7.002671718597412,-4.624885082244873,-0.8453582525253296,0.1548133939504623,-0.2939231395721435,138.26597595214844,67.4911880493164,20.84617805480957,91.83725673826672,0.8059670042824066,11.305972169294176,0.9082888164207934,109.74536514282228,128.46315002441406,135.1353702545166
3290.008,52.91381072998047,97.16947174072266,-20.09354591369629,0.8083007335662842,0.1382226347923278,0.1234068498015403,28.57950210571289,-59.072601318359375,-113.1357879638672,11.226619720458984,-5.032947540283203,-9.330425262451172,-0.8241159319877625,0.2057875245809555,-0.2787165641784668,138.7194061279297,67.68827056884766,21.17917823791504,112.4523374222391,0.8292676427008752,15.440996951920829,0.8939790253561126,110.1399040222168,126.76087188720705,134.31496620178223
3310.146,46.583763122558594,116.32830810546876,-25.310232162475582,0.7460187077522278,0.1688408851623535,0.1469816863536834,28.448558807373047,-56.78635025024414,-111.88189697265624,6.231846809387207,-17.336410522460938,-13.127262115478516,-0.8410825729370117,0.2325624823570251,-0.2476667165756225,138.7481231689453,68.12486267089844,21.159656524658203,127.8394700609242,0.7788804612660941,22.621053359811548,0.9071074937391682,110.29956436157228,124.91121292114258,133.04155349731445
3332.4500000000003,47.7064094543457,132.39486694335938,-25.70691299438477,0.7416006922721863,0.1134616285562515,0.1884435415267944,28.23314094543457,-54.21156311035156,-110.4630126953125,-4.4471635818481445,-33.43158721923828,-22.399593353271484,-0.9083220362663268,0.2442995309829712,-0.2553138732910156,138.3660125732422,68.92733001708984,20.91056251525879,143.05644924880662,0.7735348061182402,40.48691233365638,0.9746365252238226,110.13287162780762,123.1388931274414,131.3735752105713
3356.074,50.72129821777344,148.76849365234375,-29.943204879760746,0.7091723084449768,0.1802187263965606,0.1604901999235153,28.09467506408692,-51.30570602416992,-109.01573181152344,-7.311890602111816,-47.964115142822266,-33.80101776123047,-0.9935061931610109,0.2664216160774231,-0.2035493105649948,137.75271606445312,70.11795043945312,20.495973587036133,160.00409468183955,0.7491069727887103,59.1314542972366,1.0485548889753336,109.6580410003662,121.42365646362305,129.51170539855957
3377.357,54.95268249511719,164.42027282714844,-36.48154830932617,0.6122134327888489,0.2904851138591766,0.2573278248310089,28.126588821411133,-48.06177520751953,-107.61668395996094,-2.514713764190674,-42.9110107421875,-32.587501525878906,-0.9124186038970948,0.2155538648366928,-0.2065352797508239,137.38999938964844,71.2071304321289,20.24557876586914,177.15735038944555,0.7248479137675321,53.94092957978293,0.9600145827878396,109.2634105682373,119.26890563964844,127.86226272583008
3387.419,42.55155563354492,175.66781616210938,-41.59096145629883,0.5971235632896423,0.2138772010803222,0.3636513650417328,28.0228214263916,-44.61373901367188,-106.29133605957033,-4.6967644691467285,-49.88780975341797,-26.494365692138672,-0.9653117656707764,0.191733032464981,-0.2186911255121231,136.41763305664062,72.31690216064453,19.40571975708008,185.4713578881081,0.7311240129242013,56.68160699821979,1.0081736800067778,108.39481163024902,116.9306411743164,125.6970558166504
3409.78,48.015743255615234,187.8809051513672,-48.34886169433594,0.5557501316070557,0.1821727603673935,0.2789583802223205,28.139280319213867,-40.84364318847656,-105.04865264892578,-5.498125076293945,-44.60772705078125,-34.130340576171875,-1.0037553310394287,0.1833548545837402,-0.2020851671695709,135.91818237304688,73.45669555664062,19.051328659057617,199.855844417981,0.647968287262113,56.4354395733484,1.0401837251560184,107.778902053833,114.3003387451172,124.0999813079834
3432.271,56.45346450805664,201.09353637695312,-55.82677459716797,0.4250662922859192,0.373777687549591,0.4156582951545715,28.55778694152832,-36.7706413269043,-103.88105010986328,4.232397556304932,-43.88497543334961,-36.29487991333008,-1.1017714738845823,0.2087590396404266,-0.102700650691986,135.5386199951172,74.64242553710938,18.62450408935547,216.19952078918763,0.7022556022406821,57.10623928944512,1.1260675561217257,106.98083305358888,111.41306686401369,122.50555419921876
3452.505,31.736337661743164,210.865966796875,-62.04443740844727,0.2969623804092407,0.3866183757781982,0.4517236351966858,28.547985076904297,-32.47501373291016,-102.75253295898438,20.86164283752441,-37.35664749145508,-26.611289978027344,-0.8209975957870483,0.2150918692350387,-0.0946955531835556,135.1795654296875,75.55180358886719,17.888776779174805,222.0836853411157,0.6646161798083186,50.38737945136589,0.8539723720893295,106.6315803527832,108.02681732177734,120.64130973815918
3475.204,37.91747283935547,205.4345245361328,-68.41438293457031,0.3259654939174652,0.0723417699337005,0.448872834444046,28.859764099121094,-28.21475601196289,-101.86563873291016,14.222342491149902,-38.45506286621094,-6.220609664916992,-1.035964846611023,0.2063114494085312,-0.1253087818622589,133.51234436035156,76.1945571899414,15.920412063598633,219.8217605475587,0.5594404851311974,41.47002375913308,1.0637151255776391,104.65258026123048,104.4093132019043,117.7860507965088
3499.752,82.45783996582031,208.9425048828125,-78.23829650878906,0.1579547375440597,0.4529455304145813,0.580441951751709,30.15795135498047,-23.795185089111328,-101.0861587524414,27.100879669189453,-23.61482048034668,-28.130502700805664,-1.0998557806015017,0.2248358875513076,-0.1193890869617462,134.10928344726562,76.94053649902344,16.03588104248047,237.860246277368,0.7530087728496212,45.64474348008675,1.1289320920848525,103.95133209228516,100.73572158813477,117.12203979492188
3507.461,32.33135223388672,218.8389434814453,-86.94000244140625,0.00300326757133,0.6579201817512512,0.6280623078346252,30.522071838378903,-19.14267349243164,-100.31597900390624,21.550466537475582,10.809256553649902,-25.9917049407959,-0.9986920356750488,0.1134576499462127,-0.0526335313916206,136.69308471679688,77.21527862548828,18.297231674194336,237.6854298139846,0.90957696084183,35.45181745630077,1.006493273240732,106.17101287841795,96.35795211791992,118.6132106781006
3534.8,14.475128173828123,217.7226409912109,-91.0185089111328,-0.0388233177363872,0.1929828822612762,0.7584066987037659,30.61745834350586,-14.469468116760254,-99.64389038085938,14.460415840148926,11.791190147399902,-11.064126014709473,-1.0579144954681396,0.1843176782131195,-0.1228254958987236,138.26905822753906,77.2059555053711,19.657007217407227,236.42556270471772,0.7835370849453616,21.69218006175362,1.0808525286394304,107.6515998840332,91.67542362213136,119.3008975982666
3557.606,67.4277572631836,216.1104888916016,-86.53144073486328,-0.0167180523276329,0.2395635545253753,0.5678775906562805,31.802940368652344,-9.876320838928224,-98.87727355957033,15.378612518310549,-10.182382583618164,-9.814638137817385,-1.1039363145828247,0.2058791667222976,-0.168493241071701,138.53289794921875,77.48345947265625,19.64567947387696,242.3591056555561,0.6165672290188995,20.89281598645352,1.135540219557116,106.7299575805664,87.35978031158447,118.52295303344728
3577.454,77.27876281738281,213.40335083007807,-99.78211212158205,-0.2540450096130371,0.8381544947624207,0.9651376605033876,33.26622009277344,-5.208707809448242,-98.2493896484375,15.508903503417969,-0.4898950457572937,-11.83143424987793,-0.8896922469139099,0.1043479293584823,0.0354390107095241,139.5716552734375,77.67304992675781,20.40666007995605,247.9303676993496,1.3032776096141945,19.512788663934536,0.8964913318377341,106.30543518066406,82.88175773620605,118.65604972839355
3587.752,-5.164815902709961,216.7916259765625,-108.55496215820312,-0.3257943391799927,0.5178048014640808,0.6739566922187805,33.13370513916016,-0.3943491876125335,-97.69075775146484,41.131980895996094,7.823670387268066,8.470250129699707,-0.9386869668960572,0.1362955719232559,-0.2126785367727279,140.3482666015625,77.4197769165039,20.37029838562012,242.50662717962896,0.9102095290906728,42.717617068568806,0.9720812027553024,107.21456146240234,77.81412610411644,118.06105613708496
3610.597,22.888227462768555,214.23541259765625,-102.66636657714844,-0.4585347175598144,0.3985377252101898,0.7224401235580444,33.6121940612793,4.311559677124023,-97.05290222167967,39.92228698730469,-24.3177433013916,-6.211325645446777,-1.127219319343567,0.2986607551574707,-0.1193286105990409,139.87628173828125,77.86288452148438,19.11297607421875,238.6651750746825,0.9439312145225064,47.15635910291292,1.172203462663416,106.26408767700195,73.55132484436035,116.16587829589844
3627.58,65.69316101074219,212.0613555908203,-107.00183868408205,-0.3585361838340759,0.2774906158447265,0.6162242889404297,34.998680114746094,9.019949913024902,-96.43919372558594,-6.433599472045898,-49.76177978515625,23.20437240600586,-1.24275004863739,0.1269924342632293,-0.0493780151009559,134.8618621826172,78.3002700805664,14.16264533996582,246.4447269072194,0.765036999942046,55.28172237104865,1.2501971644999226,99.8631820678711,69.2803201675415,110.60183906555176
3650.543,71.52822875976562,211.1055908203125,-107.70637512207033,-0.5766831040382385,1.1155805587768557,1.1628283262252808,36.576419830322266,13.70020866394043,-95.68899536132812,29.8852767944336,-24.24671173095703,-3.9103684425354,-0.9228433966636658,0.0049435719847679,-0.1052182912826538,134.11404418945312,78.69139099121094,12.833942413330078,247.55306749672624,1.7115060916853164,38.68234455407812,0.928835433481164,97.53762435913086,64.99118232727051,108.5229377746582
3672.365,-49.765663146972656,211.97659301757807,-124.4699249267578,-0.668680727481842,0.5395126938819885,0.6640611290931702,35.72367477416992,18.58876037597656,-95.17298126220705,50.65031051635742,-3.1997361183166504,3.030952453613281,-0.707891047000885,0.268654853105545,-0.1366674154996872,134.63938903808594,78.67237091064453,12.356447219848633,250.8056208043804,1.0859028710423146,50.84170472561233,0.7693914133784802,98.91571426391602,60.08361053466797,107.52942848205566
3699.1,36.02247619628906,205.95425415039065,-110.91047668457033,-0.8254759907722473,0.1630856841802597,0.3665500581264496,36.68464279174805,23.2230167388916,-94.50790405273438,-3.307797908782959,-30.58261680603028,40.56061172485352,-1.177181363105774,0.1639305651187896,-0.1308825016021728,129.61956787109375,78.48848724365234,7.322222709655762,236.6767995227976,0.917805260847022,50.90580714618086,1.195725478966379,92.9349250793457,55.26547050476074,101.83012676239014
3710.611,103.9942855834961,195.9952087402344,-103.71817779541016,-0.768555760383606,0.673385739326477,1.0857110023498535,39.10051345825195,27.58028984069824,-93.66691589355467,-2.5453076362609863,-58.85107421875,29.8494930267334,-1.2544670104980469,0.0204212050884962,-0.0080334190279245,123.17546081542967,78.72685241699219,0.808072030544281,244.92119893620907,1.490937520948015,66.03726040363149,1.254658934478391,84.07494735717773,51.146562576293945,94.47498792409895
3732.133,13.56614112854004,200.4917907714844,-111.87051391601562,-0.7480058670043945,0.971161961555481,0.9752193093299866,39.89440536499024,32.073707580566406,-92.68167877197266,46.42265701293945,-19.093700408935547,-10.867311477661133,-0.6653568744659424,0.1068863347172737,-0.1972232013940811,123.19491577148438,79.12306213378906,-0.088517352938652,229.9913264358236,1.5664357739579815,51.35884479035434,0.7021548619190151,83.30051040649414,47.049354553222656,92.593161419034
3755.218,-38.11742401123047,192.39073181152344,-122.4707260131836,-1.1078237295150757,0.4124007523059845,0.4266009926795959,39.52162551879883,36.59757995605469,-91.99404907226562,14.138113021850586,-14.723550796508787,5.647739410400391,-0.7841910123825073,0.1793807297945022,-0.1756901741027832,122.05353546142578,79.11883544921875,-1.5327939987182615,231.2276160635268,1.2567164370431585,21.179380262977137,0.8234075706473534,82.53190994262695,42.52125549316406,90.46125507354736
3775.774,35.927978515625,179.65850830078125,-92.45714569091795,-1.1413564682006836,0.447990357875824,0.4946109056472778,40.96030807495117,40.54765319824219,-90.84474182128906,-0.6588343381881714,-24.38342666625977,25.50846099853516,-1.338321566581726,0.0909428671002388,-0.0309851188212633,118.58992004394533,78.95040130615234,-5.084721565246582,205.2226182329636,1.322130816613268,35.294009990192855,1.3417657389583866,77.62961196899414,38.40274810791016,85.76002025604248
3797.608,50.94136428833008,178.14060974121094,-92.56453704833984,-0.9332489967346193,0.5919888019561768,0.9543419480323792,42.86450958251953,44.44536972045898,-89.46737670898438,14.371419906616213,-63.17430877685547,15.751556396484377,-1.2957035303115845,0.0811175629496574,0.0934072732925415,112.32096099853516,79.23104858398438,-11.791748046875,207.1166167971567,1.460196214664974,66.67565169143374,1.3015961801514102,69.45645141601562,34.78567886352539,77.67562866210938
3807.193,3.0344927310943604,184.39419555664065,-88.90866088867188,-0.8849126100540161,0.7332953214645386,0.893253743648529,44.26354217529297,48.3169059753418,-87.63392639160156,46.73926162719727,-49.75164794921875,-24.25886917114257,-0.7846758365631104,0.0683464780449867,-0.1034020707011222,109.22463989257812,80.06171417236328,-15.92516040802002,204.73196497404248,1.4555736348452126,72.44499834068056,0.7944050590048195,64.96109771728516,31.744808197021484,71.70876598358154
3830.26,-39.64606094360352,174.17176818847656,-89.141357421875,-1.2144231796264648,0.4985957443714142,0.41704261302948,44.88627243041992,52.06753158569336,-85.75907135009766,21.480270385742188,-23.92705726623535,-32.66294860839844,-0.6572728753089905,0.0782580748200416,-0.3442595601081848,108.22088623046876,80.84075164794922,-17.399328231811523,199.6341568601396,1.3774418015298484,45.83420444451039,0.7460875308014253,63.33461380004883,28.77322006225586,68.35974311828613
3851.11,3.663703203201294,148.50180053710938,-65.46644592285156,-1.3105137348175049,0.3982461988925934,0.3099845051765442,46.60177612304688,55.10184097290039,-83.72116088867188,7.179689884185791,-1.9813411235809328,-4.117753505706787,-1.0239629745483398,0.10160893201828,-0.295296162366867,108.4281234741211,80.93368530273438,-17.365163803100586,162.3331852262322,1.404327838336644,8.510555411654005,1.0705252784593078,61.82634735107422,25.831844329833984,66.35599708557129
3872.082,24.00571823120117,125.56423950195312,-55.95814514160156,-1.2043622732162476,0.6057294011116028,0.6313871741294861,48.69779586791992,57.59931564331055,-81.71331024169922,8.409204483032227,-10.274847030639648,-9.397165298461914,-1.163285255432129,0.1727682948112487,-0.0923432409763336,107.8370590209961,81.17491912841797,-18.18431282043457,139.54915534387234,1.4886390953393795,16.26634307971864,1.179664674113705,59.13926315307617,23.575603485107425,63.52899742126465
3894.593,-3.496643543243408,116.32159423828124,-57.32080459594727,-1.0263195037841797,0.53983473777771,0.7086707353591919,50.31990051269531,59.98236846923828,-79.7386474609375,21.733051300048828,-13.58000946044922,-20.731176376342773,-1.0401922464370728,0.1361290365457534,-0.0600197724997997,107.46038818359376,81.66374206542969,-19.055191040039062,129.7251496115176,1.3590318168144082,32.96246122035606,1.050777520329402,57.14048767089844,21.681373596191406,60.68345642089844
3919.34,-24.501279830932617,110.73880004882812,-47.138973236083984,-1.0227502584457395,0.5472067594528198,0.483470618724823,51.8570671081543,62.05720520019531,-77.36561584472656,22.95240592956543,-11.865047454833984,-24.280088424682617,-0.98336660861969,0.0936603546142578,-0.0102957086637616,107.27635955810548,82.23303985595703,-19.75712013244629,122.82295122394773,1.2566611189624062,35.45581733610748,0.9878705130691714,55.41929244995117,20.17583465576172,57.60849571228027
3927.21,-21.217021942138672,102.40980529785156,-40.08002853393555,-1.0073155164718628,0.4540950357913971,0.3648332059383392,53.659854888916016,63.908424377441406,-74.88027954101562,19.334304809570312,-15.02624225616455,-9.502152442932127,-1.0150892734527588,0.1290493607521057,-0.0307210329920053,105.90853881835938,82.50743865966797,-21.57634353637696,112.00151306352136,1.16361081097187,26.26583712465757,1.023720544122014,52.24868392944336,18.59901428222656,53.30393600463867
3950.157,-7.898165225982666,92.6916275024414,-32.200477600097656,-0.9908477663993835,0.5506248474121094,0.4220605492591858,55.90902328491211,65.47583770751953,-72.21810913085938,21.08721923828125,-22.23015594482422,5.180445671081543,-1.0298463106155396,0.1830907464027404,-0.0241417475044727,102.96602630615234,82.5154800415039,-25.002573013305664,98.4428239165388,1.2095875850913904,31.07551553692344,1.0462736109064974,47.05700302124024,17.039642333984375,47.21553611755371
3974.601,-16.009918212890625,83.2360610961914,-30.96158790588379,-0.981838583946228,0.500126838684082,0.4665356874465942,57.98253631591797,66.90438079833984,-69.63192749023438,25.34543228149414,-26.549171447753903,-8.253900527954102,-0.9954451322555542,0.2021517902612686,-0.0178159736096858,99.65304565429688,82.74441528320312,-28.870758056640625,90.23956600985028,1.1965740292012583,37.62148742438817,1.015920157567894,41.670509338378906,15.84003448486328,40.76116943359375
3994.885,-20.96083068847656,73.86589050292969,-23.99468994140625,-0.9871758222579956,0.5009317398071289,0.4060686230659485,60.00421142578125,68.06736755371094,-67.03921508789062,21.69819068908692,-28.503379821777344,-3.3767800331115723,-1.016005277633667,0.1217301487922668,0.0059210658073425,95.64112091064452,82.8941650390625,-33.363094329833984,80.44421264656644,1.1791269815569578,35.98133938358191,1.0232888215576026,35.63690948486328,14.826797485351562,33.67612075805664
4016.973,-22.67160415649414,62.89491271972656,-14.356717109680176,-0.9909258484840392,0.5729326605796814,0.4596723616123199,61.985939025878906,68.92979431152344,-64.44097137451172,21.2458553314209,-20.00189208984375,-0.4062367677688598,-0.9588837623596193,0.1723897159099578,-0.0350300371646881,93.01893615722656,82.90001678466797,-36.469337463378906,68.3804577874276,1.2334847185040327,29.1826503979489,0.9748863458743352,31.032997131347656,13.970222473144531,27.97163391113281
4037.04,-29.58058738708496,50.1136474609375,-7.254080772399902,-0.9409850239753724,0.6101505160331726,0.4451407194137573,63.56445693969727,69.51834106445312,-62.17026519775391,12.200446128845217,-15.87607192993164,9.183040618896484,-0.977241575717926,0.2402295470237732,-0.0436293371021747,90.9051742553711,82.65748596191406,-38.86655426025391,58.64307716906233,1.2066013126305126,22.02790913081676,1.0072809199180124,27.340717315673828,13.139144897460938,23.3037109375
4047.062,-38.6007194519043,33.531986236572266,-0.3091257512569427,-0.9235710501670836,0.5882147550582886,0.4766117036342621,64.40939331054688,69.81825256347656,-60.47347259521485,-4.545265197753906,-5.221258640289307,6.33279275894165,-0.8920129537582397,0.2231601625680923,-0.1366454660892486,90.12417602539062,82.51215362548828,-39.595985412597656,51.132232514377705,1.1942105337067523,9.382176806819002,0.9296018240261068,25.71478271484375,12.69390106201172,20.877487182617188
4069.68,-47.845191955566406,15.815108299255373,7.0038743019104,-0.9515149593353271,0.5148987174034119,0.3159034848213196,64.39060974121094,69.79766082763672,-59.50067901611328,-28.911869049072266,16.05219078063965,-0.7554451823234558,-0.9150031208992004,0.1469158679246902,-0.2021557092666626,91.9569320678711,82.52240753173828,-37.20845413208008,50.87567492445808,1.127074273836841,33.07778254648051,0.9485156373473498,27.56632232666016,12.724746704101562,22.292224884033203
4094.601,-36.41087341308594,-6.930643081665039,10.580710411071776,-1.0664238929748535,0.4110869765281677,0.2395866215229034,63.53202438354492,69.50942993164062,-59.66665649414063,-43.23960876464844,37.063758850097656,-0.8292688727378845,-0.9987891912460328,0.0902208536863327,-0.2811104655265808,96.64423370361328,82.4843978881836,-31.65373039245605,38.545258450711714,1.1677560408713248,56.95677021286711,1.0415098390405948,33.11220932006836,12.974967956542969,28.01292610168457
4106.981,-27.09933853149414,-33.46371078491211,19.1741886138916,-1.1057631969451904,0.4460112452507019,0.4048669934272766,61.801700592041016,68.82648468017578,-60.95441436767578,-51.03175354003906,41.75823211669922,-3.49564528465271,-1.021114945411682,0.1538847833871841,-0.2341528683900833,101.84242248535156,82.41909790039062,-25.42867088317871,47.13643598472265,1.2591884533203803,66.03188135165871,1.0588596810137436,40.04072189331055,13.592613220214844,35.52574348449707
4129.428,-34.7799186706543,-58.38792419433594,19.44903564453125,-1.1247996091842651,0.4097020030021667,0.4547995030879974,58.9785041809082,67.89785766601562,-63.23885345458984,-68.43610382080078,42.65841674804688,-11.662542343139648,-1.0624511241912842,0.1090779975056648,-0.1752370297908783,107.50774383544922,82.42940521240234,-18.407825469970703,70.68986788757704,1.2805750583601698,81.48162811043355,1.0823162280244616,48.529239654541016,14.53154754638672,44.83102798461914
4152.311,-29.81317901611328,-79.42572784423828,24.02076530456543,-1.1468428373336792,0.3819763660430908,0.470448762178421,55.65858459472656,66.60540008544922,-66.14501190185547,-64.1238021850586,42.33645248413086,-8.763381004333496,-1.1042193174362185,0.0689160525798797,-0.0806465968489646,112.73967742919922,82.331787109375,-11.863747596740724,88.17181552202972,1.2971031090835676,77.33714542337795,1.1093032033154056,57.081092834472656,15.72638702392578,54.281264305114746
4174.572,-22.044723510742188,-97.93074035644533,30.6577091217041,-1.127577304840088,0.4671657085418701,0.6127172708511353,52.49528121948242,64.95760345458984,-69.06368255615234,-49.10144805908203,35.139015197753906,-3.424309730529785,-1.047783374786377,0.020774545148015,-0.0948095768690109,116.89493560791016,82.14371490478516,-6.71034574508667,104.958538814227,1.3656854804921694,60.47667722103548,1.0522691851759782,64.39965438842773,17.186111450195312,62.35333681106568
4196.999,-31.19468116760254,-113.1810073852539,36.60020065307617,-1.0776454210281372,0.463019460439682,0.5911446213722229,49.228607177734375,62.95858383178711,-71.9714584350586,-39.60630798339844,24.20713806152344,0.0190666913986206,-0.9820540547370912,0.0666441917419433,-0.0998437777161598,119.3515625,81.9316635131836,-3.4693753719329834,122.9740755351904,1.3134529445648495,46.41815947174326,0.9893636311625428,70.12295532226562,18.973079681396484,68.50208306312561
4207.253,-13.46479606628418,-132.02935791015625,46.56321334838867,-1.0458581447601318,0.4706921577453613,0.5929767489433289,46.39874267578125,60.42770385742188,-74.82791137695312,-39.18580627441406,21.319759368896484,0.5451940298080444,-0.9573100209236144,0.0945424735546112,-0.0613488182425498,121.08781433105467,81.72117614746094,-0.9409931898117064,140.64560043102068,1.2911203627514705,44.61341490464159,0.9639213831876297,74.68907165527344,21.293472290039062,73.88691818714142
4229.945,5.2420654296875,-148.675048828125,54.77149963378906,-1.034005880355835,0.5199648141860962,0.657698392868042,44.19907379150391,57.4888801574707,-77.48873901367188,-36.17544555664063,18.43568229675293,0.1070259362459182,-0.973642647266388,0.0777811706066131,-0.0315764918923378,122.41062927246094,81.5594711303711,1.0987483263015747,158.52970247290767,1.3312019924050715,40.602323794572506,0.9772548234299292,78.21155548095703,24.07059097290039,78.58748733997345
4252.351,-3.385027408599853,-162.2659149169922,65.28955841064453,-1.043315291404724,0.5970770716667175,0.7647939324378967,42.22646331787109,54.19073486328125,-79.77355194091797,-25.81809425354004,14.589168548583984,6.329000473022461,-0.9656118154525756,0.0905353128910064,-0.0436417609453201,123.01271057128906,81.32000732421875,2.190947294235229,174.94116723019337,1.4247517628986637,30.32283094981713,0.9708282156593412,80.78624725341797,27.1292724609375,81.9644992351532
4274.951,-9.010269165039062,-176.08151245117188,69.7041015625,-1.0836288928985596,0.5711970329284668,0.7347593903541565,40.35416793823242,50.5918083190918,-81.88751220703125,-20.646896362304688,15.3814115524292,11.362895011901855,-0.9910765290260316,0.166834220290184,-0.0680916905403137,123.32042694091795,80.9456558227539,2.878215074539185,189.5904685160991,1.428421852837758,28.142450742471897,1.0073245861025917,82.96625900268555,30.35384750366211,84.76572728157043
4296.964,-2.434688806533813,-191.9610290527344,78.07752990722656,-1.1061265468597412,0.5929409861564636,0.7913475036621094,38.86404800415039,46.627174377441406,-83.78792572021484,-23.88956451416016,16.40667724609375,11.721024513244627,-1.0027915239334106,0.1921801269054412,-0.0555029734969139,123.51848602294922,80.55089569091797,3.5434842109680176,207.24638732914804,1.4836865647043878,31.261362199587403,1.0225481023976737,84.65443801879883,33.92372131347656,87.33140993118286
4306.94,-8.356101989746094,-204.13917541503903,83.35363006591797,-1.087570071220398,0.6233670115470886,0.8690246343612671,37.479610443115234,42.4006233215332,-85.50188446044922,-26.662338256835938,19.406858444213867,12.575454711914062,-1.0183095932006836,0.1472005248069763,-0.0372440963983535,123.88668823242188,80.13988494873047,4.473296165466309,220.65913764165995,1.5253192800283564,35.29374586533844,1.0295676494648232,86.40707778930664,37.73926162719727,89.97518062591553
4331.327,-20.45347785949707,-214.1675720214844,88.71998596191406,-1.0363943576812744,0.5883719325065613,0.8566884994506836,36.08346176147461,37.953460693359375,-87.00910186767578,-25.649639129638672,18.89854049682617,11.730850219726562,-1.0017342567443848,0.1325983256101608,-0.0375077947974205,124.25276184082033,79.75741577148438,5.37374210357666,232.717273899487,1.467722719278458,33.95101864846663,1.0111679740579251,88.1693000793457,41.803955078125,92.38284397125244
4351.860000000001,-19.8206787109375,-224.6407012939453,93.45413208007812,-1.0039222240447998,0.5957249402999878,0.8824338316917419,34.89533233642578,33.28556442260742,-88.35016632080078,-22.41069984436035,21.95516395568848,10.88145351409912,-1.0138015747070312,0.1836621761322021,-0.0155318398028612,124.81109619140624,79.34136199951172,6.398192882537842,244.11058720432112,1.463365130013918,33.20654637890962,1.030420625699881,89.91576385498047,46.0557975769043,94.74835920333862
4375.316,-26.106733322143555,-232.5270233154297,96.22953033447266,-0.9223352074623108,0.5718005895614624,0.8847235441207886,33.7513427734375,28.404794692993164,-89.55316925048828,-16.820322036743164,23.586875915527344,11.953099250793455,-1.0239847898483276,0.1766994744539261,-0.0231006368994712,125.51727294921876,78.89286804199219,7.453131675720215,253.00296560530884,1.400140671028818,31.339121407173344,1.0393753862479995,91.76593017578124,50.48807334899902,97.0063009262085
4396.841,-27.445331573486328,-240.0623016357422,98.1062240600586,-0.8587087988853455,0.5984858870506287,0.936656415462494,32.7216911315918,23.315757751464844,-90.65185546875,-6.308533191680908,26.12688446044922,12.01357650756836,-1.055139183998108,0.1852852404117584,-0.0217533390969038,126.53860473632812,78.41434478759766,8.618435859680176,260.78340838932047,1.4045965253085808,29.440409357605763,1.0715047949890384,93.81691360473631,55.09858703613281,99.27029132843018
4406.607,-45.42916870117188,-244.9990234375,97.31095886230467,-0.780604362487793,0.5884066224098206,0.8994694948196411,31.452220916748047,18.13298416137696,-91.6719207763672,1.5441396236419678,22.86874008178711,13.304720878601074,-1.0537798404693604,0.1495145261287689,-0.0381096713244915,127.39281463623048,77.96558380126953,9.452743530273438,267.5028103944132,1.328386576317981,26.50243833618184,1.065015911971085,95.94059371948242,59.83259963989258,101.12466430664062
4434.208,-44.68550491333008,-251.92352294921875,93.89141845703124,-0.7132512927055359,0.4829561710357666,0.8744373321533203,30.2891788482666,12.8468656539917,-92.67807006835938,3.4371461868286133,10.483891487121582,11.859667778015137,-1.0858688354492188,0.1821632385253906,0.0154367685317993,127.26529693603516,77.6991195678711,9.247305870056152,272.539637895808,1.2274423479540957,16.198076257020812,1.1011507013540904,96.97611808776855,64.8522539138794,101.92537593841551
4456.656,-43.07790756225586,-254.9247283935547,95.61515808105467,-0.5979709029197693,0.512803316116333,0.8396684527397156,29.27152633666992,7.474599838256836,-93.5641860961914,5.213839530944824,-11.67595100402832,14.229267120361328,-1.1073541641235352,0.1652292907238006,0.0344823561608791,125.64266204833984,77.63938903808594,7.522318363189697,275.65300963590977,1.151338157226147,19.130708227494058,1.1201441854516896,96.37113571166992,70.1647891998291,101.0865044593811
4476.796,-49.94328689575195,-255.41612243652344,92.4289093017578,-0.5106523036956787,0.4722439050674438,0.872656524181366,28.201923370361328,2.109463930130005,-94.40113830566406,9.906962394714355,-28.36589431762696,14.556163787841797,-1.0989376306533811,0.1239106059074401,0.0121583752334117,122.78885650634766,77.78062438964844,4.449439525604248,276.1789832358232,1.115934357540512,33.38643090459869,1.1059681642844577,94.58693313598631,75.67116045951843,98.85057783126832
4486.776,-52.49873352050781,-255.1587371826172,91.97620391845705,-0.4407191276550293,0.4325976371765136,0.773872971534729,27.16019058227539,-3.2616610527038574,-95.14154815673828,26.760448455810547,-39.37956619262695,26.357568740844727,-1.0094660520553589,0.1169465109705925,-0.0292927213013172,118.8799819946289,77.78813171386719,-0.0569822713732719,276.2638598679436,0.9900774925447524,54.42052246169579,1.0166396904516684,91.71979141235352,81.04979276657104,95.084565885365
4509.134999999999,-51.17245864868164,-255.76080322265625,87.35489654541016,-0.3531849980354309,0.3729858696460724,0.7264193296432495,26.212665557861328,-8.61401653289795,-95.87966918945312,31.707767486572266,-46.77770233154297,38.29913711547852,-1.031705021858215,0.1655709594488144,-0.0333678275346756,114.03475189208984,77.54972839355469,-5.615873336791992,275.06924026453527,0.8896871047015755,68.26682838825306,1.0454388584009326,87.82208633422852,86.16374492645264,90.26379585266112
4526.590999999999,-55.01250457763672,-252.9272308349609,85.58638000488281,-0.233028158545494,0.4197229743003845,0.7212867140769958,25.24406814575196,-13.911396026611328,-96.54801940917967,43.187103271484375,-46.23578643798828,38.89026641845703,-0.954009473323822,0.2800067961215973,-0.055198960006237,109.71029663085938,77.1382827758789,-10.869446754455566,272.62352833181205,0.8664433170927311,74.26524529428072,0.995783513747666,84.46622848510742,91.04967880249023,85.67857265472412
4549.377,-53.170188903808594,-249.8265991210937,73.13396453857422,-0.1528180688619613,0.2384296357631683,0.6378962397575378,24.40939140319824,-19.05858421325684,-97.3477554321289,22.554441452026367,-35.00722885131836,57.29920959472656,-1.0172725915908811,0.3051099479198456,-0.0646992549300193,105.80777740478516,76.21696472167969,-15.32815647125244,265.6858584599636,0.697935287886823,70.83366658053123,1.0640120297770033,81.39838600158691,95.27554893493652,82.01959896087646
4571.81,-32.35284423828125,-246.19102478027344,73.2008056640625,-0.0574506521224975,0.3097999691963196,0.6244215369224548,24.03240394592285,-24.14746856689453,-98.08155822753906,7.890781402587891,-13.287775993347168,55.389774322509766,-1.0840420722961426,0.2127998620271682,-0.0880370140075683,103.91519165039062,75.23274993896484,-17.416946411132812,258.87272000451406,0.6994132212904911,57.50527385806768,1.1082335095196616,79.88278770446777,99.38021850585938,80.66461181640625
4594.954000000001,-44.54952621459961,-237.91793823242188,63.650482177734375,-0.0106219304725527,0.3251841962337494,0.5248874425888062,23.520952224731445,-29.012784957885746,-98.92720794677734,3.942480564117432,1.0145370960235596,48.19127655029297,-0.9473100900650024,0.1750634610652923,-0.0938984751701355,103.34398651123048,74.32518768310547,-18.0983943939209,250.28182015514008,0.6175470947827143,48.36291527673315,0.9679155674842712,79.82303428649902,103.3379726409912,80.82881355285645
4607.184,-48.74281311035156,-228.88229370117188,57.92179489135742,0.076917640864849,0.2224404215812683,0.5366460680961609,22.997652053833008,-33.67412567138672,-99.79541015625,-6.033755302429199,16.344484329223633,32.02977752685547,-0.9427911639213562,0.3266035914421081,-0.1335496753454208,103.90982055664062,73.58023834228516,-17.411176681518555,241.0765449463233,0.5859906714552167,36.46169249304926,1.006658134868008,80.91216850280762,107.25436401367188,82.38423347473145
4628.955999999999,-30.321834564208984,-221.39112854003903,52.86666488647461,0.1825951635837555,0.1319187730550766,0.398935854434967,22.905160903930664,-38.140281677246094,-100.70317840576172,-19.82277107238769,42.08507537841797,34.412784576416016,-0.9244943261146544,0.2349101603031158,-0.1982893645763397,105.78331756591795,72.68926239013672,-15.067251205444336,229.62650043884344,0.4581412144768165,57.86480419821905,0.9742644479482526,82.8781566619873,110.8295440673828,85.63592720031738
4651.494,-13.020837783813477,-212.33279418945312,42.51982879638672,0.2555595636367798,0.1885398924350738,0.3965323269367218,23.36557006835937,-42.34188079833984,-101.84488677978516,-22.81066131591797,59.96975326538086,9.478516578674316,-0.9505610466003418,0.2130007147789001,-0.2156257927417755,108.98490142822266,72.16152954101562,-11.257588386535645,216.939377582234,0.5080313650863515,64.85784341860573,0.9977124286615752,85.61933135986328,114.50341033935548,90.58729839324953
4674.815,-28.15314102172852,-194.0574493408203,44.08586502075195,0.3841611742973327,0.317156046628952,0.2892926931381225,23.52374839782715,-46.25225830078125,-102.87532043457033,-26.853126525878903,89.70545196533203,1.052291989326477,-0.8537087440490723,0.2629511058330536,-0.211162582039833,113.70430755615234,71.46263122558594,-5.773259162902832,200.9837219495209,0.5760712005072981,93.64435826546176,0.9179060626112016,90.1805591583252,117.7148895263672,97.10206127166748
4698.671,-36.8821907043457,-181.07598876953125,24.681489944458008,0.450564444065094,0.0873161256313324,0.2838150858879089,23.89110374450684,-49.7935791015625,-104.3670654296875,-35.25620651245117,92.89966583251952,-9.559647560119627,-0.8669952750205994,0.3386103510856628,-0.2390537112951278,118.20592498779295,70.77906799316406,-0.3159254789352417,186.43493676318693,0.539614146431054,99.82351862620402,0.9609809850638956,94.31482124328612,120.57264709472656,104.05113995075226
4707.009,-10.696687698364258,-165.66265869140625,24.35588455200196,0.543028712272644,0.1360781341791153,0.240814670920372,24.847227096557617,-53.01972198486328,-105.85556030273438,-40.43278121948242,119.30901336669922,-12.933002471923828,-0.951044499874115,0.2886583507061004,-0.2729978561401367,123.58629608154295,69.7577133178711,6.1810150146484375,167.7848167288451,0.6094170548029013,126.63614421095002,1.0306973918809936,98.73906898498537,122.77743530273438,112.0365753173828
4729.006,-17.796918869018555,-147.53236389160156,14.13949489593506,0.5605069398880005,0.2790042459964752,0.2285766154527664,25.92169952392578,-55.809844970703125,-107.6054458618164,-34.538753509521484,148.2881317138672,-11.172996520996094,-0.7948815822601318,0.2220109552145004,-0.359532743692398,129.51177978515625,68.1574478149414,13.273409843444824,149.27308542596197,0.6665273198290631,152.66673295921052,0.9002163005848146,103.59008026123048,123.96729278564452,120.87885570526124
4753.040999999999,-28.80844116210937,-125.17327880859376,3.689455032348633,0.6014719605445862,0.0979734435677528,0.0698910728096962,26.957141876220703,-58.0849723815918,-109.52668762207033,-27.836519241333008,109.33700561523438,-3.038250207901001,-0.7119845747947693,0.2234265208244323,-0.367574393749237,133.0693359375,66.75584411621094,17.735679626464844,128.49859177563147,0.613393900380793,112.86577676472486,0.831836750747115,106.1121940612793,124.84081649780272,127.26236724853516
4775.785,-12.314213752746582,-99.72576904296876,1.6857784986495972,0.7447568774223328,0.0681762844324112,0.0537001267075538,28.19248962402344,-59.86978149414063,-111.25556182861328,-19.57065391540528,71.6954345703125,-9.558279991149902,-0.834028422832489,0.2253851890563964,-0.3370804786682129,135.44827270507812,65.87224578857422,20.720821380615234,100.49731698262588,0.749796316232135,74.93067829195026,0.9273754054521978,107.25578308105467,125.74202728271484,131.97638320922852
4796.626,1.4893205165863037,-72.0658187866211,-2.57763671875,0.7930265665054321,0.1818684637546539,0.0369036048650741,29.53030776977539,-61.10757446289063,-112.7579116821289,-16.975126266479492,43.793399810791016,-3.678666591644287,-0.8126224279403687,0.2232087254524231,-0.3491787016391754,136.6546173095703,65.29915618896484,22.45340919494629,72.1272800266382,0.814450212931343,47.11209363468357,0.9121968598872806,107.12430953979492,126.40673065185548,135.2113208770752
4806.46,-2.6951708793640137,-44.9179573059082,-8.139851570129395,0.8277438879013062,0.1977407783269882,0.0101879956200718,30.561065673828125,-61.80414581298828,-113.99214935302734,-5.951464653015137,22.278675079345703,6.715543270111084,-0.7693458795547485,0.2530397176742553,-0.3098017275333404,137.02210998535156,64.85663604736328,23.0317325592041,45.72902817891609,0.8510964426115808,24.01786452247331,0.8671212668889967,106.46104431152344,126.66078186035156,137.02388191223145
4834.968,7.037872314453125,-17.246206283569336,-9.731243133544922,0.8786954283714294,0.095643863081932,-0.046023279428482,31.3455867767334,-62.000267028808594,-114.72148895263672,-4.11754035949707,14.346006393432615,0.0075429864227771,-0.8047236204147339,0.2605080604553222,-0.3073127865791321,137.37957763671875,64.6327896118164,23.56314468383789,21.015717232922064,0.885082790836788,14.925216747141093,0.8999364997657455,106.03399085998537,126.633056640625,138.2846336364746
4860.741,36.20124053955078,10.665545463562012,-12.68463897705078,0.878101646900177,0.0801999196410179,-0.0375886596739292,32.261653900146484,-61.68560028076172,-114.93915557861328,-6.334950923919678,17.061555862426758,-4.199036121368408,-0.8519023060798645,0.2123176604509353,-0.2918408811092376,137.92320251464844,64.46337127685547,24.34966278076172,39.81436603307704,0.8825573277330552,18.677799549297458,0.9251958862479696,105.66154861450195,126.1489715576172,139.288818359375
4866.245,46.79454803466797,39.58683395385742,-9.45174789428711,0.8563811779022217,0.2314669638872146,0.0398677438497543,32.71110153198242,-60.916534423828125,-114.38467407226562,-1.867559671401977,10.5546236038208,-11.516974449157717,-0.8554772138595581,0.2563630640506744,-0.3024536371231079,138.55381774902344,64.46666717529297,25.13503074645996,62.01759981260391,0.8880062579937326,15.733040361199418,0.942889965293596,105.84271621704102,125.3832015991211,139.5197048187256
4889.619,33.30415344238281,64.90131378173828,-11.74054718017578,0.8373000621795654,0.2161031514406204,0.0742509514093399,32.49724578857422,-59.6962890625,-113.37210083007812,1.5274276733398438,-2.0549025535583496,-15.500228881835938,-0.7982434034347534,0.2621148228645324,-0.2924986183643341,139.01113891601562,64.69496154785156,25.60943031311035,73.88631547992743,0.8679200251023501,15.710275465159926,0.8896359666950567,106.5138931274414,124.39125061035156,138.98153114318848
4916.384,41.25496673583984,85.58899688720703,-14.53691291809082,0.7859282493591309,0.1318871527910232,0.0858222469687461,32.21315383911133,-58.09406661987305,-112.07698059082033,0.0637254416942596,-13.921659469604492,-19.058956146240234,-0.7534102201461792,0.263891726732254,-0.3136042356491089,139.24806213378906,65.12181091308594,25.86795997619629,96.1185232185854,0.8015253534897042,23.60212856298889,0.8576790890977269,107.03490829467772,123.21587753295898,137.9449405670166
4936.656,55.25576400756836,103.0925521850586,-15.662469863891602,0.7694359421730042,0.1530699431896209,0.1112961173057556,32.032676696777344,-56.18089294433594,-110.54708862304688,-11.0581693649292,-23.38892936706543,-26.12426376342773,-0.8642652034759521,0.2686221897602081,-0.3197739720344543,139.23342895507812,65.80619049072266,26.093412399291992,118.01096022966014,0.7923691704900367,36.76686393782012,0.9598789590159742,107.20075225830078,121.9870834350586,136.64050102233887
4946.167,55.00582504272461,121.75547790527344,-19.66986846923828,0.7465503811836243,0.2309446781873703,0.1849151104688644,31.76892852783203,-53.90583419799805,-108.88387298583984,-13.95266342163086,-38.17005157470703,-33.0269775390625,-0.9690618515014648,0.260559469461441,-0.2476604729890823,138.90383911132812,66.8528060913086,26.0462589263916,135.04421836631693,0.8030358112240046,52.36803317997392,1.0335897730931023,107.1349105834961,120.75864028930664,134.93013191223145
