Timestamp (ms),Wrist Gyroscope X (deg/s),Wrist Gyroscope Y (deg/s),Wrist Gyroscope Z (deg/s),Wrist Accelerometer X (g),Wrist Accelerometer Y (g),Wrist Accelerometer Z (g),Wrist Roll (deg),Wrist Pitch (deg),Wrist Yaw (deg),Arm Gyroscope X (deg/s),Arm Gyroscope Y (deg/s),Arm Gyroscope Z (deg/s),Arm Accelerometer X (g),Arm Accelerometer Y (g),Arm Accelerometer Z (g),Arm Roll (deg),Arm Pitch (deg),Arm Yaw (deg),Wrist Gyroscope Magnitude (deg/s),Wrist Accelerometer Magnitude (g),Arm Gyroscope Magnitude (deg/s),Arm Accelerometer Magnitude (g),Difference Roll (deg),Difference Pitch (deg),Difference Yaw (deg)
0.0,0.2000829130411148,-4.14820671081543,-0.8449901342391968,-0.9211433529853821,0.34341415762901306,0.1876838207244873,62.55943298339844,66.43155670166016,-52.338233947753906,6.682130813598633,4.488645076751709,-2.395984649658203,-0.9066247940063477,0.3179596960544586,-0.27200940251350403,129.2393035888672,65.34236907958984,20.487707138061523,4.238119915092866,1.0008314428368736,8.398782606812098,0.9985269152495838,66.67987060546875,-1.0891876220703125,72.82594108581543
25.25,-0.5418765544891357,-4.44088077545166,-1.5209546089172363,-0.9264385104179382,0.3371807634830475,0.19801943004131317,62.308780670166016,66.42479705810547,-52.60261535644531,8.88290786743164,5.010303497314453,-3.0335586071014404,-0.9110338091850281,0.3240728974342346,-0.2726583480834961,129.67591857910156,65.32316589355469,20.828731536865234,4.725288899577225,1.0055798702849543,10.640097327524764,1.0046633362023434,67.36713790893555,-1.1016311645507812,73.43134689331055
44.99,-0.31712469458580017,-6.283317565917969,-1.5330201387405396,-0.929948091506958,0.34287935495376587,0.20692087709903717,61.98389434814453,66.39664459228516,-52.9645881652832,10.788174629211426,4.376056671142578,-3.903672456741333,-0.9033289551734924,0.31528159976005554,-0.28146231174468994,130.16575622558594,65.32333374023438,21.182422637939453,6.475399482029932,1.0125146686988682,12.278975627833677,0.997309741923119,68.1818618774414,-1.0733108520507812,74.14701080322266
67.469,-0.4867827296257019,-8.835365295410156,-1.4799704551696777,-0.9340437650680542,0.3275914788246155,0.19168317317962646,61.56737518310547,66.35455322265625,-53.42234420776367,12.732853889465332,3.0615179538726807,-4.8715620040893555,-0.8936893939971924,0.2958524823188782,-0.2987566888332367,130.70928955078125,65.35360717773438,21.541290283203125,8.971674864671321,1.0082144469016576,13.97249357530875,0.9876563083177824,69.14191436767578,-1.000946044921875,74.9636344909668
77.57799999999999,0.9636096954345703,-10.955784797668457,-1.8255558013916016,-0.9376251697540283,0.3265892565250397,0.19566726684570312,61.08816909790039,66.29745483398438,-53.97412872314453,13.52722454071045,6.566903114318848,-4.33298921585083,-0.8891274333000183,0.2861008942127228,-0.298303484916687,131.37188720703125,65.33102416992188,22.011207580566406,11.148561259730034,1.0119719268580114,15.648795986667128,0.9805030767057481,70.28371810913086,-0.9664306640625,75.98533630371094
105.28999999999999,2.59773588180542,-13.212556838989258,-2.05842924118042,-0.9352463483810425,0.3258761167526245,0.21294847130775452,60.53329849243164,66.2165298461914,-54.636749267578125,14.59423542022705,8.820455551147461,-2.9970462322235107,-0.9014426469802856,0.2892371714115143,-0.31039193272590637,132.0906219482422,65.25450134277344,22.520198822021484,13.621931613251029,1.0130291343599915,17.313995198938432,0.9962931993255204,71.55732345581055,-0.9620285034179688,77.15694808959961
124.976,-0.7349977493286133,-14.641815185546875,-3.213653087615967,-0.9297327995300293,0.36003297567367554,0.24005268514156342,59.831939697265625,66.11601257324219,-55.3839225769043,17.677156448364258,7.159675121307373,-3.672344207763672,-0.9107347130775452,0.3085986375808716,-0.2918163537979126,132.7905731201172,65.21002960205078,22.950424194335938,15.00834900269756,1.0255009086968483,19.422381932268483,1.0049017967269822,72.95863342285156,-0.9059829711914062,78.33434677124023
146.007,-7.303897380828857,-16.546466827392578,-4.133220195770264,-0.9500042796134949,0.345136821269989,0.2855429947376251,58.85720443725586,66.00806427001953,-56.27622985839844,11.680575370788574,6.076375961303711,-4.940659999847412,-0.9090951085090637,0.2926267981529236,-0.2816300392150879,133.37049865722656,65.20664978027344,23.379302978515625,18.553058793805533,1.05031536146247,14.06301201911861,0.9956906338319298,74.5132942199707,-0.8014144897460938,79.65553283691406
170.904,-8.000452995300293,-23.0460147857666,-4.422659873962402,-0.9663676619529724,0.32390445470809937,0.26905566453933716,57.63957977294922,65.84778594970703,-57.416316986083984,5.250615119934082,7.148543834686279,-4.321802616119385,-0.8809700608253479,0.2701049745082855,-0.33917856216430664,133.9107208251953,65.15885162353516,23.890478134155273,24.792861190200284,1.0541212000851277,9.866540221719465,0.9818895265540748,76.2711410522461,-0.688934326171875,81.30679512023926
181.067,-4.357287883758545,-33.254398345947266,-3.9296836853027344,-0.968574047088623,0.33665192127227783,0.21875612437725067,56.2250862121582,65.56800842285156,-58.87372589111328,17.38732147216797,15.033346176147461,-2.681281805038452,-0.8306437134742737,0.2538439929485321,-0.37366530299186707,134.92974853515625,64.95541381835938,24.64971351623535,33.76808228074884,1.0484867394213935,23.141082890531095,0.9455323950824686,78.70466232299805,-0.6125946044921875,83.52343940734863
204.906,-2.0121049880981445,-41.852359771728516,-3.2954375743865967,-0.9609102010726929,0.35313549637794495,0.24131810665130615,54.60530471801758,65.15292358398438,-60.601097106933594,22.93310546875,17.300037384033203,-0.829076886177063,-0.8471735715866089,0.260258287191391,-0.3960820436477661,136.05783081054688,64.68470001220703,25.424467086791992,42.030090337185904,1.0518020355206734,28.73858013912571,0.9707308698845415,81.4525260925293,-0.46822357177734375,86.02556419372559
227.25799999999998,-4.266524314880371,-46.33107376098633,-3.435270309448242,-0.9460301995277405,0.39819687604904175,0.3203713297843933,52.813194274902344,64.6267318725586,-62.4586067199707,28.88610076904297,12.67919635772705,-0.6448382139205933,-0.8910698294639587,0.31957346200942993,-0.3496392071247101,137.03379821777344,64.48358917236328,25.94131088256836,46.65375341464391,1.0752542394529458,31.552886622926213,1.0091482615356462,84.2206039428711,-0.1431427001953125,88.39991760253906
237.557,-10.138616561889648,-48.63649368286133,-3.8510589599609375,-0.9292510747909546,0.4062648415565491,0.394074946641922,50.85137176513672,64.03036499023438,-64.36578369140625,24.41647720336914,11.56497859954834,-1.4781609773635864,-0.936333179473877,0.3471893072128296,-0.3039293885231018,137.83082580566406,64.32808685302734,26.37306785583496,49.831021649823,1.0880504331399101,27.057310452180136,1.0438550240500883,86.97945404052734,0.29772186279296875,90.73885154724121
267.38800000000003,-19.212833404541016,-52.37653732299805,-3.7259790897369385,-0.9470649361610413,0.3985169231891632,0.4713246524333954,48.637794494628906,63.34573745727539,-66.3309326171875,19.21628761291504,10.675429344177246,-3.9099626541137695,-0.9513551592826843,0.33427178859710693,-0.2809527814388275,138.5537567138672,64.23387908935547,26.843225479125977,55.91348271709795,1.1304400290883792,22.3275235810279,1.0467801742218392,89.91596221923828,0.8881416320800781,93.17415809631348
287.569,-22.286394119262695,-59.65818786621094,-1.292479395866394,-0.9560567140579224,0.4051080644130707,0.4354459047317505,46.38530349731445,62.510318756103516,-68.30322265625,20.800249099731445,9.25925350189209,-5.604740142822266,-0.9264428019523621,0.289056658744812,-0.3041265606880188,139.37330627441406,64.18269348144531,27.37156105041504,63.6981416158114,1.1259529831637685,23.447755758104933,1.0170265395602915,92.98800277709961,1.6723747253417969,95.67478370666504
297.93399999999997,-22.4705867767334,-71.85493469238281,3.898618221282959,-1.019173264503479,0.4196140170097351,0.4442009925842285,44.10401916503906,61.41273498535156,-70.30695343017578,22.026124954223633,8.461136817932129,-6.7606425285339355,-0.871780276298523,0.2182123363018036,-0.37183281779289246,140.35130310058594,64.13894653320312,28.02082061767578,75.38738710004893,1.1883200697465892,24.54480197820837,0.9725621410713162,96.24728393554688,2.7262115478515625,98.32777404785156
319.817,-27.323545455932617,-87.37731170654297,5.168165683746338,-1.0182626247406006,0.3973504602909088,0.4147176444530487,41.583213806152344,60.05770492553711,-72.49036407470703,27.274707794189453,13.262321472167969,-7.535677433013916,-0.8136425614356995,0.26091116666793823,-0.4328140616416931,141.57638549804688,63.97142028808594,28.825197219848633,91.6955869923926,1.1690752267744362,31.250364645296248,0.9578188067826033,99.99317169189453,3.913715362548828,101.31556129455566
337.42699999999996,-24.990066528320312,-98.9034652709961,9.764434814453125,-1.0099159479141235,0.3941808342933655,0.5020768642425537,39.15940475463867,58.40737533569336,-74.6561279296875,28.660343170166016,12.908488273620605,-8.503095626831055,-0.849498987197876,0.25047245621681213,-0.4268680810928345,142.8309783935547,63.83230972290039,29.631872177124023,102.47801254389505,1.1947342506110437,32.562969388262424,0.9831588575756101,103.67157363891602,5.424934387207031,104.28800010681152
360.064,-26.728031158447266,-107.78789520263672,11.965476036071777,-0.9971778988838196,0.4120212495326996,0.5948308706283569,36.805877685546875,56.5255126953125,-76.79875183105469,28.474828720092773,6.638395309448242,-9.108009338378906,-0.9213316440582275,0.27046799659729004,-0.40607985854148865,143.8908233642578,63.817909240722656,30.239065170288086,111.69507875726366,1.232050744385687,30.624173409761152,1.0425477384942445,107.08494567871094,7.292396545410156,107.03781700134277
383.03900000000004,-30.141315460205078,-115.1875,11.992510795593262,-0.9692234992980957,0.3958742022514343,0.6179539561271667,34.501522064208984,54.48600387573242,-78.81394958496094,28.859350204467773,4.5220770835876465,-9.644842147827148,-0.9471176862716675,0.28761595487594604,-0.37023311853408813,144.87222290039062,63.85557174682617,30.760353088378906,119.66820533919616,1.2157210483877754,30.762546309278846,1.0568005541289591,110.37070083618164,9.36956787109375,109.57430267333984
397.45399999999995,-28.15549659729004,-122.90147399902344,14.233083724975586,-0.9483623504638672,0.4161846935749054,0.6189124584197998,32.44001770019531,52.26139450073242,-80.68047332763672,29.960922241210938,-1.0370047092437744,-8.07792854309082,-0.9438034296035767,0.2805917263031006,-0.37021946907043457,145.69435119628906,63.96413803100586,31.09545135498047,126.88611024101421,1.2065046531740478,31.048110568248163,1.051931122212867,113.25433349609375,11.702743530273438,111.77592468261719
419.726,-30.056232452392578,-129.72967529296875,16.733102798461914,-0.9503727555274963,0.4037303626537323,0.6639553308486938,30.5135440826416,49.86918258666992,-82.38074493408203,28.9261474609375,-2.333820343017578,-8.247157096862793,-0.9449743032455444,0.2689051926136017,-0.3516983389854431,146.46701049804688,64.10466003417969,31.406600952148438,134.2131233900592,1.2276169034107665,30.16926125223682,1.0435411626064781,115.95346641540527,14.235477447509766,113.78734588623047
442.979,-31.72298240661621,-136.74961853027344,17.231979370117188,-0.9250568151473999,0.3832872211933136,0.7054455876350403,28.677234649658203,47.323951721191406,-83.97451782226562,28.814260482788086,-10.22974967956543,-6.293659210205078,-0.9664045572280884,0.2590559720993042,-0.34581607580184937,146.99598693847656,64.36289978027344,31.455730438232422,141.43460288754633,1.2248643526099086,31.217295397435237,1.058601210652304,118.31875228881836,17.03894805908203,115.43024826049805
465.75,-29.873449325561523,-144.83119201660156,18.004711151123047,-0.8990509510040283,0.3784956634044647,0.7771770358085632,26.992597579956055,44.59477233886719,-85.47203063964844,24.926851272583008,-16.307052612304688,-3.1318202018737793,-0.9466676712036133,0.2569078803062439,-0.3352726995944977,147.19027709960938,64.68675231933594,31.239580154418945,148.97203354721307,1.247219196735449,29.95122997545862,1.0366239056470297,120.19767951965332,20.09197998046875,116.71161079406738
485.94,-25.166542053222656,-152.55856323242188,20.408355712890625,-0.8670502305030823,0.3838669955730438,0.7452032566070557,25.575702667236328,41.70574188232422,-86.81299591064453,27.159969329833984,-22.212175369262695,-0.9992126226425171,-0.9634672403335571,0.24364444613456726,-0.32988613843917847,147.2235107421875,65.0931167602539,30.801986694335938,155.9614408671623,1.206009065539511,35.1004714284246,1.0471182376706525,121.64780807495117,23.387374877929688,117.61498260498047
498.085,-25.254535675048828,-157.43768310546875,23.557628631591797,-0.8254386186599731,0.365029901266098,0.8216279745101929,24.30072593688965,38.67490768432617,-87.9955062866211,26.996871948242188,-21.836938858032227,0.6316919922828674,-0.9714326858520508,0.19456450641155243,-0.32644760608673096,147.2445526123047,65.48831939697266,30.300479888916016,161.1811946243243,1.2205196723082115,34.72869171812175,1.0431226437081393,122.94382667541504,26.813411712646484,118.29598617553711
522.309,-26.911489486694336,-161.9686279296875,22.51985740661621,-0.7376753091812134,0.37380293011665344,0.8082695007324219,23.100797653198242,35.552242279052734,-89.10188293457031,33.74476623535156,-26.176477432250977,3.733372926712036,-0.9649274945259094,0.263694703578949,-0.30956584215164185,147.08135986328125,65.90511322021484,29.468795776367188,165.72630653409354,1.1563706491232095,42.8702145136874,1.047115550937285,123.98056221008301,30.35287094116211,118.5706787109375
542.092,-26.815692901611328,-165.6553955078125,21.869380950927734,-0.6845271587371826,0.3722386062145233,0.8325824737548828,21.996606826782227,32.353111267089844,-90.1363296508789,31.12329864501953,-25.759483337402344,4.66683292388916,-0.9650886058807373,0.30318236351013184,-0.27096399664878845,146.7505340576172,66.3045883178711,28.523080825805664,169.23079291257875,1.1403212646483143,40.669276240135865,1.0472521426210115,124.75392723083496,33.95147705078125,118.65941047668457
569.444,-25.403087615966797,-168.86549377441406,21.140432357788086,-0.6199488639831543,0.34163060784339905,0.8844760656356812,20.98374366760254,29.07961082458496,-91.11821746826172,24.37862205505371,-29.602069854736328,7.979007244110107,-0.9517573118209839,0.310729056596756,-0.2732817530632019,146.0304718017578,66.71761322021484,27.290699005126953,172.06914228988117,1.1328486116210885,39.16968610532132,1.0378234164709874,125.04672813415527,37.63800239562988,118.40891647338867
587.068,-23.887388229370117,-173.0513458251953,19.314735412597656,-0.5681440234184265,0.3406500220298767,0.9266428351402283,20.06186866760254,25.727312088012695,-92.0766372680664,15.313752174377441,-27.248146057128906,10.660392761230469,-0.9624910354614258,0.29309871792793274,-0.2258356660604477,145.04176330566406,67.07716369628906,25.980253219604492,175.75674841208985,1.1390772637410307,33.024482479405705,1.031163226584216,124.97989463806152,41.34985160827637,118.0568904876709
597.468,-22.427875518798828,-176.5445556640625,17.214956283569336,-0.4999455213546753,0.3318403363227844,0.881377100944519,19.23896026611328,22.325458526611328,-93.01502227783203,19.291133880615234,-28.433948516845703,15.382423400878906,-0.9336228966712952,0.28609615564346313,-0.23954050242900848,143.9075164794922,67.37850189208984,24.433191299438477,178.79413987811012,1.0662500303412805,37.646463636606825,1.0054264646242461,124.6685562133789,45.053043365478516,117.44821357727051
623.0459999999999,-18.653430938720703,-178.96629333496094,19.732894897460938,-0.45066073536872864,0.30292999744415283,0.8797810673713684,18.57231330871582,18.862394332885742,-93.85347747802734,7.905266761779785,-31.478252410888672,20.309267044067383,-0.9397227168083191,0.23270399868488312,-0.1800885796546936,142.2486572265625,67.69510650634766,22.576595306396484,181.01456233373918,1.0338647920592432,38.286289259808925,0.9847140864289428,123.67634391784668,48.832712173461914,116.43007278442383
646.438,-18.16095733642578,-176.69451904296875,20.110143661499023,-0.31456366181373596,0.2814861238002777,0.8199537396430969,17.991506576538086,15.408528327941895,-94.61040496826172,10.77122974395752,-37.109039306640625,27.028688430786133,-0.9668698906898499,0.2619980573654175,-0.2605835199356079,140.2259979248047,67.95020294189453,20.19801139831543,178.7601502273022,0.922230378148796,47.15559549775006,1.0350768756222342,122.2344913482666,52.54167461395264,114.80841636657715
667.018,-16.44927215576172,-173.98577880859375,19.18998908996582,-0.24602565169334412,0.3036353588104248,0.9472734928131104,17.495277404785156,11.979608535766602,-95.32444763183594,7.866287708282471,-21.331890106201172,31.536823272705078,-1.0899397134780884,0.34165459871292114,-0.21076907217502594,138.36036682128906,67.8890609741211,18.109376907348633,175.812074282059,1.0247195336273336,38.87800457773459,1.1615162700642234,120.8650894165039,55.90945243835449,113.43382453918457
677.7879999999999,-14.476521492004395,-172.29840087890625,16.755441665649414,-0.20148427784442902,0.3067081570625305,0.863950788974762,17.104673385620117,8.609448432922363,-96.03369140625,3.086442232131958,-21.115928649902344,32.34870529174805,-0.9294396638870239,0.37386879324913025,-0.1520710289478302,136.44041442871094,67.76759338378906,16.067502975463867,173.71543813187048,0.9386568987640258,38.753674696116526,1.0132924361788342,119.33574104309082,59.1581449508667,112.10119438171387
707.197,-10.956514358520508,-172.63853454589844,15.07289981842041,-0.21056735515594482,0.3014591336250305,0.9307814836502075,16.807743072509766,5.270538330078125,-96.75482177734375,-1.9612481594085693,-24.11608123779297,37.3532829284668,-0.9581280946731567,0.34574034810066223,-0.21674902737140656,134.14967346191406,67.58057403564453,13.695847511291504,173.64130017360492,1.000784887280681,44.505051557600765,1.0414057686479519,117.3419303894043,62.310035705566406,110.45066928863525
728.875,-8.733187675476074,-173.61265563964844,15.84788990020752,-0.23645931482315063,0.3015994429588318,0.883933424949646,16.592069625854492,1.866865634918213,-97.44928741455078,7.310329914093018,-22.85651206970215,39.62705993652344,-0.9244329333305359,0.29459965229034424,-0.1973341852426529,132.1034393310547,67.33138275146484,11.390103340148926,174.55308183906504,0.9634383899881315,46.32671957583597,0.9901040268684258,115.5113697052002,65.46451711654663,108.8393907546997
738.559,-6.054568290710449,-173.52044677734375,15.200376510620117,-0.18877626955509186,0.23928408324718475,0.8154983520507812,16.46885108947754,-1.5331180095672607,-98.1441421508789,4.4229350090026855,-17.583171844482422,44.21833419799805,-0.9369317889213562,0.2708996832370758,-0.22043366730213165,130.1696319580078,66.91973114013672,9.226417541503906,174.29014514039648,0.8705922780728774,47.79112224516499,0.9999094044710188,113.70078086853027,68.45284914970398,107.37055969238281
758.73,-2.0177712440490723,-170.09332275390625,16.277528762817383,-0.10900114476680756,0.2631424367427826,0.8869228363037109,16.46402359008789,-4.8145623207092285,-98.7961654663086,6.1884331703186035,-16.725082397460938,36.97466278076172,-0.9184836149215698,0.3018896281719208,-0.24190950393676758,128.5953826904297,66.56365966796875,7.397195339202881,170.88232146387227,0.9315349210482788,41.05058798673173,0.9966291720455046,112.1313591003418,71.37822198867798,106.19336080551147
779.643,-5.784715175628662,-166.9766082763672,15.50780200958252,-0.0434584803879261,0.23171408474445343,0.8540050387382507,16.408649444580078,-8.01432991027832,-99.44642639160156,-2.509209632873535,-9.926778793334961,31.926389694213867,-0.9553099274635315,0.29435354471206665,-0.23658448457717896,127.29804229736328,66.20182037353516,6.059558391571045,167.79494201051156,0.8859484537922669,33.528069271884945,1.0272454843597931,110.8893928527832,74.21615028381348,105.50598478317261
798.156,-8.66085147857666,-166.37152099609375,13.57914924621582,-0.0458453930914402,0.262606680393219,0.958324134349823,16.34773063659668,-11.259502410888672,-100.13255310058594,-0.9656073451042175,-13.976938247680664,25.53242301940918,-0.9208955764770508,0.341488778591156,-0.26060596108436584,126.09391784667969,65.94779968261719,4.7790021896362305,167.14929446796546,0.9947106187893002,29.123733029377494,1.0161588043368937,109.74618721008301,77.20730209350586,104.91155529022217
819.432,-10.514825820922852,-168.09439086914062,10.922021865844727,-0.044021666049957275,0.23300185799598694,0.8761454224586487,16.30587387084961,-14.545700073242188,-100.88597106933594,-5.121829986572266,3.0757875442504883,17.428016662597656,-0.9156892895698547,0.3486790657043457,-0.2354573756456375,125.63151550292969,65.6242904663086,4.411579608917236,168.77670563602598,0.9076665545268483,18.423609207223727,1.0077222542145885,109.32564163208008,80.16999053955078,105.29755067825317
843.281,-7.860180854797363,-168.1640625,8.502342224121094,-0.002201956231147051,0.1996210217475891,0.7965295314788818,16.37589454650879,-17.81954002380371,-101.69995880126953,2.0364015102386475,13.522010803222656,19.179861068725586,-0.8661676049232483,0.29513534903526306,-0.2548952102661133,125.7143783569336,65.15801239013672,4.461404800415039,168.56222644136528,0.8211654495001371,23.55544051570651,0.9499067124119341,109.3384838104248,82.97755241394043,106.16136360168457
867.071,-5.298350811004639,-163.03921508789062,6.441442966461182,0.11846961081027985,0.19231560826301575,0.7321920394897461,16.53839111328125,-20.926162719726562,-102.54313659667969,3.218550205230713,23.779401779174805,19.586196899414062,-0.8476157188415527,0.2598194479942322,-0.2942109704017639,126.23072814941406,64.56806182861328,4.940202713012695,163.2524130458172,0.7662411660562664,30.974798197593305,0.9340870663316441,109.69233703613281,85.49422454833984,107.48333930969238
877.317,-4.379451751708984,-156.69863891601562,6.934295654296875,0.20264819264411926,0.20753276348114014,0.8243261575698853,16.745227813720703,-23.890613555908203,-103.36163330078125,-25.773284912109375,23.291637420654297,5.3908586502075195,-0.7985820770263672,0.2833905816078186,-0.2871161997318268,126.3968505859375,64.20647430419922,5.685698986053467,156.9131208407971,0.8738705578940043,35.15428773112187,0.8946950696411659,109.6516227722168,88.09708786010742,109.04733228683472
899.923,-10.585265159606934,-150.97677612304688,7.11424446105957,0.26840463280677795,0.22519847750663757,0.6621425747871399,16.903182983398438,-26.782365798950195,-104.18669891357422,-25.874425888061523,65.74829864501953,11.915157318115234,-0.9515253305435181,0.3498010039329529,-0.347185343503952,127.72246551513672,63.22126007080078,7.7209649085998535,151.5145116523811,0.7491249498776502,71.6539996348208,1.0715870752124674,110.81928253173828,90.00362586975098,111.90766382217407
921.821,-13.992176055908203,-144.42349243164062,6.628838062286377,0.3318331837654114,0.2000047266483307,0.7228800654411316,16.990825653076172,-29.543142318725586,-104.99002838134766,-32.87940216064453,77.31597900390625,-3.3480682373046875,-0.8590104579925537,0.31304609775543213,-0.36967733502388,129.58120727539062,62.29434585571289,10.490436553955078,145.25105042989432,0.8201650696913015,84.08344222672807,0.9861836331489376,112.59038162231445,91.83748817443848,115.48046493530273
945.235,-12.610333442687988,-135.21221923828125,4.952163219451904,0.3965127766132355,0.22424113750457764,0.5523744821548462,17.20655632019043,-32.18844223022461,-105.83043670654297,-24.64459991455078,89.76969146728516,-11.00115966796875,-0.9089611768722534,0.34603679180145264,-0.3385339379310608,131.92478942871094,61.28984451293945,13.71487808227539,135.8892514565773,0.715977680031102,93.73888907555919,1.029833534835774,114.71823310852051,93.47828674316406,119.54531478881836
966.423,-8.599472999572754,-122.89228820800781,3.0980007648468018,0.45323753356933594,0.16497072577476501,0.5479524731636047,17.46883201599121,-34.59104537963867,-106.63088989257812,-26.794464111328125,104.97279357910156,-11.341880798339844,-0.7896921634674072,0.3175070285797119,-0.37717100977897644,134.43572998046875,59.99954605102539,17.20380973815918,123.23174528346756,0.729994188363701,108.9305694415377,0.9309577846804037,116.96689796447754,94.59059143066406,123.8346996307373
976.9910000000001,-2.951598882675171,-104.58860778808594,0.467471718788147,0.547263503074646,0.2278234362602234,0.46006134152412415,17.85702133178711,-36.5864143371582,-107.39934539794922,-29.72722816467285,123.00324249267578,-8.945650100708008,-0.8174822330474854,0.2939051389694214,-0.43774089217185974,137.00132751464844,58.35655975341797,20.877946853637695,104.631292378629,0.7503714399361998,126.86027910181664,0.9727664266103934,119.14430618286133,94.94297409057617,128.2772922515869
1000.839,-0.32445794343948364,-85.51110076904297,-2.5002171993255615,0.6037505269050598,0.22298473119735718,0.42635729908943176,18.292314529418945,-38.19623947143555,-108.12628173828125,-24.80608558654785,92.67733764648438,-16.056764602661133,-0.7183494567871094,0.38531285524368286,-0.4742441177368164,138.84884643554688,57.15788650512695,23.698244094848633,85.54825955993661,0.7720216548595837,97.27409976387794,0.943079753621265,120.55653190612793,95.3541259765625,131.82452583312988
1022.217,2.043412446975708,-66.43609619140625,-6.996424198150635,0.6555899977684021,0.24698063731193542,0.3971790671348572,18.77927017211914,-39.41122055053711,-108.8377914428711,-29.836048126220703,58.288875579833984,-18.68426513671875,-0.7910979390144348,0.3809284567832947,-0.45578935742378235,139.85464477539062,56.477874755859375,25.628541946411133,66.8347242318146,0.8053253328631222,68.09467341760828,0.9892857911852233,121.07537460327148,95.88909530639648,134.46633338928223
1044.215,7.978582382202148,-47.02705383300781,-9.61656665802002,0.6998469829559326,0.2435380518436432,0.3515339195728302,19.34615707397461,-40.237266540527344,-109.47350311279297,-25.347700119018555,40.295936584472656,-12.240859031677246,-0.7403286695480347,0.39974361658096313,-0.4451105296611786,140.3778076171875,55.97796630859375,26.87825584411621,48.65881136372264,0.8201662507434426,49.15391170982152,0.9518428870182548,121.03165054321289,96.2152328491211,136.35175895690918
1067.229,16.37320327758789,-24.8957462310791,-9.972643852233887,0.7446864247322083,0.23585738241672516,0.33916419744491577,19.975921630859375,-40.63911437988281,-109.93962097167969,-19.762062072753906,20.97100257873535,-4.782694339752197,-0.7652134895324707,0.3738926351070404,-0.4372217357158661,140.47434997558594,55.68760299682617,27.47707176208496,31.42186486151009,0.851597868039465,29.209522619724563,0.9573454096260877,120.49842834472656,96.32671737670898,137.41669273376465
1077.203,19.966623306274414,-2.468574285507202,-10.364508628845215,0.7538596987724304,0.2522695064544678,0.32616981863975525,20.55634880065918,-40.6137809753418,-110.21778106689453,-8.983423233032227,-2.2699532508850098,-0.31716009974479675,-0.806272029876709,0.38946279883384705,-0.42761319875717163,140.2315216064453,55.7137565612793,27.41123390197754,22.631459174678394,0.8592619506946244,9.271201177509672,0.9922746119841738,119.67517280578613,96.3275375366211,137.62901496887207
1102.194,23.857057571411133,21.721324920654297,-8.581026077270508,0.7381592392921448,0.24679477512836456,0.3037070035934448,21.038496017456055,-40.14704132080078,-110.22559356689453,-3.555232286453247,-19.141311645507812,-1.5019538402557373,-0.8024551868438721,0.37231653928756714,-0.3896944224834442,139.79470825195312,56.030155181884766,26.98299789428711,33.38576284605549,0.8354787056620453,19.52652947810623,0.9666517859262503,118.75621223449707,96.17719650268555,137.20859146118164
1125.852,30.27625274658203,44.132164001464844,-4.734749794006348,0.6957147121429443,0.2641286849975586,0.3458820581436157,21.45149803161621,-39.290523529052734,-109.9244384765625,-0.5533257722854614,-31.744102478027344,-4.452286720275879,-0.8349242210388184,0.3772086203098297,-0.3742716610431671,139.22125244140625,56.58485794067383,26.323348999023438,53.72817915618348,0.8206200832762643,32.059586219808295,0.9896787733266458,117.76975440979004,95.87538146972656,136.24778747558594
1146.0030000000002,28.33932113647461,65.14952087402344,-2.425783395767212,0.6463614106178284,0.21391090750694275,0.37959039211273193,21.67074966430664,-38.06145095825195,-109.36872863769531,5.453048229217529,-36.372352600097656,-4.275798797607422,-0.8278989791870117,0.3203054666519165,-0.37781548500061035,138.7041778564453,57.21284484863281,25.572433471679688,71.08770370235791,0.7795061354926017,37.02656106113049,0.9647574059898397,117.03342819213867,95.27429580688477,134.941162109375
1169.5040000000001,27.614696502685547,81.9177474975586,-3.1826910972595215,0.6004648208618164,0.22692446410655975,0.3907720744609833,21.8064022064209,-36.516510009765625,-108.68123626708984,8.355677604675293,-43.63066101074219,-5.7921366691589355,-0.7918968796730042,0.30732813477516174,-0.3829123377799988,138.12405395507812,57.950382232666016,24.67673110961914,86.50559716359268,0.7515021807561192,44.79956222622925,0.9317580742254742,116.31765174865723,94.46689224243164,133.35796737670898
1188.088,32.875919342041016,95.79815673828125,-2.769094228744507,0.5359899997711182,0.2017706036567688,0.4016570746898651,21.988351821899414,-34.71870422363281,-107.86585235595703,12.788814544677734,-56.711483001708984,-3.163496255874634,-0.8316472768783569,0.324455201625824,-0.36767157912254333,137.22364807128906,58.84373474121094,23.360868453979492,101.32018944852183,0.6995177353027442,58.22159213103177,0.9654484766654848,115.23529624938965,93.56243896484375,131.22672080993652
1200.673,33.36653518676758,110.3034896850586,-8.187816619873047,0.4880928099155426,0.2233564704656601,0.4364936649799347,22.209068298339844,-32.637840270996094,-107.05421447753906,15.806262969970703,-62.37432861328125,0.9991294145584106,-0.8103015422821045,0.3092679977416992,-0.363298237323761,136.10333251953125,59.74149703979492,21.69195556640625,115.53019452970854,0.6918449418458898,64.35365629566435,0.94033020428702,113.8942642211914,92.37933731079102,128.7461700439453
1219.925,34.09982681274414,125.1996078491211,-12.184946060180664,0.4220764935016632,0.27625566720962524,0.5003716945648193,22.507427215576172,-30.2800235748291,-106.23436737060547,18.81093978881836,-65.58119201660156,7.585697174072266,-0.8147175312042236,0.32478567957878113,-0.35713139176368713,134.71080017089844,60.56272506713867,19.643953323364258,130.33116628313567,0.7105192416492065,68.64609969746017,0.9469916706571521,112.20337295532227,90.84274864196777,125.87832069396973
1238.33,31.285194396972656,135.16787719726562,-19.122472763061523,0.3614976406097412,0.17947183549404144,0.6967397928237915,22.713932037353516,-27.64204978942871,-105.43154907226562,22.975914001464844,-70.44432830810547,11.091055870056152,-0.81385737657547,0.3355950117111206,-0.33904287219047546,133.0792694091797,61.367919921875,17.315292358398438,140.0528021106521,0.8051937796618587,74.92200968537593,0.9433652052491975,110.36533737182617,89.00996971130371,122.74684143066406
1261.0520000000001,28.64059829711914,141.0362091064453,-28.747840881347656,0.3626769185066223,0.28434044122695923,0.5852568745613098,23.02935028076172,-24.840810775756836,-104.81060028076172,25.915735244750977,-70.57167053222656,16.459766387939453,-0.8373668193817139,0.3709121346473694,-0.2975274324417114,131.2080078125,62.05919647216797,14.664586067199707,146.75808156716002,0.7449225751417886,76.96044389509915,0.9629546068665299,108.17865753173828,86.9000072479248,119.47518634796143
1276.65,29.766796112060547,148.68368530273438,-31.88094711303711,0.23859305679798126,0.2989480495452881,0.6780853271484375,23.37959861755371,-21.801773071289062,-104.17572021484375,30.11163902282715,-56.68596649169922,15.242900848388672,-0.8429805040359497,0.34802672266960144,-0.295594185590744,129.78994750976562,62.55680465698242,12.403879165649414,154.9493311208661,0.7785218648009445,65.97238534427038,0.9587046742516189,106.41034889221191,84.35857772827148,116.57959938049316
1300.6930000000002,29.807842254638672,153.27127075195312,-36.877662658691406,0.1767779439687729,0.30112797021865845,0.825150728225708,23.787368774414062,-18.67609405517578,-103.59465789794922,30.47726821899414,-51.284019470214844,18.844768524169922,-0.8739064931869507,0.3457227349281311,-0.29811549186706543,128.41265869140625,62.908721923828125,10.215456008911133,160.4386234700491,0.8959923103538624,62.56228761676982,0.9859561931301223,104.62528991699219,81.5848159790039,113.81011390686035
1321.52,22.985702514648438,151.4244842529297,-47.053260803222656,0.19462451338768005,0.3282874524593353,0.8017038106918335,24.114896774291992,-15.482012748718262,-103.20374298095703,33.0045280456543,-42.42729949951172,19.08937644958496,-0.8696756362915039,0.38370031118392944,-0.23383405804634094,127.23262023925781,63.125709533691406,8.22684383392334,160.22398791558572,0.8879078514865373,57.041904838211856,0.9788973428629255,103.11772346496582,78.60772228240967,111.43058681488037
1336.576,29.14925193786621,152.22256469726562,-46.878116607666016,0.14356255531311035,0.30651718378067017,0.7969241142272949,24.566713333129883,-12.27983283996582,-102.7846908569336,33.02783203125,-32.431270599365234,14.994048118591309,-0.8987146615982056,0.353635311126709,-0.22519388794898987,126.46978759765625,63.29296875,6.653326988220215,161.92265409210765,0.8658239053513258,48.65641253068651,0.9916946422245325,101.90307426452637,75.57280158996582,109.43801784515381
1359.4550000000002,28.460376739501953,153.76036071777344,-45.36964797973633,0.09558118879795074,0.46293163299560547,0.8498930931091309,25.084909439086914,-9.057669639587402,-102.3154067993164,38.4973030090332,-36.47362518310547,5.788090229034424,-0.9378894567489624,0.36001837253570557,-0.23302794992923737,125.89502716064453,63.6507682800293,5.182528495788574,162.82090323425732,0.972501789301497,53.346693069640466,1.0312865203678099,100.81011772155762,72.7084379196167,107.49793529510498
1385.076,15.326688766479492,154.08340454101562,-43.234336853027344,0.0557648241519928,0.4202653169631958,0.8667309880256653,25.329118728637695,-5.8602614402771,-101.78112030029297,36.78934860229492,-28.420719146728516,0.36614471673965454,-0.8977622985839844,0.35889893770217896,-0.17649273574352264,125.59651947021484,64.001953125,4.052150726318359,160.7663236707733,0.9648602271100328,46.49007968752039,0.9828200639042656,100.26740074157715,69.8622145652771,105.83327102661133
1404.031,12.545482635498047,149.76112365722656,-44.99972152709961,-6.695138290524483e-05,0.34723353385925293,0.8843727707862854,25.505300521850586,-2.725656032562256,-101.30534362792969,32.14213943481445,-21.689998626708984,2.1013593673706055,-0.8850069046020508,0.35787928104400635,-0.18929389119148254,125.38999938964844,64.2352523803711,3.1242802143096924,156.87816365303746,0.9500980629530219,38.83283248830206,0.9732147647031929,99.88469886779785,66.96090841293335,104.42962384223938
1425.838,21.147958755493164,148.3823699951172,-44.10108184814453,-0.07141435146331787,0.43845781683921814,0.9032747745513916,25.92145347595215,0.38362810015678406,-100.81339263916016,31.917787551879883,-22.070404052734375,-3.5410430431365967,-0.9566092491149902,0.3751555383205414,-0.19457325339317322,125.2897720336914,64.56885528564453,2.326798677444458,156.2353010848337,1.0066034895047835,38.96648409968801,1.0458019336188495,99.36831855773926,64.18522718548775,103.14019131660461
1436.401,13.324792861938477,146.77883911132812,-44.31577682495117,-0.17560867965221405,0.5365501642227173,1.0017558336257935,26.226167678833008,3.4783530235290527,-100.31773376464844,28.793392181396484,-25.942970275878906,-9.897174835205078,-0.9445975422859192,0.3870459496974945,-0.21147550642490387,125.14314270019531,65.0337905883789,1.5445634126663208,153.9008310285607,1.1498866193238042,40.00064011694634,1.042492673301594,98.9169750213623,61.55543756484985,101.86229717731476
1458.9289999999999,1.3614985942840576,143.18556213378906,-47.34539031982422,-0.19040174782276154,0.4482665956020355,0.8653365969657898,26.296825408935547,6.4952898025512695,-99.89911651611328,25.157588958740234,-0.6243069171905518,-9.534343719482422,-0.8826718926429749,0.3806815445423126,-0.2055683434009552,125.78863525390625,65.18597412109375,1.7256827354431152,150.8162619432265,0.9929769344526261,26.91092253166016,0.9829987040813762,99.4918098449707,58.69068431854248,101.6247992515564
1482.5729999999999,11.94644546508789,138.6639862060547,-42.997947692871094,-0.2922123372554779,0.44566380977630615,0.8591793775558472,26.607664108276367,9.376998901367188,-99.42986297607422,5.924226760864258,5.448392391204834,-11.467226028442383,-0.9379287958145142,0.37603041529655457,-0.25375065207481384,126.36944580078125,65.29750061035156,2.236480712890625,145.66826056352195,1.0110358471418774,14.009950576289176,1.0418726854441271,99.76178169250488,55.920501708984375,101.66634368896484
1502.226,15.677825927734375,135.49591064453125,-40.265708923339844,-0.3192256987094879,0.4313870966434479,0.9760936498641968,27.00178337097168,12.210433006286621,-98.92047119140625,7.33448600769043,8.751550674438477,-18.3035831451416,-0.9458960890769958,0.33634111285209656,-0.19570231437683105,127.24105072021484,65.51041412353516,3.035093069076538,142.21906813894637,1.1138934810708936,21.573258450113254,1.0228118846484875,100.23926734924316,53.299981117248535,101.95556426048279
1524.171,9.577606201171875,135.98626708984375,-39.45210647583008,-0.3009359836578369,0.5219727158546448,0.892952561378479,27.332761764526367,15.008336067199707,-98.36418151855469,8.281057357788086,9.870964050292969,-19.514392852783203,-0.946038544178009,0.3139292001724243,-0.23438771069049835,128.2686004638672,65.71773529052734,3.9804184436798096,141.91710285569982,1.0772104062016714,23.384254759515184,1.023952180872758,100.93583869934082,50.70939922332764,102.3445999622345
1546.278,3.63167142868042,135.1761474609375,-37.310523986816406,-0.36456817388534546,0.5060798525810242,0.7777324318885803,27.608469009399414,17.790475845336914,-97.74688720703125,9.144974708557129,13.694292068481445,-14.038280487060547,-0.9418819546699524,0.3179386854171753,-0.311149537563324,129.3719024658203,65.7558822631836,4.992344856262207,140.27777828265536,0.9969425791939333,21.63879656335833,1.041652849534605,101.7634334564209,47.96540641784668,102.73923206329346
1556.3229999999999,4.848880767822266,132.26625061035156,-34.410064697265625,-0.47160711884498596,0.4753456115722656,0.9219917058944702,27.921083450317383,20.505706787109375,-97.0875244140625,7.769209384918213,4.2327070236206055,-12.525956153869629,-0.9136009812355042,0.38421323895454407,-0.22459638118743896,129.92984008789062,65.87991333007812,5.4593892097473145,136.75498253332816,1.139489109524297,15.335449154921184,1.0162332903152262,102.00875663757324,45.37420654296875,102.54691362380981
1584.018,4.545868873596191,128.21791076660156,-37.20083236694336,-0.44725558161735535,0.4162779450416565,0.8354284763336182,28.220239639282227,23.15570831298828,-96.50089263916016,-5.039522171020508,10.03506851196289,-16.080114364624023,-0.8833430409431458,0.40432101488113403,-0.2354705035686493,130.52084350585938,65.96163177490234,6.236449241638184,133.58293114751433,1.0350196239130416,19.61299216670889,0.9996083078426607,102.30060386657715,42.80592346191406,102.73734188079834
1604.038,11.213373184204102,127.12980651855469,-36.10017395019531,-0.47911953926086426,0.4854966998100281,0.8455756306648254,28.726057052612305,25.753705978393555,-95.8610610961914,-9.76626968383789,-0.960854709148407,-11.975502967834473,-0.9889577627182007,0.3365088403224945,-0.23806142807006836,130.59339904785156,66.17079162597656,6.530766487121582,132.63087876828584,1.0863980511774627,15.482762564935108,1.0714237721791222,101.86734199523926,40.41708564758301,102.39182758331299
1626.181,9.203721046447754,124.47640991210938,-32.33717346191406,-0.5483537316322327,0.4971598982810974,0.7393584847450256,29.25140380859375,28.272945404052734,-95.13565826416016,-5.804666519165039,8.780281066894531,-13.208465576171875,-0.9220883846282959,0.2995668053627014,-0.28133538365364075,131.19500732421875,66.25370025634766,7.293842315673828,128.937108286227,1.0461886772558409,16.88937689464296,1.0095230844498684,101.943603515625,37.98075485229492,102.42950057983398
1646.335,5.873197555541992,123.83402252197266,-31.251953125,-0.6043214201927185,0.42249149084091187,0.751367449760437,29.7507381439209,30.79176139831543,-94.36074829101562,-9.871746063232422,17.976831436157227,-9.627776145935059,-0.8856136202812195,0.2699533998966217,-0.278161883354187,131.93919372558594,66.16159057617188,8.285231590270996,127.85164902192717,1.0527376136987903,22.656387892539087,0.9667266190058602,102.18845558166504,35.369829177856445,102.64597988128662
1656.277,9.298572540283203,126.14774322509766,-29.50110626220703,-0.5362957715988159,0.41462308168411255,0.8035095930099487,30.39925193786621,33.262149810791016,-93.44361114501953,-9.513416290283203,19.930889129638672,-6.089257717132568,-0.9719047546386719,0.33830156922340393,-0.23583365976810455,132.52798461914062,65.99439239501953,9.112523078918457,129.8846867138929,1.051262631581192,22.909048224573482,1.055776642528093,102.12873268127441,32.732242584228516,102.55613422393799
1676.529,3.18924880027771,127.5518798828125,-36.04584503173828,-0.5126753449440002,0.4585944414138794,0.6834613084793091,30.953083038330078,35.802894592285156,-92.60604095458984,-9.182256698608398,8.742185592651367,-3.9884092807769775,-1.010191559791565,0.4119729697704315,-0.2173665463924408,132.60296630859375,65.93485260009766,9.440783500671387,132.58565651533198,0.9696722287440261,13.290863614020267,1.1124104147238827,101.64988327026367,30.1319580078125,102.04682445526123
1702.182,4.797614097595215,125.95733642578125,-36.57566452026367,-0.677141547203064,0.3934316039085388,0.7010887861251831,31.548994064331055,38.368831634521484,-91.69658660888672,-15.578937530517578,13.706791877746582,-2.0932273864746094,-0.8937116265296936,0.39298972487449646,-0.19069765508174896,132.6282958984375,65.77031707763672,9.857006072998047,131.24803593046929,1.0511111206400052,20.855719576440322,0.994749712694083,101.07930183410645,27.401485443115234,101.55359268188477
1722.338,12.889700889587402,125.12705993652344,-33.94002151489258,-0.7394638657569885,0.3736959397792816,0.6583724617958069,32.408050537109375,40.898895263671875,-90.73199462890625,-28.247386932373047,20.91413688659668,0.6537829637527466,-0.8660094738006592,0.30999961495399475,-0.24309152364730835,132.67601013183594,65.47673797607422,10.54132080078125,130.2875687769663,1.0582578904118132,35.15314242542474,0.9514019438982083,100.26795959472656,24.577842712402344,101.2733154296875
1736.939,12.711331367492676,124.82417297363281,-31.695589065551758,-0.7578122615814209,0.4168853759765625,0.6291245818138123,33.41496658325195,43.369842529296875,-89.5517807006836,-18.546035766601562,11.951108932495117,-1.140373945236206,-0.9050242900848389,0.23856773972511292,-0.28072604537010193,132.7831573486328,65.35757446289062,11.04592227935791,129.41121462183224,1.0695188544147654,22.092643574443567,0.977133892887895,99.36819076538086,21.98773193359375,100.5977029800415
1760.429,5.249395370483398,125.20813751220703,-33.47081756591797,-0.7664310932159424,0.36493754386901855,0.6845304369926453,34.290138244628906,45.825435638427734,-88.37873840332031,-13.289762496948242,10.98666763305664,-3.659512996673584,-0.9993584752082825,0.24168729782104492,-0.2605727016925812,133.0106658935547,65.31316375732422,11.571650505065918,129.7109458741334,1.090494360711085,17.627157691396796,1.0606734864066476,98.72052764892578,19.487728118896484,99.95038890838623
1782.659,0.3557714819908142,125.09805297851562,-35.35344314575195,-0.7830885052680969,0.3767326772212982,0.6062425374984741,35.176612854003906,48.292118072509766,-87.0948486328125,-8.796175003051758,12.070667266845703,-2.5303878784179688,-0.9775124788284302,0.3476170003414154,-0.24029949307441711,133.2112274169922,65.20069885253906,12.009870529174805,129.99813604287877,1.05956837034801,15.148483942839214,1.0649469806349459,98.03461456298828,16.908580780029297,99.1047191619873
1799.906,2.220061779022217,123.43673706054688,-35.03636932373047,-0.8711943030357361,0.37965935468673706,0.5244596004486084,36.24456024169922,50.74606704711914,-85.73749542236328,-15.185935974121094,11.764764785766602,-4.488805770874023,-0.8832358717918396,0.3455326557159424,-0.22788432240486145,133.3110809326172,65.10549926757812,12.477782249450684,128.33200655271506,1.0854393634587727,19.727435695577643,0.9754125720862561,97.06652069091797,14.359432220458984,98.21527767181396
1819.957,4.5614013671875,119.55144500732422,-36.20942306518555,-0.9047637581825256,0.3545688986778259,0.5213162899017334,37.402503967285156,53.128143310546875,-84.32318115234375,-22.658599853515625,11.237817764282227,0.11818449944257736,-0.8720906972885132,0.31993409991264343,-0.3146706223487854,133.21884155273438,64.92723846435547,12.884428977966309,124.99790680041582,1.1027634543033615,25.29258118502072,0.9807739867846467,95.81633758544922,11.799095153808594,97.20761013031006
1841.413,6.601091384887695,116.4598159790039,-34.95813751220703,-0.9290735125541687,0.3532673418521881,0.5284214615821838,38.72479248046875,55.40894317626953,-82.82820892333984,-16.488670349121094,8.508176803588867,2.5974576473236084,-0.8778334259986877,0.2966375946998596,-0.3239282965660095,133.1223602294922,64.75794219970703,13.14654541015625,121.77247030284583,1.1257018466759763,18.735317147909527,0.9815879622866553,94.39756774902344,9.3489990234375,95.9747543334961
1864.179,2.681436538696289,112.561279296875,-35.67127227783203,-0.9475664496421814,0.36418893933296204,0.5204552412033081,40.06004333496094,57.600807189941406,-81.2878646850586,-7.135682582855225,31.89896583557129,3.868565320968628,-0.8614398241043091,0.2764294445514679,-0.3142473101615906,133.8334197998047,64.25525665283203,14.10876178741455,118.10872687815827,1.1407845625340265,32.91546422192476,0.957728134864843,93.77337646484375,6.654449462890625,95.39662647247314
1887.224,0.8824176788330078,108.31549072265625,-33.08754348754883,-0.9780924320220947,0.35491812229156494,0.4308169186115265,41.566741943359375,59.69158172607422,-79.56224822998047,-6.472526550292969,8.232994079589844,-5.938497543334961,-0.9913435578346252,0.2604704201221466,-0.3018028736114502,134.1648406982422,64.2660140991211,14.654243469238281,113.25992109078209,1.1261593566062473,12.039167102877348,1.068499819344369,92.59809875488281,4.574432373046875,94.21649169921875
1896.307,2.776960611343384,101.25813293457031,-29.060104370117188,-1.0379191637039185,0.380325585603714,0.4419121742248535,43.27009582519531,61.58158874511719,-77.73052978515625,-4.256206512451172,1.9831933975219727,-4.49563455581665,-0.9018412828445435,0.26901018619537354,-0.3489442765712738,134.3511505126953,64.30191802978516,14.977593421936035,105.38221226390235,1.190466341891608,6.500698423097266,1.0037162387205913,91.0810546875,2.7203292846679688,92.70812320709229
1921.16,-0.6071327924728394,90.8516845703125,-27.533267974853516,-1.0332400798797607,0.34805357456207275,0.4325125217437744,44.86601257324219,63.266597747802734,-75.921630859375,-0.5415081977844238,2.870295524597168,-6.003457546234131,-0.8474173545837402,0.28553932905197144,-0.3814040720462799,134.6978759765625,64.31391143798828,15.37465763092041,94.93407209672588,1.1729422129416818,6.676326088218414,0.9721717684949704,89.83186340332031,1.0473136901855469,91.29628849029541
1941.3990000000001,-1.0984761714935303,78.13973236083984,-25.99029541015625,-1.054761528968811,0.34944862127304077,0.4337737560272217,46.313758850097656,64.7171630859375,-74.31197357177734,-8.04923152923584,2.1681015491485596,-9.527856826782227,-0.8378400802612305,0.28880107402801514,-0.39944031834602356,134.9886016845703,64.37425994873047,15.865331649780273,82.35605550796012,1.192810082670421,12.659812330770366,0.9720774806424912,88.67484283447266,-0.34290313720703125,90.17730522155762
1964.352,-0.018012523651123047,63.414344787597656,-24.847043991088867,-1.063842535018921,0.36287233233451843,0.41047096252441406,47.52980422973633,65.92388916015625,-73.0020980834961,-8.64714527130127,5.518894672393799,-12.542134284973145,-0.8467533588409424,0.2837381362915039,-0.44644713401794434,135.4993438720703,64.41551208496094,16.60463523864746,68.10840656179256,1.1966301349895447,16.20297664536561,0.9984055409338582,87.96953964233398,-1.5083770751953125,89.60673332214355
1986.0359999999998,3.4574668407440186,48.781436920166016,-23.190248489379883,-1.052045464515686,0.37531986832618713,0.4261211156845093,48.468563079833984,66.87723541259766,-72.07321166992188,-4.188385009765625,11.349982261657715,-11.616866111755371,-0.8504998683929443,0.2958858609199524,-0.4448434114456177,136.2215576171875,64.35408782958984,17.492813110351562,54.12365739628251,1.195509877918465,16.77248474700229,1.0043824617820305,87.75299453735352,-2.5231475830078125,89.56602478027344
1996.0880000000002,4.287859916687012,34.25359344482422,-21.697280883789062,-1.008436679840088,0.3898102939128876,0.448340505361557,48.99747085571289,67.58187866210938,-71.62594604492188,2.7308905124664307,11.399023056030273,-8.886091232299805,-0.8618143796920776,0.3161701261997223,-0.41766953468322754,136.94528198242188,64.25648498535156,18.233858108520508,40.77335409674404,1.1704297549341474,14.709116459248815,1.008531315303443,87.94781112670898,-3.3253936767578125,89.85980415344238
2021.404,4.187259674072266,22.207901000976562,-17.97684669494629,-0.9722167253494263,0.39948537945747375,0.46251264214515686,49.313716888427734,68.13396453857422,-71.40778350830078,5.689463138580322,12.880962371826172,-8.063499450683594,-0.8944030404090881,0.2826584279537201,-0.37077784538269043,137.72239685058594,64.16014099121094,18.965097427368164,28.877171390925547,1.1483518074151047,16.226805163704917,1.0086271839549634,88.4086799621582,-3.9738235473632812,90.37288093566895
2045.779,-0.9346978664398193,10.613049507141113,-11.094078063964844,-0.9670803546905518,0.4150490462779999,0.5418877601623535,49.336151123046875,68.44080352783203,-71.4056625366211,6.866293430328369,10.6915283203125,-8.913840293884277,-0.9252474308013916,0.2739564776420593,-0.33556830883026123,138.45419311523438,64.12845611572266,19.621057510375977,15.381451427999288,1.1837028629932653,15.52131798786075,1.0216364567388057,89.1180419921875,-4.312347412109375,91.02672004699707
2066.359,-9.539298057556152,-3.0298402309417725,-6.621526718139648,-0.9676982760429382,0.4334796667098999,0.5381365418434143,48.810211181640625,68.50103759765625,-71.80779266357422,4.338981628417969,6.726558208465576,-10.242554664611816,-0.900225818157196,0.271495521068573,-0.3245731294155121,139.05499267578125,64.16944122314453,20.207534790039062,12.00094810150286,1.1890902037165176,12.999356636433419,0.9947180796465236,90.24478149414062,-4.331596374511719,92.01532745361328
2076.101,-6.902577877044678,-18.896976470947266,-2.6073362827301025,-0.9769643545150757,0.4378286302089691,0.5406922698020935,47.87350845336914,68.2882308959961,-72.70285034179688,6.481677532196045,9.99477481842041,-8.122685432434082,-0.8753138780593872,0.31497395038604736,-0.33646640181541443,139.6807403564453,64.10479736328125,20.81337547302246,20.28643644367936,1.1993754166429544,14.41824143009759,0.9892384010418156,91.80723190307617,-4.183433532714844,93.51622581481934
2106.236,0.9563925862312317,-33.90911865234375,0.8080453276634216,-0.9656497240066528,0.4237937927246094,0.5872023105621338,46.686012268066406,67.81538391113281,-74.03024291992188,5.935821533203125,7.94877290725708,-1.8978009223937988,-0.894973874092102,0.3506547510623932,-0.3372308611869812,140.0048828125,63.98326873779297,21.100297927856445,33.93222585992972,1.2070157918418227,10.100426542786241,1.0186567839498089,93.3188705444336,-3.8321151733398438,95.13054084777832
2116.1020000000003,1.6475920677185059,-47.886085510253906,5.103636264801025,-0.9665237665176392,0.43361932039260864,0.6367592811584473,45.2346076965332,67.07527160644531,-75.65786743164062,9.225458145141602,-2.0085480213165283,3.051348924636841,-0.9505419731140137,0.3166755437850952,-0.3058854043483734,139.9836883544922,63.98805618286133,20.936891555786133,48.18546303855915,1.235983935333552,9.922402602272117,1.0475587445467849,94.74908065795898,-3.0872154235839844,96.59475898742676
2139.5409999999997,-7.679697513580322,-62.206199645996094,12.507143020629883,-1.017171859741211,0.43421661853790283,0.6361182928085327,43.49070358276367,66.0097885131836,-77.3895492553711,11.568076133728027,-10.100194931030273,4.4660725593566895,-0.9558634757995605,0.28271859884262085,-0.2989856004714966,139.77825927734375,64.11235809326172,20.514780044555664,63.91414283893751,1.2758640783835582,15.993127498584398,1.0406715042646517,96.28755569458008,-1.897430419921875,97.90432929992676
2160.679,-14.75947093963623,-78.8656005859375,18.901016235351562,-1.0526968240737915,0.4376547932624817,0.6309710741043091,41.48781204223633,64.5899429321289,-79.25479125976562,16.153371810913086,-14.435300827026367,6.353569984436035,-0.9508507251739502,0.24085913598537445,-0.34028610587120056,139.56173706054688,64.27285766601562,19.953937530517578,82.43102178747765,1.3030106744908188,22.576031147557273,1.0382316017153561,98.07392501831055,-0.31708526611328125,99.2087287902832
2175.9590000000003,-18.857051849365234,-97.33692932128906,23.634916305541992,-1.0931214094161987,0.3998362720012665,0.6077736020088196,39.22434616088867,62.75115203857422,-81.30992889404297,21.856311798095703,-16.947559356689453,6.24738073348999,-0.9024723172187805,0.2805330753326416,-0.37622910737991333,139.3840789794922,64.43177795410156,19.304473876953125,101.92485213586157,1.3130773821183208,28.353975022794803,1.017203731285779,100.15973281860352,1.6806259155273438,100.6144027709961
2202.163,-16.017658233642578,-117.90225982666016,28.114084243774414,-1.126956820487976,0.3701057732105255,0.5823476910591125,36.969146728515625,60.51567840576172,-83.41312408447266,19.560909271240234,-14.39918327331543,3.6494410037994385,-0.8454928398132324,0.2683444917201996,-0.4348220229148865,139.37425231933594,64.55016326904297,18.885408401489258,122.26164558187945,1.3214154501480633,24.56184174886793,0.9878952879854275,102.40510559082031,4.03448486328125,102.29853248596191
2221.311,-14.3552827835083,-136.88742065429688,32.53678894042969,-1.1442971229553223,0.35505548119544983,0.6249576807022095,34.809295654296875,57.901607513427734,-85.50077819824219,16.616785049438477,-11.649221420288086,-1.161647081375122,-0.8426743745803833,0.26717767119407654,-0.4416733980178833,139.53909301757812,64.68531036376953,18.705347061157227,141.43154779516124,1.3513150642982728,20.32661627078664,0.9882102003500034,104.72979736328125,6.783702850341797,104.20612525939941
2236.118,-17.400375366210938,-152.1365203857422,34.30832290649414,-1.0999208688735962,0.4005492031574249,0.6952504515647888,32.731746673583984,54.96363067626953,-87.55720520019531,15.258299827575684,-17.360097885131836,-3.1440811157226562,-0.9393552541732788,0.25185346603393555,-0.3876746892929077,139.54473876953125,64.98269653320312,18.390609741210938,156.92467912544112,1.3614840330810853,23.325392992869354,1.0469527814637127,106.81299209594727,10.019065856933594,105.94781494140625
2259.027,-21.9123592376709,-164.5248260498047,37.96915817260742,-1.0930242538452148,0.3763214647769928,0.6851189136505127,30.8027400970459,51.77509307861328,-89.375244140625,13.351686477661133,-27.896133422851562,-3.7145237922668457,-0.9797695279121399,0.25648394227027893,-0.3445117473602295,139.18569946289062,65.46739196777344,17.73011589050293,170.265166274302,1.3437662706689169,31.148988406473357,1.0697759973643453,108.38295936584473,13.692298889160156,107.10536003112793
2280.768,-23.6583251953125,-176.82142639160156,40.19399642944336,-1.088587999343872,0.36499276757240295,0.7501115798950195,29.01888656616211,48.33237075805664,-91.06092071533203,17.228132247924805,-33.42188262939453,-4.743459224700928,-0.9462049007415771,0.23273566365242004,-0.33130785822868347,138.77296447753906,66.04753112792969,16.933307647705078,182.8690529618881,1.3714630636616716,37.89896020554404,1.0291911874123232,109.75407791137695,17.715160369873047,107.99422836303711
2308.504,-24.268909454345703,-190.80575561523438,41.74099349975586,-1.113106608390808,0.3756837844848633,0.7163492441177368,27.404159545898438,44.64802169799805,-92.61215209960938,20.281564712524414,-39.025794982910156,-3.3952901363372803,-0.9179493188858032,0.21820887923240662,-0.3313937187194824,138.19387817382812,66.6832046508789,15.894938468933105,196.8200367857664,1.3759726985359158,44.11215859994113,1.0000339313370825,110.78971862792969,22.03518295288086,108.50709056854248
2329.396,-22.281293869018555,-202.40859985351562,39.77162170410156,-1.0635937452316284,0.35062041878700256,0.7701607346534729,25.92045783996582,40.75937271118164,-94.12531280517578,27.461807250976562,-39.82234191894531,1.4597935676574707,-0.9311155676841736,0.25425493717193604,-0.34672272205352783,137.49951171875,67.23931884765625,14.565408706665039,207.4788645720627,1.3591592585742822,48.39525566271297,1.0255917411174555,111.57905387878418,26.47994613647461,108.69072151184082
2336.73,-19.584369659423828,-210.1183319091797,36.54512023925781,-0.942333459854126,0.37767258286476135,0.8333888053894043,24.6129093170166,36.71649932861328,-95.57925415039062,32.9647216796875,-40.71050262451172,6.42671537399292,-0.9881959557533264,0.31048697233200073,-0.3060629963874817,136.56903076171875,67.73609924316406,12.895003318786621,214.17004167846392,1.3134556826770998,52.77613636728206,1.080096275668427,111.95612144470215,31.01959991455078,108.47425746917725
2361.694,-19.287452697753906,-213.351318359375,32.202693939208984,-0.7780337929725647,0.3223602771759033,0.7622899413108826,23.42328643798828,32.64060592651367,-96.97848510742188,32.89313888549805,-36.59623336791992,8.416114807128906,-1.0051722526550293,0.3676281273365021,-0.24705420434474945,135.5473175048828,68.13512420654297,11.126882553100586,216.62826310108716,1.1359307575428836,49.92067578575728,1.0984341024389888,112.12403106689453,35.4945182800293,108.10536766052246
2380.836,-11.963071823120117,-210.62564086914062,29.213438034057617,-0.6257370114326477,0.35841885209083557,0.7620063424110413,22.55039405822754,28.592790603637695,-98.2505111694336,25.006921768188477,-35.519134521484375,13.636617660522461,-0.9900444149971008,0.3520522117614746,-0.19388215243816376,134.14076232910156,68.44755554199219,9.11618423461914,212.978169399474,1.0491256106326958,45.52924768426198,1.0685125139684388,111.59036827087402,39.85476493835449,107.36669540405273
2403.2309999999998,-6.205440044403076,-207.44436645507812,29.95357322692871,-0.5390076637268066,0.31677183508872986,0.7895300984382629,21.915302276611328,24.582456588745117,-99.38491821289062,17.604562759399414,-33.892112731933594,24.672895431518555,-1.0152161121368408,0.3430781066417694,-0.1736917495727539,132.22694396972656,68.56678771972656,6.720600605010986,209.68759908290812,1.0070905785487445,45.46809545558706,1.0856035949962528,110.31164169311523,43.984331130981445,106.10551881790161
2425.9010000000003,-4.677443027496338,-204.7577362060547,30.35293197631836,-0.5017419457435608,0.347659170627594,0.7881624698638916,21.44649887084961,20.628374099731445,-100.40303039550781,22.394933700561523,-35.09028625488281,28.482004165649414,-0.9654161334037781,0.3354739248752594,-0.11450736969709396,130.1680908203125,68.62677001953125,4.04548454284668,207.04808496835406,0.9969011776209067,50.4389314537316,1.028437165130889,108.72159194946289,47.998395919799805,104.44851493835449
2436.352,-4.7589216232299805,-203.60536193847656,32.767276763916016,-0.5235599875450134,0.3713899850845337,0.8604192733764648,21.072980880737305,16.640899658203125,-101.310791015625,13.99927043914795,-34.198692321777344,34.03062438964844,-0.9378129243850708,0.3128185272216797,-0.12590616941452026,127.84671020507812,68.55226135253906,1.2809377908706665,206.28011336926582,1.073483538568202,50.235580276307445,0.9965946395668889,106.77372932434082,51.91136169433594,102.59172880649567
2458.205,-6.61532735824585,-204.9537811279297,31.27589988708496,-0.4944899380207062,0.32352158427238464,0.7887069582939148,20.712377548217773,12.590020179748535,-102.21548461914062,19.831707000732422,-24.056581497192383,44.859622955322266,-0.9158549904823303,0.28566625714302063,-0.10689304769039154,125.78339385986328,68.15934753417969,-1.3535767793655396,207.43190899290065,0.9855177219893484,54.62967588763121,0.9653091202853271,105.07101631164551,55.56932735443115,100.86190783977509
2480.946,1.6380144357681274,-206.20388793945312,32.49481201171875,-0.46980440616607666,0.29276108741760254,0.8839824795722961,20.58785629272461,8.503660202026367,-103.07451629638672,17.51119041442871,-21.053865432739258,55.285579681396484,-0.9506162405014038,0.27716922760009766,-0.244169220328331,123.80294036865234,67.49925231933594,-3.8811912536621094,208.75497431274607,1.0430006033314563,61.69604817245844,1.0198591204618424,103.21508407592773,58.99559211730957,99.19332504272461
2503.3959999999997,5.578184127807617,-206.51190185546875,31.036561965942383,-0.328878253698349,0.3211480379104614,0.824104905128479,20.600238800048828,4.4208245277404785,-103.94999694824219,27.65314292907715,-18.53744125366211,47.55690383911133,-0.9540526866912842,0.35638776421546936,-0.15217965841293335,122.28775787353516,66.91266632080078,-6.108569622039795,208.9056005108342,0.9436343903579575,58.05163343827136,1.0297511427039232,101.68751907348633,62.4918417930603,97.84142732620239
2525.799,2.3750054836273193,-203.67523193359375,30.13486099243164,-0.18372242152690887,0.279943585395813,0.7774584293365479,20.619462966918945,0.4342590272426605,-104.8192138671875,4.0539960861206055,-17.937421798706055,43.14289093017578,-0.9725882411003113,0.3244546949863434,-0.20733767747879028,120.6290283203125,66.38008880615234,-8.038239479064941,205.90616941044686,0.8465010032613228,46.89877421494106,1.046034248161874,100.00956535339355,65.94582977890968,96.78097438812256
2548.508,0.07822757959365845,-197.8638153076172,30.378511428833008,-0.08667466044425964,0.31621110439300537,0.8320359587669373,20.64434242248535,-3.4133505821228027,-105.64500427246094,-8.349248886108398,-18.71508026123047,30.949176788330078,-0.9616460204124451,0.424316942691803,-0.16034236550331116,118.93426513671875,66.01631927490234,-9.710052490234375,200.18229063599205,0.8943074392991419,37.118940313831565,1.0632580169486656,98.2899227142334,69.42966985702515,95.93495178222656
2559.904,-7.392478942871094,-193.8578338623047,25.389657974243164,-0.026046691462397575,0.2785490155220032,0.7194232940673828,20.585248947143555,-7.1494598388671875,-106.53821563720703,-16.83942413330078,-4.111198902130127,25.06989288330078,-0.9391419291496277,0.3932534158229828,-0.13696154952049255,117.8163070678711,65.61907958984375,-10.601420402526855,195.65311964483155,0.771905344087718,30.478971287335863,1.027323842899785,97.23105812072754,72.76853942871094,95.93679523468018
2585.446,-3.5339303016662598,-189.69442749023438,24.69344711303711,-0.03605504333972931,0.2785142660140991,0.8099727630615234,20.65508460998535,-10.849630355834961,-107.42211151123047,-17.746688842773438,9.9041109085083,23.733064651489258,-0.8951189517974854,0.3491514027118683,-0.14147557318210602,117.31507873535156,65.12470245361328,-10.804729461669922,191.32754849877,0.8572782742057102,31.24571547463782,0.9711642382676061,96.65999412536621,75.97433280944824,96.61738204956055
2609.617,-4.5488667488098145,-187.12586975097656,22.46670150756836,-0.009707581251859665,0.3444809913635254,0.7577701210975647,20.767114639282227,-14.506866455078125,-108.34660339355469,-15.651596069335938,29.956262588500977,21.338571548461914,-0.9080492258071899,0.34569448232650757,-0.18730275332927704,117.72209930419922,64.48594665527344,-10.065622329711914,188.52462967842703,0.8324523691916412,39.97104906701479,0.9895152313151916,96.95498466491699,78.99281311035156,98.28098106384277
2616.3340000000003,-5.999024391174316,-185.82992553710938,21.034046173095703,0.030728261917829514,0.2471778690814972,0.7509799003601074,20.9195613861084,-18.128223419189453,-109.31388092041016,-7.8365864753723145,47.14668655395508,21.326404571533203,-0.9202876091003418,0.32168495655059814,-0.2164912223815918,118.90757751464844,63.69355392456055,-8.648006439208984,187.11274840904198,0.7912091605821038,52.335816345516086,0.9986385452719415,97.98801612854004,81.82177734375,100.66587448120117
2640.911,-3.584744930267334,-181.19671630859375,22.69512367248535,0.1428302675485611,0.2832737863063812,0.7679822444915771,21.153568267822266,-21.628755569458008,-110.24236297607422,-10.638195037841797,63.68089294433594,7.536679267883301,-0.8426079750061035,0.32182174921035767,-0.244887575507164,120.81306457519531,62.93973922729492,-6.3672003746032715,182.64766364709266,0.8309279458476935,65.00176039337764,0.9346268573321,99.65949630737305,84.56849479675293,103.87516260147095
2660.8390000000004,-11.437255859375,-175.15615844726562,19.862890243530273,0.25781452655792236,0.27550798654556274,0.6804107427597046,21.32085418701172,-24.998987197875977,-111.22386932373047,-16.890457153320312,84.38458251953125,6.814749717712402,-0.8623084425926208,0.3272736668586731,-0.31103023886680603,123.12632751464844,61.93584442138672,-3.4493021965026855,176.6494411891047,0.7780306932361271,86.32778303396184,0.9733569297411795,101.80547332763672,86.9348316192627,107.77456712722778
2675.716,-16.905691146850586,-167.2560272216797,17.615583419799805,0.31846776604652405,0.26066383719444275,0.614069402217865,21.446481704711914,-28.232118606567383,-112.22807312011719,-25.980619430541992,119.10040283203125,-6.676732540130615,-0.8731206059455872,0.4027319550514221,-0.31229686737060547,126.34903717041016,60.66923904418945,0.7483294606208801,169.02866565867424,0.7392216073491092,122.0838945076672,1.0109707975583784,104.90255546569824,88.90135765075684,112.97640258073807
2699.718,-19.894193649291992,-157.27728271484375,13.929252624511719,0.41701269149780273,0.2179129272699356,0.5220749974250793,21.571046829223633,-31.327558517456055,-113.26277923583984,-28.85007667541504,125.61383056640625,-18.2597599029541,-0.838304340839386,0.3802449703216553,-0.36510053277015686,129.65684509277344,59.38803482055664,5.215922832489014,159.14127898756465,0.7028142938771169,130.1713493264039,0.9902720860218803,108.0857982635498,90.7155933380127,118.47870206832886
2720.449,-19.007652282714844,-143.04180908203125,11.319101333618164,0.47931212186813354,0.22303690016269684,0.4630255103111267,21.736492156982422,-34.10240173339844,-114.26799011230469,-19.06121063232422,112.559814453125,-30.736492156982422,-0.8096848130226135,0.35558614134788513,-0.3718906342983246,132.80050659179688,58.35289764404297,9.281698226928711,144.74243346635288,0.7027646776857789,118.2276343779575,0.9593402129781452,111.06401443481445,92.4552993774414,123.5496883392334
2742.906,-17.434650421142578,-123.09376525878906,6.704971790313721,0.5562320351600647,0.2190185934305191,0.3505665361881256,21.947420120239258,-36.43665313720703,-115.23656463623047,-22.934547424316406,107.34862518310547,-34.00092315673828,-0.800377607345581,0.3447023332118988,-0.40657201409339905,135.60020446777344,57.32758331298828,13.03431224822998,124.50300690185043,0.6930080212389542,114.91641993105905,0.961626130835642,113.65278434753418,93.76423645019531,128.27087688446045
2755.605,-12.55636978149414,-100.37036895751953,1.4095209836959839,0.6105453372001648,0.2094883769750595,0.2751266062259674,22.252933502197266,-38.306739807128906,-116.15274047851562,-26.130422592163086,88.43059539794922,-31.55133056640625,-0.7405598759651184,0.34771978855133057,-0.44877535104751587,137.68994140625,56.44309997558594,16.17352294921875,101.16254314795421,0.7016734556173022,97.45899469926553,0.9331330542572558,115.43700790405273,94.74983978271484,132.32626342773438
2779.5429999999997,-1.4953333139419556,-76.48224639892578,-2.7875912189483643,0.6722047924995422,0.2253991961479187,0.22119779884815216,22.738191604614258,-39.698455810546875,-116.97080993652344,-25.351348876953125,53.605037689208984,-30.821701049804688,-0.6841307878494263,0.34536004066467285,-0.43174678087234497,138.96929931640625,56.00065231323242,18.314964294433594,76.54763680708724,0.7426927675013054,66.82939630990272,0.8796100132246186,116.23110771179199,95.6991081237793,135.28577423095703
2801.005,5.423770904541016,-49.93305587768555,-5.28098201751709,0.716181755065918,0.25812003016471863,0.20173342525959015,23.25720977783203,-40.57633590698242,-117.60746002197266,-17.27627182006836,22.288455963134766,-24.090476989746094,-0.7263076305389404,0.351554811000824,-0.40603089332580566,139.59274291992188,55.952850341796875,19.532854080200195,50.50362493107155,0.7875523037414724,37.08902693270574,0.9033131492743072,116.33553314208984,96.5291862487793,137.14031410217285
2827.019,7.152392387390137,-20.436206817626953,-5.37473726272583,0.7302833199501038,0.27024519443511963,0.19388212263584137,23.624988555908203,-40.90852737426758,-117.95170593261719,-9.5263090133667,2.624929428100586,-21.827482223510742,-0.7729321718215942,0.3431912958621979,-0.40566420555114746,139.9476776123047,56.1896858215332,20.266374588012695,22.308811411622813,0.8024565221807352,23.959962398516772,0.9379594103466656,116.32268905639648,97.09821319580078,138.21808052062988
2847.089,9.363653182983398,9.291421890258789,-4.866339683532715,0.7221247553825378,0.25871542096138,0.2170325666666031,23.824508666992188,-40.69938659667969,-117.97044372558594,-3.3678112030029297,-12.572248458862305,-17.949880599975586,-0.834219217300415,0.36092936992645264,-0.3970482647418976,140.02854919433594,56.6226921081543,20.52395248413086,14.060219898333761,0.7971831448126633,22.172095010706983,0.9918866049722495,116.20404052734375,97.32207870483398,138.4943962097168
2857.42,13.107355117797852,37.370967864990234,-4.856799125671387,0.6974472403526306,0.2478218525648117,0.23029787838459015,23.90534210205078,-39.976844787597656,-117.69043731689453,4.786961555480957,-23.897953033447266,-11.975541114807129,-0.8484864234924316,0.359782874584198,-0.3886864185333252,139.90765380859375,57.15526580810547,20.337806701660156,39.899630262664296,0.7751680053205233,27.155860235222526,1.0002250045101402,116.00231170654297,97.13211059570312,138.0282440185547
2879.2599999999998,18.53481101989746,62.91725158691406,-7.405551910400391,0.6659338474273682,0.2663530111312866,0.2395692616701126,23.968416213989258,-38.76702880859375,-117.20565795898438,11.401867866516113,-32.29880905151367,-10.430282592773438,-0.8012014627456665,0.3564618229866028,-0.39162418246269226,139.7105255126953,57.775611877441406,19.910934448242188,66.00728721809423,0.7561780523297958,35.805117678297705,0.9603948747480381,115.74210929870605,96.54264068603516,137.11659240722656
2900.577,25.53018569946289,85.5593490600586,-9.988121032714844,0.6185762286186218,0.2722114026546478,0.2877848446369171,24.077930450439453,-37.12326431274414,-116.55416870117188,21.115638732910156,-46.117977142333984,-5.276764869689941,-0.8173640370368958,0.3800504803657532,-0.3958180844783783,139.2623748779297,58.5269660949707,18.983083724975586,89.84406021097983,0.734544563079697,50.9959043677981,0.9844766592802616,115.18444442749023,95.65023040771484,135.53725242614746
2924.555,32.509620666503906,102.25938415527344,-13.638962745666504,0.5849271416664124,0.26473268866539,0.34978142380714417,24.298171997070312,-35.14649200439453,-115.8256607055664,28.518186569213867,-55.841941833496094,0.40951815247535706,-0.7975611090660095,0.3715352714061737,-0.39451903104782104,138.58119201660156,59.33399963378906,17.552433013916016,108.16597611297854,0.73114307898427,62.7038845531061,0.9642548659210249,114.28302001953125,94.4804916381836,133.37809371948242
2946.567,37.195377349853516,117.33618927001953,-17.982013702392578,0.5751813650131226,0.2506718039512634,0.356986403465271,24.607425689697266,-32.86225509643555,-115.04930877685547,32.82261657714844,-69.06655883789062,5.443418502807617,-0.8449912667274475,0.3833751380443573,-0.37491756677627563,137.47311401367188,60.26880645751953,15.531936645507812,124.39706678776987,0.7218789706132246,76.66253657214203,1.000774659548107,112.86568832397461,93.13106155395508,130.58124542236328
2957.663,33.2297477722168,135.87716674804688,-24.486202239990234,0.51618492603302,0.31850725412368774,0.4534758925437927,24.846426010131836,-30.190275192260742,-114.23699188232422,30.48639488220215,-82.83513641357422,8.588335037231445,-0.8606067895889282,0.3472875952720642,-0.35711660981178284,135.81591796875,61.3492546081543,12.998817443847656,142.00843172368107,0.7573203641204396,88.68393087973011,0.9943766857282385,110.96949195861816,91.53952980041504,127.23580932617188
2994.153,28.432828903198242,150.64047241210938,-28.209978103637695,0.4467525780200958,0.3520429730415344,0.4760054051876068,25.024755477905273,-27.2484073638916,-113.38472747802734,28.525089263916016,-91.71382141113281,15.464766502380371,-0.8281205296516418,0.35310834646224976,-0.29783767461776733,133.49185180664062,62.41146469116211,9.781188011169434,155.87424595676399,0.7416894677716154,97.28445280886707,0.9482491214831359,108.46709632873535,89.65987205505371,123.16591548919678
3002.79,31.104738235473633,158.52761840820312,-32.94527053833008,0.37110382318496704,0.27747973799705505,0.5840056538581848,25.289995193481445,-24.14097023010254,-112.55477142333984,22.086965560913086,-89.03177642822266,30.402963638305664,-0.8205220699310303,0.3500862717628479,-0.2603340744972229,130.51551818847656,63.14577865600586,5.985428810119629,164.87541171963136,0.7455036259601556,96.6376296255559,0.9292958061161358,105.22552299499512,87.2867488861084,118.54020023345947
3025.221,37.256893157958984,162.09059143066406,-39.822509765625,0.32750412821769714,0.31639522314071655,0.711133599281311,25.73785972595215,-20.87502670288086,-111.81604766845703,27.905548095703125,-90.02494049072266,45.07096862792969,-0.908013105392456,0.3795628249645233,-0.23615826666355133,127.0833969116211,63.576988220214844,1.615269422531128,171.01832709437704,0.8444382080724971,104.47297132722692,1.0120901464657355,101.34553718566895,84.4520149230957,113.43131709098816
3035.324,30.590551376342773,163.82347106933594,-43.40966796875,0.18193860352039337,0.3956128656864166,0.7595753073692322,26.137725830078125,-17.476348876953125,-111.12997436523438,41.783302307128906,-87.07504272460938,41.68353271484375,-0.9270936250686646,0.3931081295013428,-0.22662562131881714,124.01114654541016,63.91379928588867,-2.7391066551208496,172.2158842263725,0.8755374592286918,105.19232061691064,1.0321801021920263,97.87342071533203,81.3901481628418,108.39086771011353
3057.859,18.84139633178711,160.912109375,-50.472801208496094,0.08141244947910309,0.4137932062149048,0.8294739127159119,26.367687225341797,-14.145201683044434,-110.5919189453125,35.03633117675781,-57.82135009765625,38.27336883544922,-0.8223903775215149,0.3671515882015228,-0.20436358451843262,121.84248352050781,63.88961410522461,-5.91879940032959,169.69151075135082,0.9305266123631513,77.68979206728204,0.9235208153778143,95.47479629516602,78.03481578826904,104.67311954498291
3080.333,20.20993423461914,158.8816680908203,-51.88623809814453,0.038889896124601364,0.3244447112083435,0.8243569135665894,26.659019470214844,-10.828414916992188,-110.0905990600586,39.59881591796875,-43.92810821533203,34.97683334350586,-0.8473740816116333,0.3654196560382843,-0.20726057887077332,120.35816955566406,63.741519927978516,-8.42104721069336,168.35678662016142,0.8867587696756548,68.71043431839504,0.9457966519078744,93.69915008544922,74.5699348449707,101.66955184936523
3098.808,27.14971923828125,156.08566284179688,-53.36650085449219,-0.008594265207648277,0.39267638325691223,0.8836745619773865,27.121288299560547,-7.528352737426758,-109.62504577636719,41.12532424926758,-41.00634765625,19.508235931396484,-0.8933769464492798,0.3839574456214905,-0.20133954286575317,119.32418823242188,63.81452941894531,-10.543044090270996,167.1760294208865,0.9670311964192855,61.26486849628966,0.9930172707544465,92.20289993286133,71.34288215637207,99.08200168609619
3123.13,14.708267211914062,154.92947387695312,-55.03530502319336,-0.027363110333681107,0.46735188364982605,0.8349742293357849,27.394119262695312,-4.2068891525268555,-109.18316650390625,35.012943267822266,-31.93784523010254,9.267290115356445,-0.9206171035766602,0.35973018407821655,-0.17303737998008728,118.67283630371094,63.98912811279297,-12.09762954711914,165.07077209234376,0.9572609292210048,48.288868492644426,1.0034358931218275,91.27871704101562,68.19601726531982,97.08553695678711
3135.0750000000003,-0.37636852264404297,155.9315948486328,-52.683692932128906,-0.12412944436073303,0.45300590991973877,0.9651584625244141,27.36020851135254,-0.912347674369812,-108.6832046508789,25.941686630249023,-16.277490615844727,-0.7533195614814758,-0.9188430309295654,0.3422617018222809,-0.22217333316802979,118.66070556640625,64.17908477783203,-12.759293556213379,164.59154117472093,1.0733840557610335,30.63487059435154,1.0053738498653655,91.30049705505371,65.09143245220184,95.92391109466553
3158.4210000000003,-7.631324291229248,151.23568725585938,-54.796051025390625,-0.15093635022640228,0.3939543664455414,0.8544216752052307,27.192155838012695,2.350039005279541,-108.27241516113281,20.700969696044922,-1.2857401371002197,-17.392610549926758,-0.9349790811538696,0.3803418278694153,-0.18424303829669952,119.35002136230469,64.51033020019531,-12.536271095275879,161.03750314186826,0.9528999022571509,27.06817644020639,1.0260561804224861,92.15786552429199,62.16029119491577,95.73614406585693
3181.056,2.823091506958008,149.4169158935547,-51.03028106689453,-0.24183613061904907,0.4166313409805298,0.808339536190033,27.280296325683594,5.472740650177002,-107.81333923339844,17.06221580505371,6.6892547607421875,-23.21013832092285,-0.8805968165397644,0.34372347593307495,-0.1734582632780075,120.39732360839844,64.8647232055664,-11.841650009155273,157.91603524203774,0.9409990404500664,29.57322874338729,0.9610849859959864,93.11702728271484,59.391982555389404,95.97168922424316
3208.382,7.253852367401123,148.52920532226562,-47.6873893737793,-0.2885480523109436,0.43634164333343506,0.9299704432487488,27.498287200927734,8.573451042175293,-107.28829956054688,10.03287124633789,8.985340118408203,-27.50651741027832,-0.9262353777885437,0.30780816078186035,-0.23149941861629486,121.59123992919922,65.27053833007812,-10.831643104553223,156.1653940958695,1.067004701730801,30.62684023093166,1.0031200425326374,94.09295272827148,56.69708728790283,96.45665645599365
3218.337,-3.820725917816162,148.29266357421875,-48.40581130981445,-0.29448121786117554,0.5393239259719849,0.9288047552108765,27.541032791137695,11.702110290527344,-106.76387023925781,12.67223072052002,1.2945209741592407,-23.794902801513672,-0.969643771648407,0.37692904472351074,-0.22903938591480255,122.4389877319336,65.66219329833984,-10.25993824005127,156.03984934957114,1.1136730930130134,26.989972495727237,1.0652434411687106,94.8979549407959,53.9600830078125,96.50393199920654
3237.463,-15.0903902053833,143.3438720703125,-53.429229736328125,-0.35032960772514343,0.4128586947917938,0.8272935152053833,27.318462371826172,14.813870429992676,-106.3843765258789,2.7318286895751953,16.31035614013672,-31.938100814819336,-0.8592482209205627,0.4190724194049835,-0.2049986869096756,123.79641723632812,65.97877502441406,-8.889740943908691,153.7200966916108,0.9887354025293704,35.96571824758745,0.9777288271784718,96.47795486450195,51.16490459442139,97.49463558197021
3260.714,-0.32681095600128174,140.5865936279297,-50.74387741088867,-0.4103597402572632,0.4428022503852844,0.7643377184867859,27.42460060119629,17.819561004638672,-105.9797592163086,-4.846771717071533,16.57109832763672,-35.448463439941406,-0.8819860219955444,0.34610575437545776,-0.23916536569595337,125.2287826538086,66.36011505126953,-7.286426544189453,149.46450484311285,0.9740026166658208,39.4295074292651,0.977184019699365,97.8041820526123,48.54055404663086,98.69333267211914
3284.799,12.27907943725586,142.25479125976562,-48.001739501953125,-0.45300760865211487,0.4377492070198059,0.8384092450141907,27.834794998168945,20.84819221496582,-105.48339080810547,-15.176960945129395,17.42595100402832,-35.81019973754883,-0.9445966482162476,0.3099842667579651,-0.23564977943897247,126.55525970458984,66.74805450439453,-5.589354038238525,150.63654411662296,1.048699348654533,42.61894317281836,1.0217063629088736,98.7204647064209,45.89986228942871,99.89403676986694
3306.699,5.054278373718262,145.29905700683594,-48.51256561279297,-0.40483298897743225,0.47027620673179626,0.845910370349884,28.158021926879883,23.872961044311523,-104.93000793457031,-10.115277290344238,14.992799758911133,-29.352859497070312,-1.0203747749328613,0.3625485599040985,-0.20521552860736847,127.67002868652344,67.04727172851562,-4.205929279327393,153.26718735362223,1.0491014318205494,34.47743087769317,1.1021431634726155,99.51200675964355,43.1743106842041,100.72407865524292
3317.3210000000004,-4.647971153259277,145.90841674804688,-53.197166442871094,-0.4060118496417999,0.45266133546829224,0.7696258425712585,28.299144744873047,26.938495635986328,-104.43143463134766,-5.564410209655762,19.147279739379883,-22.736318588256836,-0.9532157182693481,0.3779112696647644,-0.18711304664611816,128.81370544433594,67.16288757324219,-2.8943521976470947,155.37312583363246,0.9808526108600685,30.2410509960567,1.0423283674162265,100.51456069946289,40.22439193725586,101.53708243370056
3346.264,5.338155269622803,148.0784912109375,-49.976078033447266,-0.5135494470596313,0.3831571936607361,0.6767392158508301,28.706876754760742,30.069278717041016,-103.80841064453125,-16.541648864746094,22.529525756835938,-23.213302612304688,-0.9507878422737122,0.35907742381095886,-0.18322810530662537,129.8875732421875,67.24010467529297,-1.3967981338500977,156.3756497559499,0.9319433651781744,36.33267257115723,1.0327180911945293,101.18069648742676,37.17082595825195,102.41161251068115
3359.806,15.504842758178711,150.85671997070312,-48.447174072265625,-0.5723137855529785,0.3891807198524475,0.7313778400421143,29.388090133666992,33.20823287963867,-103.07866668701172,-15.453978538513184,17.928855895996094,-27.268630981445312,-0.9286931157112122,0.3238855302333832,-0.1179831326007843,130.89805603027344,67.4585189819336,0.024571318179368973,159.20200622122636,1.0069350757340407,36.108829419000266,0.9906022205922279,101.50996589660645,34.25028610229492,103.10323800519109
3379.8849999999998,14.11446762084961,153.61878967285156,-46.535430908203125,-0.6185452938079834,0.4759558439254761,0.7516635060310364,30.19646644592285,36.33805847167969,-102.14592742919922,-18.701875686645508,12.708919525146484,-17.169294357299805,-0.9300887584686279,0.304066002368927,-0.1636599600315094,131.4158172607422,67.57598876953125,0.9655691981315613,161.1319244178011,1.083572919631017,28.391221502834266,0.9921218750455255,101.21935081481934,31.237930297851562,103.11149662733078
3406.6169999999997,2.6067543029785156,151.78846740722656,-47.67108917236328,-0.7185428738594055,0.40444013476371765,0.7553219795227051,30.786853790283203,39.46100997924805,-101.21525573730469,-11.894280433654785,16.337995529174805,-11.166264533996582,-0.9476994872093201,0.24920226633548737,-0.25574660301208496,132.16363525390625,67.54374694824219,2.016305923461914,159.11966172887054,1.11820703670292,23.08873033730848,1.012740051817727,101.37678146362305,28.08273696899414,103.2315616607666
3426.158,0.6854211091995239,147.6669921875,-49.57928466796875,-0.7761533260345459,0.4163913428783417,0.6586412191390991,31.401559829711914,42.54257583618164,-100.27052307128906,1.4608429670333862,18.5711669921875,-9.536886215209961,-0.8989426493644714,0.2984005808830261,-0.26566189527511597,133.1524658203125,67.41786193847656,3.0388944149017334,155.76943169950772,1.0998199814003906,20.927840411946647,0.9837260981182258,101.75090599060059,24.875286102294922,103.3094174861908
3437.279,8.336397171020508,144.26751708984375,-47.82807540893555,-0.8456279635429382,0.44944196939468384,0.5679720640182495,32.314964294433594,45.55501937866211,-99.20220947265625,-6.477716445922852,26.687618255615234,-5.820577621459961,-0.8642619252204895,0.3064907491207123,-0.2671167552471161,134.10720825195312,67.109375,4.198877334594727,152.217399801679,1.11340783277481,28.072564940857603,0.9551107870902464,101.79224395751953,21.55435562133789,103.40108680725098
3457.373,13.687835693359375,145.3590850830078,-48.398067474365234,-0.8253450989723206,0.4063877463340759,0.5844711065292358,33.42919158935547,48.545623779296875,-98.02679443359375,-8.70237922668457,23.84589195251465,-0.400705486536026,-0.975845992565155,0.35199013352394104,-0.2873384356498718,134.69020080566406,66.76277923583984,5.004772663116455,153.81480227010246,1.089932111250801,25.387369538866647,1.0764459261409232,101.2610092163086,18.21715545654297,103.0315670967102
3485.6929999999998,12.719786643981934,146.8155517578125,-50.849613189697266,-0.8138090968132019,0.39451271295547485,0.725547730922699,34.577816009521484,51.497352600097656,-96.79398345947266,-14.230852127075195,21.122722625732422,0.25851204991340637,-1.01346755027771,0.4016972780227661,-0.19745026528835297,134.93423461914062,66.46570587158203,5.585078239440918,155.89189322014528,1.1594589413111986,25.47063783783711,1.1079096469925889,100.35641860961914,14.968353271484375,102.37906169891357
3506.1749999999997,-0.8166337609291077,146.53997802734375,-51.71761703491211,-0.8666269183158875,0.4616095721721649,0.6056575775146484,35.70265579223633,54.449092864990234,-95.35527801513672,-25.256059646606445,16.919889450073242,-1.656386375427246,-0.956717848777771,0.38142892718315125,-0.15464860200881958,134.95323181152344,66.25904083251953,6.17270565032959,155.4005918995282,1.1536666389696693,30.44494742482475,1.04149568350778,99.25057601928711,11.809947967529297,101.52798366546631
3516.247,-7.165384292602539,140.0233154296875,-42.77096176147461,-1.0685644149780273,0.38415467739105225,0.49812063574790955,37.003379821777344,57.25000762939453,-93.60964965820312,-28.638816833496094,13.945135116577148,-2.657518148422241,-0.9130091667175293,0.2281123697757721,-0.2981119751930237,134.95433044433594,66.11412811279297,6.788623809814453,146.58522014849913,1.239971327441348,31.96421476825805,0.9871634826655825,97.9509506225586,8.864120483398438,100.39827346801758
3537.285,-3.888375997543335,128.52455139160156,-36.931270599365234,-1.0917891263961792,0.37583038210868835,0.43410107493400574,38.57063293457031,59.77459716796875,-91.74139404296875,-15.608266830444336,18.782299041748047,-2.692018985748291,-0.8370054960250854,0.10531396418809891,-0.47520962357521057,135.3223114013672,65.8857650756836,7.534878253936768,133.78190657332644,1.2335703125042181,24.569080507085072,0.9682424374957466,96.75167846679688,6.111167907714844,99.27627229690552
3556.391,0.9834062457084656,118.45948028564453,-34.530452728271484,-1.0921396017074585,0.3345070779323578,0.5618801712989807,40.2423095703125,62.03135299682617,-89.83439636230469,2.7834248542785645,39.5638313293457,1.4432191848754883,-0.8374854922294617,0.24636399745941162,-0.3651498556137085,136.5586700439453,65.29961395263672,8.823270797729492,123.39354814174239,1.2729388130242327,39.687870754072016,0.94626190137494,96.31636047363281,3.268260955810547,98.65766716003418
3577.482,-3.261216878890991,105.77031707763672,-35.325279235839844,-1.0625882148742676,0.38730862736701965,0.5305313467979431,41.803123474121094,64.04751586914062,-88.04981231689453,3.140957832336426,10.826745986938477,-9.804481506347656,-0.9909777045249939,0.3181173503398895,-0.37335628271102905,137.28140258789062,65.2596435546875,9.538020133972168,111.56106338380354,1.2492258391331197,14.940277854796314,1.1057261746439286,95.47827911376953,1.212127685546875,97.5878324508667
3604.223,-6.918210029602051,89.64552307128906,-31.38821029663086,-1.1152212619781494,0.3262954354286194,0.4726836383342743,43.1769905090332,65.77678680419922,-86.40401458740234,-7.526042938232422,11.08311939239502,-10.937992095947266,-0.8325549960136414,0.27821314334869385,-0.41279613971710205,137.8873291015625,65.19523620605469,10.357254981994629,95.23340371090508,1.2544389169260557,17.294985656692678,0.970026302470493,94.7103385925293,-0.5815505981445312,96.76126956939697
3615.593,-3.267565965652466,71.014404296875,-29.889232635498047,-1.0976325273513794,0.3479917049407959,0.4159287214279175,44.33223342895508,67.1912612915039,-85.09078216552734,-10.79358196258545,15.307159423828125,-15.628744125366211,-0.8164900541305542,0.2584347724914551,-0.48815637826919556,138.61495971679688,65.17512512207031,11.391460418701172,77.11737049795481,1.2242924867514464,24.394019433986458,0.9857693390300407,94.2827262878418,-2.0161361694335938,96.48224258422852
3637.646,1.1870191097259521,55.8462028503418,-26.22268295288086,-1.0634503364562988,0.37178733944892883,0.4601486325263977,45.30817794799805,68.2998275756836,-84.10340118408203,-14.542891502380371,15.311959266662598,-16.928741455078125,-0.8587436079978943,0.2660290598869324,-0.4694802761077881,139.3942108154297,65.13044738769531,12.571136474609375,61.70766960772127,1.2169179133776618,27.065366745840013,1.0142109123036545,94.08603286743164,-3.1693801879882812,96.6745376586914
3660.855,-2.3217501640319824,42.89692306518555,-23.29463768005371,-1.0034441947937012,0.389977365732193,0.5072380304336548,46.00156784057617,69.23375701904297,-83.36060333251953,-13.921878814697266,17.983291625976562,-16.365657806396484,-0.9322981238365173,0.27634596824645996,-0.4079170525074005,140.22048950195312,65.03905487060547,13.7869873046875,48.86897458438849,1.1900726941522577,28.01878375076444,1.054487177542472,94.21892166137695,-4.1947021484375,97.14759063720703
3683.447,-9.098734855651855,30.942432403564453,-19.83895492553711,-0.9688385128974915,0.3720455765724182,0.5073919892311096,46.2790641784668,69.94952392578125,-82.93846893310547,-10.558669090270996,16.774621963500977,-17.285259246826172,-0.9204158782958984,0.2782360315322876,-0.346051424741745,141.04454040527344,64.99170684814453,14.936567306518555,37.865620707445196,1.1552110655012044,26.299308397868625,1.0219257638536363,94.76547622680664,-4.957817077636719,97.87503623962402
3708.661,-9.463632583618164,19.934206008911133,-13.740506172180176,-0.960382342338562,0.3947451412677765,0.4961185157299042,46.36275863647461,70.42420196533203,-82.70417785644531,-9.186226844787598,13.554647445678711,-17.406558990478516,-0.9232606887817383,0.24548481404781342,-0.3324018120765686,141.82662963867188,65.00628662109375,16.005163192749023,25.99489220503039,1.1507786718914559,23.89777242567912,1.0115157230857095,95.46387100219727,-5.417915344238281,98.70934104919434
3714.7549999999997,-8.72344970703125,9.842595100402832,-8.712603569030762,-0.9511175155639648,0.4021150469779968,0.4791562557220459,46.25039291381836,70.68648529052734,-82.67744445800781,-4.819737911224365,7.392847061157227,-13.862089157104492,-0.9192010760307312,0.24054746329784393,-0.33214664459228516,142.41368103027344,65.06962585449219,16.75453758239746,15.776080440105046,1.138381200133003,16.432941824337735,1.0065361860305846,96.16328811645508,-5.616859436035156,99.43198204040527
3737.037,-6.225039482116699,-1.1196908950805664,-4.414348602294922,-0.9584928750991821,0.40351998805999756,0.5115178823471069,45.90542221069336,70.73445892333984,-82.95352935791016,0.6965668201446533,1.750206470489502,-8.274023056030273,-0.9077417254447937,0.2814490795135498,-0.3430098593235016,142.736083984375,65.13145446777344,17.149272918701172,7.713060212199902,1.1589596698508131,8.485746022359514,1.0103783390718766,96.83066177368164,-5.603004455566406,100.10280227661133
3761.114,-2.119363784790039,-14.048538208007812,0.47625190019607544,-0.9814273715019226,0.3927668631076813,0.5228872299194336,45.3122444152832,70.53060913085938,-83.57267761230469,0.7291358113288879,2.341752529144287,-5.035923480987549,-0.9015698432922363,0.2732475697994232,-0.3459322154521942,142.97279357910156,65.14328002929688,17.444738388061523,14.215482563267956,1.1793542934595351,5.601425644019356,1.0035743691540462,97.66054916381836,-5.3873291015625,101.01741600036621
3782.069,1.4197955131530762,-30.125259399414062,5.052927017211914,-0.9988060593605042,0.41447603702545166,0.5364832878112793,44.35777282714844,70.03115844726562,-84.64303588867188,2.164621591567993,-4.086353302001953,-2.3310341835021973,-0.8920732736587524,0.28532323241233826,-0.3726177513599396,142.9855499267578,65.20783996582031,17.449060440063477,30.579063828417393,1.2071529511973131,5.178570295759282,1.0079920937978661,98.62777709960938,-4.8233184814453125,102.09209632873535
3804.8410000000003,0.3166883587837219,-45.789920806884766,10.918190002441406,-1.0128676891326904,0.41880476474761963,0.5470981597900391,43.08612060546875,69.21627044677734,-86.02722930908203,4.323332786560059,-7.530170440673828,-0.17892304062843323,-0.8993741869926453,0.24241849780082703,-0.36010169982910156,142.91380310058594,65.32066345214844,17.297176361083984,47.074664225534086,1.224995829833699,8.684853867706167,0.9986560421508998,99.82768249511719,-3.8956069946289062,103.32440567016602
3816.696,-3.5422394275665283,-58.29679870605469,15.582399368286133,-0.9892410635948181,0.39429980516433716,0.5732119083404541,41.59737777709961,68.14388275146484,-87.55998992919922,6.444214820861816,-8.794034957885742,3.570774555206299,-0.9470945596694946,0.26416993141174316,-0.3532719016075134,142.69166564941406,65.41448211669922,16.941572189331055,60.447294146299306,1.209397416120171,11.472287758857878,1.0447846161209629,101.09428787231445,-2.729400634765625,104.50156211853027
3840.8790000000004,-6.256585597991943,-67.91311645507812,20.254159927368164,-0.9783456921577454,0.39285996556282043,0.5822179317474365,40.070716857910156,66.84982299804688,-89.06187438964844,13.044388771057129,-16.12392807006836,6.009657859802246,-0.9963605403900146,0.26051414012908936,-0.3019718527793884,142.28334045410156,65.6247787475586,16.253923416137695,71.14469231326684,1.2043574909277979,21.59289518362701,1.0732143045657272,102.2126235961914,-1.2250442504882812,105.31579780578613
3859.616,-6.852119445800781,-77.53575897216797,26.517383575439453,-1.0204954147338867,0.409321129322052,0.5628355145454407,38.623863220214844,65.27720642089844,-90.47946166992188,15.631641387939453,-23.85480499267578,7.840272903442383,-0.980449914932251,0.26722148060798645,-0.2997719645500183,141.6353302001953,65.92462158203125,15.256348609924316,82.23087675549029,1.2352078751513846,29.578198270350814,1.0595058216542088,103.01146697998047,0.6474151611328125,105.73581027984619
3882.147,-8.015264511108398,-91.67044067382812,31.6973876953125,-1.0714234113693237,0.3955552577972412,0.586215615272522,37.116371154785156,63.36159133911133,-91.91512298583984,16.727794647216797,-23.527191162109375,9.671919822692871,-0.9180083870887756,0.24837175011634827,-0.3617851138114929,141.0146942138672,66.1561279296875,14.23548698425293,97.32645347090288,1.283768217393881,30.44493177516566,1.017504984556237,103.89832305908203,2.794536590576172,106.15060997009277
3904.5519999999997,-8.369504928588867,-111.23947143554688,37.8779182434082,-1.1411311626434326,0.36308926343917847,0.5708735585212708,35.5633659362793,61.089569091796875,-93.406005859375,19.701900482177734,-16.443851470947266,7.770859718322754,-0.8458424806594849,0.20107713341712952,-0.4466407299041748,140.7921905517578,66.27479553222656,13.564358711242676,117.80919025468191,1.3266162834065833,26.813269001933744,0.9774300267951539,105.22882461547852,5.1852264404296875,106.97036457061768
3914.699,-8.844894409179688,-132.447021484375,43.540679931640625,-1.203270435333252,0.3555034101009369,0.5920140743255615,33.98548889160156,58.41892623901367,-94.97145080566406,19.594707489013672,-16.463523864746094,3.1819567680358887,-0.844003438949585,0.20251739025115967,-0.4948909878730774,140.5954132080078,66.48955535888672,12.951791763305664,139.70052421555764,1.3873438936831848,25.790018001132182,0.9991357206059929,106.60992431640625,8.070629119873047,107.92324256896973
3944.885,-11.091052055358887,-150.88314819335938,46.76927947998047,-1.1688145399093628,0.39217063784599304,0.641608476638794,32.4124870300293,55.382720947265625,-96.56279754638672,13.23257827758789,-20.349882125854492,-2.0939531326293945,-0.879432201385498,0.22701770067214966,-0.4151917099952698,140.46575927734375,66.7865982055664,12.531042098999023,158.35435373715006,1.3898153385204892,24.363978947009283,0.9986601971146187,108.05327224731445,11.403877258300781,109.09383964538574
3964.884,-15.010854721069336,-163.91152954101562,48.260955810546875,-1.0772196054458618,0.3812367022037506,0.6960976123809814,30.85995101928711,52.082420349121094,-98.08706665039062,0.9653044939041138,-30.04649543762207,-3.026010274887085,-0.966227650642395,0.25426268577575684,-0.36237403750419617,139.73797607421875,67.2723617553711,11.747505187988281,171.52677671920452,1.3380192029364275,30.213911349454865,1.0628077574523607,108.87802505493164,15.18994140625,109.8345718383789
3974.509,-13.010268211364746,-173.46035766601562,51.149993896484375,-1.0156991481781006,0.36947932839393616,0.7628124356269836,29.520008087158203,48.56670379638672,-99.46341705322266,-2.4754638671875,-34.456939697265625,-1.916116714477539,-0.9986246824264526,0.2490190863609314,-0.2834714651107788,138.6651611328125,67.83818054199219,10.676424026489258,181.3121193857821,1.3228917361852874,34.59884561545733,1.0675288442264301,109.1451530456543,19.27147674560547,110.13984107971191
3999.222,-15.686823844909668,-183.80966186523438,53.9748420715332,-0.9930864572525024,0.42637771368026733,0.7570397257804871,28.326801300048828,44.8468017578125,-100.67163848876953,2.682795524597168,-36.350975036621094,-0.29187995195388794,-0.9765161275863647,0.2308778464794159,-0.2766585350036621,137.54119873046875,68.4011001586914,9.446518898010254,192.21173693091683,1.3195180228823453,36.45100783032207,1.040878605996691,109.21439743041992,23.554298400878906,110.11815738677979
4015.9710000000005,-18.473737716674805,-193.3448028564453,56.41203308105469,-0.9793649911880493,0.410678505897522,0.8076186180114746,27.203968048095703,40.94171142578125,-101.7699966430664,12.011406898498535,-39.12717819213867,2.480508327484131,-0.936634361743927,0.22862842679023743,-0.2574284076690674,136.33523559570312,68.95196533203125,7.928746223449707,202.25184610569121,1.3341890620634518,41.00442525537199,0.9979099509530226,109.13126754760742,28.01025390625,109.69874286651611
4037.0679999999998,-19.058780670166016,-201.0681915283203,58.056732177734375,-0.9237068891525269,0.407586932182312,0.7857367396354675,26.20730209350586,36.898983001708984,-102.75284576416016,15.958409309387207,-38.07373809814453,6.562266826629639,-0.9631915092468262,0.23394545912742615,-0.25394031405448914,135.0260009765625,69.41729736328125,6.184435844421387,210.1481356478329,1.2793528631173658,41.80124048824296,1.023207723013081,108.81869888305664,32.518314361572266,108.93728160858154
4059.3250000000003,-17.032381057739258,-205.26589965820312,57.75027847290039,-0.7940773963928223,0.3817349374294281,0.7949492335319519,25.347837448120117,32.7702522277832,-103.65782165527344,20.691120147705078,-36.38945007324219,11.118441581726074,-1.0019915103912354,0.28922316431999207,-0.21598435938358307,133.5509796142578,69.77470397949219,4.191777229309082,213.91420296624787,1.1866864614586663,43.312056898812926,1.0650287644818401,108.2031421661377,37.004451751708984,107.84959888458252
4074.4559999999997,-10.36085033416748,-206.33346557617188,56.669029235839844,-0.6390937566757202,0.41835489869117737,0.8282601237297058,24.73114013671875,28.589540481567383,-104.48320770263672,17.9890193939209,-35.19565200805664,17.998165130615234,-1.0041249990463257,0.34588387608528137,-0.18231867253780365,131.67999267578125,69.98188781738281,1.8204039335250854,214.2247070504539,1.126710470192559,43.431240911306894,1.0775633474657111,106.9488525390625,41.39234733581543,106.3036116361618
4096.82,-8.411659240722656,-205.95687866210938,53.56370162963867,-0.5193613171577454,0.4028658866882324,0.7833728790283203,24.224864959716797,24.436233520507812,-105.28695678710938,13.759916305541992,-33.0109977722168,29.54663848876953,-0.9926135540008545,0.37994518876075745,-0.13286559283733368,129.3015899658203,69.95414733886719,-0.9808842539787292,212.97432242336126,1.0225997105485818,46.39035585807528,1.071117771213171,105.07672500610352,45.517913818359375,104.30607253313065
4120.8949999999995,-5.343724250793457,-204.97169494628906,53.41883087158203,-0.47319918870925903,0.4296720325946808,0.8586210012435913,23.856752395629883,20.29549217224121,-106.0263671875,6.400026321411133,-35.82884216308594,36.54597473144531,-0.9661502838134766,0.3815000653266907,-0.12466216087341309,126.44791412353516,69.80448913574219,-4.1265153884887695,211.88563568517282,1.0704043869331312,51.57784928371402,1.0461975554888088,102.59116172790527,49.50899696350098,101.89985179901123
4141.803000000001,-4.651320457458496,-205.2422637939453,54.60413360595703,-0.49350348114967346,0.42333561182022095,0.8427728414535522,23.577138900756836,16.136905670166016,-106.70210266113281,5.850924015045166,-35.12957000732422,43.72275161743164,-0.9457283020019531,0.3707423508167267,-0.0820682942867279,123.43244171142578,69.4877700805664,-7.430847644805908,212.43265529602226,1.064436371247122,56.39147993916232,1.0191109443155555,99.85530281066895,53.35086441040039,99.2712550163269
4165.106,-7.818643569946289,-206.02976989746094,54.76434326171875,-0.4648679792881012,0.3625791370868683,0.8123895525932312,23.262529373168945,11.922514915466309,-107.35266876220703,15.804506301879883,-33.90632629394531,53.587520599365234,-0.9960646629333496,0.2700418531894684,-0.0907791331410408,120.6336441040039,68.98848724365234,-10.719732284545898,213.3272850906839,1.0037642422305604,65.3532229211769,1.0360059199794027,97.37111473083496,57.065972328186035,96.63293647766113
4174.929,-5.751470565795898,-203.9693603515625,59.017642974853516,-0.40403130650520325,0.34958672523498535,0.854393482208252,23.05756187438965,7.709834098815918,-107.87883758544922,9.565580368041992,-30.764026641845703,51.289939880371094,-0.9859582185745239,0.26367494463920593,-0.14830024540424347,118.16040802001953,68.4373779296875,-13.62556266784668,212.41389210266368,1.0076906259049774,60.56883353614913,1.0313248993368171,95.10284614562988,60.72754383087158,94.25327491760254
4197.83,-6.098987102508545,-201.26805114746094,57.72535705566406,-0.2798163890838623,0.3506598472595215,0.79334956407547,22.885513305664062,3.5551700592041016,-108.38766479492188,9.11923599243164,-23.49823570251465,48.47441864013672,-0.9965028762817383,0.3503989279270172,-0.1140180230140686,116.11834716796875,67.80500793457031,-16.03481674194336,209.471341485124,0.9114071926964042,54.63603946769778,1.062448822627338,93.23283386230469,64.24983787536621,92.35284805297852
4220.728,-7.101103782653809,-199.2104949951172,54.81798553466797,-0.16256539523601532,0.3286365270614624,0.7685070037841797,22.739852905273438,-0.49150726199150085,-108.92168426513672,-5.585519790649414,-16.613658905029297,42.11827850341797,-0.9386036396026611,0.4015803635120392,-0.151326522231102,114.36626434326172,67.16319274902344,-17.846511840820312,206.73717258686378,0.851488396581303,45.61974438371916,1.03205779729838,91.62641143798828,67.65470001101494,91.0751724243164
4243.33,-9.419629096984863,-196.73953247070312,50.94137191772461,-0.09116391837596893,0.34640830755233765,0.8102715611457825,22.583518981933594,-4.4450178146362305,-109.49723052978516,-18.42844009399414,-9.647698402404785,31.614173889160156,-0.889612078666687,0.40534868836402893,-0.12680047750473022,112.92060852050781,66.6371841430664,-19.07303237915039,203.44580708870743,0.88591736542217,37.84364516607445,0.9857969216646651,90.33708953857422,71.08220195770264,90.42419815063477
4264.907,-13.280686378479004,-196.76620483398438,45.392295837402344,-0.062272798269987106,0.3257344961166382,0.7597677707672119,22.39420509338379,-8.426279067993164,-110.1676025390625,-18.22720718383789,-2.5091826915740967,28.50086212158203,-0.8914535045623779,0.44003069400787354,-0.08858055621385574,111.8335189819336,66.10121154785156,-19.89820671081543,202.3703943684532,0.8289921162841739,33.9238296950046,0.9980795947241645,89.4393138885498,74.52749061584473,90.26939582824707
4275.267000000001,-11.277496337890625,-196.29788208007812,42.453033447265625,-0.05271219462156296,0.29253607988357544,0.7717886567115784,22.298330307006836,-12.378362655639648,-110.88542175292969,-16.701494216918945,22.063745498657227,23.325489044189453,-0.8965757489204407,0.3604586124420166,-0.11351004987955093,111.985595703125,65.51261901855469,-19.444908142089844,201.15243096132357,0.8270511859154388,36.19153511054617,0.9729660920399699,89.68726539611816,77.89098167419434,91.44051361083984
4296.866,-7.2418389320373535,-193.0402374267578,41.75030517578125,0.019516458734869957,0.3055424690246582,0.7418441772460938,22.330028533935547,-16.265222549438477,-111.5998306274414,-20.341960906982422,54.69963836669922,34.07019805908203,-0.8850416541099548,0.2873147130012512,-0.1582530289888382,113.2291488647461,64.50747680664062,-17.722305297851562,197.63619475988568,0.8025396412970315,67.57680228283927,0.9438710160826098,90.89912033081055,80.7726993560791,93.87752532958984
4321.347000000001,-9.033794403076172,-188.4306182861328,41.879859924316406,0.14046253263950348,0.2985134720802307,0.7361612319946289,22.363636016845703,-20.00175666809082,-112.29170989990234,-17.960224151611328,74.70838165283203,24.0361385345459,-0.9170277118682861,0.317693829536438,-0.21035052835941315,115.3348159790039,63.48955535888672,-15.069930076599121,193.23982513004844,0.8067052594230114,80.50868211822383,0.9930340066890943,92.9711799621582,83.49131202697754,97.22177982330322
4342.037,-14.936979293823242,-182.78594970703125,40.118507385253906,0.23940464854240417,0.26053720712661743,0.6425492167472839,22.322158813476562,-23.66160774230957,-112.98828125,-21.844324111938477,81.00106048583984,9.99902057647705,-0.9378084540367126,0.3956226110458374,-0.21528053283691406,117.59394073486328,62.60089874267578,-12.125834465026855,187.73202016583673,0.7335282666561651,84.48861880884853,1.040359387256154,95.27178192138672,86.26250648498535,100.86244678497314
4367.099999999999,-18.21672248840332,-178.1849822998047,36.887115478515625,0.3053986430168152,0.29054832458496094,0.7147126793861389,22.275314331054688,-27.201887130737305,-113.72872924804688,-20.996410369873047,96.53166961669922,-7.821630477905273,-0.8415312767028809,0.4142347574234009,-0.26416411995887756,120.53031921386719,61.78092956542969,-8.385022163391113,182.87262283821096,0.8297595279060999,99.09788287718654,0.974447538967826,98.2550048828125,88.98281669616699,105.34370708465576
4376.932,-24.06108283996582,-171.88998413085938,30.51005744934082,0.36705857515335083,0.266248881816864,0.5356854796409607,22.243093490600586,-30.6422119140625,-114.59083557128906,-27.15696907043457,113.1089859008789,-6.891923904418945,-0.8883764147758484,0.48114028573036194,-0.25178831815719604,123.56562805175781,60.668235778808594,-4.362492561340332,176.2270295882583,0.7018400086633025,116.52743143020902,1.0412041039311715,101.32253456115723,91.3104476928711,110.22834300994873
4398.572999999999,-25.90727996826172,-165.77227783203125,23.636144638061523,0.4115229547023773,0.23837721347808838,0.6040716171264648,22.233549118041992,-33.891845703125,-115.55204010009766,-35.48854446411133,128.31175231933594,-10.58792781829834,-0.8361999988555908,0.42406517267227173,-0.3223656117916107,126.72544860839844,59.33696365356445,0.07876407355070114,169.44114785472098,0.7688155544539506,133.54941702203462,0.9914541322852173,104.49189949035645,93.22880935668945,115.63080417364836
4427.39,-24.994159698486328,-158.18801879882812,19.042537689208984,0.48904746770858765,0.23010742664337158,0.5029043555259705,22.353496551513672,-36.99834442138672,-116.60134887695312,-23.516447067260742,134.3721923828125,-4.8252997398376465,-0.8728708624839783,0.38260483741760254,-0.37214362621307373,129.86251831054688,57.74646759033203,4.27294921875,161.2785650735298,0.7382612303755415,136.49979079108556,1.0231231024270198,107.5090217590332,94.74481201171875,120.87429809570312
4435.018,-23.38698959350586,-146.68020629882812,13.199409484863281,0.5582153797149658,0.18076656758785248,0.40416574478149414,22.580278396606445,-39.80952835083008,-117.71871185302734,-19.38423728942871,151.73736572265625,-4.41599702835083,-0.7187591195106506,0.3478180170059204,-0.43405893445014954,133.1110382080078,55.776615142822266,8.529280662536621,149.11827055348593,0.7124822182781806,153.0342374813506,0.9088449831570045,110.53075981140137,95.58614349365234,126.24799251556396
4458.662,-16.931800842285156,-131.12303161621094,10.865676879882812,0.6270528435707092,0.19524699449539185,0.35874032974243164,22.950942993164062,-42.311119079589844,-118.79784393310547,-22.833961486816406,120.02037811279297,-11.452125549316406,-0.7819324731826782,0.3425947427749634,-0.443114697933197,135.40248107910156,54.26985168457031,11.842049598693848,132.65744696038243,0.74833901520187,122.70872886276882,0.9618420795115233,112.4515380859375,96.58097076416016,130.63989353179932
4474.338000000001,-14.541308403015137,-111.83306884765625,7.899088382720947,0.6909989714622498,0.1727614551782608,0.28644317388534546,23.353185653686523,-44.429283142089844,-119.80664825439453,-28.931642532348633,84.92719268798828,-19.005754470825195,-0.721015453338623,0.3506200909614563,-0.4753904640674591,136.86813354492188,53.28948211669922,14.390316009521484,113.05078741536592,0.7677081416936435,91.71088648839671,0.932091103629465,113.51494789123535,97.71876525878906,134.19696426391602
4496.481,-9.490276336669922,-88.91596221923828,5.170156478881836,0.7532492280006409,0.1869816929101944,0.19742700457572937,23.784788131713867,-46.10031509399414,-120.68121337890625,-29.189594268798828,32.602970123291016,-21.403461456298828,-0.7418456673622131,0.3341262638568878,-0.4435078799724579,137.35389709472656,53.10443115234375,15.716706275939941,89.57033102727426,0.8008270569248199,48.71441508166314,0.9266469629695627,113.5691089630127,99.20474624633789,136.3979196548462
4519.725,-3.1720712184906006,-62.5346565246582,4.302558422088623,0.7853853106498718,0.2141081541776657,0.1602020263671875,24.176599502563477,-47.27785110473633,-121.30674743652344,-25.9982852935791,1.4988923072814941,-26.391407012939453,-0.6761928200721741,0.37045830488204956,-0.43541961908340454,137.3902130126953,53.41962432861328,16.47466468811035,62.76270637446762,0.8296608205297606,37.076459923754705,0.885475200248984,113.21361351013184,100.69747543334961,137.7814121246338
4542.458,0.7312806844711304,-35.6448974609375,2.268523693084717,0.8168942928314209,0.1986621618270874,0.17232123017311096,24.467308044433594,-47.94606018066406,-121.68049621582031,-19.585792541503906,-13.256684303283691,-25.989465713500977,-0.7406054735183716,0.40622034668922424,-0.41302168369293213,137.25445556640625,53.95085525512695,16.88711929321289,35.72449700396516,0.8581826999950147,35.139653900814125,0.940265041714425,112.78714752197266,101.89691543579102,138.5676155090332
4554.105,2.1252317428588867,-9.108702659606934,-1.89125394821167,0.8237239122390747,0.22061118483543396,0.16970479488372803,24.632043838500977,-48.09605026245117,-121.84485626220703,-12.587653160095215,-18.509578704833984,-19.488962173461914,-0.7789148688316345,0.41226089000701904,-0.4106394350528717,137.02633666992188,54.47871017456055,16.980527877807617,9.54263672150479,0.8694769093400175,29.679507450561374,0.972261364005031,112.3942928314209,102.57476043701172,138.82538414001465
4576.584000000001,6.491386413574219,17.302167892456055,-4.51061487197876,0.7868324518203735,0.1936916559934616,0.19117724895477295,24.69272804260254,-47.744014739990234,-121.75172424316406,-4.2104973793029785,-22.440889358520508,-12.501806259155273,-0.7831156253814697,0.4041086435317993,-0.41590696573257446,136.755615234375,54.9656867980957,16.756227493286133,19.022322620342372,0.8325686190081062,26.031076872152834,0.9744498358759153,112.06288719177246,102.70970153808594,138.5079517364502
4651.6359999999995,12.773907661437988,41.790985107421875,-8.653528213500977,0.770775556564331,0.191164031624794,0.20843812823295593,24.739803314208984,-46.9125862121582,-121.4683609008789,5.945741176605225,-26.679134368896484,-7.370940685272217,-0.7885071039199829,0.3956059515476227,-0.42109453678131104,136.503173828125,55.441261291503906,16.302824020385742,44.54820651534199,0.8210268563727728,28.31004795825351,0.9775316520395877,111.76337051391602,102.35384750366211,137.77118492126465
4651.82,19.35327911376953,64.24626922607422,-13.687315940856934,0.7438076734542847,0.18886247277259827,0.25703075528144836,24.82379150390625,-45.63151550292969,-121.0491943359375,15.80487060546875,-31.935997009277344,-2.8444981575012207,-0.7655283212661743,0.38585200905799866,-0.41234731674194336,136.2399139404297,55.92291259765625,15.677349090576172,68.47974254908904,0.809310631260833,35.746230704791934,0.9512863360623769,111.41612243652344,101.55442810058594,136.72654342651367
4651.871,25.316871643066406,81.78813171386719,-17.46963119506836,0.7035688757896423,0.18677614629268646,0.2879401445388794,24.960763931274414,-44.00106430053711,-120.52561950683594,28.441970825195312,-40.21467971801758,2.329474687576294,-0.8234809637069702,0.3772861361503601,-0.41815873980522156,135.94454956054688,56.46561813354492,14.66514778137207,87.38095040183583,0.7828179984140112,49.311181506470255,0.9976584875569994,110.98378562927246,100.46668243408203,135.190767288208
4656.936,27.209827423095703,97.39558410644531,-22.378076553344727,0.667637825012207,0.2050616592168808,0.3133974075317383,25.113910675048828,-42.04738998413086,-119.95286560058594,40.33372497558594,-50.95930480957031,6.409488677978516,-0.8036487102508545,0.37997156381607056,-0.39779067039489746,135.53121948242188,57.09581756591797,13.226717948913574,103.57148653011441,0.7655119101068415,65.30498956583666,0.9738927334413755,110.41730880737305,99.14320755004883,133.1795835494995
4676.848,27.775726318359375,111.60540008544922,-26.607173919677734,0.6292659640312195,0.2132948487997055,0.3334108591079712,25.2633056640625,-39.801795959472656,-119.33319091796875,44.72538757324219,-60.48799514770508,6.0672526359558105,-0.8120270371437073,0.3523252606391907,-0.390157550573349,134.98379516601562,57.866546630859375,11.506609916687012,118.04743963651889,0.7433929963241144,75.4716463654665,0.9673385718590243,109.72048950195312,97.66834259033203,130.83980083465576
4698.956,27.951948165893555,126.09559631347656,-30.932771682739258,0.5817927122116089,0.2098437249660492,0.40967854857444763,25.407827377319336,-37.25861358642578,-118.66857147216797,46.299888610839844,-77.17084503173828,4.409369945526123,-0.8269472718238831,0.3446914255619049,-0.3575475513935089,134.03811645507812,58.8944091796875,9.301261901855469,132.80906286807584,0.7418582492984983,90.10250580092237,0.9646212835825028,108.63028907775879,96.15302276611328,127.96983337402344
4723.6630000000005,25.322834014892578,138.3373260498047,-34.93788528442383,0.5353094339370728,0.26629239320755005,0.39511430263519287,25.510807037353516,-34.461265563964844,-117.97998046875,45.42165756225586,-85.66592407226562,7.109624862670898,-0.8320488929748535,0.3405122756958008,-0.333506315946579,132.68319702148438,59.97726821899414,6.708024024963379,144.91072261673162,0.7166471522926248,97.22306459141227,0.9588954233786245,107.17238998413086,94.43853378295898,124.68800449371338
4743.894,24.662803649902344,150.87754821777344,-36.70733642578125,0.45003142952919006,0.2962477207183838,0.4900208115577698,25.623327255249023,-31.44981575012207,-117.23633575439453,34.49859619140625,-91.64029693603516,7.070549964904785,-0.8407076001167297,0.3285062909126282,-0.29424649477005005,130.78785705566406,61.11279296875,3.8073008060455322,157.22505203546817,0.7282934816093435,98.17377367967791,0.9493611808725194,105.16452980041504,92.56260871887207,121.04363656044006
4754.8859999999995,18.098085403442383,162.27003479003906,-38.83464813232422,0.3866228461265564,0.27703946828842163,0.5255506038665771,25.602401733398438,-28.220006942749023,-116.43668365478516,24.445375442504883,-92.94266510009766,12.59738826751709,-0.8605456352233887,0.357758104801178,-0.27212223410606384,128.30593872070312,62.112266540527344,0.48306339979171753,167.83097086530904,0.7088240468275989,96.92579412930547,0.9708656766761463,102.70353698730469,90.33227348327637,116.91974705457687
4779.947,18.333065032958984,164.9921417236328,-43.918914794921875,0.33632296323776245,0.32536062598228455,0.6548254489898682,25.66043472290039,-24.846261978149414,-115.73120880126953,26.59601402282715,-84.83998107910156,18.15422248840332,-0.8312755823135376,0.35317423939704895,-0.2388053834438324,125.78956604003906,62.849708557128906,-2.8961644172668457,171.71889581760547,0.8048410036680511,90.74550206794372,0.9342264973153731,100.12913131713867,87.69597053527832,112.83504438400269
4801.523,15.77759838104248,166.80841064453125,-46.716468811035156,0.21926933526992798,0.3435755670070648,0.7644721865653992,25.704086303710938,-21.362768173217773,-115.06919860839844,24.698789596557617,-73.2747573852539,26.708152770996094,-0.9079157114028931,0.36280256509780884,-0.23408156633377075,123.298828125,63.25627899169922,-6.15833854675293,173.94368896456248,0.8663376568440417,81.80798067329196,1.0053510928780267,97.59474182128906,84.61904716491699,108.91086006164551
4825.092,6.317634582519531,165.28475952148438,-52.57162094116211,0.15401573479175568,0.369484543800354,0.7344425916671753,25.669160842895508,-17.850292205810547,-114.55813598632812,28.371732711791992,-54.20052719116211,25.59183120727539,-0.8425785303115845,0.37137970328330994,-0.2551944851875305,121.52301788330078,63.389713287353516,-8.802186965942383,173.55903769373234,0.8364482022968293,66.31435884792181,0.9555028461616206,95.85385704040527,81.24000549316406,105.75594902038574
4836.671,4.629560470581055,165.8159637451172,-56.1370849609375,0.05854145064949989,0.37050390243530273,0.8199872970581055,25.637592315673828,-14.364380836486816,-114.1178207397461,32.82166290283203,-45.72114562988281,21.317235946655273,-0.8921992778778076,0.3414009213447571,-0.2429576814174652,120.21727752685547,63.50730895996094,-11.000714302062988,175.12206877142668,0.9017091607057088,60.18396183221461,0.9856990288625027,94.57968521118164,77.87168979644775,103.1171064376831
4863.775000000001,8.602662086486816,164.93263244628906,-54.37439727783203,-0.004090961068868637,0.3465280830860138,0.857879102230072,25.708602905273438,-10.921984672546387,-113.6580810546875,34.081241607666016,-29.63994026184082,10.50353717803955,-0.8325021862983704,0.36382851004600525,-0.24241217970848083,119.6964111328125,63.608497619628906,-12.382267951965332,173.8774111837546,0.9252324045194313,46.372204837553895,0.9403162977343738,93.98780822753906,74.5304822921753,101.27581310272217
4886.402,3.6510353088378906,163.265380859375,-59.29059600830078,0.02535507269203663,0.3566066324710846,0.8195083737373352,25.71066665649414,-7.401695251464844,-113.30414581298828,36.07463073730469,-24.273635864257812,-0.5704279541969299,-0.9186733365058899,0.39835450053215027,-0.19738206267356873,119.5451889038086,63.863502502441406,-13.39834976196289,173.7362639779119,0.8940945949166663,43.48463831003313,1.0205913413146104,93.83452224731445,71.26519775390625,99.90579605102539
4897.436,-1.8191519975662231,165.2584991455078,-58.33361053466797,-0.027368944138288498,0.43045833706855774,0.956852912902832,25.621257781982422,-3.8462893962860107,-112.91986083984375,25.412399291992188,-22.516632080078125,-17.08966636657715,-0.9544028639793396,0.38568854331970215,-0.2024945616722107,119.57769775390625,64.3976058959961,-13.972498893737793,175.26120783512357,1.0495765507983243,38.0111227738167,1.049116069234887,93.95643997192383,68.2438952922821,98.94736194610596
