Timestamp (ms),Wrist Gyroscope X (deg/s),Wrist Gyroscope Y (deg/s),Wrist Gyroscope Z (deg/s),Wrist Accelerometer X (g),Wrist Accelerometer Y (g),Wrist Accelerometer Z (g),Wrist Roll (deg),Wrist Pitch (deg),Wrist Yaw (deg),Arm Gyroscope X (deg/s),Arm Gyroscope Y (deg/s),Arm Gyroscope Z (deg/s),Arm Accelerometer X (g),Arm Accelerometer Y (g),Arm Accelerometer Z (g),Arm Roll (deg),Arm Pitch (deg),Arm Yaw (deg),Wrist Gyroscope Magnitude (deg/s),Wrist Accelerometer Magnitude (g),Arm Gyroscope Magnitude (deg/s),Arm Accelerometer Magnitude (g),Difference Roll (deg),Difference Pitch (deg),Difference Yaw (deg)
0.0,-14.65804672241211,-29.19862937927246,-5.283957958221436,-1.0320148468017578,0.0388810969889164,0.2749834060668945,16.705345153808594,77.6634292602539,-112.90803527832033,10.92304801940918,16.621746063232422,7.864378929138184,-0.9591046571731568,0.2194210141897201,-0.1107432842254638,109.74590301513672,76.46393585205078,-2.5462210178375244,33.095898583491895,1.0687292722361768,21.38793763236591,0.9900966618872754,93.04055786132812,-1.199493408203125,110.3618142604828
23.255000000000003,-6.750164031982422,-35.42618942260742,-6.595602512359619,-1.0239323377609253,0.0039747902192175,0.3086309432983398,14.958612442016602,76.97926330566406,-114.60043334960938,14.925409317016602,18.897924423217773,11.140144348144531,-0.95233553647995,0.2354773432016372,-0.1218035817146301,111.24919891357422,76.1043472290039,-1.2831058502197266,36.66171823532246,1.0694420463171734,26.533039910338832,0.98854876749828,96.29058647155762,-0.8749160766601562,113.31732749938963
34.979000000000006,-1.841306447982788,-41.49728012084961,-8.720279693603516,-1.0014503002166748,0.064670406281948,0.2598344683647156,13.366032600402832,76.19871520996094,-116.2233428955078,12.158647537231444,21.390987396240234,8.945867538452148,-0.9705199599266052,0.2187351584434509,-0.083138607442379,112.79318237304688,75.78215026855469,0.0826207771897316,42.44358543759371,1.0366286298395944,26.180825001062605,0.9983316534111693,99.42714977264404,-0.41656494140625,116.30596367269754
57.37,-10.57382106781006,-44.28839492797852,-5.46356201171875,-0.9860153794288636,0.1130592972040176,0.2314773052930832,12.101593017578123,75.35556030273438,-117.32427215576172,2.669230461120605,23.40902137756348,5.462039470672607,-0.9964136481285096,0.1927692592144012,-0.068071112036705,114.31584930419922,75.52216339111328,1.6174103021621704,45.8597658860853,1.0191125924157052,24.18555247020385,1.0171695147657287,102.2142562866211,0.1666030883789062,118.94168245792387
80.098,-26.8798828125,-48.11422729492188,-5.523197650909424,-1.0056939125061035,0.0560441687703132,0.3319758474826813,10.449665069580078,74.3970947265625,-118.49717712402344,-4.721746921539307,22.40961265563965,2.4155704975128174,-0.9634708762168884,0.2172293663024902,-0.1133141592144966,115.72331237792967,75.29164123535156,3.177513837814331,55.38964416289519,1.0605513461482352,23.028691109034504,0.9941352149384954,105.2736473083496,0.8945465087890625,121.67469096183775
103.183,-26.70283508300781,-56.400421142578125,-5.571744441986084,-1.030362844467163,-0.0121832732111215,0.4273810982704162,8.740141868591309,73.24057006835938,-119.7152328491211,-9.79185390472412,23.4062728881836,5.8670806884765625,-0.9265319108963012,0.2817834019660949,-0.1371097415685653,116.90229034423828,74.93983459472656,4.65283203125,62.65056458370738,1.1155494729340458,26.04144099723888,0.9780911761005392,108.16214847564696,1.6992645263671875,124.3680648803711
124.973,-14.393268585205078,-64.21363830566406,-8.015849113464355,-1.0151119232177734,0.0029576104134321,0.3947778344154358,7.287709712982178,71.95144653320312,-120.92234802246094,-15.48543930053711,27.81026840209961,10.013669967651367,-0.9702436923980712,0.3059883117675781,-0.0799263045191764,117.90908813476562,74.48109436035156,6.0890302658081055,66.29337343978149,1.0891788203339183,33.368899369749705,1.020485121758621,110.62137842178343,2.529647827148437,127.01137828826904
134.872,-7.741565704345703,-65.82766723632812,-7.239513397216797,-0.9798556566238404,0.0988658815622329,0.3149612247943878,6.353408336639404,70.66259765625,-121.7445068359375,-21.64530563354492,28.0640811920166,8.759162902832031,-0.9901162981987,0.2640542089939117,-0.1097728461027145,118.87032318115234,74.0559310913086,7.596985816955566,66.67551400296762,1.0339691211437585,36.50801068094536,1.0305847791363831,112.51691484451294,3.3933334350585938,129.34149265289307
157.29399999999998,-11.602473258972168,-68.3336181640625,-9.305054664611816,-1.002294659614563,0.0909631997346878,0.3818475306034088,5.312089920043945,69.30767822265625,-122.56600189208984,-25.205678939819336,27.05959701538086,6.253868103027344,-0.95366632938385,0.2515408396720886,-0.1758661866188049,119.84254455566406,73.66439819335938,9.185609817504885,69.93343120016685,1.076418331795667,37.50545170641361,1.0018388979368118,114.53045463562012,4.356719970703125,131.75161170959473
178.542,-20.93940162658692,-76.31349182128906,-13.106908798217772,-1.0249407291412354,0.0348372124135494,0.4698896408081054,3.913614511489868,67.77273559570312,-123.5895767211914,-22.178056716918945,28.304826736450195,7.031055450439453,-0.9449440836906432,0.2545069754123688,-0.1777961552143097,120.85155487060548,73.24015808105469,10.74217128753662,80.21220999749515,1.128057358541703,36.6396664431664,0.9946379213786756,116.9379403591156,5.4674224853515625,134.33174800872803
200.047,-13.583454132080078,-83.24148559570312,-12.375088691711426,-1.0136722326278689,-0.0225928705185651,0.5124902725219727,2.769279956817627,66.08621978759766,-124.45579528808594,-14.842341423034668,27.43321990966797,12.68980884552002,-0.9800643920898438,0.2388542294502258,-0.1689092963933944,121.69407653808594,72.74131774902344,11.982728004455566,85.24551583787677,1.1360845533800212,33.673548997187275,1.022794165986885,118.92479658126832,6.655097961425781,136.4385232925415
219.954,1.5906823873519895,-88.68891143798828,-12.45096492767334,-1.0014368295669556,0.019200462847948,0.4738843142986297,2.101058959960937,64.31719970703125,-125.19441986083984,-5.297308444976807,23.432933807373047,13.225475311279297,-0.9909765124320984,0.2362250089645385,-0.1736654937267303,122.44181823730467,72.27774047851562,12.923799514770508,89.57276265775725,1.1080662095402845,27.424023424567142,1.0334391161378256,120.34075927734376,7.960540771484375,138.11821937561035
243.353,8.287408828735352,-91.061767578125,-9.142709732055664,-0.984387457370758,0.0772697851061821,0.4713998436927795,1.8478567600250244,62.51044845581055,-125.611328125,0.7940155863761902,21.677684783935547,11.243293762207031,-0.9648425579071044,0.2500443458557129,-0.1874774694442749,123.24555206298828,71.85298156738281,13.813179969787598,91.89404660146208,1.0941695931402948,24.432849464734208,1.0141948225032331,121.39769530296326,9.342533111572266,139.4245080947876
265.296,1.584185004234314,-98.14616394042967,-10.131646156311035,-0.9911794662475586,0.0498507432639598,0.6047276258468628,1.4356943368911743,60.52318572998047,-126.1229476928711,-1.5827579498291016,21.35783195495605,7.398074150085449,-0.9445264935493468,0.2677219808101654,-0.1797918826341629,124.0407257080078,71.48712921142578,14.779172897338867,98.6804407782314,1.1621606310562873,22.65819078554269,0.9980633632624132,122.60503137111664,10.963943481445312,140.90212059020996
275.91,-3.631569385528565,-109.19189453125,-9.439047813415527,-0.9989784359931946,-0.0206854417920112,0.681221604347229,0.934732973575592,58.30522537231445,-126.56819152832033,-10.468518257141112,24.1839542388916,7.028793811798096,-0.9562687277793884,0.2988096475601196,-0.1750600039958953,124.73087310791016,71.0854721069336,15.82083797454834,109.65926203996392,1.2093174427382385,27.273750376097365,1.0170462576514678,123.79614013433456,12.78024673461914,142.38902950286865
305.469,-1.6826571226119995,-117.6312026977539,-8.749434471130371,-0.978434920310974,-0.0100681390613317,0.6241227984428406,0.567091166973114,55.957176208496094,-126.95834350585938,-22.595516204833984,23.33328056335449,6.409886837005615,-0.972636580467224,0.2999247312545776,-0.1857124269008636,125.13702392578124,70.70430755615234,16.74435043334961,117.96814733934303,1.1605884405094784,33.10718930495837,1.0346332043707636,124.56993275880814,14.74713134765625,143.70269393920898
324.893,5.8537421226501465,-121.41211700439452,-7.208593368530273,-0.9497798681259156,0.0318218171596527,0.6064274311065674,0.4725596904754638,53.55584335327149,-127.2252960205078,-24.88311195373535,22.03027534484864,5.653107166290283,-0.9612089395523072,0.3017997145652771,-0.1996860653162002,125.45091247558594,70.3454360961914,17.70380973815918,121.76671249023724,1.1273192339098692,33.711421104805645,1.0270736185242124,124.97835278511047,16.789592742919922,144.929105758667
334.95000000000005,2.353008508682251,-127.23706817626952,-8.737959861755371,-0.9472832679748536,0.0150652723386883,0.7510223388671875,0.2794860601425171,51.00463104248047,-127.53173065185548,-32.05675506591797,22.9948844909668,0.6157084703445435,-0.9498110413551332,0.2832190096378326,-0.183833971619606,125.8005599975586,70.0695571899414,18.846006393432617,127.55845761720482,1.2089694395199977,39.45604332709524,1.0080421374237265,125.52107393741608,19.064926147460938,146.3777370452881
355.139,-5.421264171600342,-138.61593627929688,-12.314772605895996,-0.8835732340812683,-0.0186115354299545,0.7875348329544067,-0.1369843482971191,48.21808242797852,-127.92665100097656,-32.47575378417969,19.73828125,2.9580745697021484,-1.0127360820770264,0.2694917917251587,-0.1691323667764663,125.89828491210938,69.81644439697266,19.720399856567383,139.26744601714822,1.183747930242084,38.11855894068769,1.061539427077191,126.0352692604065,21.59836196899414,147.64705085754397
377.23,0.7314062714576721,-143.210205078125,-11.99718952178955,-0.8375918865203857,-0.0374090448021888,0.8038986921310425,-0.387566328048706,45.345584869384766,-128.27420043945312,-21.19652938842773,9.613749504089355,2.320981025695801,-1.0460519790649414,0.2229511886835098,-0.1862543672323227,125.8537139892578,69.71381378173828,20.1870231628418,143.71370968030254,1.1615561597304676,23.39025417911269,1.0856438940804594,126.24128031730652,24.36822891235352,148.46122360229492
395.219,4.819152355194092,-147.34066772460938,-12.977136611938477,-0.8085319995880127,-0.01977607794106,0.8202337026596069,-0.5267795920372009,42.402870178222656,-128.60604858398438,-5.256471633911133,4.652884483337402,-1.2061116695404053,-1.016444444656372,0.2125537246465683,-0.1616429388523101,126.00072479248048,69.73487854003906,20.45484161376953,147.98953567601066,1.151910766767639,7.12281780005609,1.0509361705711444,126.52750438451768,27.332008361816406,149.0608901977539
417.427,7.421895503997803,-152.48028564453125,-12.717010498046877,-0.749435544013977,-0.0218368638306856,0.8490068316459656,-0.5817541480064392,39.35543823242188,-128.9080352783203,11.88608169555664,-5.368957042694092,-2.302573204040528,-0.9931057691574096,0.2142244577407837,-0.1448414921760559,126.06232452392578,69.8920669555664,20.268674850463867,153.18957013817078,1.1326707745126148,13.244111187984892,1.0262213430268587,126.64407867193222,30.53662872314453,149.17671012878418
439.544,9.240599632263184,-157.0585174560547,-12.0740966796875,-0.691399335861206,-0.0209967866539955,0.8562864065170288,-0.5678079724311829,36.22238159179688,-129.17787170410156,18.61592102050781,-11.514508247375488,-1.2691333293914795,-0.988064467906952,0.2222981750965118,-0.1341883391141891,125.928955078125,70.1020736694336,19.734102249145508,157.79274507304845,1.1007725998883495,21.9259461603926,1.0216136166602872,126.49676305055618,33.87969207763672,148.91197395324707
463.524,12.371479034423828,-159.77273559570312,-10.361591339111328,-0.6691995859146118,-0.0109469154849648,0.9043034315109252,-0.4458130598068237,33.04346466064453,-129.39553833007812,22.682729721069336,-13.446188926696776,-2.1293323040008545,-0.9678007364273072,0.2645216584205627,-0.1474015861749649,125.78922271728516,70.32039642333984,19.109554290771484,160.5856254722458,1.12503894021023,26.454494520069115,1.0140696232555724,126.23503577709198,37.27693176269531,148.5050926208496
474.937,6.159977436065674,-166.00277709960938,-11.696983337402344,-0.6326805949211121,-0.0188279394060373,0.888457715511322,-0.4567613005638122,29.761335372924805,-129.64242553710938,16.55154037475586,-17.462982177734375,-0.1919177770614624,-0.9921894669532776,0.2955581545829773,-0.1112735196948051,125.19525909423828,70.55184173583984,18.15426445007324,166.52833616532322,1.0908695333281644,24.06129813102764,1.0412378965725335,125.6520203948021,40.79050636291504,147.79668998718262
497.694,7.275819778442383,-167.68222045898438,-11.723185539245604,-0.5520952343940735,-0.0220543332397937,0.9293753504753112,-0.4314452707767486,26.431686401367188,-129.8823699951172,12.707367897033691,-19.72174453735352,-1.806984186172485,-0.986526370048523,0.2577784061431885,-0.1438176929950714,124.53756713867188,70.83544158935547,17.241273880004883,168.248915867804,1.081218795400083,23.53060981607304,1.0297414793496775,124.96901240944862,44.40375518798828,147.12364387512207
519.823,14.201396942138672,-171.41529846191406,-13.382816314697266,-0.5220662951469421,-0.0349547043442726,0.9945286512374878,-0.2760669589042663,23.03086280822754,-130.1581573486328,18.53990364074707,-27.56696128845215,1.059945583343506,-0.9411866664886476,0.2733946442604065,-0.0837239772081375,123.39826202392578,71.15509796142578,15.658644676208496,172.52241591865155,1.1237714563097363,33.238364375023856,0.983659838077084,123.67432898283003,48.12423515319824,145.8168020248413
542.179,20.13945198059082,-177.42942810058594,-15.378375053405762,-0.4982426464557647,-0.071845032274723,1.033237099647522,-0.0261284131556749,19.5253849029541,-130.49179077148438,21.650495529174805,-46.378204345703125,5.506444454193115,-0.8245230913162231,0.2703404724597931,-0.0464564375579357,121.11935424804688,71.57305908203125,12.81560230255127,179.22972382242497,1.149341701800567,51.47817717749657,0.8689536810175899,121.14548266120256,52.04767417907715,143.30739307403564
566.043,11.945449829101562,-180.7255401611328,-23.23023796081543,-0.3858716189861297,-0.0352557115256786,0.8353184461593628,0.041918896138668,15.980350494384766,-130.9859619140625,12.280611991882324,-29.285383224487305,9.495367050170898,-1.0403411388397217,0.3259660005569458,-0.169355109333992,119.52395629882812,71.70598602294922,10.876968383789062,182.60355580839305,0.9208131070028548,33.14527261794233,1.1032881181898715,119.48203740268946,55.72563552856445,141.86293029785156
576.172,16.582101821899414,-176.86253356933594,-22.385597229003903,-0.3265194296836853,-0.0040671420283615,0.9585562944412231,0.2540672123432159,12.490097045898438,-131.45802307128906,18.303571701049805,-21.876934051513672,5.027486324310303,-1.186747431755066,0.184428870677948,-0.132180318236351,118.62770080566406,71.90415954589844,9.5607271194458,179.0431144855772,1.0126508031982826,28.96371176577472,1.2082446406443734,118.37363359332085,59.4140625,141.01875019073486
597.7139999999999,13.47629165649414,-182.00059509277344,-23.88911247253418,-0.2690227329730987,0.0030965670011937,1.0757468938827517,0.426973283290863,8.885839462280273,-131.96670532226562,37.965065002441406,-25.40967559814453,-2.117014646530152,-0.969055473804474,0.2070587128400802,-0.0981693640351295,118.04768371582033,72.23018646240234,8.239011764526367,184.0557435823722,1.108879704603658,45.732696461680085,0.9957806213762476,117.62071043252944,63.34434700012207,140.205717086792
617.58,14.289351463317873,-185.5992889404297,-22.817481994628903,-0.1943479776382446,0.0039254622533917,0.9333575963974,0.6491397619247437,5.224302768707275,-132.46066284179688,46.0207633972168,-25.43196487426757,0.5646146535873413,-1.017884373664856,0.2209445834159851,-0.0680714026093483,117.46285247802734,72.50877380371094,6.723908424377441,187.54177962526256,0.9533849948571196,52.58340318708589,1.043809763771715,116.8137127161026,67.28447103500366,139.18457126617432
639.7890000000001,18.675302505493164,-182.20782470703125,-20.530517578125,-0.1078970357775688,0.0039379647932946,0.910901129245758,0.9898598790168762,1.6203842163085938,-132.9232940673828,44.09381866455078,-26.62956428527832,4.972289085388184,-0.9917733669281006,0.2757192552089691,-0.0733514577150344,116.5811767578125,72.67938232421875,4.928637981414795,184.30941500684548,0.9172775725795852,51.75057678127586,1.0319961024101836,115.59131687879562,71.05899810791016,137.8519320487976
659.631,14.094402313232422,-184.78240966796875,-20.378780364990234,-0.0636203065514564,-0.0025253060739487,0.9695674180984496,1.2611215114593506,-2.0279228687286377,-133.40260314941406,35.86840057373047,-29.04486846923828,4.494502067565918,-0.9835628271102904,0.2131887078285217,-0.0805845409631729,115.4517593383789,72.89683532714844,3.067631721496582,186.43627809102173,0.9716557511868916,46.37183512595005,1.0096232605586242,114.19063782691956,74.92475819587708,136.47023487091064
682.087,23.786657333374023,-184.8985748291016,-17.44536781311035,-0.0072877327911555,-0.0066691474057734,0.9234448075294496,1.7479504346847534,-5.673587322235107,-133.8480987548828,30.70562171936035,-24.367551803588867,-5.43231201171875,-0.9804871678352356,0.2565157115459442,-0.0701421722769737,114.68566131591795,73.22279357910156,1.702381253242493,187.23682570227183,0.9234976454379606,39.574269416701874,1.015911079224563,112.93771088123322,78.89638090133667,135.5504800081253
702.134,19.669496536254883,-183.4638214111328,-15.867521286010742,0.0485711470246315,0.0244190841913223,0.9338001012802124,2.195122241973877,-9.28538417816162,-134.29554748535156,27.03233528137207,-19.03280067443848,-5.344385623931885,-0.9682062864303588,0.2690497636795044,-0.0380764082074165,114.06519317626952,73.49403381347656,0.5509848594665527,185.1962232134548,0.935381246950657,33.489656761076375,1.0056147379992206,111.87007093429564,82.77941799163818,134.84653234481812
724.875,13.920440673828123,-186.2425842285156,-17.745098114013672,0.097491830587387,0.030689600855112,0.8690931797027588,2.5700032711029053,-12.946410179138184,-134.81336975097656,21.79537773132324,-16.996278762817383,-9.805578231811523,-0.961870551109314,0.2471311688423156,-0.0763083696365356,113.65298461914062,73.82645416259766,-0.2730543613433838,187.60321787151008,0.8750825467564632,29.326802531040343,0.9960380208512578,111.08298134803772,86.77286434173584,134.54031538963318
735.03,13.395915031433104,-183.44923400878903,-17.854568481445312,0.1853060871362686,0.0256422273814678,0.863879382610321,2.9681396484375,-16.567827224731445,-135.3625946044922,22.093873977661133,-20.9722957611084,-12.251053810119627,-0.9786728620529176,0.2540292739868164,-0.0709733963012695,113.0202407836914,74.22974395751953,-1.336401343345642,184.8022121447669,0.8839024026746543,32.83389675762875,1.0135919622528855,110.0521011352539,90.79757118225098,134.02619326114657
764.61,7.877391338348389,-180.7726287841797,-18.61867332458496,0.2693876624107361,0.0614361315965652,0.7598510384559631,3.3302242755889893,-20.16999244689941,-135.9674530029297,21.53389549255371,-21.803735733032227,-7.08224630355835,-0.9964397549629213,0.2550033628940582,-0.0450480915606021,112.09204864501952,74.54304504394531,-2.683999300003052,181.89956461797243,0.8085281142714066,31.452659024387703,1.029537872499646,108.76182436943054,94.71303749084473,133.28345370292664
774.811,12.661581039428713,-176.91612243652344,-17.237154006958008,0.3006570339202881,0.0308569148182868,0.8304850459098816,3.796843528747559,-23.66064453125,-136.57066345214844,25.612279891967773,-20.26933860778809,4.515719413757324,-0.9541642665863036,0.2398111522197723,-0.0842323005199432,111.0999526977539,74.61390686035156,-4.19528341293335,178.20423533309346,0.8837715840180574,32.973120730156104,0.9874380572015824,107.30310916900636,98.27455139160156,132.3753800392151
797.534,16.038333892822266,-175.25401306152344,-19.29496192932129,0.3454051911830902,0.0401688553392887,0.7569230198860168,4.407821178436279,-27.12224769592285,-137.2674560546875,23.746545791625977,-27.20169258117676,7.239753246307373,-0.9653130173683168,0.2491094470024109,-0.0700295343995094,109.49571990966795,74.67109680175781,-6.317037105560303,177.04093539088703,0.8329770351389426,36.82722557269356,0.9993942534229336,105.08789873123168,101.79334449768066,130.9504189491272
819.513,30.010990142822266,-167.5152130126953,-13.524486541748049,0.4223627746105194,0.0645097121596336,0.7603453397750854,5.3116326332092285,-30.441146850585938,-137.89772033691406,19.35114479064941,-23.252246856689453,9.311859130859377,-0.9732035994529724,0.2675255537033081,-0.0614268407225608,108.00652313232422,74.64080047607422,-8.215417861938477,170.718826894573,0.8721679035927115,31.65192741471002,1.0111718076734724,102.694890499115,105.08194732666016,129.6823024749756
834.6569999999999,26.81732749938965,-164.5546112060547,-12.517463684082031,0.4568179547786712,0.0780456215143203,0.6923383474349976,6.219435214996338,-33.70465850830078,-138.58592224121094,16.103004455566406,-29.75913429260254,7.314005851745605,-0.9680622816085817,0.2863479554653168,-0.058003481477499,106.04432678222656,74.6615982055664,-10.559195518493652,167.1947248583748,0.8331303320458019,34.61802287740467,1.011189466191124,99.82489156723022,108.3662567138672,128.02672672271729
861.797,31.88508987426757,-158.36514282226562,-9.863460540771484,0.5135509967803955,0.0921435728669166,0.6794248819351196,7.268896102905273,-36.843448638916016,-139.28712463378906,9.578898429870604,-35.30279541015625,4.817310333251953,-0.9616481065750122,0.2809341251850128,-0.0841936767101287,103.67910766601562,74.73318481445312,-13.179713249206545,161.84395345902198,0.8566465049875414,36.89510994356817,1.005375372072911,96.41021156311037,111.57663345336914,126.10741138458252
879.4530000000001,35.3753662109375,-150.86289978027344,-6.717020511627197,0.5594364404678345,0.105948582291603,0.6516026258468628,8.42011547088623,-39.835411071777344,-139.98887634277344,2.316657304763794,-39.3539924621582,8.298362731933594,-0.974940299987793,0.2669647634029388,-0.0409589484333992,100.7509765625,74.73562622070312,-16.239696502685547,155.10044948105207,0.8653208740250337,40.28605773478046,1.0116602240356416,92.33086109161376,114.57103729248048,123.74917984008788
902.097,43.00347900390625,-143.81887817382812,-3.688899278640747,0.5825186967849731,0.0795200541615486,0.6180799007415771,9.725099563598633,-42.68378829956055,-140.67747497558594,-1.0097564458847046,-42.84026336669922,7.806007862091064,-0.94750714302063,0.277658611536026,-0.0515913367271423,97.56739044189452,74.70404052734375,-19.50897789001465,150.15584205586467,0.8530382376064023,43.55733614617846,0.9886990222815656,87.8422908782959,117.3878288269043,121.16849708557127
915.228,49.02406692504883,-137.2451171875,-0.8075903058052063,0.6293917894363403,0.1031394153833389,0.5760743021965027,11.19941234588623,-45.41196823120117,-141.3898468017578,-8.698164939880371,-46.34809112548828,5.257143974304199,-0.9659473299980164,0.2667614817619324,-0.0379035025835037,94.01599884033205,74.68993377685547,-22.98793029785156,145.74029481164197,0.859437819313697,47.44935391619671,1.0028223212464988,82.8165864944458,120.10190200805664,118.40191650390624
937.797,50.568397521972656,-127.70801544189452,2.597160816192627,0.6827873587608337,0.1289440095424652,0.5364891290664673,12.73294162750244,-47.96653747558594,-142.0981903076172,-13.2079439163208,-49.70234680175781,4.51057767868042,-0.974680483341217,0.2230781465768814,-0.0417798236012458,90.1968002319336,74.65947723388672,-26.68216896057129,137.37993041326155,0.8778642950291232,51.62478446535434,1.0007554435258377,77.46385860443115,122.62601470947266,115.4160213470459
960.108,44.67395782470703,-120.87570190429688,7.491893768310547,0.7016696929931641,0.1077936068177223,0.5665982961654663,14.081714630126951,-50.36935043334961,-142.71437072753906,-14.15570068359375,-55.31219100952149,2.2687408924102783,-0.9480490684509276,0.2293106615543365,-0.0224728733301162,85.97389221191406,74.594482421875,-30.76222801208496,129.08457030495856,0.9082914999896808,57.13991180737139,0.9756461683053292,71.89217758178711,124.9638328552246,111.9521427154541
982.105,47.10834503173828,-112.73027801513672,10.045513153076172,0.7285294532775879,0.1222513765096664,0.4761335253715515,15.498805046081545,-52.64714431762695,-143.3229217529297,-17.72918128967285,-56.606876373291016,0.188694342970848,-0.9612460136413574,0.2626365423202514,0.010866742581129,81.60084533691406,74.46912384033203,-34.96016311645508,122.58965734313782,0.8788650051823609,59.31861366804021,0.9965389797683092,66.10204029083252,127.11626815795898,108.3627586364746
1004.18,53.75617218017578,-106.29102325439452,13.34707736968994,0.7469704747200012,0.111019492149353,0.518950343132019,16.994264602661133,-54.774070739746094,-143.86216735839844,-17.44106674194336,-53.76999282836914,-0.5748422145843506,-0.9657526016235352,0.2556830048561096,0.0019283689325675,77.56328582763672,74.2945785522461,-38.83956909179688,119.85679849822218,0.9162967185237348,56.53081797950088,0.9990273295168736,60.56902122497559,129.0686492919922,105.02259826660156
1014.236,49.8699951171875,-100.88665008544922,15.519403457641602,0.7705281972885132,0.1488919854164123,0.4716048836708069,18.45879554748535,-56.807395935058594,-144.42774963378906,-17.21220588684082,-48.900123596191406,-1.6444963216781616,-0.9593139290809632,0.2402779161930084,0.0153629500418901,73.94147491455078,74.10406494140625,-42.28831481933594,113.60450898680575,0.9155837986989952,51.86700769627844,0.9890665861168292,55.48267936706543,130.91146087646484,102.13943481445312
1036.695,44.74902725219727,-94.61028289794922,17.970788955688477,0.7798818349838257,0.1522331982851028,0.4629141390323639,19.79024887084961,-58.717403411865234,-144.9467315673828,-18.76155471801757,-48.811767578125,-6.350185394287109,-0.919165015220642,0.2630632817745209,0.0243402477353811,70.31895446777344,73.92675018310547,-45.74100112915039,106.19100868594182,0.9196086794468206,52.67740923849502,0.9563780963004976,50.52870559692383,132.6441535949707,99.20573043823242
1059.99,39.59392547607422,-87.54393005371094,18.54161834716797,0.8020422458648682,0.1413235962390899,0.3984051644802093,21.02257537841797,-60.515602111816406,-145.4595489501953,-17.337051391601562,-50.1329231262207,-3.3187503814697266,-0.9449461698532104,0.2719149887561798,0.054258719086647,66.78983306884766,73.62127685546875,-49.116947174072266,97.85402513328712,0.9066260519588072,53.14976421611947,0.9847867960261498,45.76725769042969,134.13687896728516,96.34260177612305
1080.085,39.94087219238281,-81.93846893310547,17.15389060974121,0.8219707012176514,0.1432247161865234,0.4039161205291748,22.32443046569824,-62.17864990234375,-146.0379638671875,-16.973180770874023,-47.03575134277344,-4.052563190460205,-0.9381989240646362,0.2686777114868164,0.0456896722316741,63.611366271972656,73.30731201171875,-52.16583251953125,92.75474071787768,0.9269829477451494,50.16845660644399,0.976981309910518,41.286935806274414,135.4859619140625,93.87213134765624
1101.633,42.42168045043945,-75.7678451538086,17.553056716918945,0.8166958093643188,0.1584409773349762,0.4017059504985809,23.68457221984864,-63.70472717285156,-146.61572265625,-16.930721282958984,-39.65859222412109,-4.366608619689941,-0.9324520826339722,0.2629290223121643,0.0558193325996398,60.969852447509766,73.02784729003906,-54.66179275512695,88.59161998517742,0.9238307523556848,43.341902717784656,0.9704196798675984,37.28528022766113,136.73257446289062,91.95392990112305
1124.095,40.120731353759766,-69.87953186035156,18.501094818115234,0.820615291595459,0.1725744605064392,0.3864909410476684,24.98288917541504,-65.11585235595703,-147.16587829589844,-19.20747947692871,-33.072349548339844,-5.40771484375,-0.9289016723632812,0.2544595003128052,0.0783521831035614,58.67221832275391,72.80281829833984,-56.745826721191406,82.67473959348975,0.9233453572370964,38.62578092848773,0.9663058619380496,33.68932914733887,137.91867065429688,90.42005157470705
1134.15,36.12482452392578,-64.354248046875,20.128416061401367,0.8491842746734619,0.1652357578277588,0.3470940589904785,26.13165855407715,-66.4515380859375,-147.63319396972656,-20.76703453063965,-33.94470977783203,-7.0777692794799805,-0.921549916267395,0.2524791061878204,0.0869722291827201,56.303855895996094,72.57205963134766,-58.87213516235352,76.49591702636177,0.9321432689260236,40.41791512524583,0.9594603253302636,30.172197341918945,139.02359771728516,88.76105880737305
1160.086,32.51813888549805,-58.76812744140625,20.41197967529297,0.8742355108261108,0.1601411402225494,0.316011905670166,27.16816520690918,-67.69621276855469,-148.0518341064453,-19.66376495361328,-33.35711669921875,-5.216172218322754,-0.9145292043685912,0.2651029527187347,0.1165884360671043,51.85164260864258,71.96366882324219,-62.80779266357422,70.19808454516746,0.9432902192360838,39.071336542885895,0.9592893748018966,24.6834774017334,139.65988159179688,85.2440414428711
1184.753,25.917007446289062,-52.67721557617188,17.942195892333984,0.879695475101471,0.157511368393898,0.2644883990287781,28.14401626586914,-68.82306671142578,-148.53968811035156,-18.654653549194336,-25.77717018127441,-5.966060161590576,-0.901603937149048,0.2549035549163818,0.1123544126749038,50.17083740234375,71.74697875976562,-64.19741821289062,61.3881316645846,0.9320021852485793,32.37363858831086,0.9436572448930786,22.02682113647461,140.5700454711914,84.34226989746094
1204.286,21.88120460510254,-44.16260147094727,15.971332550048828,0.9000982642173767,0.148308977484703,0.2728174924850464,28.955698013305664,-69.77047729492188,-148.93923950195312,-17.97780990600586,-18.31264877319336,-5.827177047729492,-0.8959227204322815,0.24193175137043,0.115713283419609,48.8768424987793,71.61962890625,-65.19496154785156,51.80932297450261,0.9521564064036544,26.315598918747945,0.935199474586941,19.92114448547364,141.39010620117188,83.74427795410156
1214.416,18.73503303527832,-40.48993682861328,13.150452613830566,0.8599591255187988,0.1152629852294921,0.2796549499034881,29.7283992767334,-70.61322784423828,-149.36984252929688,-19.7967586517334,-11.326522827148438,-6.536589622497559,-0.908589482307434,0.2470070123672485,0.1314363777637481,47.837379455566406,71.58454895019531,-65.885986328125,46.51205060160933,0.9116041598921067,23.726120128707063,0.9506959729156004,18.108980178833008,142.1977767944336,83.48385620117188
1236.848,21.83425712585449,-33.16794204711914,12.769718170166016,0.8648125529289246,0.1582691520452499,0.2250661849975586,30.53575897216797,-71.33162689208984,-149.75636291503906,-19.74187469482422,-3.003387212753296,-9.249067306518556,-0.9015638828277588,0.2397996932268142,0.1198582351207733,47.07548522949219,71.70514678955078,-66.28787231445312,41.71226277756279,0.9075266738900416,22.00698064833932,0.9405781861267066,16.53972625732422,143.03677368164062,83.46849060058594
1259.336,23.41824531555176,-21.896221160888672,14.207696914672852,0.897256076335907,0.1684847176074981,0.2061610221862793,31.02004623413086,-71.87547302246094,-149.76515197753906,-17.415307998657227,2.6104214191436768,-9.719820976257324,-0.8778696656227112,0.2361289262771606,0.1200247108936309,46.58700180053711,71.90424346923828,-66.45124816894531,35.067326194124284,0.9359262437061356,20.11422811057164,0.9169612591982472,15.56695556640625,143.77971649169922,83.31390380859375
1274.136,20.707029342651367,-10.58692455291748,14.62218952178955,0.8971843123435974,0.1173613965511322,0.2114895582199096,30.98119735717773,-72.23751068115234,-149.29122924804688,-17.056503295898438,10.204100608825684,-8.82151985168457,-0.8637910485267639,0.2522463798522949,0.1152658239006996,46.51298522949219,72.18494415283203,-66.18990325927734,27.47130251913301,0.9292153792054556,21.74550956891321,0.9072207128494484,15.531787872314451,144.42245483398438,83.10132598876953
1296.591,20.79777908325196,0.8883599042892456,11.721445083618164,0.8620158433914185,0.1253124177455902,0.1894030421972274,30.761287689208984,-72.37271118164062,-148.62245178222656,-17.542314529418945,17.985666275024414,-7.215249061584473,-0.858008086681366,0.2624017894268036,0.112687312066555,46.87897109985352,72.54143524169922,-65.45877838134766,23.8899366462864,0.8914303274472035,26.139564063432832,0.9042848037016834,16.11768341064453,144.91414642333984,83.1636734008789
1319.295,19.384990692138672,10.835628509521484,9.206141471862791,0.8559743165969849,0.1366807073354721,0.1898865699768066,30.3518295288086,-72.30418395996094,-147.7825164794922,-16.832338333129883,25.7340087890625,-6.113509178161621,-0.8925126791000366,0.2458472102880478,0.1089482903480529,47.67326736450195,72.9963607788086,-64.29325866699219,24.040419092241503,0.8873728392783706,31.35190291813188,0.9321424049631604,17.32143783569336,145.30054473876953,83.4892578125
1341.734,13.641788482666016,21.404521942138672,3.4918715953826904,0.8793200254440308,0.1424392163753509,0.1515959948301315,29.868696212768555,-72.0169677734375,-146.97970581054688,-14.829060554504396,34.36708450317383,-5.358625411987305,-0.9013959169387816,0.2342321872711181,0.0965794473886489,49.02512741088867,73.55509948730469,-62.58993148803711,25.62118498071343,0.90358949925121,37.81153792803785,0.936326281958173,19.15643119812012,145.5720672607422,84.38977432250977
1361.723,7.186720848083496,33.86922073364258,-0.5934596657752991,0.8823368549346924,0.1239748075604438,0.18055459856987,29.073463439941406,-71.46400451660156,-145.9881134033203,-12.020200729370115,41.74475860595703,-1.8586193323135376,-0.9130057096481324,0.2232181429862976,0.0768734961748123,51.09527587890625,74.14896392822266,-60.202274322509766,34.62838812343688,0.9091138771080444,43.480622838989134,0.9430351529092008,22.021812438964844,145.61296844482422,85.78583908081055
1374.063,1.569896221160889,46.89303588867188,-4.43598222732544,0.8631370067596436,0.1050388291478157,0.1968369930982589,28.024629592895508,-70.64056396484375,-144.84762573242188,-8.62930679321289,50.71483612060547,1.212418794631958,-0.9018940925598145,0.2215595245361328,0.0499497503042221,54.08796691894531,74.77658081054688,-56.936336517333984,47.1285404752007,0.8915062814802288,51.45803628010727,0.9300519096601128,26.063337326049805,145.41714477539062,87.91128921508789
1396.709,2.803007125854492,61.63179016113281,-7.610401630401611,0.8317122459411621,0.1240938901901245,0.2261702716350555,26.89875602722168,-69.50128936767578,-143.5901336669922,-6.755285739898682,57.6033821105957,0.8778805732727051,-0.9281685948371888,0.2216392606496811,0.0286063961684703,57.8077392578125,75.43949127197266,-53.00756454467773,62.163113020420056,0.8708028166022923,58.00477730590735,0.9546932639361848,30.90898323059082,144.94078063964844,90.58256912231444
1419.824,-0.9703192114830016,74.9300765991211,-9.943603515625,0.8218650221824646,0.1286682188510894,0.2523415684700012,25.6369686126709,-68.08901977539062,-142.2577362060547,-6.405500411987305,63.55783462524414,-1.991497159004212,-0.9763879776000975,0.2330560088157653,0.0317270569503307,62.14460754394531,76.13213348388672,-48.49833297729492,75.59320835497246,0.869306558359705,63.91083506505117,1.0043182723568622,36.507638931274414,144.22115325927734,93.75940322875977
1441.931,-8.09433650970459,87.18104553222656,-12.319221496582031,0.8302645087242126,0.1701935678720474,0.2552886605262756,24.32960319519043,-66.42865753173828,-141.0039520263672,-6.515697956085205,71.70108795166016,0.4170975685119629,-0.9445357322692872,0.2215445190668106,0.0033221957273781,67.63151550292969,76.75399017333984,-42.74310302734375,88.41841551343445,0.8851425338245674,71.99773818453116,0.9701756338140398,43.30191230773926,143.18264770507812,98.26084899902344
1464.153,-14.86740016937256,103.0374526977539,-13.138147354125977,0.8160516023635864,0.1663119196891784,0.2787047028541565,22.820581436157227,-64.46215057373047,-139.66024780273438,-0.9391010999679564,73.44973754882812,4.227020740509033,-0.9523831605911256,0.2462467700242996,0.0128883719444274,73.8804702758789,77.1542739868164,-36.3906364440918,104.930296683736,0.8782233108634161,73.57726252863982,0.983787205881597,51.05988883972168,141.61642456054688,103.26961135864258
1476.104,-18.85344123840332,120.56413269042967,-13.62445068359375,0.7686455249786377,0.1245783492922782,0.3214319348335266,21.14410781860352,-62.14690399169922,-138.2084197998047,4.084146976470947,71.24590301513672,1.846948385238648,-1.032298564910889,0.2203127145767212,0.0136522715911269,80.23175811767578,77.44993591308594,-30.05307388305664,122.78757263809372,0.8424097559459404,71.38676467879336,1.055634597690338,59.087650299072266,139.59683990478516,108.15534591674805
1499.184,-18.583341598510746,131.33984375,-16.00951385498047,0.7516337633132935,0.1450777202844619,0.3438992500305176,19.68988609313965,-59.59853363037109,-136.96363830566406,4.747450828552246,66.35140991210938,-3.837469100952149,-1.027519464492798,0.1952625215053558,0.0563005693256855,86.16331481933594,77.70085144042969,-24.10448837280273,133.61062710396268,0.8392065021477092,66.6316295447969,1.0474222913049884,66.47342872619629,137.29938507080078,112.85914993286131
1519.135,-26.744871139526367,132.18966674804688,-14.341670989990234,0.7734909057617188,0.1818394362926483,0.3424336314201355,18.263124465942383,-57.04439926147461,-135.89523315429688,-1.5564723014831543,62.31344604492188,1.0968513488769531,-0.95920729637146,0.2195771634578704,0.0553918443620204,91.68795013427734,77.69705200195312,-18.43744468688965,135.62846181393743,0.8652251463144685,62.34253160483786,0.9855764935033082,73.42482566833496,134.7414512634277,117.45778846740724
1541.8829999999998,-39.36834716796875,150.66604614257812,-10.823747634887695,0.8072622418403625,0.175267219543457,0.3493392467498779,16.489768981933594,-54.140846252441406,-134.69058227539062,-8.085891723632812,57.84880828857422,8.930214881896973,-0.952822208404541,0.1963541954755783,0.0332098081707954,96.55470275878906,77.44500732421875,-13.308433532714844,156.10021695000597,0.8968995677707702,59.08988917921052,0.973410510662644,80.06493377685547,131.58585357666016,121.38214874267578
1561.3919999999998,-44.186153411865234,167.5311737060547,-14.795092582702637,0.6973554491996765,0.08133564889431,0.4917759001255035,14.742071151733398,-50.85277557373047,-133.59646606445312,-14.3018798828125,43.48379898071289,5.671310901641846,-0.9977720379829408,0.1679224073886871,0.0521320700645446,99.82022857666016,77.24488067626953,-9.664633750915527,173.89078492316924,0.8571835545866417,46.12535430021677,1.0131459556317923,85.07815742492676,128.09765625,123.9318323135376
1583.865,-39.97548675537109,165.71929931640625,-13.145341873168944,0.6288297176361084,0.0335685387253761,0.499027669429779,13.21497917175293,-47.59884643554688,-132.68948364257812,-16.039325714111328,30.14536666870117,8.01716136932373,-1.0169463157653809,0.1767984926700592,0.0862481147050857,101.66059112548828,77.01473236083984,-7.451313495635986,170.97872885307103,0.8034813472825499,35.07531863541042,1.035797399808171,88.44561195373535,124.61357879638672,125.23817014694214
1604.165,-27.000732421875,171.36380004882812,-11.150609970092772,0.7071099281311035,0.0635956376791,0.5385046005249023,12.07430362701416,-44.27175521850586,-131.8307647705078,-16.023191452026367,26.5082950592041,19.11999893188477,-0.9493982195854188,0.1598235219717025,0.0602337904274463,102.95269012451172,76.57230377197266,-5.787751197814941,173.83592155017206,0.8910870105550133,36.400641895568135,0.9646391278797786,90.87838649749756,120.84405899047852,126.04301357269289
1614.1160000000002,-30.534160614013672,177.7541046142578,-14.089295387268066,0.6849001049995422,0.0748293101787567,0.6378545761108398,11.019078254699709,-40.77505111694336,-131.20925903320312,-17.634801864624023,20.306272506713867,25.286022186279297,-0.9431933760643004,0.1579014956951141,0.0315104350447654,103.5732192993164,76.03329467773438,-4.781978607177734,180.90706154301603,0.9389068323085904,36.91495439420831,0.9568383011308846,92.5541410446167,116.80834579467772,126.4272804260254
1634.39,-35.38302230834961,179.32952880859375,-13.984033584594728,0.5275713801383972,0.0460122674703598,0.6944324374198914,9.937507629394531,-37.17990112304688,-130.66844177246094,-18.56258773803711,13.525453567504885,21.384536743164062,-1.0216684341430664,0.1710447371006012,0.0737313032150268,103.5921401977539,75.61101531982422,-4.369056224822998,183.32100634046407,0.8733184413716617,31.38161833715384,1.038508062793903,93.65463256835938,112.7909164428711,126.29938554763794
1655.305,-33.13703918457031,174.56236267089844,-13.305713653564451,0.4904222190380096,0.0377651080489158,0.6733856797218323,8.990005493164062,-33.6998176574707,-130.21189880371094,-8.29603099822998,17.865589141845703,8.987717628479004,-1.008785605430603,0.149671733379364,0.0032710218802094,104.512451171875,75.41287231445312,-3.2310171127319336,178.17722593809984,0.8338995322978338,21.651385033713204,1.0198336752043995,95.52244567871094,109.11268997192384,126.980881690979
1673.991,-31.93057632446289,175.4127960205078,-12.460116386413574,0.514870285987854,0.0819823369383812,0.748192310333252,8.15754508972168,-30.21875,-129.87521362304688,-3.0734682083129883,29.13915634155273,5.093479633331299,-0.9608098268508912,0.1146682351827621,-0.0867612436413765,106.60760498046876,75.22563934326172,-1.0046206712722778,178.73014634500694,0.9119233784726116,29.740211396359044,0.9715100827739088,98.45005989074708,105.44438934326172,128.8705929517746
1696.445,-31.537273406982425,171.6540985107422,-10.09729290008545,0.3525775074958801,0.0761433392763137,1.0074212551116943,7.371374607086182,-26.77122688293457,-129.5250701904297,-6.792113780975342,27.00422096252441,4.585321426391602,-0.9853193759918212,0.1891290545463562,-0.0193037129938602,108.21980285644533,75.01789855957031,0.8459752798080444,174.81900489761534,1.0700496680804013,28.220310628869484,1.0034922547353615,100.84842824935912,101.78912544250488,130.37104547023773
1718.313,-31.23847770690918,163.425048828125,0.2623366117477417,0.230967566370964,0.0737156122922897,0.8945592045783997,6.560156345367432,-23.528335571289062,-129.08297729492188,-14.887486457824709,21.485885620117188,4.301156997680664,-1.032090187072754,0.2647113502025604,0.0483350194990634,109.05870056152344,74.82093048095703,2.075442314147949,166.38406742960086,0.926831256867663,26.49113975334716,1.0665920153872843,102.498544216156,98.3492660522461,131.15841960906982
1735.508,-23.084321975708008,157.19754028320312,5.380852699279785,0.3353593945503235,0.0363884828984737,0.7715411186218262,5.883663177490234,-20.43116569519043,-128.58795166015625,-10.072778701782228,21.609703063964844,-1.6846935749053955,-1.0106375217437744,0.313573956489563,-0.0431964173913002,110.2601547241211,74.68928527832031,3.5650904178619385,158.9745456604257,0.8420604152464543,23.90142944949395,1.0590480428292004,104.37649154663086,95.12045097351074,132.1530420780182
1756.365,-2.567291736602783,165.83004760742188,6.869029998779297,0.3952285945415497,0.0999166294932365,0.8724976778030396,5.681186676025391,-17.20123291015625,-128.0734100341797,-6.395054817199707,34.19466781616211,-1.4415740966796875,-0.953703999519348,0.2716254591941833,-0.1664490103721618,112.59033203125,74.43836212158203,6.125176906585693,165.99210598538946,0.9630374720457529,34.81738314475802,1.005503347500904,106.9091453552246,91.63959503173828,134.19858694076538
1778.7,5.3125176429748535,158.77835083007812,4.203583717346191,0.130467876791954,0.0692747980356216,1.2848933935165403,5.666745662689209,-14.028228759765623,-127.6576919555664,-12.13306999206543,35.82587814331055,5.629554748535156,-1.0052728652954102,0.3564418852329254,-0.1024426743388176,114.41477966308594,74.00491333007812,8.287890434265137,158.92280406566903,1.293356832904179,38.24129729544292,1.071503081084387,108.74803400039671,88.03314208984375,135.94558238983154
1801.2379999999998,7.044067859649658,149.54974365234375,8.252766609191895,-0.044940248131752,0.1458415240049362,1.016100287437439,5.706512928009033,-11.06921100616455,-127.1666259765625,-17.923538208007812,28.66040229797364,6.88762092590332,-1.0402679443359375,0.315477043390274,-0.0304905641824007,115.44522857666016,73.63866424560547,9.78311252593994,149.9428320234044,1.027496554814989,34.49798840214527,1.0874800390919124,109.73871564865112,84.70787525177002,136.94973850250244
1824.019,9.541878700256348,144.54388427734375,-1.5095149278640747,0.0610717982053756,0.0555957555770874,0.8522094488143921,5.841181755065918,-8.180069923400879,-126.89942932128906,-14.43777084350586,26.8309326171875,3.4652554988861084,-1.0091477632522583,0.2672816514968872,-0.0764485001564025,116.63936614990234,73.34589385986328,11.357133865356444,144.86635415592536,0.8562018437394043,30.6652273383095,1.0467392523833732,110.79818439483644,81.52596378326416,138.2565631866455
1834.126,15.395992279052734,153.57952880859375,-10.792426109313965,0.1967787593603134,0.1040976345539093,0.864576518535614,6.147633075714111,-5.16456937789917,-126.79608917236328,-2.1567516326904297,37.81996154785156,4.850566864013672,-0.8989418148994446,0.2657226324081421,-0.2119144052267074,118.78001403808594,72.87239074707031,13.67618465423584,154.72616038876984,0.8927769901035008,38.19069347351984,0.9610476674396587,112.63238096237184,78.03696012496948,140.47227382659912
1856.296,25.582942962646484,152.7150421142578,-11.254508018493652,-0.0488555207848548,0.1016185879707336,1.301964521408081,6.630208015441895,-2.0578536987304688,-126.6765365600586,-5.091488361358643,31.624343872070312,16.634262084960938,-0.995012640953064,0.2953800857067108,-0.1256057918071746,119.85037231445312,72.26692199707031,14.980758666992188,155.2515217617138,1.3068377153792656,36.09322726196663,1.0455029247324,113.22016429901124,74.32477569580078,141.65729522705078
1878.723,11.033169746398926,142.5975799560547,-10.166481971740724,-0.2363531440496444,0.2422017306089401,0.9938368201255798,6.850225925445557,0.7969350218772888,-126.5448989868164,-4.682000160217285,20.386749267578125,23.75658416748047,-1.088626742362976,0.281671941280365,-0.0402771085500717,119.9420394897461,71.69346618652344,15.254443168640137,143.38465050226955,1.0498743315508965,31.653056132164483,1.1251975436187325,113.09181356430054,70.89653116464615,141.79934215545654
1901.269,7.001227378845215,136.0594940185547,-14.53888988494873,-0.1388416439294815,0.1245548129081726,0.8048011660575867,7.00017786026001,3.556696891784668,-126.49220275878906,8.343660354614258,13.991540908813477,21.2044734954834,-0.9925594925880432,0.2706120610237121,-0.1276064664125442,120.16069793701172,71.20210266113281,15.379722595214844,137.0130738888887,0.8261330524771915,26.739663074482085,1.036671907677849,113.16052007675172,67.64540576934814,141.8719253540039
1924.148,12.420734405517578,146.94390869140625,-17.171894073486328,0.0267891101539134,0.1524989604949951,0.8903713822364807,7.275475978851318,6.461389541625977,-126.4677734375,14.590386390686035,28.76997184753418,7.000656127929688,-0.8814091682434082,0.2489570081233978,-0.1757045835256576,121.71410369873048,70.78394317626953,16.772998809814453,148.4643421524232,0.9037338035509096,33.00908725425386,0.9325952039492884,114.43862771987916,64.32255363464355,143.24077224731445
1934.263,20.254737854003903,143.59527587890625,-18.346338272094727,-0.1895480155944824,0.0732170939445495,1.2974432706832886,7.639369010925293,9.359963417053224,-126.46196746826172,-6.06362247467041,31.36663246154785,15.431711196899414,-0.949779748916626,0.3178716003894806,-0.1285610496997833,122.5256118774414,70.18546295166016,17.83544921875,146.17265745777402,1.313258631687925,35.47916092522012,1.0097781287422545,114.88624286651611,60.82549953460693,144.29741668701172
1956.266,11.008390426635742,137.98397827148438,-15.397157669067385,-0.4131578505039215,0.2924389541149139,0.9819359183311462,7.880789756774902,12.14259433746338,-126.39334106445312,-20.63516616821289,20.82743453979492,15.873828887939451,-1.0644627809524536,0.2951057255268097,-0.1397758871316909,122.54515838623048,69.72386169433594,18.35850715637207,139.27611203539837,1.1047253500421166,33.34022429232865,1.1134207200762825,114.66436862945557,57.58126735687256,144.7518482208252
1981.219,-9.304224014282228,127.24728393554688,-19.48752784729004,-0.3790785372257232,0.1270098537206649,0.7795087099075317,7.690165042877197,14.732795715332031,-126.43175506591795,-13.927671432495115,7.52982759475708,12.11582374572754,-1.0430275201797483,0.1826739162206649,-0.1384941935539245,122.28691864013672,69.48947143554688,18.430633544921875,129.06666337625893,0.8760512936746587,19.93668779350876,1.0679217242700243,114.59675359725952,54.75667572021485,144.86238861083984
2004.221,-23.071653366088867,133.59962463378906,-18.128173828125,-0.209701657295227,0.1156659945845604,0.8161830306053162,7.235849857330322,17.41316032409668,-126.4018783569336,12.670015335083008,19.03741836547852,7.422828674316406,-0.8808262348175049,0.1916936188936233,-0.2305018901824951,123.33457946777344,69.18382263183594,19.34645271301269,136.78374018017277,0.8505928208159759,24.042690617768866,0.9304474304575294,116.09872961044312,51.77066230773926,145.7483310699463
2024.281,-15.110140800476074,136.8970184326172,-15.502017974853516,-0.2802439332008362,-0.0148471985012292,1.1523197889328003,6.912944316864014,20.143939971923828,-126.37993621826172,10.173797607421877,15.646432876586914,6.662115097045898,-0.8953274488449097,0.2986747622489929,-0.1802206337451934,124.00115203857422,68.89612579345703,19.927120208740234,138.5980612131469,1.1860008420592891,19.816679769441947,0.9608836199494432,117.0882077217102,48.7521858215332,146.30705642700195
2034.37,-21.82257461547852,132.72776794433594,-11.149706840515137,-0.5088766813278198,0.2093598991632461,0.9891055226325988,6.533946514129639,22.81895065307617,-126.24471282958984,0.641327977180481,4.7354936599731445,19.520994186401367,-1.0232869386672974,0.3457840085029602,-0.0725489035248756,123.4671401977539,68.55205535888672,19.44599151611328,134.97111212760694,1.1318642935790344,20.097398234683915,1.082564585965256,116.93319368362428,45.73310470581055,145.69070434570312
2056.137,-26.13007926940918,126.61991119384766,-11.127327919006348,-0.5658865571022034,0.1181880310177803,0.6558950543403625,6.03565788269043,25.35919761657715,-126.16944885253906,1.634516716003418,-5.6167192459106445,12.849533081054688,-1.056501865386963,0.2464108318090438,-0.070737138390541,122.8731689453125,68.42457580566406,18.856557846069336,129.7659446079,0.8742964763128078,14.118416355363529,1.0871606285856013,116.83751106262208,43.065378189086914,145.0260066986084
2074.059,-30.868940353393555,132.076171875,-14.744738578796388,-0.361183762550354,0.0482916720211505,0.7346659898757935,5.384387493133545,28.013580322265625,-126.19112396240234,11.697002410888672,4.857685089111328,5.238765716552734,-0.8610273599624634,0.2356902360916137,-0.1799429059028625,123.20865631103516,68.30915832519531,19.03750801086425,136.43465091923295,0.8200731141775155,13.70626265829742,0.9106577026400297,117.8242688179016,40.29557800292969,145.2286319732666
2096.622,-11.15483570098877,142.18829345703125,-8.747138023376465,-0.4084009826183319,-0.0617502219974994,1.0606606006622314,5.194684505462647,30.843509674072266,-126.06524658203124,7.3606414794921875,12.920419692993164,-1.5551379919052124,-0.8229995369911194,0.3081935048103332,-0.3286954760551452,124.01106262207033,68.1626968383789,19.794017791748047,142.89315441734388,1.1382466175295778,14.951078295780992,0.9382708512332631,118.81637811660768,37.31918716430664,145.8592643737793
2113.68,-19.13996315002441,141.01498413085938,-12.143635749816896,-0.6002460718154907,0.1719316393136978,0.8894618153572083,4.850593090057373,33.67530059814453,-126.02999114990234,2.638540983200073,20.58624649047852,3.4559695720672607,-0.980077862739563,0.3709449172019958,-0.1275715827941894,124.74943542480467,67.87873840332031,20.597511291503903,142.82517925084164,1.0867373906816509,21.04041750464615,1.055664367764092,119.89884233474731,34.20343780517578,146.62750244140625
2136.745,-21.404239654541016,131.36984252929688,-7.383999347686768,-0.7810025811195374,0.1188348457217216,0.7599298357963562,4.469574928283691,36.304908752441406,-125.90518951416016,-1.695910930633545,-8.750158309936523,4.748342514038086,-1.0024107694625854,0.2294504344463348,-0.1418389678001403,124.20823669433594,67.95720672607422,20.13615608215332,133.30679070372943,1.0961660948991998,10.098917811538772,1.0380718401867923,119.73866176605225,31.65229797363281,146.04134559631348
2158.3920000000003,-29.657867431640625,128.1166229248047,-10.493104934692385,-0.7166053056716919,0.0169831961393356,0.6635628938674927,3.8450441360473633,38.90256118774414,-125.94680786132812,17.891706466674805,-12.175636291503906,7.283146381378174,-1.006953477859497,0.1792008280754089,-0.1495211273431778,123.88613891601562,67.99606323242188,19.48361587524414,131.922566005289,0.976794403744067,22.83426155156374,1.0336463664514202,120.04109477996826,29.09350204467773,145.4304237365723
2173.5730000000003,-16.764554977416992,135.82339477539062,-2.7302348613739014,-0.6460713148117065,-0.0095971254631876,0.7406473159790039,3.5680465698242188,41.62858963012695,-125.77078247070312,31.751977920532227,-22.77902603149414,-3.90571641921997,-0.9400301575660706,0.3050889074802398,-0.1978810131549835,123.67916107177734,68.32252502441406,18.60525894165039,136.88133201536544,0.9828828492280176,39.27246808588452,1.0079150926384726,120.11111450195312,26.69393539428711,144.37604141235352
2196.741,-15.513513565063477,136.1981658935547,-5.277709007263184,-0.7433937788009644,0.0270640775561332,0.8744364976882935,3.295069456100464,44.329715728759766,-125.7154541015625,16.169784545898438,-30.65985107421875,-9.44150447845459,-1.0253547430038452,0.3144710063934326,-0.1165425106883049,122.85352325439452,68.85576629638672,17.46932601928711,137.18040570091267,1.1480444081756205,35.92534491095008,1.0788079160166155,119.55845379829408,24.52605056762696,143.1847801208496
2219.041,-27.04638671875,132.34356689453125,-4.711124420166016,-0.7882376313209534,0.0944075360894203,0.6387001276016235,2.851806640625,47.03092193603516,-125.57364654541016,9.65041160583496,-51.64056015014648,-14.556068420410156,-1.0957138538360596,0.2856903076171875,-0.0468412972986698,121.0767059326172,69.67768096923828,15.428057670593262,135.16109435118423,1.0189058834354,54.51382416087312,1.1333145673145189,118.2248992919922,22.646759033203125,141.00170421600342
2241.082,-11.204989433288574,138.4540557861328,3.7475392818450928,-0.7541078329086304,0.040011815726757,0.5471716523170471,2.878777980804444,49.850093841552734,-125.25237274169922,19.971302032470703,-60.60034942626953,-15.836443901062012,-1.0173064470291138,0.2038363814353943,-0.0474088713526725,119.00713348388672,70.58235931396484,12.876583099365234,138.9572646625525,0.9325644139421524,65.74228632234825,1.038609300288905,116.12835550308228,20.73226547241211,138.12895584106445
2263.325,16.462404251098633,153.881103515625,11.585966110229492,-0.7383251190185547,0.0404875241219997,0.6271799206733704,3.722711086273194,52.89486312866211,-124.57077026367188,22.422016143798828,-61.47969818115234,-20.182201385498047,-0.8770774602890015,0.2707617878913879,-0.1160951554775238,116.79950714111328,71.5223617553711,10.081278800964355,155.19226586276932,0.9695967583893562,68.48227032716689,0.9252323504150168,113.07679605484007,18.627498626708984,134.65204906463623
2273.4480000000003,22.0329704284668,158.88803100585938,10.76218032836914,-0.8722267746925354,0.0298947412520647,0.7595809698104858,4.772395133972168,55.99525451660156,-123.79119110107422,0.9072532653808594,-66.38290405273438,-25.52826881408692,-0.995898962020874,0.2387083619832992,-0.0554460361599922,113.6965789794922,72.59860229492188,6.827127933502197,160.7690352905091,1.1569945945177569,71.12809267516151,1.0256074724575963,108.92418384552002,16.603347778320312,130.61831903457642
2296.63,5.547863483428955,155.9644012451172,7.353002548217773,-0.927351176738739,0.1018241420388221,0.449849396944046,5.598322868347168,59.13186264038086,-122.97488403320312,2.192646026611328,-70.28295135498047,-24.81390190124512,-1.0867276191711426,0.2094849050045013,-0.0253774374723434,109.95565032958984,73.64754486083984,2.936567068099976,156.2361670403264,1.0357185142844498,74.5669543117404,1.1070252291735665,104.35732746124268,14.515682220458984,125.9114511013031
2316.799,25.821401596069336,164.66050720214844,19.3503475189209,-0.957474172115326,0.0320191271603107,0.3984354138374328,7.4545979499816895,62.42957305908203,-121.43253326416016,25.28974342346192,-79.78294372558594,-28.395980834960938,-0.9874696731567384,0.2156564891338348,-0.1697282195091247,105.83158111572266,74.69935607910156,-1.8060649633407595,167.7923221174237,1.037560983158023,88.38111200660477,1.0248959679926275,98.37698316574097,12.269783020019531,119.6264683008194
2338.427,39.49361801147461,174.873779296875,18.048439025878903,-1.0363215208053589,0.0315199345350265,0.5112119317054749,10.020759582519531,65.83403015136719,-119.51204681396484,27.197145462036133,-75.0888671875,-29.410215377807617,-0.8133063912391663,0.3149089813232422,-0.2980971038341522,101.4023208618164,75.62788391113281,-6.954965114593506,180.1841577400169,1.1559815914950666,85.10571934573022,0.9216815262675212,91.38156127929688,9.793853759765623,112.55708169937134
2358.44,33.49272918701172,167.37872314453125,8.222296714782715,-1.1941797733306885,0.0273666381835937,0.4885973930358886,12.580445289611816,69.0945816040039,-117.4739990234375,17.890233993530273,-41.19356155395508,-17.677724838256836,-0.807942271232605,0.3263905048370361,-0.3026211261749267,98.7937469482422,76.12193298339844,-9.99515438079834,170.8947220751831,1.2905586683289811,48.26460339938447,0.9224321228684832,86.21330165863037,7.027351379394531,107.47884464263916
2380.811,24.811145782470703,145.67628479003906,-2.6480722427368164,-1.2894104719161987,0.028547903522849,0.3716316819190979,14.80327320098877,71.98004150390625,-115.70819091796876,10.410265922546388,-16.307449340820312,-10.982857704162598,-0.9326180219650269,0.3055288791656494,-0.3229501843452453,97.81670379638672,76.38725280761719,-11.203839302062988,147.79778480028153,1.3422013466275176,22.247015618537134,1.033160729251168,83.01343059539795,4.4072113037109375,104.50435161590576
2403.488,22.686635971069336,123.44270324707033,-3.994119167327881,-1.2702250480651855,0.0555926524102687,0.1351105868816375,17.258602142333984,74.40248107910156,-113.65093231201172,12.137998580932615,-8.733362197875977,-13.472196578979492,-0.9425978660583496,0.2970464825630188,-0.3468709588050842,97.48849487304688,76.67872619628906,-11.794597625732422,125.57363347674104,1.2785996583847945,20.12716337422336,1.0474000248057924,80.22989273071289,2.2762451171875,101.8563346862793
2413.458,24.336816787719727,98.93221282958984,-2.7165324687957764,-1.2177505493164062,0.1123215034604072,0.2180151939392089,20.03221893310547,76.3361587524414,-111.36163330078124,18.653793334960938,8.261165618896484,-12.159924507141112,-0.912205457687378,0.310246467590332,-0.2830424606800079,98.70005798339844,76.89738464355469,-10.934060096740724,101.91782442425034,1.24220092790513,23.750255307799144,1.0042333903205527,78.66783905029297,0.5612258911132812,100.42757320404051
2436.883,5.0877203941345215,72.20008087158203,-10.978553771972656,-1.1831440925598145,0.1079393997788429,0.263120025396347,21.479442596435547,77.76583862304688,-110.06825256347656,16.712505340576172,19.16885757446289,-12.472471237182615,-0.9426161646842957,0.3214107453823089,-0.1915206164121627,100.93943786621094,77.05316162109375,-8.989812850952148,73.20700253115116,1.216845514249191,28.325173860564,1.0141549426405403,79.45999526977539,-0.712677001953125,101.0784397125244
2458.649,-6.933075428009033,47.79348373413086,-11.39475440979004,-1.161151885986328,0.0981588512659072,0.2857993841171264,21.98733329772949,78.7157974243164,-109.48863983154295,9.512977600097656,21.92820930480957,-10.46532154083252,-0.9439514875411988,0.323885440826416,-0.10292349755764,103.26563262939452,77.0992431640625,-6.812863349914551,49.619805021730215,1.1998292171693343,26.09341030008362,1.003264389859453,81.27829933166504,-1.6165542602539062,102.67577648162842
2483.201,-8.749804496765137,28.63996124267578,-10.902182579040527,-1.084285855293274,0.108452633023262,0.2734679579734802,21.86826515197754,79.29098510742188,-109.46077728271484,-3.005972385406494,25.23812484741211,-6.848505973815918,-0.9652640223503112,0.2880279123783111,-0.0545357875525951,105.43043518066406,77.06798553466797,-4.535299777984619,31.86948452203639,1.1234867661156185,26.323009893794048,1.0087957490378774,83.56217002868652,-2.2229995727539062,104.92547750473022
2503.215,-4.744912624359131,16.93850326538086,-11.80189323425293,-1.0184227228164673,0.1378421634435653,0.2615332305431366,21.361312866210938,79.64046478271484,-109.90892028808594,-11.693735122680664,24.764360427856445,-5.135295867919922,-0.9995904564857484,0.2337540835142135,-0.0419273227453231,107.31619262695312,77.02423095703125,-2.367943286895752,21.182817862523056,1.0604644902353115,27.863744403279203,1.0274142069533334,85.95487976074219,-2.6162338256835938,107.5409770011902
2513.303,-5.7677836418151855,8.397592544555664,-11.174845695495604,-1.0211431980133057,0.1493142396211624,0.2955347597599029,20.53229141235352,79.80326843261719,-110.70530700683594,-14.417742729187012,21.726348876953125,-3.1270220279693604,-1.0077203512191772,0.2143191844224929,-0.0543964765965938,108.8561782836914,76.95599365234375,-0.5049869418144226,15.121642271965843,1.073484497898703,26.261831765730143,1.0316937509449926,88.32388687133789,-2.847274780273437,110.20032006502151
2536.96,-12.286942481994627,0.5400111675262451,-9.269146919250488,-1.0319713354110718,0.1456419676542282,0.3162533044815063,19.4306697845459,79.79373931884766,-111.64896392822266,-12.937485694885254,17.231578826904297,-1.6007930040359497,-0.9994944334030152,0.2286058366298675,-0.0801456868648529,110.03426361083984,76.86640167236328,0.959489643573761,15.400573113606786,1.0891246817732938,21.607137321148016,1.0284323419981962,90.60359382629396,-2.927337646484375,112.60845357179642
2558.349,-16.20476531982422,-6.972797870635986,-6.632266044616699,-1.0382285118103027,0.11499884724617,0.3512998223304748,18.16220664978028,79.61106872558594,-112.67181396484376,-10.179052352905272,15.860858917236328,-1.0617427825927734,-0.9858296513557434,0.2136763334274292,-0.1020227670669555,111.17697143554688,76.77218627929688,2.322661161422729,18.846784396864603,1.10206839296534,18.876102620298752,1.013867013941757,93.0147647857666,-2.8388824462890625,114.99447512626648
2580.78,-20.819637298583984,-16.45622444152832,-7.000786304473877,-1.04301655292511,0.0909900218248367,0.3188525140285492,16.488319396972656,79.26614379882812,-114.0101547241211,-12.851961135864258,19.41242027282715,0.3832521736621856,-0.9521813988685608,0.2411329746246338,-0.1778136491775512,112.61058807373048,76.58395385742188,4.064327716827393,27.445867248011176,1.0944540371572435,23.28436918010133,0.9982044989061364,96.1222686767578,-2.68218994140625,118.07448244094849
2603.422,-20.55794715881348,-26.786941528320312,-3.256866931915283,-1.0466521978378296,0.1373340189456939,0.2609149515628814,15.178109169006348,78.72154235839844,-114.9786605834961,-11.32590103149414,24.75297164916992,6.499809741973877,-0.9274343252182008,0.2816556692123413,-0.2274282574653625,114.277099609375,76.19688415527344,6.01792573928833,33.92309847343579,1.08739048549617,27.98630319141256,0.9955842284237544,99.09899044036864,-2.524658203125,120.99658632278442
2613.352,-22.360843658447266,-39.79313278198242,-2.022282361984253,-1.0910775661468506,0.1053573563694953,0.3290746510028839,13.640339851379396,77.89806365966797,-116.11225128173828,-8.158671379089355,32.929664611816406,12.75107192993164,-0.9336666464805604,0.2821133136749267,-0.2389128506183624,116.27002716064452,75.6150131225586,8.241307258605957,45.69015617913335,1.1444826577204104,36.24246908643196,1.0041915547810063,102.62968730926514,-2.283050537109375,124.35355854034424
2636.752,-29.38548469543457,-57.48248672485352,-4.626255035400391,-1.1329487562179563,0.0763232260942459,0.3579968810081482,11.536810874938965,76.738525390625,-117.66156005859376,-8.426254272460938,37.79710388183594,11.478240966796877,-0.951270878314972,0.2755366265773773,-0.1958967745304107,118.36192321777344,75.01515197753906,10.584390640258787,64.7236064084129,1.190613239414383,40.39025672870027,1.0095604304781354,106.82511234283449,-1.7233734130859375,128.24595069885254
2658.76,-27.519676208496094,-76.05308532714844,-4.948451995849609,-1.1479012966156006,0.0837438553571701,0.3583373427391052,9.523478507995604,75.21781921386719,-119.13815307617188,-17.404027938842773,43.68051910400391,10.85459327697754,-0.9283117651939392,0.2841178476810455,-0.2009101063013076,120.47271728515624,74.3432388305664,13.129317283630373,81.03018908748896,1.2054443459916275,48.25671075508438,0.991388196208932,110.94923877716064,-0.8745803833007812,132.26747035980225
2680.581,-29.78087615966797,-93.15289306640624,-5.601927757263184,-1.1120655536651611,0.1329927593469619,0.3330496847629547,7.692732334136963,73.36944580078125,-120.35443115234376,-27.480457305908203,48.600704193115234,16.137514114379883,-0.9272221326828004,0.2980916500091553,-0.218660295009613,122.27887725830078,73.50267791748047,15.595904350280762,97.95786679014806,1.1684600815637751,58.11732395422506,0.9982043076222984,114.58614492416382,0.1332321166992187,135.9503355026245
2703.668,-34.350303649902344,-109.74994659423828,-5.945279598236084,-1.1321535110473633,0.084088034927845,0.4518479108810425,5.875396251678467,71.15547180175781,-121.52572631835938,-28.82837677001953,51.64139938354492,21.068256378173828,-0.9863755702972412,0.289041519165039,-0.1824217438697815,123.7747573852539,72.5618896484375,17.771644592285156,115.15355178100177,1.22188743538939,62.78360346699971,1.0439154458656763,117.89936113357544,1.4064178466796875,139.29737091064453
2713.174,-31.58932113647461,-124.84080505371094,-10.08547019958496,-1.1448012590408323,0.0265764873474836,0.4988036155700683,4.084056854248047,68.6459732055664,-122.69710540771484,-30.285415649414062,50.49117660522461,15.734419822692873,-1.0402716398239136,0.2307679653167724,-0.1833225786685943,125.23078918457033,71.74913024902344,19.959285736083984,129.1697662979565,1.2490321370112856,60.94372226238323,1.0812151063909905,121.14673233032228,3.1031570434570312,142.65639114379883
2735.994,-19.94571685791016,-133.67323303222656,-9.075420379638672,-1.1354072093963623,0.0343664698302745,0.5170480012893677,2.8692786693573,65.96611022949219,-123.57727813720705,-27.733295440673828,45.72124481201172,11.583494186401367,-1.0040347576141355,0.2297993302345276,-0.2049587666988372,126.52438354492188,71.04000854492188,21.96647834777832,135.4574771111991,1.2480661925695928,54.71512807922506,1.0501912315003503,123.65510487556458,5.073898315429688,145.54375648498535
2755.49,-20.59492492675781,-143.11036682128906,-7.26686954498291,-1.1177948713302612,0.0681023448705673,0.5706724524497986,1.946716547012329,63.092552185058594,-124.11643981933594,-21.92770195007324,43.94465255737305,13.00821304321289,-0.9713438153266908,0.2778262197971344,-0.208542063832283,127.63319396972656,70.29721069335938,23.652570724487305,144.7671765886401,1.2568891565027414,50.80521831246367,1.0315939164068415,125.68647742271423,7.204658508300781,147.76901054382324
2779.335,-21.864574432373047,-153.42051696777344,-7.936703681945801,-1.1041793823242188,0.0387338586151599,0.6169854402542114,1.0887421369552612,60.018680572509766,-124.59745025634766,-19.804594039916992,37.41098785400391,13.761497497558594,-0.9915646314620972,0.2944812774658203,-0.2072842568159103,128.35824584960938,69.61915588378906,24.91845893859864,155.1737925910901,1.2654578039740385,44.51047933547397,1.054934312774113,127.26950371265411,9.600475311279297,149.5159091949463
2799.781,-17.43832778930664,-163.07955932617188,-9.04901123046875,-1.0770429372787476,0.0101179461926221,0.6740376353263855,0.3800147175788879,56.75288772583008,-125.01798248291016,-23.384422302246094,34.34771728515625,8.604233741760254,-0.999660313129425,0.2365826368331909,-0.1999334394931793,129.03890991210938,69.08881378173828,26.20004272460937,164.2587061630368,1.2706103239835471,42.43382763071995,1.046549313661109,128.6588951945305,12.335926055908203,151.21802520751953
2821.272,-11.857502937316896,-170.9796905517578,-7.173695087432861,-1.0540683269500732,0.0110191656276583,0.7226580381393433,-0.0681077465415,53.336910247802734,-125.27611541748048,-22.45375633239746,30.60383987426757,6.065323829650879,-1.0283697843551636,0.2457393109798431,-0.1829932630062103,129.59393310546875,68.65192413330078,27.34842872619629,171.54042339428568,1.2780516812624836,38.43896905021023,1.0730418242739626,129.66204085201025,15.315013885498049,152.62454414367676
2841.86,-15.418234825134276,-180.521484375,-8.541776657104492,-1.0145344734191897,-0.0077075976878404,0.7784391045570374,-0.5696012377738953,49.73334884643555,-125.51978302001952,-13.273004531860352,21.60735893249512,3.673663377761841,-1.0474854707717896,0.2500388622283935,-0.1770030111074447,130.0169677734375,68.37101745605469,28.17725944519043,181.379960950862,1.2787912434489188,25.623161630711586,1.0913639677227618,130.5865690112114,18.63766860961914,153.69704246520996
2862.939,-15.613852500915527,-186.32476806640625,-7.442476749420166,-0.9400796890258788,-0.0074573867022991,0.7770838737487793,-0.9878103137016296,46.02900314331055,-125.6624526977539,-7.879680156707764,10.59609603881836,-1.4107515811920166,-1.0431475639343262,0.2308628559112548,-0.1315694749355316,130.2431640625,68.33204650878906,28.677223205566406,187.1258989159066,1.2196986435902228,13.279940913261322,1.0764594860543668,131.23097437620163,22.30304336547852,154.3396759033203
2872.94,-12.29694366455078,-193.23776245117188,-8.311613082885742,-0.875330924987793,-0.0432429574429988,0.8867090940475464,-1.3348817825317385,42.1652946472168,-125.7948226928711,1.390026569366455,-6.294773101806641,-1.1061880588531494,-1.0339347124099731,0.2630966901779175,-0.1233531236648559,129.9548797607422,68.4946060180664,28.352752685546875,193.8069414976261,1.246726593554105,6.54064173367739,1.0739910851709833,131.28976154327393,26.32931137084961,154.14757537841797
2895.618,-6.497260570526123,-198.2147521972656,-8.634575843811035,-0.7980265617370605,-0.0308994557708501,0.8671458959579468,-1.5316078662872314,38.22089385986328,-125.89183044433594,0.6270323991775513,-16.863964080810547,-1.824466347694397,-1.008184552192688,0.251076191663742,-0.0911204740405082,129.22752380371094,68.8117904663086,27.5765323638916,198.50908866736367,1.1788736889427636,16.97395450690133,1.0429661001632344,130.75913166999817,30.590896606445312,153.46836280822754
2913.141,-2.70207953453064,-200.93115234375,-11.116071701049805,-0.7019476294517517,-0.0348144583404064,0.8032717704772949,-1.6734977960586548,34.245540618896484,-126.0315170288086,6.489365577697754,-25.22361946105957,-1.7484012842178345,-0.97796231508255,0.2741070687770843,-0.0835751965641975,128.2737274169922,69.19514465332031,26.47836875915528,201.25654341178844,1.0673275309145724,26.10363483057496,1.0190828172214124,129.94722521305084,34.94960403442383,152.50988578796387
2935.637,0.3332492709159851,-202.45181274414065,-11.208953857421877,-0.607265830039978,-0.032332420349121,0.9222735166549684,-1.735558032989502,30.201866149902344,-126.1558837890625,7.51888370513916,-34.694637298583984,2.7978591918945312,-0.9678067564964294,0.2593505680561065,-0.0678210109472274,126.699951171875,69.6368637084961,24.741777420043945,202.7621468249016,1.104719698956662,35.61010369978401,1.0042471431859132,128.4355092048645,39.43499755859375,150.89766120910645
2952.8880000000004,0.7603026032447815,-205.18734741210932,-13.742911338806152,-0.5481667518615723,-0.0288278255611658,0.9531525373458862,-1.7991135120391846,26.1081657409668,-126.32315063476562,14.965106964111328,-55.98473358154297,8.781099319458008,-0.8862594366073608,0.2170896232128143,-0.0584144555032253,124.0842742919922,70.21038818359375,21.70848846435547,205.6484699921992,1.0999170836121932,58.611880416019964,0.9143281369913192,125.88338780403136,44.10222244262695,148.0316390991211
2975.376,6.735208511352539,-207.40090942382807,-15.922534942626951,-0.514336109161377,-0.0488288700580596,0.9380939602851868,-1.759987235069275,21.99798583984375,-126.5336456298828,20.806676864624023,-47.24958801269531,10.168006896972656,-0.9678639769554138,0.3051724135875702,-0.1360418796539306,121.88373565673828,70.55811309814453,19.018842697143555,208.12022338667987,1.070955727405179,52.61967059736506,1.0239132155229698,123.64372289180756,48.56012725830078,145.55248832702637
2998.3520000000003,12.61434841156006,-209.33221435546875,-17.344627380371094,-0.4646683633327484,-0.077805645763874,0.9539270997047424,-1.616616129875183,17.861989974975586,-126.77995300292967,30.09491539001465,-34.661067962646484,29.599411010742188,-1.2637624740600586,0.1716226637363433,-0.176158919930458,119.95833587646484,70.44483947753906,16.41525650024414,210.42797782561155,1.0639301283196043,54.61884928141736,1.2874711238010057,121.57495200634004,52.58284950256348,143.19520950317383
3013.159,16.35424041748047,-212.51239013671875,-18.907901763916016,-0.4186816811561584,-0.0830485001206398,1.0049338340759275,-1.3951703310012815,13.670602798461914,-127.0634536743164,42.237911224365234,-44.26277542114258,9.843048095703123,-0.992490530014038,0.20299132168293,-0.1299437284469604,118.3647689819336,70.76258087158203,13.87572193145752,213.9777696172376,1.091825725277885,61.96870200669195,1.0213365270119474,119.75993931293488,57.09197807312012,140.93917560577393
3035.494,18.101343154907227,-216.40890502929688,-21.55410957336425,-0.4077372550964355,-0.0956230908632278,0.9352927207946776,-1.1057429313659668,9.347234725952148,-127.40836334228516,47.25197219848633,-49.61863327026367,13.733183860778809,-1.0336389541625977,0.2378536015748977,-0.0524576418101787,116.3025131225586,71.03736114501953,10.7879638671875,218.2316485743796,1.0247760332244913,69.88102734798193,1.0619489759535454,117.40825605392456,61.69012641906738,138.19632720947266
3057.961,18.42545318603516,-216.5669860839844,-20.82109642028809,-0.2376088500022888,-0.0688346251845359,0.8485283851623535,-0.7989051938056946,5.041385650634766,-127.75666046142578,34.90689849853516,-39.34539413452149,6.128027439117432,-0.9508439302444458,0.2303707599639892,0.0100530833005905,114.64761352539062,71.3005599975586,8.332796096801758,218.34439503397925,0.8838532636416166,52.95379422366682,0.9784047890382278,115.44651871919632,66.25917434692383,136.08945655822754
3080.456,22.47281074523925,-218.95443725585932,-15.585412979125977,-0.1497416198253631,-0.0996452867984771,1.022404670715332,-0.4116070568561554,0.712207019329071,-128.02610778808594,16.30849838256836,-28.3813533782959,-0.7672814130783081,-0.9491146206855774,0.3426370024681091,-0.0107151716947555,113.2219467163086,71.5468978881836,6.551671504974365,220.6557905756187,1.0381055084092372,32.742282447086644,1.0091251129388796,113.63355377316476,70.83469086885452,134.5777792930603
3103.494,24.99391746520996,-216.140365600586,-13.147761344909668,-0.0573114939033985,-0.0039475942030549,0.8563708066940308,0.0944260135293006,-3.559051752090454,-128.2743682861328,3.060645580291748,-39.28632354736328,-6.025773048400879,-0.9834059476852416,0.3162180781364441,-0.0302697960287332,111.05555725097656,71.9668960571289,4.275411128997803,217.9775611859977,0.8582954907205421,39.86342571916148,1.03343959254261,110.96113123744726,75.52594780921936,132.54977941513062
3114.746,12.44288444519043,-218.570068359375,-15.903514862060549,-0.0089563559740781,-0.0218686051666736,0.8716564774513245,0.3638894259929657,-7.868575572967529,-128.6128387451172,-4.102780818939209,-40.81658935546875,-14.26077938079834,-0.9497939348220824,0.2762264907360077,-0.038396768271923,108.77469635009766,72.53279876708984,2.021990776062012,219.5008472441644,0.8719767582264574,43.430365018141664,0.9898908549041514,108.41080692410468,80.40137434005737,130.6348295211792
3135.456,21.24807548522949,-216.30807495117188,-15.598772048950195,0.0757630616426467,-0.0155343152582645,0.8526408672332764,0.8365015387535095,-12.14230728149414,-128.97125244140625,5.135624408721924,-37.39694595336914,-6.816589832305908,-0.9998934864997864,0.2574082612991333,-0.0445134714245796,106.65777587890624,72.91996002197266,-0.2462827861309051,217.9082047338808,0.856141229550548,38.35846844763969,1.0334541337030918,105.82127434015274,85.0622673034668,128.72496965527534
3157.831,19.24461555480957,-214.62191772460932,-20.763465881347656,0.1472618132829666,-0.0496652871370315,0.8223923444747925,1.303197741508484,-16.38788604736328,-129.47154235839844,13.302753448486328,-33.00006866455078,-4.171947956085205,-0.9883557558059692,0.2209121882915496,-0.0649771988391876,104.9226303100586,73.2193832397461,-2.294313430786133,216.48104838772213,0.8369479378363608,35.82419477007913,1.0148257640302285,103.61943256855012,89.60726928710938,127.1772289276123
3180.344,29.04045486450196,-213.02102661132807,-22.198755264282227,0.1855690628290176,-0.0168600231409072,0.8857759237289429,2.045820951461792,-20.56908798217773,-130.06170654296875,17.592252731323242,-37.03391647338867,-6.046360492706299,-0.9930797815322876,0.2652205526828766,-0.0369229055941104,102.91548919677734,73.53213500976562,-4.7252197265625,216.1344269952495,0.9051624851469564,41.44341685634087,1.0285488296678666,100.86966824531557,94.10122299194336,125.33648681640624
3207.827,31.255260467529297,-209.9066772460937,-22.91128158569336,0.2239394783973693,-0.0011175731196999,0.7782859206199646,2.9099152088165283,-24.681137084960938,-130.74313354492188,22.938962936401367,-43.43317031860352,0.7191043496131897,-0.9684395790100098,0.2780361473560333,-0.0075862752273678,100.37889862060548,73.69971466064453,-7.79883861541748,213.45404958277976,0.8098636386391412,49.12385790619513,1.0075896332344314,97.46898341178894,98.38085174560548,122.9442949295044
3215.603,28.578214645385746,-206.3426818847656,-21.954797744750977,0.3169689774513244,-0.0057676918804645,0.7394704818725586,3.78457260131836,-28.74239158630371,-131.4860076904297,22.40117645263672,-45.50196838378906,7.057779312133789,-0.9452581405639648,0.2508427202701568,-0.0120407007634639,97.62632751464844,73.71766662597656,-11.104660987854004,209.46605897788845,0.8045614908116099,51.205996544157685,0.9780490790803148,93.84175491333008,102.46005821228027,120.38134670257568
3237.842,26.029579162597656,-201.77423095703125,-22.297191619873047,0.4187163412570953,0.038514457643032,0.6332545280456543,4.739379405975342,-32.762481689453125,-132.345458984375,23.851896286010746,-51.870704650878906,7.570298194885254,-1.000901699066162,0.2352526932954788,-0.0315092653036117,94.54190826416016,73.70626831054688,-14.778948783874512,204.6644669301847,0.7601434306587077,57.59159984040039,1.0286597468046856,89.80252885818481,106.46875,117.56651020050047
3260.487,34.65934371948242,-196.71798706054688,-22.377065658569336,0.4629392325878143,0.0128199309110641,0.6698600053787231,5.954261779785156,-36.63941192626953,-133.31028747558594,21.72091293334961,-50.00320816040039,3.516352653503418,-0.9819991588592528,0.2218977063894271,-0.0274842679500579,91.58467864990234,73.7241439819336,-18.310312271118164,200.9974368187481,0.8143644825896706,54.630427611124254,1.0071327246624049,85.63041687011719,110.36355590820312,114.99997520446776
3280.469,38.97206497192383,-192.76226806640625,-19.280405044555664,0.5050566792488098,0.0467490851879119,0.7046308517456055,7.364623069763184,-40.39737701416016,-134.3523712158203,15.84674835205078,-54.55485153198242,4.414456844329834,-0.9651153683662416,0.3054395616054535,0.0147497318685054,88.15628051757812,73.62028503417969,-22.23843765258789,197.60528296825223,0.8682006470001501,56.98103797089273,1.0124023679548713,80.79165744781494,114.01766204833984,112.11393356323242
3303.659,46.66448974609375,-186.16217041015625,-11.31218433380127,0.5306458473205566,0.0711798295378685,0.6086183786392212,8.963818550109863,-44.03997802734375,-135.3559112548828,6.601517200469971,-56.45787811279297,0.4802627563476562,-0.9455024003982544,0.3038564324378967,0.0350203849375247,84.44615173339844,73.52250671386719,-26.2509822845459,192.2547627745156,0.8105972577236034,56.84454839878863,0.9937454141045984,75.48233318328857,117.56248474121094,109.10492897033691
3323.6330000000003,50.296871185302734,-182.89344787597656,-7.436366558074951,0.5798308849334717,0.0700393915176391,0.5611757040023804,10.7377347946167,-47.619388580322266,-136.44436645507812,-3.051362991333008,-62.64341735839844,-2.9610300064086914,-1.0143671035766602,0.2665808498859405,0.0413768552243709,80.17032623291016,73.42843627929688,-30.67319297790528,189.82910228566,0.8099552717585468,62.787548551780745,1.0496275598957336,69.43259143829346,121.04782485961914,105.77117347717284
3333.641,47.385780334472656,-177.75247192382812,-5.414047718048096,0.6606895327568054,0.096303753554821,0.4873533248901367,12.644906044006348,-51.11754608154297,-137.7102813720703,-6.414949893951416,-70.90467071533203,-8.703292846679688,-0.9632025957107544,0.2337085157632827,-0.0054995166137814,75.39293670654297,73.33013153076172,-35.54193115234375,184.03984722236515,0.8266186151573316,71.72427216616866,0.991165553985406,62.74803066253662,124.44767761230467,102.16835021972656
3353.439,46.925540924072266,-171.19247436523438,-1.8516020774841309,0.7422335147857666,0.1007181480526924,0.4770842790603637,14.680517196655272,-54.477325439453125,-139.09445190429688,-5.915624618530273,-77.32125091552734,-5.418840408325195,-0.9521188735961914,0.2887148261070251,0.0420586094260215,70.3840103149414,72.97590637207031,-40.68511581420898,177.51703608544605,0.8880676467167036,77.73631255172963,0.9958190231658264,55.70349311828613,127.45323181152344,98.40933609008788
3375.853,49.928558349609375,-163.2619171142578,4.524416923522949,0.7436085343360901,0.0995771735906601,0.4849636256694793,16.826234817504883,-57.65138244628906,-140.4918975830078,-5.975914001464844,-77.70956420898438,-3.2486112117767334,-0.9566693902015686,0.3097471594810486,0.0689568072557449,65.66120910644531,72.44313049316406,-45.55893707275391,170.78578649053614,0.8933414711409403,78.00667530736361,1.0079259229834925,48.83497428894043,130.09451293945312,94.9329605102539
3396.243,53.51128005981445,-155.6143798828125,7.92742919921875,0.7341005206108093,0.1482990384101867,0.4053888022899627,19.27859306335449,-60.66702651977539,-142.0943603515625,-7.17292594909668,-79.51248168945312,-4.372370719909668,-0.9325075149536132,0.3029516935348511,0.0455256290733814,61.17240524291992,71.81122589111328,-50.17360305786133,164.74870698630932,0.8516080437481423,79.95500757800706,0.9815409196580268,41.89381217956543,132.47825241088867,91.92075729370116
3412.642,52.44548034667969,-149.93345642089844,10.428078651428224,0.7751579880714417,0.1736921370029449,0.3647436201572418,22.004539489746094,-63.55461883544922,-143.97828674316406,-8.781614303588867,-82.73046875,-4.195631980895996,-0.9431344270706176,0.2983274757862091,0.0454577580094337,56.85806655883789,71.04818725585938,-54.64532852172852,159.18327357945554,0.8741148513628089,83.30096360241483,0.9902364556498804,34.8535270690918,134.6028060913086,89.33295822143555
3435.181,49.14025115966797,-139.5693817138672,12.008149147033691,0.8317239880561829,0.1763908565044403,0.3159669935703277,24.94337272644043,-66.23188781738281,-146.1255645751953,-8.051867485046387,-79.94340515136719,-2.980708837509156,-0.9152205586433412,0.3155106902122497,0.0854968130588531,53.07894515991211,70.1835708618164,-58.56523513793945,148.4539397993998,0.9070356484683074,80.40314186875034,0.9718463724503272,28.13557243347168,136.41545867919922,87.56032943725586
3457.6,47.50254821777344,-128.5690155029297,12.128129005432127,0.8188536167144775,0.1633430123329162,0.3179181516170501,28.141712188720703,-68.63539123535156,-148.55625915527344,-11.232867240905762,-71.45575714111328,-1.72311270236969,-0.9063172340393066,0.310712456703186,0.099114716053009,49.96299362182617,69.3348617553711,-61.68794250488281,137.59932902360703,0.8934618830213035,72.35379501067406,0.9632117557450476,21.82128143310547,137.97025299072266,86.86831665039062
3478.463,50.17505645751953,-119.58737182617188,12.420409202575684,0.794460654258728,0.1868999600410461,0.246745765209198,31.87330436706543,-70.82801818847656,-151.4508514404297,-15.92370319366455,-63.31337738037109,-2.8419430255889893,-0.8888266086578369,0.2914007306098938,0.0955028086900711,47.24949645996094,68.56770324707031,-64.27510833740234,130.28024545404335,0.8526328628883733,65.34695646217888,0.940238221157736,15.376192092895508,139.39572143554688,87.17574310302734
3500.334,55.09027862548828,-109.49110412597656,15.148963928222656,0.8186851739883423,0.2036663144826889,0.2163281738758087,36.02984619140625,-72.80516815185547,-154.65077209472656,-16.368026733398438,-53.25509262084961,-3.1354424953460693,-0.8940449953079224,0.2729361057281494,0.1049979478120803,45.04763412475586,67.91486358642578,-66.38579559326172,123.50195055082314,0.870932408729705,55.80186546023474,0.9406567601893576,9.01778793334961,140.72003173828125,88.26497650146484
3522.976,58.16440582275391,-97.74097442626952,17.620914459228516,0.8485770225524902,0.1893478780984878,0.1879080384969711,40.44764709472656,-74.55567169189453,-158.02969360351562,-16.170509338378906,-47.52308654785156,-6.079860210418701,-0.881857693195343,0.2809216976165771,0.1410705745220184,43.07313919067383,67.3523178100586,-68.19559478759766,115.09514678252134,0.889519540581447,50.56573768348903,0.9362109261462204,2.6254920959472656,141.90798950195312,89.83409881591797
3532.707,50.56199645996094,-85.16653442382812,20.16448211669922,0.8596071004867554,0.1945476531982422,0.155857652425766,44.81744766235352,-76.07595825195312,-161.48805236816406,-14.68216037750244,-43.76979064941406,-5.392207622528076,-0.8380637168884277,0.2985870242118835,0.1676882356405258,41.37472915649414,66.79193115234375,-69.74787139892578,101.07650770983771,0.8950222144683679,46.480493864509306,0.9053310714676632,-3.442718505859375,142.86788940429688,91.74018096923828
3554.971,38.825462341308594,-72.25814819335938,20.523611068725582,0.8674163818359375,0.2055473327636718,0.1016044169664383,49.05167007446289,-77.36100769042969,-165.02247619628906,-13.836055755615234,-39.49775695800781,-2.579216718673706,-0.8545989394187927,0.28773033618927,0.1753961443901062,39.98684310913086,66.25498962402344,-70.98627471923828,84.55693417839942,0.897209196916025,41.930437661300815,0.9186358914642028,-9.064826965332031,143.61599731445312,94.03620147705078
3577.655,35.37604522705078,-60.8232307434082,19.677722930908203,0.8572468161582947,0.1511893570423126,0.0686339065432548,53.14030838012695,-78.45365905761719,-168.46505737304688,-14.597824096679688,-28.365428924560547,-5.74055290222168,-0.8506582379341125,0.2676421403884887,0.1675865799188614,38.838993072509766,65.93429565429688,-71.94975280761719,73.06259476447445,0.8731786407281096,32.41370040669692,0.9073792012415768,-14.301315307617188,144.38795471191406,96.51530456542967
3600.189,33.800045013427734,-53.626346588134766,16.905315399169922,0.8833181858062744,0.160098522901535,0.0510371886193752,57.47540283203125,-79.35765075683594,-172.17715454101562,-14.257526397705078,-17.594314575195312,-8.04782485961914,-0.8532922863960266,0.2315806597471237,0.1837656795978546,37.88926696777344,65.8131103515625,-72.6966781616211,65.60501337585342,0.8991592456475721,24.03340278286225,0.9030543466425114,-19.58613586425781,145.17076110839844,99.48047637939452
3623.957,25.25381851196289,-40.221466064453125,15.52146339416504,0.9019420742988586,0.1747122406959533,0.0362721011042594,61.09566879272461,-80.03912353515625,-175.3271484375,-14.357821464538574,-8.76003646850586,-11.177726745605469,-0.8506148457527161,0.2217156738042831,0.1954806745052337,37.05769348144531,65.86384582519531,-73.3095932006836,49.96436237665321,0.9194234811870132,20.19472335380064,0.9005088283467438,-24.037975311279297,145.90296936035156,102.0175552368164
3633.021,12.281614303588867,-27.91952133178711,15.383068084716797,0.9008523225784302,0.16229909658432,0.0309717990458011,63.56205749511719,-80.573974609375,-177.56716918945312,-15.112728118896484,0.6471790671348572,-11.302397727966309,-0.8411676287651062,0.2433781921863556,0.2064675390720367,36.47872543334961,66.0478744506836,-73.63312530517578,34.16103782084594,0.9158794441317984,18.882732491399647,0.8996803703564246,-27.08333206176757,146.6218490600586,103.93404388427734
3657.547,2.2328906059265137,-15.621774673461914,16.24724006652832,0.90293949842453,0.1381826847791671,0.0206874329596757,64.62034606933594,-81.01603698730469,-178.5842742919922,-17.61727523803711,14.465083122253418,-11.49586009979248,-0.8162340521812439,0.2648747861385345,0.1988513469696045,36.24944305419922,66.44395446777344,-73.52681732177734,22.64946918110564,0.9136860303574644,25.529626240516272,0.8808737358235709,-28.37090301513672,147.45999145507812,105.05745697021484
3681.206,0.6924242973327637,-1.7884700298309326,15.677592277526855,0.8844028115272522,0.1165854483842849,0.0034487207885831,64.17195129394531,-81.3377456665039,-178.11000061035156,-17.811010360717773,29.431304931640625,-13.170148849487305,-0.8203185796737671,0.2611833810806274,0.1809307038784027,36.38156127929688,67.107666015625,-73.02584838867188,15.794460297063331,0.8920607566120992,36.83594196931119,0.8797017962449714,-27.79039001464844,148.4454116821289,105.08415222167967
3700.094,4.240283489227295,11.696110725402832,14.649457931518556,0.8769158720970154,0.1157109811902046,-0.0021048262715339,62.25132369995117,-81.51531219482422,-176.07940673828125,-17.386280059814453,41.74808883666992,-14.25102710723877,-0.8301594257354736,0.2495965510606765,0.1650872230529785,36.85867691040039,67.98802185058594,-72.1629409790039,19.21940758340976,0.8845195917543613,47.41600393795369,0.8824493762557601,-25.39264678955078,149.50333404541016,103.91646575927734
3722.821,-1.2999365329742432,25.46701431274414,11.190892219543455,0.8823509216308594,0.1479693502187729,-0.0065355794504284,58.89905548095703,-81.46363830566406,-172.7164306640625,-16.896169662475586,52.949462890625,-14.82988739013672,-0.8382232189178467,0.2410967051982879,0.1411962509155273,37.74021530151367,69.05709075927734,-70.88263702392578,27.84770585999346,0.8946959211406664,57.524357707609134,0.8835622033920798,-21.15884017944336,150.5207290649414,101.83379364013672
3742.868,-7.847021102905273,42.22121047973633,8.739349365234375,0.8545334339141846,0.1567602902650833,0.0013775394763797,53.92997741699219,-81.1378173828125,-167.85289001464844,-17.39735984802246,64.65887451171875,-14.99659252166748,-0.8466309309005737,0.2253429293632507,0.117722675204277,39.12153625488281,70.31082916259766,-69.06759643554688,43.82445187211427,0.8687940353709677,68.61731538077477,0.8839807674541538,-14.808441162109377,151.44864654541016,98.78529357910156
3753.022,-12.289795875549316,57.01091766357422,7.225203514099121,0.8416485786437988,0.1187400519847869,0.0431113913655281,47.85856628417969,-80.5348129272461,-161.96360778808594,-19.795225143432617,75.48060607910156,-15.064777374267578,-0.871349036693573,0.2201104164123535,0.0993348509073257,41.08501815795898,71.71472930908203,-66.60051727294922,58.76637968537502,0.8510758614506396,79.47402311374412,0.9041930942917104,-6.773548126220703,152.24954223632812,95.36309051513672
3772.663,-10.579619407653809,72.69868469238281,6.832999706268311,0.8677875399589539,0.0994968488812446,0.0648900792002677,41.39487457275391,-79.60977935791016,-155.6298065185547,-25.38677978515625,89.65023803710938,-16.682273864746094,-0.9044110178947448,0.2161927819252014,0.057213544845581,43.85210037231445,73.31948852539062,-63.19425201416016,73.78154910137874,0.8758798775082843,94.65702313758224,0.9316501478343484,2.457225799560547,152.92926788330078,92.43555450439452
3794.889,-12.915976524353027,87.15943145751953,4.358165264129639,0.8705392479896545,0.1154750287532806,0.0883105471730232,35.39128112792969,-78.30548095703125,-149.7849578857422,-28.16974830627441,103.83308410644533,-17.747684478759766,-0.947778820991516,0.2330431789159774,0.035352949053049,47.97711563110352,75.07308197021484,-58.35391616821289,88.21894663871899,0.8825938008494978,109.0404712895749,0.9766491938081352,12.585834503173828,153.3785629272461,91.4310417175293
3812.397,-14.20159149169922,104.421630859375,4.361466407775879,0.8715283870697021,0.1365819871425628,0.0984048619866371,29.91854286193848,-76.60688018798828,-144.47023010253906,-24.771211624145508,108.60940551757812,-10.893088340759276,-0.8898909091949463,0.2759076356887817,0.0483763515949249,53.95979309082031,76.61018371582031,-51.70416641235352,105.47314625749456,0.8876372488481636,111.92977827999802,0.9329368280290028,24.04125022888184,153.2170639038086,92.76606369018556
3836.447,-13.040393829345703,125.363525390625,4.550739288330078,0.8308879733085632,0.1008034721016883,0.1679460257291793,24.92164421081543,-74.42464447021484,-139.54090881347656,-24.83720588684082,101.46713256835938,-3.9267361164093018,-0.9289646744728088,0.2850485444068908,0.0554168485105037,61.06387710571289,77.74321746826172,-43.92976760864258,126.12206229546308,0.8536638868634386,104.53652492998918,0.973292898456418,36.14223289489746,152.16786193847656,95.61114120483398
3857.277,-13.450820922851562,144.15374755859375,-0.9861857891082764,0.7815908193588257,0.0826665014028549,0.1800095736980438,21.03095054626465,-71.78041076660156,-135.75889587402344,-29.788864135742188,98.83001708984376,-4.035679817199707,-1.063993215560913,0.2754691541194916,0.0181277263909578,69.10811614990234,78.64189910888672,-35.17256546020508,144.78328660828237,0.8063010641088973,103.30070385076506,1.0992240136091758,48.077165603637695,150.42230987548828,100.58633041381836
3873.506,-11.61465835571289,154.28323364257812,-7.312277317047119,0.8092140555381775,0.1221437156200409,0.1746525466442108,18.39083671569824,-68.87353515625,-133.12326049804688,-23.46202278137207,97.05833435058594,0.3836278021335602,-1.0847731828689575,0.2400106489658355,-0.0284347292035818,78.3768539428711,79.18234252929688,-25.255765914916992,154.89249778956915,0.8368094090026248,99.85456399281068,1.1113714517268884,59.98601722717285,148.05587768554688,107.86749458312988
3894.772,-11.623968124389648,169.3240203857422,-8.956145286560059,0.8605984449386597,0.128001406788826,0.2455371916294098,16.244672775268555,-65.63343048095703,-131.0297088623047,-19.61604690551757,86.20459747314453,9.04157829284668,-0.9974433779716492,0.2222437262535095,0.0086856354027986,87.082763671875,79.2062759399414,-16.027820587158203,169.95868042833834,0.9040478726505669,88.86941014619158,1.0219398252249932,70.83809089660645,144.83970642089844,115.00188827514648
3917.388,-8.665728569030762,190.39215087890625,-10.438695907592772,0.7942219376564026,0.0858291685581207,0.3367463946342468,14.426788330078123,-61.92647933959961,-129.177734375,-20.39542579650879,75.96200561523438,14.89959716796875,-1.1054744720458984,0.2013070434331894,0.0407771468162536,94.3587646484375,78.89498138427734,-8.269149780273438,190.87491280988056,0.8669217189165541,80.05121914298081,1.1243936631729317,79.93197631835938,140.82146072387695,120.90858459472656
3939.735,-4.741971492767334,204.4163818359375,-13.728375434875488,0.7124676704406738,0.0689583793282508,0.3447370827198028,13.094295501708984,-57.92429733276367,-127.7255401611328,-10.974576950073242,69.1800537109375,17.336023330688477,-1.07133948802948,0.2256888598203659,0.0363379791378974,100.53494262695312,78.3668441772461,-1.7664363384246826,204.9317246026464,0.7944866869274146,72.15856758281342,1.0954561647031391,87.44064712524414,136.29114151000977,125.95910382270812
3963.972,2.14304780960083,211.5284881591797,-15.915026664733888,0.6970487236976624,0.0943384170532226,0.3933314383029938,12.236390113830566,-53.76465225219727,-126.634033203125,-24.829486846923828,53.18425750732422,25.050535202026367,-0.9396867752075196,0.1674597710371017,0.0694200992584228,104.11111450195312,77.6758041381836,2.374366044998169,212.1371773889755,0.8059071165451697,63.81690980919476,0.9570126230080536,91.87472438812256,131.44045639038086,129.00839924812317
3972.501,0.4314826726913452,215.7277984619141,-15.133475303649902,0.6691614389419556,0.0514544732868671,0.4061253070831299,11.472685813903809,-49.51856994628906,-125.60758209228516,-39.99660873413086,27.73733139038086,37.25069808959961,-0.9247194528579712,0.1516553163528442,0.1070272848010063,104.6277084350586,76.84125518798828,3.6839447021484375,216.2583900829913,0.7844503548609459,61.291947032652345,0.9431650126907288,93.1550226211548,126.35982513427734,129.2915267944336
3994.271,6.273166179656982,233.74929809570312,-18.71918296813965,0.6375924944877625,0.0035960995592176,0.4026194214820862,11.013153076171877,-44.860618591308594,-124.81067657470705,-33.86503219604492,23.53682518005371,45.33035659790039,-1.0102291107177734,0.1085149049758911,0.1120655909180641,104.84698486328124,75.86299896240234,4.5738630294799805,234.58153121067767,0.754081905043303,61.28347064656489,1.022202053124217,93.83383178710938,120.72361755371094,129.384539604187
4014.664,7.855128765106201,243.499252319336,-30.201690673828125,0.5553907155990601,-0.0277323983609676,0.4820655286312103,10.84508228302002,-39.98040390014648,-124.32686614990234,-4.943985939025879,40.12574768066406,43.31539535522461,-0.9524054527282716,0.0937098264694213,0.001831330358982,106.79113006591795,74.86042022705078,6.652843475341797,245.4907962583315,0.7359450433197955,59.25151558126608,0.9570062861519544,95.94604778289796,114.84082412719728,130.97970962524414
4037.273,10.142169952392578,246.9984436035156,-34.506614685058594,0.4144858121871948,0.0526716522872448,0.6648251414299011,10.81844711303711,-34.984806060791016,-123.96471405029295,-0.6270030736923218,37.11816787719727,43.4951286315918,-0.9472370743751526,0.0867662876844406,0.0066056405194103,108.35633850097656,73.81544494628906,8.260260581970215,249.60328766049017,0.7852166962924534,57.183719134845845,0.9512255769458732,97.53789138793944,108.80025100708008,132.22497463226318
4057.05,7.239979743957519,244.83074951171875,-36.70083999633789,0.276401549577713,0.0599663481116294,0.707690954208374,10.83637523651123,-30.039276123046875,-123.72874450683594,-7.544222354888916,16.85059356689453,34.057071685791016,-1.0249546766281128,0.1130400747060775,0.0693235322833061,108.5545425415039,73.0601577758789,8.612913131713867,247.67209142250903,0.7621156514487581,38.73941050542433,1.0334969277939965,97.71816730499268,103.09943389892578,132.3416576385498
4079.649,3.560340881347656,233.58834838867188,-39.66231536865234,0.2863647937774658,-0.0309985149651765,0.7395590543746948,10.840299606323242,-25.30817985534668,-123.5617904663086,-3.54883885383606,15.390344619750977,21.575313568115234,-1.0526713132858276,0.1457292735576629,0.0959897637367248,108.95947265625,72.56173706054688,9.098713874816896,236.95841785119467,0.7936707742841799,26.73856989982246,1.0670369954827177,98.11917304992676,97.86991691589355,132.6605043411255
4102.407999999999,6.781051635742188,236.57977294921875,-37.42691040039063,0.3525039255619049,0.060850229114294,0.6855483055114746,10.857797622680664,-20.56285285949707,-123.3747100830078,6.539900779724121,35.84054946899414,4.035913467407227,-0.9858877658843994,0.1920107901096344,-0.0295678433030843,111.05669403076172,72.30677795410156,11.164143562316896,239.6179151317976,0.7732646682148805,36.65520271345463,1.0048467981720668,100.19889640808104,92.86963081359865,134.5388536453247
4112.468,13.366872787475586,238.7835693359375,-34.56880187988281,0.1967735737562179,0.1478146463632583,0.972107708454132,11.036935806274414,-15.733585357666016,-123.13204956054688,-2.0836191177368164,37.74491500854492,6.109641075134277,-1.0143780708312988,0.2372838258743286,-0.0668978467583656,112.99314880371094,71.95209503173828,13.238243103027344,241.64285285589887,1.0027773460964466,38.29292090840089,1.043906991309998,101.95621299743652,87.6856803894043,136.37029266357422
4135.316000000001,0.4084272384643554,223.13327026367188,-34.47784423828125,-0.0466466881334781,0.1043035686016082,1.1627483367919922,11.001816749572754,-11.22356128692627,-122.91007995605467,-13.370580673217772,32.69310760498047,5.122250556945801,-1.1011970043182373,0.2920621335506439,0.0130266062915325,114.25057983398438,71.63484954833984,14.861298561096191,225.7816309062567,1.1683487675559026,35.691023565848994,1.1393440326104705,103.24876308441162,82.85841083526611,137.77137851715088
4162.078,-16.75898551940918,207.0368804931641,-32.15972137451172,-0.0354581102728843,0.1160610169172287,0.92051899433136,10.64503574371338,-7.009356498718262,-122.76190948486328,-18.627065658569336,25.44215202331543,1.8955999612808228,-1.071993708610535,0.3248539566993713,-0.0130550563335418,115.13994598388672,71.38949584960938,16.22361946105957,210.18891778318545,0.9284840634910236,31.588985008058653,1.1202102655214676,104.49491024017334,78.39885234832764,138.98552894592285
4182.156,-8.031694412231445,209.8636779785156,-30.46949005126953,0.0748295038938522,0.1224833875894546,0.7972816824913025,10.45099639892578,-2.7754197120666504,-122.54298400878906,-10.829066276550291,38.7308349609375,7.578226089477539,-0.9040515422821044,0.3161680996417999,-0.1506735682487487,116.7577896118164,70.89030456542969,18.17654228210449,212.21607213824777,0.8100985842010531,40.92402428716579,0.9695225538906092,106.30679321289062,73.66572427749634,140.71952629089355
4192.645,-5.252506256103516,210.1239318847656,-38.19392776489258,-0.0726113617420196,0.1555938720703125,1.3612453937530518,10.33352279663086,1.503225564956665,-122.53660583496094,-7.534860134124756,27.916059494018555,11.041803359985352,-1.1165839433670044,0.3169999122619629,-0.1588707268238067,117.72748565673828,70.45346069335938,19.40199279785156,213.631532529245,1.3720316632256575,30.95160603837852,1.1715325666837548,107.39396286010742,68.95023512840271,141.9385986328125
4215.057,-34.216094970703125,187.0680389404297,-46.3299674987793,-0.3334797322750091,0.1541248857975006,1.180131196975708,9.6337251663208,5.346832275390625,-122.7718276977539,2.754513740539551,15.03558349609375,11.208364486694336,-1.1023316383361816,0.2854586243629455,-0.0434788055717945,118.1352996826172,70.14450073242188,19.82308578491211,195.7336410444057,1.2359906368316962,18.95477648196936,1.1395227394106997,108.5015745162964,64.79766845703125,142.59491348266602
4237.147,-27.30013084411621,176.67666625976562,-42.16212463378906,-0.3694235980510711,0.1336424052715301,0.9845946431159972,9.054329872131348,8.968685150146484,-123.01134490966795,13.60521411895752,1.3288822174072266,7.680072784423828,-1.133910059928894,0.1867640167474746,0.0624888092279434,118.27233123779295,69.9962387084961,19.72357940673828,183.6779417850865,1.0600757984863522,15.679645950864764,1.1508856038887294,109.21800136566162,61.02755355834961,142.73492431640625
4252.517,-41.83271408081055,177.78909301757812,-52.48892593383789,-0.1985848695039749,0.1902386099100113,0.7752460241317749,8.173333168029785,12.67300510406494,-123.51609802246094,46.02047729492188,12.89495849609375,4.727745056152344,-0.8715146780014038,0.2643153369426727,-0.1751409769058227,119.7553939819336,69.77320861816406,20.372488021850582,190.03690407146664,0.8225770948844422,48.026199707913314,0.92740217441331,111.5820608139038,57.10020351409912,143.88858604431152
4275.131,-35.8949089050293,183.94688415527344,-46.5984001159668,-0.2067566812038421,0.0505010336637496,1.1462340354919434,7.336288928985596,16.419496536254883,-123.91720581054688,45.06695556640625,10.748701095581056,12.107122421264648,-0.8120246529579163,0.2955324649810791,-0.1668597757816314,120.82003021240234,69.43244934082031,20.60497283935547,193.1225299365708,1.1658263780442095,47.88681940356939,0.8800941197639679,113.48374128341676,53.01295280456543,144.52217864990234
4297.156,-59.18678283691406,169.87173461914062,-50.553741455078125,-0.4293787777423858,0.1399909257888794,1.344165921211243,5.947775840759277,19.91083335876465,-124.56119537353516,15.594072341918944,-0.3283420503139496,26.0557861328125,-1.0394718647003174,0.3775292634963989,0.0061131343245506,120.356201171875,68.9881820678711,19.85815048217773,186.85599337513003,1.4180076226256475,30.36753022071222,1.105923809632001,114.40842533111572,49.077348709106445,144.4193458557129
4312.109,-41.79481506347656,160.55406188964844,-37.22600555419922,-0.6463515162467957,0.1425046771764755,0.7775828838348389,4.938770294189453,23.17631149291992,-124.99266052246094,14.19300365447998,-14.879315376281738,21.11250114440918,-1.2425129413604736,0.1765545755624771,-0.0065170498564839,119.41000366210938,68.77967071533203,18.61877822875977,170.02996455030078,1.0211331973864173,29.47156397912427,1.2550109161035747,114.47123336791992,45.60335922241211,143.6114387512207
4335.633,-38.20500564575195,156.91477966308594,-47.45381546020508,-0.472261518239975,0.0116230621933937,0.6950621604919434,3.850440502166748,26.39470863342285,-125.76874542236328,36.63890838623047,-26.99887466430664,-2.9448156356811523,-1.0510797500610352,0.0809496194124221,-0.0674246251583099,119.0082550048828,69.10507202148438,17.463560104370117,168.3262758301209,0.8404031438142088,45.60724481923547,1.0563463267078286,115.15781450271606,42.71036338806152,143.2323055267334
4356.9800000000005,-38.68577575683594,171.0206298828125,-31.432861328125,-0.3539051413536072,0.0207354668527841,0.9169747829437256,2.832134962081909,29.77876663208008,-126.23748779296876,33.88124465942383,-10.765131950378418,-19.70022392272949,-0.8635057806968689,0.2841089367866516,-0.1188929751515388,119.63921356201172,69.56777954101562,17.47104263305664,178.13666063642057,0.983118284448424,40.64388795608114,0.9167855042480412,116.8070785999298,39.78901290893555,143.7085304260254
4379.473,-45.21078109741211,171.91407775878906,-22.640012741088867,-0.5732748508453369,0.0436480268836021,1.16630220413208,1.7359873056411743,33.18386459350586,-126.6084213256836,-0.4450194835662842,-17.303932189941406,-10.058272361755373,-0.8985797166824341,0.3972690999507904,-0.0822552144527435,118.87547302246094,69.88357543945312,16.74520492553711,179.1955218079117,1.3003115150708784,20.019814047040896,0.9859179303134016,117.13948571681976,36.69971084594727,143.3536262512207
4402.526,-62.36457824707031,164.31655883789062,-14.1993989944458,-0.7167218327522278,0.1424525380134582,0.6909577250480652,0.342418223619461,36.48301315307617,-126.85691833496094,-24.37508583068848,-28.363842010498047,-5.587071895599365,-1.0219403505325315,0.3438616991043091,-0.1960238516330719,117.11363983154295,70.24618530273438,15.442947387695312,176.32610430694712,1.0056865758941926,37.813591673054816,1.0959143664386013,116.77122160792352,33.7631721496582,142.29986572265625
4412.16,-42.67425537109375,159.25009155273438,-7.125540733337402,-0.7429475784301758,-0.0640049874782562,0.6695598363876343,-0.6596205234527588,39.70428466796875,-127.066650390625,-11.913052558898926,-20.661800384521484,-4.842461109161377,-1.08692467212677,0.1823415160179138,-0.0424817502498626,115.96432495117188,70.52237701416016,14.527510643005373,165.02259560973476,1.0021866678522466,24.33680845950514,1.1029317161301917,116.62394547462463,30.818092346191406,141.59416103363037
4435.702,-16.462411880493164,167.6041259765625,0.7710407376289368,-0.720380961894989,-0.1216719895601272,0.7174134254455566,-1.1051254272460938,43.09421920776367,-127.19202423095705,19.12763786315918,-50.81416320800781,-19.34453582763672,-0.957874059677124,0.0884847417473793,-0.1880451440811157,114.16411590576172,71.30490112304688,12.25108814239502,168.4124358624075,1.0239310652157187,57.638153849173,0.980159803265224,115.2692413330078,28.210681915283203,139.44311237335205
4456.84,3.6911680698394775,171.27090454101562,3.660598993301392,-0.836849570274353,-0.0458775125443935,0.8866814970970154,-1.0408741235733032,46.50807189941406,-127.1662826538086,37.23319625854492,-58.637672424316406,-20.56106758117676,-1.0788249969482422,0.1851616650819778,-0.0870229303836822,112.13578033447266,72.19829559326172,9.3651704788208,171.3497810007566,1.220092630385019,72.43925062455077,1.0980533715028922,113.17665445804596,25.690223693847656,136.5314531326294
4479.252,1.3047808408737185,169.14732360839844,5.493034362792969,-0.93744957447052,0.0667859986424446,0.5448464155197144,-0.957034945487976,49.90413665771485,-127.15266418457033,49.526954650878906,-78.87379455566406,-23.69795608520508,-1.1410503387451172,0.1944411247968673,-0.0133386636152863,108.8729019165039,73.24967193603516,4.952814102172852,169.24152257480372,1.0863377425065874,96.10196578226495,1.1575755467828694,109.82993686199188,23.345535278320312,132.10547828674316
4501.964,21.13361930847168,173.36093139648438,15.125926971435549,-0.9550582766532898,-0.0509750396013259,0.5232263803482056,-0.2042010277509689,53.40865707397461,-126.69081115722656,73.6484603881836,-87.69918060302734,-30.568920135498047,-0.9590208530426024,0.243186816573143,-0.1562035381793975,105.31632995605467,74.35858154296875,-0.2807534039020538,175.2981348060417,1.090183751281679,118.5314341187295,1.0016288582430637,105.52053098380566,20.94992446899414,126.41005775332452
4516.133,41.55551528930664,185.6012115478516,21.82541275024414,-0.9601523876190186,-0.0260986015200614,0.6036109328269958,1.2768679857254028,57.14730072021485,-125.90648651123048,62.169464111328125,-88.32892608642578,-35.57474136352539,-0.7984622716903687,0.2934170961380005,-0.2412570714950561,100.82036590576172,75.4505386352539,-6.181750297546387,191.44455913059704,1.134424921570432,113.72160601465627,0.8842174880454307,99.54349792003632,18.303237915039062,119.72473621368408
4534.771,38.67183303833008,182.70407104492188,14.0192232131958,-1.1094602346420288,-0.0077834133990108,0.5986447334289551,2.7050228118896484,60.82123947143555,-125.13709259033205,43.52428436279297,-54.70246887207031,-20.4052677154541,-0.8655926585197449,0.3048771619796753,-0.1609564423561096,97.86101531982422,76.00982666015625,-10.137057304382324,187.2774061824697,1.2606895377682446,72.82237554853893,0.9317229796006946,95.15599250793456,15.188587188720703,115.0000352859497
4559.090999999999,42.25226211547852,171.71157836914062,7.893349647521973,-1.1794308423995972,0.0598425343632698,0.3510966897010803,4.248116970062256,64.2412338256836,-124.39025115966795,31.48415184020996,-38.34677505493164,-14.93492317199707,-1.0028899908065796,0.2677223086357116,-0.2108210325241089,95.63870239257812,76.3886489868164,-13.07947826385498,177.00967422306235,1.2320337359185825,51.81485216001662,1.0592020940102922,91.39058542251588,12.147415161132812,111.310772895813
4579.27,60.27651977539063,163.0723114013672,12.5407133102417,-1.2487742900848389,0.0124879954382777,0.3292325139045715,6.6873555183410645,67.54973602294922,-123.09471130371094,32.312278747558594,-27.51421546936035,-19.5119743347168,-0.9293315410614014,0.3460868597030639,-0.3233717679977417,94.13011932373048,76.82585144042969,-15.29682731628418,174.30750721740932,1.2915057978262752,46.71009048581433,1.0430735966405595,87.4427638053894,9.276115417480469,107.79788398742676
4601.82,58.672149658203125,147.998779296875,10.036683082580566,-1.2875674962997437,0.0635263249278068,0.4033300578594208,9.471644401550291,70.49174499511719,-121.37944793701172,21.53798484802246,-4.547536373138428,-22.899978637695312,-0.8443242311477661,0.4204498529434204,-0.3384381234645843,94.3140640258789,77.29130554199219,-15.588008880615234,159.52051537711336,1.350755635583027,31.764349513024246,1.002098722460836,84.84241962432861,6.799560546875,105.79143905639648
4621.5960000000005,34.575252532958984,119.84615325927734,-0.6201350092887878,-1.2804994583129885,0.0942960157990455,0.3494089841842651,11.484532356262209,72.8828125,-120.04655456542967,9.464455604553224,14.31625747680664,-16.537988662719727,-0.8792845606803894,0.4169701933860779,-0.2852833569049835,95.90963745117188,77.59706115722656,-14.182429313659668,124.73545248322075,1.3306604523935135,23.83351038015649,1.014096679094407,84.42510509490967,4.7142486572265625,105.86412525177002
4631.598999999999,20.87754249572754,90.12718963623048,-6.291726589202881,-1.235446572303772,0.11578269302845,0.2775834798812866,12.872417449951172,74.70457458496094,-119.08991241455078,-4.864515781402588,27.26507568359375,-13.641972541809082,-0.9079846143722534,0.3606323301792145,-0.2028126567602157,98.43704223632812,77.80133819580078,-11.523933410644531,92.72738492947614,1.2715291791087864,30.87314821412101,0.997809957481562,85.56462478637695,3.096763610839844,107.56597900390624
4655.092,21.73069953918457,62.586387634277344,-8.6298246383667,-1.178797960281372,0.1367598623037338,0.2375640571117401,13.91746711730957,75.98829650878906,-118.52935028076172,-21.63158798217773,37.60078811645508,-14.041550636291504,-0.936864972114563,0.261716216802597,-0.1283884048461914,101.8798370361328,77.9021224975586,-7.605754375457764,66.81132458542714,1.210249797493166,45.59506563084194,0.981170187384245,87.96236991882324,1.9138259887695312,110.92359590530396
4679.054,16.66048812866211,37.43105316162109,-12.046682357788086,-1.096750259399414,0.1949646472930908,0.3038483262062073,14.280996322631836,76.73974609375,-118.5705337524414,-22.433181762695312,39.13824462890625,-8.746359825134277,-0.9968501329421996,0.2057793736457824,-0.0539624243974685,105.16682434082033,77.89105987548828,-3.821871042251587,42.70571579195036,1.1546411349528107,45.95159025344996,1.0192974450138603,90.88582801818848,1.1513137817382812,114.74866271018982
4691.841,-2.674821853637696,16.099260330200195,-12.62468147277832,-1.0632812976837158,0.1799511909484863,0.3789280652999878,13.695703506469728,77.03511047363281,-119.14226531982422,-16.095008850097656,33.791446685791016,-1.2650151252746582,-1.0440527200698853,0.210264503955841,0.0054857092909514,107.70201873779295,77.73758697509766,-0.9170508980751038,20.63306660235864,1.1430380692696709,37.45011938926967,1.0650292657554283,94.00631523132324,0.7024765014648438,118.22521442174911
4724.653,-15.835866928100586,1.8906474113464355,-9.846537590026855,-1.0473272800445557,0.1535123437643051,0.37988942861557,12.72881031036377,77.0360107421875,-119.83946228027344,-12.88131618499756,25.37713050842285,2.620208501815796,-1.0616480112075806,0.2248613238334655,0.0138360252603888,109.34695434570312,77.5386962890625,1.0044227838516235,18.743092901395777,1.124622803071057,28.57958278373556,1.085288233720497,96.61814403533936,0.502685546875,120.84388506412506
4738.857,-14.800440788269045,-6.237608909606934,-7.371087074279785,-1.0298892259597778,0.1302041262388229,0.3788153231143951,11.807307243347168,76.86470794677734,-120.5101318359375,-13.39406967163086,19.88406562805176,0.5360745191574097,-1.030850887298584,0.209848865866661,-0.0130562949925661,110.58909606933594,77.40750885009766,2.5663630962371826,17.67183457066301,1.1050456919349123,23.980503417552782,1.0520744104809006,98.78178882598876,0.5428009033203125,123.07649493217468
4759.249,-14.533123970031738,-10.530966758728027,-6.021207332611084,-1.034432888031006,0.1019898131489753,0.3867540657520294,10.896100044250488,76.60305786132812,-121.1720199584961,-14.638911247253418,17.91213035583496,-1.3079192638397217,-0.9850805401802064,0.1783321797847747,-0.0583137832581996,111.7978744506836,77.32120513916016,4.107122898101807,18.93060725238457,1.1090680904263974,23.17008392712702,1.002789376841618,100.9017744064331,0.7181472778320312,125.2791428565979
4779.122,-23.09477996826172,-16.49985694885254,-4.916775703430176,-1.0232808589935305,0.117878645658493,0.375525414943695,9.896736145019531,76.22239685058594,-121.75330352783205,-15.714961051940918,18.209184646606445,3.1631064414978027,-0.9340137839317322,0.2219213098287582,-0.1498278826475143,112.99822998046876,77.09444427490234,5.6550374031066895,28.80605534315418,1.0963660103968256,24.25983612307537,0.9716373864509442,103.10149383544922,0.8720474243164062,127.40834093093872
4791.637,-33.443965911865234,-26.2199821472168,-1.7602472305297852,-1.024617314338684,0.1195451393723487,0.3930893540382385,8.865211486816406,75.63296508789062,-122.16050720214844,-11.798529624938965,21.893829345703125,9.046597480773926,-0.9139598608016968,0.2755347788333893,-0.187767744064331,114.32746124267578,76.68560028076172,7.257130146026611,42.53333739582352,1.1039252336315044,26.464806644078827,0.9728816820222436,105.46224975585938,1.0526351928710938,129.41763734817505
4815.383,-37.65124130249024,-39.9759407043457,-3.135984182357788,-1.0445268154144287,0.0906701833009719,0.3739360272884369,7.521438121795654,74.79443359375,-122.79315948486328,-4.696732044219971,27.563907623291016,13.285902976989746,-0.9214016199111938,0.2571320235729217,-0.1895054280757904,115.98209381103516,76.1568832397461,9.043914794921877,55.00478346114734,1.1131421754492543,30.957123788790653,0.9751974825602588,108.4606556892395,1.3624496459960938,131.83707427978516
4836.868,-32.222923278808594,-53.83370971679688,-2.221899032592773,-1.0635801553726196,0.0997197404503822,0.3570512533187866,6.366422176361084,73.69520568847656,-123.34274291992188,-11.11054515838623,34.453697204589844,13.737144470214844,-0.9006065130233765,0.2431696951389312,-0.2184847444295883,117.90252685546876,75.54570770263672,11.251654624938965,62.77994840564439,1.126335816279698,38.71964104918402,0.9581018607029989,111.53610467910768,1.850502014160156,134.59439754486084
4859.082,-33.663753509521484,-68.19573974609375,-2.259136438369751,-1.0733981132507324,0.1056096032261848,0.3806489706039428,5.211618423461914,72.30989074707031,-123.8448715209961,-15.781652450561523,40.248870849609375,21.20847511291504,-0.9182487726211548,0.3041819036006927,-0.2099086344242096,119.5580825805664,74.71424865722656,13.284659385681152,76.08554999021786,1.143779059366653,48.154247739467245,0.9898328513967573,114.34646415710448,2.40435791015625,137.12953090667725
4881.522999999999,-38.52898406982422,-85.07701110839844,-3.9406485557556152,-1.092565655708313,0.0679149702191352,0.4343406856060028,3.8579177856445312,70.58301544189453,-124.42262268066406,-13.160699844360352,43.79021072387695,27.31640815734864,-0.9668540954589844,0.2972683310508728,-0.2106036245822906,121.05662536621094,73.74906921386719,15.130306243896484,93.47785376029609,1.177694351852761,53.26323995265175,1.033213041554732,117.1987075805664,3.166053771972656,139.55292892456055
4891.838,-34.35084915161133,-99.29729461669922,-3.282175064086914,-1.1112436056137085,0.0446632653474807,0.4316292703151703,2.7191593647003174,68.591552734375,-124.84249114990234,-18.041278839111328,45.61554718017578,24.3259506225586,-1.0000503063201904,0.2653590440750122,-0.178775206208229,122.44621276855467,72.8420639038086,16.98296356201172,105.12233934223322,1.1929631114505013,54.75415747126941,1.0499888627020315,119.72705340385436,4.250511169433594,141.82545471191406
4916.779,-16.826560974121094,-109.93718719482422,-1.853618025779724,-1.1291180849075315,0.0492014735937118,0.501122236251831,2.106486320495605,66.3782730102539,-125.1436767578125,-26.44473457336425,47.56661224365234,17.19756507873535,-1.0076017379760742,0.2573123574256897,-0.1584243476390838,123.82160949707033,72.04041290283203,18.999950408935547,111.23288264857264,1.2363057592420577,57.07593916556259,1.0519359227544425,121.7151231765747,5.662139892578125,144.14362716674805
4937.4710000000005,-14.540752410888672,-122.59637451171876,-2.5648086071014404,-1.1165515184402466,0.0627518147230148,0.5125692486763,1.5852028131484983,63.92753601074219,-125.36524963378906,-29.57017707824707,45.45690155029297,16.20952796936035,-0.9995360374450684,0.268618494272232,-0.1878470182418823,124.94287109375,71.25929260253906,20.8443660736084,123.48231763002924,1.230183855474798,56.59924087813715,1.0519100189079085,123.3576682806015,7.331756591796875,146.20961570739746
4958.986000000001,-13.82366943359375,-132.71253967285156,0.9178497195243835,-1.0846571922302246,0.0313393473625183,0.6035658121109009,1.235079050064087,61.25415802001953,-125.44966888427734,-32.05295944213867,41.6065673828125,14.599839210510254,-0.9926496744155884,0.2554503381252289,-0.2066782861948013,125.8043212890625,70.54582214355469,22.455219268798828,133.43370815178264,1.2416743006517266,54.51287887602943,1.045621425445217,124.5692422389984,9.291664123535156,147.90488815307617
