Timestamp (ms),Wrist Gyroscope X (deg/s),Wrist Gyroscope Y (deg/s),Wrist Gyroscope Z (deg/s),Wrist Accelerometer X (g),Wrist Accelerometer Y (g),Wrist Accelerometer Z (g),Wrist Roll (deg),Wrist Pitch (deg),Wrist Yaw (deg),Arm Gyroscope X (deg/s),Arm Gyroscope Y (deg/s),Arm Gyroscope Z (deg/s),Arm Accelerometer X (g),Arm Accelerometer Y (g),Arm Accelerometer Z (g),Arm Roll (deg),Arm Pitch (deg),Arm Yaw (deg),Wrist Gyroscope Magnitude (deg/s),Wrist Accelerometer Magnitude (g),Arm Gyroscope Magnitude (deg/s),Arm Accelerometer Magnitude (g),Difference Roll (deg),Difference Pitch (deg),Difference Yaw (deg)
0.0,-0.399029,0.711335,0.872904,-0.908313,0.44771,-0.05473,97.725372,62.864948,-62.801899,-1.9938,5.890354,0.516935,-0.945538,0.159282,0.278061,28.498272,73.798775,174.962662,1.194647654449629,1.014136146170227,6.240090582639086,0.9983640541851454,-69.2271,10.933827000000008,237.764561
19.985,-0.6091385,-0.0400479999999999,0.4557885,-0.9115925,0.4465599999999999,-0.053978,97.6978225,62.870836,-62.8206885,-4.6785415,10.099605,2.3023860000000003,-0.94082,0.182118,0.2645079999999999,28.848463,73.891739,175.398186,0.7618377197399063,1.0165285751715245,11.366255012810653,0.9941195704682612,-68.84935949999999,11.020903,238.2188745
39.97,-1.3251986666666666,-1.841727,0.0069299999999999,-0.906785,0.443966,-0.061192,97.60899333333332,62.885953,-62.89947533333333,-6.459047333333333,13.779856666666667,3.478771333333333,-0.9457046666666667,0.1757689999999999,0.22598,29.311407666666668,74.03803766666667,175.968211,2.2689552383341787,1.0114886584856009,15.61107274333638,0.988088568052536,-68.29758566666666,11.152084666666669,238.86768633333332
59.955,-2.33646675,-3.7197015,-0.21431875,-0.8959662500000001,0.44842325,-0.06913625,97.45923025,62.900093,-63.033315,-9.37505825,15.60245575,3.265777,-0.94812475,0.162374,0.2153935,29.692421,74.20199975,176.50154125,4.397861827019963,1.0043001311080706,18.49307010843062,0.9857485568241086,-67.76680925,11.301906750000002,239.53485625
79.94,-3.0432588,-5.2170354,-0.3908996,-0.8968360000000001,0.4475851999999999,-0.060879,97.2537794,62.9197372,-63.2182956,-13.3600518,17.152670800000003,3.699939000000001,-0.9427662,0.1646384,0.2157796,30.0673836,74.3664628,177.09300539999998,6.052411501700027,1.0041681008656071,22.054356673355425,0.9810579730032064,-67.1863958,11.446725600000002,240.311301
99.924,-5.1114006,-8.6185526,-0.9150354,-0.8992979999999999,0.445443,-0.0469024,96.8113432,62.9637168,-63.6083324,-19.085881800000003,21.5067724,5.0779652,-0.9427202,0.1634961999999999,0.1991626,30.8880424,74.69042200000001,106.3315064,10.061965752073512,1.0046672056849273,29.199278650702727,0.9773014499842104,-65.9233008,11.7267052,169.93983880000002
119.909,-9.2177666,-12.9424404,-1.360659,-0.898982,0.4541045999999999,-0.0322144,96.105081,63.019458,-64.2036754,-24.2097356,24.615107,5.4317294,-0.9466668,0.1457139999999999,0.1806608,31.772641,75.0705428,35.74164739999999,15.947582183952171,1.007679210677942,34.950228535993595,0.9747045319864271,-64.33244,12.051084800000002,99.9453228
139.894,-15.428659399999995,-18.0001142,-1.8020302,-0.9048386,0.4619888,-0.015968,95.0622832,63.085607200000005,-65.0348758,-30.1133966,25.777274,4.788005,-0.9465482,0.1434918,0.171605,32.602832,75.4731108,-34.7848266,23.775932262184,1.0160814536243636,39.92755316244651,0.972621029803222,-62.4594512,12.3875036,30.25004919999999
159.879,-21.4232614,-24.4219048,-2.2247938,-0.9164462,0.4571083999999999,-0.005695,93.642169,63.16399679999999,-66.15099740000001,-36.51126000000001,26.925719200000003,5.033437600000001,-0.9503626,0.1631968,0.1599974,33.4742706,75.88337220000001,-105.14204399999998,32.56278966129148,1.0241358112428254,45.64429816853298,0.9774566154135744,-60.1678984,12.7193754,-38.9910466
179.864,-25.0079598,-31.67595,-2.2817916,-0.9183732,0.461503,-0.0015706,91.8691786,63.2315666,-67.5798586,-42.956001,27.5313306,5.467918,-0.963578,0.1653772,0.1504637999999999,34.3482146,76.2945156,-175.367224,40.42240015964845,1.0278116657596372,51.31364646732116,0.9891772012507568,-57.520964000000006,13.062949,-107.7873654
199.848,-27.0050298,-38.190096200000006,-2.0985784,-0.9184824,0.4765575999999999,0.014731,89.7940092,63.2674126,-69.2957368,-49.1220086,26.399791400000005,5.916088,-0.9758616,0.154899,0.1502728,35.117562,76.67684139999999,-173.5743744,46.82049886070298,1.034859443397276,56.07959354422723,0.9994405820134582,-54.676447200000005,13.4094288,-104.2786376
219.833,-26.5122106,-43.1505018,-1.3258526000000004,-0.9206794,0.4717735999999999,0.0322534,87.53407560000001,63.26195679999999,-71.2216538,-53.2854042,23.5309562,5.9854212,-0.9918588,0.1393934,0.1679712,35.6641714,77.002345,-171.92348639999997,50.66182982885125,1.035017472824918,58.5565151574537,1.0155927939535805,-51.86990420000001,13.740388200000002,-100.70183260000002
239.818,-22.3763108,-46.1238794,-0.1681208,-0.9170732,0.4669839999999999,0.0563981999999999,85.2398388,63.2008514,-73.27467039999999,-53.6276384,20.064876,6.1007028000000005,-1.0029098,0.1177456,0.1939744,35.9891044,77.260954,-170.4894836,51.26538598827998,1.030668747647604,57.58247497208208,1.0282597731656915,-49.2507344,14.060102600000004,-97.2148132
259.803,-16.9397284,-47.0405244,1.3815192,-0.9166778,0.4735716,0.0929568,83.015559,63.0691284,-75.3678298,-48.9352918,16.254326600000002,5.7584564,-1.0031834,0.0843368,0.2059838,36.1262198,77.46311019999999,-169.3403046,50.01673649282538,1.0359581149861417,51.884735104665566,1.0275791724885437,-46.8893392,14.393981800000002,-93.9724748
279.788,-12.8910928,-47.5857286,2.8549558,-0.9160446,0.4737921999999999,0.1187586,80.8736126,62.8701086,-77.4604872,-39.9081044,12.2935838,5.2155802,-1.0015734,0.0681058,0.204468,36.1868072,77.6105484,-168.4534852,49.38352572053785,1.0381331143181785,42.083147176412005,1.0244973590035262,-44.6868054,14.7404398,-90.992998
299.772,-9.1727048,-48.4212022,4.5950406,-0.9135624,0.4690948,0.1310108,78.827049,62.599993000000005,-79.5445998,-30.584407,9.1214546,4.4976582,-0.9980852,0.0766194,0.2031442,36.245491,77.71098479999999,-167.7609254,49.4961183726247,1.0352825796841365,32.23097601447306,1.0214265342691269,-42.581558,15.1109918,-88.2163256
319.757,-6.882840400000001,-50.009936,5.9120304,-0.9075234,0.4784832,0.149536,76.823216,62.2576094,-81.64637139999999,-23.4312256,6.785501000000001,4.394041,-0.991006,0.0937231999999999,0.1928136,36.3677484,77.77200020000001,-167.1522462,50.82636416414706,1.0367766922176636,24.7865478283842,1.0139299850577457,-40.4554676,15.5143908,-85.50587480000002
339.742,-7.1855862,-51.8727664,7.040028599999999,-0.9019204,0.4884247999999999,0.1663688,74.81047659999999,61.8462448,-83.7657578,-19.1354988,4.6984468,4.7940364,-0.9903334,0.1027925999999999,0.1880852,36.5180382,77.79290180000001,-166.6039064,52.83917623993979,1.039085064277531,20.27869575840016,1.0132633439680725,-38.2924384,15.946656999999998,-82.8381486
359.727,-8.5404162,-53.323579800000005,7.927280399999999,-0.8940916,0.4902153999999999,0.1863621999999999,72.78440859999999,61.375673600000006,-85.8825212,-16.167453799999997,2.3103278000000005,5.259505,-0.9970054,0.1025366,0.1955258,36.621177,77.76691600000001,-166.1637208,54.58190768099274,1.0365528434076865,17.15769709965799,1.0211580976687007,-36.1632316,16.3912424,-80.28119960000001
379.712,-10.3424694,-53.5876956,8.861602200000002,-0.8882346,0.4915496,0.2151682,70.7772294,60.8511848,-87.9479768,-12.8364022,-0.3369828,4.6439614,-1.0004342000000002,0.0912348,0.2070126,36.5611176,77.7044938,-165.9562836,55.291371718915066,1.037727839170059,13.6547851075127,1.0256932259791132,-34.21611179999999,16.853309000000003,-78.0083068
399.697,-12.1210382,-53.6126574,9.7178868,-0.8825962,0.4875674,0.2319735999999999,68.8154816,60.2804732,-89.9364106,-8.323421,-3.1736538,3.3785124000000004,-0.999083,0.0805635999999999,0.2080909999999999,36.323290400000005,77.6145982,-166.0216034,55.81822215364127,1.0346544219661753,9.527106676344566,1.0236987832438602,-32.49219119999999,17.334125,-76.08519279999999
419.681,-13.995142199999998,-53.30136660000001,10.505802200000002,-0.878065,0.4881176,0.2389364,66.92340019999999,59.668568400000005,-91.822226,-3.1682548,-5.6035248,2.3925602,-0.9963138,0.0821269999999999,0.2067722,35.9962068,77.4978012,-166.2839356,56.10054871827317,1.0326410503653825,6.867435691185038,1.020852964384333,-30.9271934,17.829232800000003,-74.46170959999999
439.666,-15.6706312,-52.9210328,11.1224748,-0.8754374,0.4848253999999999,0.2517714,65.096048,59.0226852,-93.6134888,1.2749640000000002,-6.899071599999999,1.4209886,-0.989486,0.0905364,0.2054474,35.645373,77.3695068,-166.662613,56.30198789120793,1.0319084977176416,7.158346928205736,1.0146368897727502,-29.450675,18.34682160000001,-73.04912420000001
459.651,-17.0234732,-53.2830612,11.6509096,-0.8696735999999999,0.481027,0.2571,63.3224792,58.341072800000006,-95.3325958,2.9971842000000004,-7.3432964,0.2371622,-0.9786334,0.1012906,0.1981094,35.2621156,77.2471862,-167.1116272,57.13691403236122,1.0265571368735205,7.934945561003644,1.0036087143963428,-28.0603636,18.9061134,-71.7790314
479.636,-17.8261106,-54.714225,12.0539944,-0.8638552,0.4810405999999999,0.254235,61.59159460000001,57.6182022,-97.0075364,2.3266418,-7.377163,-0.0473227999999999,-0.9718406,0.1193746,0.1893746,34.9042216,77.1256362,-167.5238038,58.79383826107366,1.020921789678524,7.7355048601546414,0.9972899207646088,-26.687373,19.507434,-70.5162674
499.62,-19.0764808,-55.73601599999999,12.0879246,-0.8550688000000001,0.4881297999999999,0.2652576,59.89248419999999,56.8585426,-98.62865,0.1835351999999999,-7.1738574,0.5602060000000001,-0.972606,0.1290452,0.1902558,34.5862376,76.99789580000001,-167.8524568,60.1376215060116,1.0196935562899474,7.198037644220111,0.9994060057417506,-25.3062466,20.13935320000001,-69.2238068
519.605,-21.104243,-55.8589476,11.8567746,-0.8433778000000001,0.484411,0.2854004,58.2136466,56.0785368,-100.186374,-1.6192422,-7.189641400000001,0.6192488,-0.9770948,0.1160772,0.1979736,34.210203,76.87099620000001,-168.2020508,60.87852005016055,1.0136042219594392,7.395698603861319,1.0036840692388418,-24.0034436,20.7924594,-68.0156768
539.59,-22.6029502,-54.4170744,11.7165194,-0.8226927999999999,0.4804305999999999,0.2949134,56.607379,55.295503800000006,-101.63420879999998,0.3345476000000001,-7.878436000000001,0.072199,-0.9853544,0.0933042,0.2068007999999999,33.7593156,76.74295359999999,-168.6659486,60.07818381783351,0.9973018189533998,7.885866382228573,1.0111357664614775,-22.8480634,21.447449800000005,-67.0317398
559.575,-22.9822756,-50.9955892,11.6484036,-0.8013239999999999,0.4792706,0.30629,55.1349456,54.53166180000001,-102.9242082,7.8801074,-9.5018906,-0.3265229999999999,-0.9916198000000002,0.082352,0.2163252,33.33805639999999,76.59185959999999,-169.2530794,57.13510668615229,0.9826667925092208,12.348628866373469,1.01827710953899,-21.7968892,22.060197800000005,-66.32887120000001
579.56,-22.1692554,-45.264214800000005,11.1556344,-0.7733909999999999,0.4743842,0.318954,53.8513092,53.8228262,-104.0159578,18.9218534,-11.7256142,-0.7009814,-0.9904558,0.0779902,0.234367,32.9946328,76.40093859999999,-169.98601079999997,51.621441333204096,0.961720157949619,22.27146019868206,1.0207904063708084,-20.8566764,22.5781124,-65.970053
599.544,-20.090725,-37.83774459999999,10.5862266,-0.7465022,0.4660946,0.3252524,52.8045814,53.19775539999999,-104.880124,29.9243782,-14.1146322,-1.061422,-0.979497,0.078412,0.2492561999999999,32.73656,76.16662,-170.8570708,44.12935917353663,0.9382424177470128,33.1031398731298,1.013751186431582,-20.0680214,22.9688646,-65.9769468
619.529,-17.0735074,-30.1520594,10.1112028,-0.730349,0.4579962,0.3184786,52.0124596,52.6699136,-105.5192552,37.55437020000001,-15.8266812,-1.8107496,-0.9575298,0.0973804,0.2489294,32.5605834,75.9046632,-171.80388779999998,36.09553660858516,0.9190205654246264,40.79330059015797,0.9941388768057308,-19.4518762,23.234749600000004,-66.28463260000001
639.514,-14.0496804,-24.0230966,9.697628,-0.7396826000000001,0.4594922,0.3153294,51.429010000000005,52.2274186,-105.9730866,36.7378614,-15.9723958,-1.5893958,-0.9433202,0.1248286,0.2405158,32.4560744,75.633928,-172.6649748,29.471116002307404,0.926118815869735,40.09132159017118,0.9814698309961646,-18.9729356,23.4065094,-66.6918882
659.499,-12.2464586,-21.1247618,9.1718218,-0.7730976,0.4599894,0.3222026,50.9452628,51.8386812,-106.3533586,27.3907488,-14.203402399999998,-0.2170418000000001,-0.9272046,0.1539666,0.2188968,32.4028532,75.379178,-173.28503700000002,26.083589179390334,0.9555546361589587,30.855094663668982,0.9650543472918816,-18.542409600000003,23.5404968,-66.9316784
679.484,-12.9247198,-23.5468246,8.4613832,-0.8202436000000001,0.4680352,0.330889,50.4048498,51.4402796,-106.79823,14.3357148,-9.876037,1.6811928000000005,-0.9043518,0.1966134,0.1745258,32.4145606,75.1830064,-173.570181,28.16196613002933,1.000671795395973,17.48928914744907,0.9417899246055036,-17.9902892,23.7427268,-66.771951
699.468,-16.4817568,-31.057698800000004,7.4518042,-0.8598307999999999,0.4868188,0.3240008,49.657331,50.9624368,-107.4254686,-7.8172744,-3.2463872,3.2449640000000004,-0.8940254,0.2355134,0.1321336,32.36752,75.089966,-173.4591978,35.94103988202074,1.0398452130306317,9.065241323788088,0.9339203743755032,-17.289811,24.1275292,-66.0337292
719.453,-19.907651,-41.3179026,6.2315724,-0.8956652,0.5029448000000001,0.3557311999999999,48.651973600000005,50.3629722,-108.3010926,-33.6715104,3.7601942,7.555721,-0.916567,0.2562996,0.1115678,32.3914656,75.0760712,-172.742462,46.28516110134358,1.087066837407673,34.71308964740625,0.9582441883184056,-16.260507999999998,24.713099,-64.4413694
739.438,-21.4743972,-53.7262782,5.911497,-0.9140538,0.5051138,0.4307084,47.39330600000001,49.5822608,-109.46839599999998,-51.81163,9.614714800000002,11.1251808,-0.9455356,0.2402584,0.1008936,32.5020636,75.1351762,-171.56024459999998,58.16019687989521,1.1296654487393336,53.85775145487349,0.9807860052829466,-14.8912424,25.5529154,-62.09184859999999
759.423,-23.8926614,-66.9076606,6.2401584,-0.9001758000000001,0.5251554,0.4934865999999999,45.9075608,48.5821296,-110.8728226,-59.5668252,14.0814566,11.9635498,-0.9707718,0.1988576,0.1138496,32.6235876,75.2701448,-170.20198059999998,71.31923928784526,1.1530974327585506,62.366822976660586,0.9974487275911278,-13.283973199999997,26.6880152,-59.32915799999999
779.408,-27.263952600000003,-77.1066634,7.970931,-0.8612498000000001,0.5379816,0.5559377999999999,44.274041800000006,47.3707946,-112.3893602,-62.45257160000001,16.5173572,11.509879800000002,-0.9986774,0.14976,0.1522678,32.7421728,75.4515962,-168.7861908,82.17235784047277,1.1576883248126155,65.6172547531209,1.0212590708471578,-11.531869,28.0808016,-56.3968306
799.392,-28.920050000000003,-84.7107712,10.610611,-0.8166284000000001,0.5385333999999999,0.6411578,42.6014702,45.9680388,-113.9304796,-54.6067722,15.8341568,11.239308,-1.0256444,0.1182452,0.1963824,32.983761400000006,75.61573800000001,-167.4062408,90.1380558648486,1.1696082639512086,57.95638132240956,1.0509492897395951,-9.6177088,29.6476992,-53.4757612
819.377,-29.4270872,-91.096048,14.046873,-0.7553846,0.5348618,0.6961444,40.9602524,44.3758628,-115.43469559999998,-41.519968,12.636301800000002,8.7097598,-1.0283852,0.0904206,0.2261364,33.1478002,75.7465364,-166.3736816,96.75617842480573,1.1581450965521376,44.26560495097072,1.0568300127685435,-7.8124522,31.370673600000003,-50.938986
839.362,-30.759215,-95.1517274,17.7117558,-0.6878406,0.5358048,0.7100176,39.39654839999999,42.6354728,-116.8311892,-27.6346788,7.783111000000001,6.131393600000001,-1.0231982,0.0678766,0.2548472,33.2054258,75.81225140000001,-165.7366058,101.55632342763778,1.1244271728400912,29.357218476817785,1.0566403762201404,-6.191122599999998,33.1767786,-48.9054166
859.347,-30.4997164,-95.509665,21.2214952,-0.6224422,0.5246946000000001,0.7170758000000002,37.9782784,40.8138526,-118.0633944,-13.112784,0.9785212,5.025313800000001,-1.0237828,0.0752896,0.284636,33.208770599999994,75.7589676,-165.455786,102.48258714248132,1.0848670050082825,14.076803144108249,1.0652780847928864,-4.7695078,34.945115,-47.39239160000001
879.331,-27.269784800000004,-93.1796144,23.2024392,-0.568036,0.5123274,0.7185426,36.7588372,38.9826362,-119.13239919999998,-1.5335794000000007,-7.462330799999999,6.7363764,-1.0345076,0.097231,0.3069962,33.213532,75.5317504,-165.41289360000002,99.82201604656508,1.0494987994759784,10.169415604999628,1.0834696620732858,-3.5453052,36.549114200000005,-46.2804944
899.316,-23.6022808,-87.9662812,24.9094684,-0.521574,0.4926004,0.706137,35.753601200000006,37.20364300000001,-120.017241,6.3369386,-15.731584000000002,7.098521000000001,-1.0466812,0.0822786,0.3189158,33.0218184,75.16559579999999,-165.73273920000003,94.42253916883467,1.0066399824789198,18.385552109106406,1.0972778089167026,-2.7317828000000004,37.96195279999999,-45.7154982
919.301,-21.9548462,-79.2592264,26.6822532,-0.4842445999999999,0.4743426,0.668911,34.942724,35.5473442,-120.6806718,16.5299986,-22.974199,4.8679258,-1.034741,0.0537193999999999,0.3188504,32.6062656,74.7081206,-166.4944976,86.46376626669128,0.9523316967973502,28.718484900877147,1.0840850006330314,-2.3364584000000006,39.1607764,-45.8138258
939.286,-21.4422634,-67.6053582,27.0705954,-0.4572778,0.4541414,0.6264218,34.287649,34.089109,-121.12912,26.1788234,-28.8618254,2.335286200000001,-1.0031106,0.0721657999999999,0.3134756,32.0316574,74.175685,-167.6221526,75.91490138553688,0.8987500592945962,39.03574415410039,1.0534257118170982,-2.2559916000000024,40.086576,-46.49303260000001
959.271,-20.5360208,-55.420973200000006,26.5791216,-0.4517334,0.4275562,0.5946714,33.7621446,32.8595444,-121.398079,28.7612986,-32.3978338,-0.1168005999999994,-0.9720182,0.0957952,0.2984634,31.324221,73.60509479999999,-168.947171,64.80480017530135,0.8605239350604722,43.32257580604995,1.0213111683585174,-2.437923600000002,40.7455504,-47.549092
979.256,-19.0247948,-44.5384036,26.1488706,-0.4662218,0.4006242,0.5634606,33.3535616,31.831345,-121.5169174,26.8489574,-33.3843248,-4.660473,-0.940965,0.0909202,0.2797048,30.3539132,73.07019799999999,-170.51029359999998,55.039764226186,0.8338767080169827,43.09407922676431,0.9858581993045856,-2.9996484000000008,41.238853,-48.99337619999999
999.24,-16.865417400000002,-36.2622198,25.0479734,-0.5038326,0.3943048,0.5617179999999999,33.042663000000005,30.9792322,-121.530896,22.8326966,-31.9403536,-7.6395736,-0.8955886000000002,0.1033023999999999,0.2701688,29.2770954,72.5832992,-172.1065338,47.18889551946351,0.8513816275030839,39.99851630886453,0.941138410006286,-3.7655676,41.604067,-50.5756378
1019.225,-14.237703,-34.5714544,22.2528332,-0.572637,0.3992592,0.5923292,32.7663416,30.1940794,-121.567128,15.667993200000002,-27.2348942,-7.9246336,-0.8529014,0.1482704,0.2223404,28.2930068,72.17370279999999,-173.4636536,43.50961079433498,0.9155189368474472,32.40409373358077,0.8937897756800981,-4.473334799999999,41.9796234,-51.8965256
1039.21,-11.9687148,-39.1216354,19.178907400000003,-0.6406312,0.4074886,0.6015919999999999,32.4791872,29.3629798,-121.704538,4.139680199999999,-18.380647,-5.625189599999999,-0.8151019999999999,0.184804,0.1658166,27.536537,71.893611,-174.34570000000002,45.18387964077506,0.9686940838094346,19.66285570136823,0.8520791827380597,-4.942650199999999,42.5306312,-52.64116200000001
1059.195,-9.2956974,-48.1827264,17.280221599999997,-0.7004113999999999,0.4289156,0.6470832000000001,32.179809,28.38771,-121.9676926,-11.2285578,-5.3307478,-0.5700765999999995,-0.810922,0.220634,0.1223736,27.1429922,71.7997802,-174.52529280000002,52.02490914970184,1.0455914062842904,12.44276374866184,0.8492638871499011,-5.036816799999999,43.4120702,-52.5576002
1079.18,-8.8983692,-60.82251180000001,16.5138352,-0.722872,0.4649938,0.748921,31.8129248,27.209075,-122.3791352,-28.882952,9.4624768,4.474896800000001,-0.8473756,0.2488624,0.108414,27.1273512,71.9254378,-173.94002659999998,63.64955356554677,1.1400200992366054,30.72113417169836,0.8897929517618804,-4.6855736,44.7163628,-51.5608914
1099.164,-12.4040614,-76.23091919999999,16.0646944,-0.7021296,0.4922786,0.8460116,31.2975266,25.752636000000003,-122.9654984,-44.0658196,22.6721616,7.6464296,-0.9046212,0.240293,0.0974609999999999,27.3789562,72.269133,-172.756796,78.8865526402142,1.2045994448565382,50.142708884383325,0.941052011240314,-3.9185703999999992,46.516497,-49.79129760000001
1119.149,-16.056684,-91.068104,17.5105964,-0.6255676,0.5117462,0.9311634,30.6674556,24.0081162,-123.6643524,-53.9735904,32.6664076,9.5657198,-0.9612376,0.2099867999999999,0.1470128,27.8074796,72.773433,-171.1778288,94.1160860507616,1.2329980830819487,63.81023147935151,0.9948291025054704,-2.8599760000000005,48.7653168,-47.5134764
1139.134,-18.1271116,-106.3432374,20.3345676,-0.5340304,0.5375766000000001,1.0449221999999998,29.97988,21.9537968,-124.4519928,-55.4828778,38.362728,9.7476716,-1.00645,0.1806314,0.2126514,28.3997836,73.3690476,-169.3966582,109.7769144909374,1.290751514833339,68.1547190603348,1.0444088869250014,-1.5800964,51.4152508,-44.944665400000005
1159.119,-21.7943538,-121.8846726,22.805077800000003,-0.4279594,0.5551416,1.1130658,29.2161192,19.587319200000003,-125.3221908,-48.3040166,39.5547156,8.448019200000001,-1.0375462,0.1383644,0.266392,29.1595794,73.9862916,-167.594879,125.90051169805793,1.315388505054138,63.00176643788273,1.0800979224060197,-0.0565398000000008,54.398972400000005,-42.272688200000005
1179.103,-26.5806306,-137.0414124,25.341435,-0.334089,0.5547918,1.1362084,28.3739644,16.9032438,-126.252449,-34.445274,36.70269999999999,5.737941600000001,-1.0360668,0.0930336,0.2965172,29.963282600000003,74.5657458,-166.0363646,141.8769430300067,1.307814562351559,50.66052765250364,1.0816709826407658,1.5893181999999997,57.662502,-39.7839156
1199.088,-29.3799784,-151.4879424,29.0047208,-0.2541668,0.5393522,1.1454650000000002,27.512440000000005,13.9120354,-127.2048188,-17.281036800000003,32.4065762,4.244890800000001,-1.0204988,0.075659,0.320802,30.8770726,75.0670336,-164.71963499999998,157.01290918920054,1.2913526335173056,36.97079268548736,1.0724066431566153,3.364632599999999,61.1549982,-37.514816200000006
1219.073,-32.392703,-165.28479,32.629966,-0.1976205999999999,0.5248352,1.1384342,26.640655400000004,10.636266799999998,-128.16037160000002,-0.8944915999999992,28.2316576,3.802550600000001,-1.0194132000000002,0.0677489999999999,0.334109,31.995531,75.4902468,-163.5332428,171.56067059250924,1.2690698627077392,28.50063152162893,1.074905588047732,5.3548756,64.85398,-35.372871200000006
1239.058,-37.7469148,-177.1376434,35.4179894,-0.150215,0.5014352,1.110807,25.7198894,7.123821599999999,-129.1141848,11.518372,23.051912,2.6570928000000005,-1.0373766,0.0585512,0.330873,33.107434999999995,75.836255,-162.610257,184.5454097488272,1.2279633533917207,25.906054939607067,1.0904381666917204,7.387545599999998,68.71243339999998,-33.49607220000001
1259.043,-44.191361,-187.1028564,37.6633278,-0.1074646,0.463906,1.0857058,24.72743,3.4144651999999995,-130.0524874,21.0664142,16.1112586,-0.6353125999999992,-1.0470312,0.043624,0.3248968,33.9048276,76.1028274,-162.2073914,195.90528711865232,1.1855439684983429,26.528665307959884,1.0971487218238374,9.1773976,72.6883622,-32.15490400000001
1279.048,-48.8910652,-195.5233276,38.7200004,-0.0725836,0.4228092,1.0501242000000002,23.7003018,-0.4513709999999999,-130.9698274,30.7977778,7.2637552,-3.385516799999999,-1.0481458,0.0435615999999999,0.3125546,34.339722200000004,76.2543426,-162.37836620000002,205.2290094580773,1.1343706775209064,31.82337161626313,1.0946221307069213,10.6394204,76.7057136,-31.408538800000013
1299.012,-52.1572516,-201.797641,37.87348479999999,-0.04198,0.3899794,0.9878927999999998,22.677459,-4.4164334,-131.8894502,39.3096294,-1.2965106,-5.256746199999999,-1.047213,0.0619748,0.2986068,34.487303,76.282962,-163.02270520000002,211.8420818877269,1.0629103617503215,39.68074197784703,1.0907162620087223,11.809844,80.69939539999999,-31.133255000000013
1318.997,-53.7747298,-205.3309784,35.1298882,-0.0065353999999999,0.3591444,0.9291946,21.6956426,-8.421891599999999,-132.8363832,43.6398086,-10.7548358,-7.023454599999999,-1.044664,0.0926654,0.2756184,34.233260200000004,76.1714188,-164.17197579999998,215.14330410382,0.9962078177637836,45.490969458210685,1.0843778177700427,12.5376176,84.5933104,-31.33559260000001
1338.982,-53.678404,-206.3371338,31.210518,0.0368392,0.3244226,0.8712557999999999,20.7886788,-12.420783,-133.80999160000002,43.799517,-20.0233096,-7.779988399999999,-1.034347,0.1066201999999999,0.25852,33.5956966,75.9149094,-165.7227906,215.47733123141896,0.9304266865696834,48.783796862020445,1.0714822321704824,12.8070178,88.3356924,-31.912799000000007
1358.967,-51.8283414,-204.9493866,26.7169522,0.0820791999999999,0.2951866,0.824022,19.9907422,-16.3736462,-134.8160586,43.3581078,-27.9830758,-7.218031399999999,-1.0184996,0.1112098,0.2434294,32.721058600000006,75.5201814,-167.5121338,213.0826684055939,0.879138430724195,52.10641055106706,1.053074986693996,12.7303164,91.8938276,-32.6960752
1378.952,-50.18298539999999,-201.0470184,22.5548352,0.1293538,0.2717501999999999,0.763481,19.296719,-20.2326706,-135.844031,42.865887400000005,-32.9963032,-4.310077799999999,-1.0060534,0.1055336,0.2301734,31.9002258,75.01389160000001,-169.2391266,208.4393346326113,0.8206605961879002,54.266169001486205,1.037429794467115,12.6035068,95.2465622,-33.3950956
1398.936,-49.002912,-194.58031620000003,19.0455402,0.181657,0.2532656,0.7129991999999999,18.6905262,-23.9626824,-136.8635684,43.256946600000006,-35.124740200000005,-2.9474825999999994,-0.9793192,0.0967022,0.2096094,31.17127900000001,74.46555479999999,-170.88335560000002,201.55772731027096,0.7781456091201697,55.79962774920681,1.006157796541795,12.4807528,98.4282372,-34.0197872
1418.921,-47.5456962,-186.62806100000003,16.3972658,0.2259194,0.232446,0.6710451999999999,18.1648838,-27.5376984,-137.87507960000002,45.973292400000005,-34.3559982,0.1450100000000008,-0.9581168,0.0927983999999999,0.1938112,30.7856998,73.9060118,-172.2324706,193.2860489157929,0.745233103569212,57.3925017255251,0.9819175763424544,12.620816,101.4437102,-34.35739099999999
1438.906,-44.1588096,-177.8946596,14.436739800000002,0.2630058,0.2139396,0.6520824000000001,17.745310600000003,-30.944173,-138.848987,48.680632,-30.5722716,3.139187000000001,-0.9458118,0.1133122,0.1812146,30.8595816,73.3821058,-173.1676116,183.8611700048214,0.7349514675620153,57.570150405610015,0.9696588817420484,13.114271000000002,104.3262788,-34.3186246
1458.891,-41.121463000000006,-168.7184632,13.1426684,0.301937,0.2128578,0.6178838,17.429579800000003,-34.168701799999994,-139.788672,47.4630348,-22.8815308,6.136152400000001,-0.9313294,0.1345624,0.1700928,31.4189632,72.96021400000001,-173.5778046,174.15402457739094,0.719899149389885,53.046738735320815,0.956249471325323,13.9893834,107.1289158,-33.7891326
1478.875,-38.5862588,-159.390851,11.1653136,0.3487272,0.2114676,0.5975623999999999,17.2127342,-37.2150256,-140.72569900000002,43.1082692,-9.5160706,6.9901532,-0.9266672,0.1668286,0.1663494,32.458868,72.74991440000001,-173.4008972,164.37459347013188,0.7234708202570163,44.69609283643619,0.9561464345037114,15.2461338,109.96494,-32.675198200000004
1498.86,-36.262033800000005,-150.6779358,9.1030832,0.3932714,0.202287,0.581143,17.085693600000003,-40.092421,-141.672171,36.93987919999999,3.8170486,10.0697008,-0.925773,0.1789458,0.1483247999999999,34.057877,72.7310484,-172.5150574,155.24703396847036,0.7302805015033332,38.47757021339672,0.9545037942102064,16.9721834,112.8234694,-30.842886400000005
1518.845,-32.9381652,-142.2219086,7.222479199999999,0.4480285999999999,0.1882982,0.569521,17.0603568,-42.8111038,-142.61484360000003,29.639780800000004,19.290348,9.769785000000002,-0.9045318,0.181656,0.1326458,36.1207664,72.9601546,-170.99513240000002,146.1648323584154,0.7486921984248267,36.68900149608024,0.932079174643914,19.060409600000003,115.7712584,-28.38028880000001
1538.83,-30.3396118,-134.259314,6.3466152000000005,0.507395,0.1917062,0.546055,17.1250708,-45.3850358,-143.56194440000002,23.7604782,38.083219,7.503403200000001,-0.908951,0.182926,0.122629,38.8243768,73.4957718,-168.6897308,137.79091031131975,0.7696603251879625,45.51036094425539,0.9352495461201786,21.699306,118.8808076,-25.127786400000005
1558.815,-28.5841232,-126.0988176,5.189707,0.5745564,0.1865488,0.522195,17.2591572,-47.817373,-144.5192106,20.0619202,58.09025280000001,4.574255400000001,-0.91792,0.1950784,0.1106246,42.5059198,74.32579799999999,-165.3048522,129.40207478234922,0.7985005507746378,61.62695777777373,0.9449182560791808,25.2467626,122.143171,-20.7856416
1578.799,-26.0862738,-117.5209138,4.5402638,0.6374420000000001,0.1764148,0.4912776,17.462836799999998,-50.1033502,-145.46999499999998,17.232976999999998,74.893129,3.031933200000001,-0.9035592,0.1938412,0.0853624,47.4715234,75.33120720000001,-160.5546294,120.46689527222485,0.8238981522523279,76.910005113915,0.928051926379036,30.0086866,125.4345574,-15.0846344
1598.784,-22.1063158,-108.4101748,4.5701626,0.6960378,0.1756226,0.4668801999999999,17.7491188,-52.2289292,-146.3937988,14.584552400000002,92.086312,1.0211914000000006,-0.9130166,0.206452,0.073341,54.104897400000006,76.42848359999999,-154.0607116,110.73545766648697,0.8563229751744607,93.23969572207496,0.9389359096661284,36.3557786,128.6574128,-7.666912800000001
1618.769,-19.210175,-97.9395646,4.79806,0.7527782000000001,0.1824811999999999,0.4324198,18.0833102,-54.1710748,-147.2740754,12.820709,105.4863188,1.6876132000000006,-0.9367192,0.2197855999999999,0.0555146,62.5888704,77.4336412,-145.6583846,99.92102139856158,0.8871083869408067,106.27597128020392,0.963758496942652,44.505560200000005,131.604716,1.6156907999999988
1638.754,-16.507134200000003,-85.65423200000001,4.660599,0.8074028,0.1779874,0.3960967999999999,18.422546,-55.885788000000005,-148.07754219999998,10.257342,110.5742858,4.111640800000001,-0.940533,0.2196994,0.0319706,72.3405716,78.1659746,-135.9225508,87.35476015676213,0.9167723114148026,111.12511568116936,0.9663810168425908,53.9180256,134.0517626,12.154991400000004
1658.739,-12.7528316,-72.2010604,4.9493084,0.8487107999999999,0.175679,0.3576224,18.7377056,-57.3377702,-148.7531526,7.1282414,106.078552,5.750106000000001,-0.9343716,0.224835,0.0098739999999999,82.3496734,78.5510348,-125.8669584,73.48553252403305,0.9375856835827858,106.47316440720924,0.9610923784879164,63.6119678,135.888805,22.88619420000001
1678.724,-8.270818199999999,-57.9942482,5.402311,0.878393,0.1819326,0.3352393999999999,19.0250836,-58.513515600000005,-149.2799532,2.9295734,93.09747,4.558027200000001,-0.9358762,0.2340746,-0.012261,91.49682,78.659186,-116.6063796,58.82962027857544,0.9576320737653476,93.25501022820612,0.9647826243318232,72.47173640000001,137.1727016,32.67357360000001
1698.708,-5.0525152,-43.347459,5.367471,0.9010952,0.1844638,0.3179519999999999,19.2537492,-59.412237600000005,-149.6554202,-1.7659516,74.020411,0.6075012000000001,-0.9314214,0.2380437999999999,-0.0344506,98.918457,78.6079866,-109.0068556,43.96976070595282,0.9731869950207308,74.0439659079014,0.9619758411398698,79.6647078,138.0202242,40.64856460000001
1718.694,-1.9861454000000005,-28.370396600000003,5.5570926,0.9157606,0.1839796,0.3065206,19.3792048,-60.021,-149.83911160000002,-7.254750200000001,51.9580356,-5.4282834,-0.9593976000000002,0.237566,-0.044848,104.088832,78.5591004,-103.585298,28.97767166209541,0.9830670617780252,52.74215699557597,0.9893900658212412,84.7096272,138.5801004,46.253813600000015
1738.678,1.6179102,-13.4616548,5.6674166,0.9211028,0.1757634,0.3025146,19.4072054,-60.358410000000006,-149.8265292,-12.14289,31.034216000000004,-9.8868212,-0.9818854,0.2283884,-0.060626,107.1264266,78.5977738,-100.2376296,14.695352812626943,0.9853112321295032,34.76092020829607,1.0099186659646011,87.7192212,138.95618380000002,49.58889960000001
1758.663,6.516372799999999,1.3053236,5.8343148,0.9102146,0.16576,0.3113228,19.3664632,-60.4337808,-149.619681,-16.2167486,14.333000800000002,-11.9509186,-0.9833846000000002,0.2089806,-0.0775637999999999,108.5406738,78.736142,-98.465158,8.843427692631169,0.9761602744698228,24.723314957186236,1.0083324381194727,89.17421060000001,139.1699228,51.15452300000001
1778.648,11.8067448,16.2977142,6.1433958,0.8926516,0.1582296,0.3165442,19.2564676,-60.235991,-149.2093476,-19.1927548,3.3533888000000003,-12.4095036,-0.9838097999999998,0.1966896,-0.0853826,108.9004776,78.9429398,-97.71000039999998,21.04176853006102,0.9602414882998755,23.099844866476943,1.0069055118068229,89.64401000000001,139.17893080000002,51.49934720000001
1798.633,18.2989668,31.713183200000003,6.520389400000001,0.8724114000000001,0.1447318,0.324011,19.0852712,-59.747878400000005,-148.57995599999998,-22.600418,-4.5963748,-11.2082142,-0.9818796,0.1883206,-0.085144,108.406868,79.1760316,-97.7566786,37.18996709533227,0.9418238014099028,25.642340389088528,1.0033950857047886,89.3215968,138.92391,50.82327740000001
1818.618,25.1613616,46.3538744,6.255864600000001,0.8426767999999999,0.13242,0.337709,18.908856,-58.9833924,-147.78278799999998,-25.9095474,-9.4314298,-8.4778676,-0.9504252,0.1767826,-0.0877004,107.2952104,79.3852708,-98.3664534,53.11225500155744,0.9174348011380644,28.846676647203303,0.9706964039378946,88.3863544,138.3686632,49.4163346
1838.602,31.303976,60.8834924,5.554160400000001,0.8109594,0.1305377999999999,0.354345,18.7451074,-57.93058559999999,-146.8508056,-29.0343784,-12.2577506,-7.110318799999999,-0.9218884,0.1758978,-0.08058,105.75047479999998,79.5781754,-99.352719,68.68469449577805,0.8945700893178801,32.30795896190009,0.9419720773459264,87.0053674,137.508761,47.49808659999999
1858.587,35.8696594,74.71377120000001,4.0393384,0.7869408,0.1215195999999999,0.3756908,18.6010488,-56.5999962,-145.827835,-31.951961400000005,-14.5419894,-5.873175599999998,-0.9284986,0.17745,-0.0655834,103.8039812,79.75313120000001,-100.6862244,82.97648056592708,0.880446712239554,35.59341911990527,0.9475755036183238,85.2029324,136.3531274,45.14161059999999
1878.572,38.8131706,87.1015938,2.0969172,0.7715916,0.1140004,0.3927984,18.4870336,-55.0229682,-144.75890499999997,-33.5287574,-16.8916674,-4.245892399999999,-0.936004,0.1758354,-0.0512818,101.4642182,79.8982424,-102.3855318,95.38106162267518,0.8732927753241063,37.782715659579786,0.9537564673020048,82.97718460000002,134.9212106,42.37337319999999
1898.579,41.6893326,98.7813766,-0.7872024,0.752363,0.1161478,0.4153862,18.4508374,-53.2031418,-143.6961608,-33.876226,-18.5362696,-1.727032199999999,-0.9422076,0.1749608,-0.0410356,98.8363602,79.9854112,-104.3685426,107.22117562889812,0.8672289722814155,38.65455495678093,0.9591925580933998,80.38552280000002,133.188553,39.3276182
1918.541,43.7601662,109.6453688,-4.7334142,0.7295947999999999,0.1200947999999999,0.442555,18.508696800000003,-51.1489624,-142.6789764,-33.3852644,-19.9813712,0.7736198000000014,-0.9561002,0.1783498,-0.0248414,95.9664824,80.0101456,-106.6050524,118.15017670375444,0.8617344493514693,38.915672442925214,0.9729097279573476,77.4577856,131.159108,36.073924
1938.526,44.7724618,118.45126639999998,-9.6989638,0.7066658,0.1263206,0.4704174,18.675512,-48.8945152,-141.7522368,-32.7513106,-21.8978912,3.723538800000002,-0.973796,0.1764934,-0.0075414,92.841966,79.9619248,-109.1109468,127.00136119817746,0.8582691751989932,39.57310609769992,0.9896895687909012,74.166454,128.85644000000002,32.641290000000005
1958.511,45.161454000000006,126.1748656,-14.8105182,0.685155,0.1422002,0.5002688000000001,18.9493862,-46.460227200000006,-140.92609240000002,-29.9225348,-22.6796478,6.057789400000002,-0.9835212,0.1751124,0.0091427999999999,89.6949766,79.8486496,-111.6957184,134.82954085038156,0.8601901784829213,38.03184620293904,0.9990304771502418,70.7455904,126.3088768,29.230374000000005
1978.496,45.6774878,133.0257872,-20.1692388,0.6521354,0.1528678,0.5433002,19.3227188,-43.8531044,-140.1951598,-27.4313594,-23.2745098,8.8237444,-0.9959136,0.1652476,0.0271992,86.5867294,79.6621916,-114.2906586,142.08832163717838,0.8624524633451052,37.04106842679886,1.0098962642030913,67.2640106,123.515296,25.90450120000001
1998.48,45.353324,137.7307922,-25.3106966,0.6183468000000001,0.1671574,0.5827100000000001,19.7774254,-41.1191024,-139.5602782,-26.0855502,-23.404465,10.6354996,-0.9978422,0.1621351999999999,0.0480444,83.5737594,79.4179762,-116.8156236,147.1982556970897,0.8659360862933247,36.62429197833789,1.0120697325536614,63.796334,120.5370786,22.744654600000004
2018.465,44.9238838,140.5765564,-29.4482564,0.585936,0.1887706,0.623541,20.2959418,-38.2987036,-139.0005186,-24.4859172,-21.1981398,11.123208200000002,-0.997995,0.1581604,0.0692808,80.8778198,79.1552092,-119.0504684,150.48961209983372,0.876218416949427,34.243934247778064,1.0128220778605688,60.581878,117.45391279999998,19.950050200000003
2038.45,44.042343800000005,142.8723144,-32.2222112,0.5477107999999999,0.2160878,0.6633928,20.8449538,-35.4098998,-138.47891220000002,-22.5056262,-17.2446696,10.836488000000005,-0.9908712000000002,0.147223,0.0794656,78.6897614,78.9039518,-120.8096344,152.93952126258029,0.8870011639436106,30.35311042449249,1.0048955807952389,57.8448076,114.3138516,17.669277800000003
2058.435,43.043526400000005,143.6206024,-34.423275000000004,0.4999639999999999,0.231069,0.7085471999999999,21.4073174,-32.482294,-137.98506460000002,-22.3788364,-14.367501999999998,9.762414800000002,-0.9830668,0.1366369999999999,0.0867406,76.831308,78.68142519999999,-122.2367722,153.83297585502274,0.89743858769547,28.32917533330661,0.9963001228142048,55.4239906,111.1637192,15.748292400000006
2078.42,41.4352288,142.725589,-35.7872032,0.4541924,0.2683668,0.7499974,21.9799866,-29.5534972,-137.5180724,-23.4236552,-8.700205,5.688882600000001,-0.9718404,0.1430779999999999,0.092388,75.46388999999999,78.5532378,-123.1443038,152.86659495777144,0.9169556017423964,25.626638000469253,0.986651214817151,53.48390340000001,108.106735,14.373768600000009
2098.404,36.5433804,141.13128360000002,-36.73731,0.4039116,0.3134014,0.7856742000000001,22.4954216,-26.6388106,-137.0726806,-22.6375106,-0.3448915999999997,0.9455702000000012,-0.9778056,0.1425373999999999,0.0889939999999999,74.84546040000001,78.55760640000001,-123.3072172,150.34323332853674,0.9373627721870332,22.659875096389896,0.9921394225743274,52.35003880000001,105.196417,13.765463400000003
2118.389,29.9853862,139.45378720000002,-37.518129,0.3542062,0.3374406,0.8129166,22.9084272,-23.7445094,-136.6445342,-22.238515,4.159578400000001,-2.810940199999999,-0.990967,0.138815,0.0865744,74.591513,78.6602432,-123.1085356,147.49268508521595,0.9487684592156086,22.798136473820566,1.0043805683352105,51.6830858,102.4047526,13.535998600000005
2138.374,25.6981956,136.5506104,-37.8782006,0.303562,0.3501526,0.8464658,23.2590872,-20.8959036,-136.23609299999998,-20.642764,7.721942000000001,-6.081530599999999,-0.9990736,0.1533166,0.0840572,74.65813440000001,78.83656780000001,-122.6177046,144.0181396158216,0.9650186950004648,22.863444802780624,1.0142581776472694,51.3990472,99.7324714,13.618388400000004
2158.359,21.992022,133.37245940000005,-37.974923,0.2549866,0.3924948,0.8693606,23.5768056,-18.1015454,-135.8527464,-19.382134200000003,10.619712,-10.5668044,-1.0074957999999998,0.1699454,0.0806173999999999,74.93905939999999,79.10542459999999,-121.936299,140.40639848279378,0.9873490705110124,24.49699500627808,1.024904088771998,51.3622538,97.20697,13.9164474
2178.344,16.3118968,130.65590360000002,-38.8652474,0.2080718,0.4184596,0.8902052000000001,23.8137188,-15.3494424,-135.50263959999998,-17.2889224,10.3030964,-12.90504,-1.0216965999999998,0.1804712,0.0683839999999999,75.21126239999998,79.4129776,-121.3084762,137.2863816196259,1.0054191210109544,23.90817204602884,1.0397644771471084,51.39754359999999,94.76242,14.194163399999994
2198.328,13.4273386,127.985919,-39.308315400000005,0.1662412,0.4124766,0.8952828,24.008115,-12.6469072,-135.1750334,-15.2425538,5.7233848,-13.6091968,-1.036352,0.1885306,0.0764044,75.02561799999998,79.7023742,-121.1873628,134.55791520285786,0.9996521265424488,21.22033971113318,1.056128253281636,51.017503,92.3492814,13.987670599999996
2218.313,14.620979600000002,124.9544112,-38.9771034,0.1198768,0.4187229999999999,0.9187658,24.2399844,-10.002120199999998,-134.8596282,-12.1936538,-0.5154139999999998,-14.469035,-1.0330812,0.1813083999999999,0.0685559999999999,74.2015198,79.97328639999999,-121.7763522,131.70646344145985,1.0167743078760791,18.92891487689866,1.051108665571738,49.9615354,89.9754066,13.083275999999998
2238.298,13.674186,122.2171674,-38.6879188,0.0741251999999999,0.4440836,0.921572,24.4803992,-7.410649599999999,-134.55521240000002,-10.385905,-6.080451,-16.4924178,-1.0225602,0.1658812,0.0686898,72.69514919999999,80.2510818,-123.09370900000002,128.92158248764096,1.0256703857711795,20.41662929874035,1.0382024001905987,48.21475,87.66173140000001,11.461503399999993
2258.283,11.4325588,120.1592374,-38.6172654,0.0346086,0.4388864,0.9202448,24.6875938,-4.8620694,-134.257611,-7.1961416,-11.1837018,-16.858234799999998,-1.0314416000000002,0.1531986,0.0706174,70.59353180000001,80.49969180000001,-125.0777772,126.72899794537577,1.0201321087123767,21.47230123788563,1.045145158547501,45.905938000000006,85.36176119999999,9.179833799999995
2278.268,11.5651412,118.5967986,-37.1702988,-0.0010388,0.426025,0.9075506,24.905141,-2.3605234000000004,-133.9376342,-2.4242218000000006,-18.63874,-16.975582199999998,-1.0416586,0.134307,0.0782601999999999,67.63344740000001,80.6842424,-128.0247392,124.8222105317246,1.0025699333666456,25.326860665154538,1.0531930820637778,42.7283064,83.04476580000001,5.912895000000001
2298.252,13.5275718,118.11033619999998,-35.3629112,-0.0318148,0.4235862,0.904631,25.1733536,0.1088846,-133.5788604,2.5526798,-26.4510674,-17.6165006,-1.0362094,0.1151794,0.0798488,63.824688,80.788692,-131.9288864,124.03056963757066,0.9993971665411504,31.882851725503965,1.045644320834843,38.6513344,80.6798074,1.6499739999999998
2318.237,13.965644,117.9596342,-33.798879,-0.0662864,0.4388378,0.9025668,25.4727456,2.5544252,-133.1808654,6.1053502,-28.6998772,-18.2743004,-1.0181502,0.1079864,0.0951498,59.731363,80.837546,-136.19000699999998,123.49849689202372,1.0057829437786463,34.56744577589093,1.0282725206797272,34.258617400000006,78.28312079999999,-3.009141599999998
2338.222,14.235038,118.394235,-32.795765,-0.1011394,0.434135,0.8880086,25.7946464,4.9933158,-132.7461578,10.563576,-32.0416278,-18.0611782,-1.0162396,0.1136922,0.1049296,55.3890856,80.79742440000001,-140.792035,123.67454624954924,0.9936104116459932,38.26827939630503,1.0279489588034807,29.594439200000004,75.8041086,-8.045877199999996
2358.207,15.9190178,118.7883346,-31.438675,-0.1433336,0.4365978,0.8673946000000001,26.1758444,7.4264674,-132.2661378,13.826048600000002,-34.8594436,-17.4398028,-1.007397,0.1129179999999999,0.1093054,50.9359956,80.667827,-145.5722474,123.90510017958869,0.981598467787598,41.35803609570975,1.019581708742443,24.760151200000003,73.24135960000001,-13.306109599999996
2378.192,18.856534000000003,119.1832106,-30.508423600000004,-0.1932128,0.4400064,0.8575077999999999,26.6423052,9.860243,-131.74465960000003,15.3238304,-33.829199599999995,-16.772585799999998,-0.9922346,0.1121918,0.1188936,46.8030266,80.4838028,-150.0602142,124.4627272478558,0.9829834409519012,40.74989764555202,1.0056103567214094,20.1607214,70.6235598,-18.315554599999995
2398.176,20.85643,119.2575042,-30.0845334,-0.2468458,0.4517054,0.8585236,27.1784342,12.2923274,-131.1891574,14.7520604,-30.984653200000004,-16.5122884,-0.981061,0.1102402,0.1297748,43.1241456,80.2784408,-154.0795106,124.74943739453752,1.0010161782527591,38.08316804277571,0.9957284198676264,15.945711400000002,67.9861134,-22.8903532
2418.161,21.610594,119.3274078,-29.794458400000003,-0.2945218,0.4593482,0.8360668,27.765291,14.720277,-130.59681740000002,15.6084108,-29.795349,-15.958491399999996,-0.987263,0.1145742,0.130992,39.7889932,80.0429534,-157.7714782,124.87496857516987,0.9983744555930504,37.22981006528547,1.0024841058783125,12.0237022,65.3226764,-27.1746608
2438.146,23.6537884,119.4598908,-29.224043,-0.3363976,0.4556391999999999,0.8097846000000001,28.4296622,17.143311599999997,-129.958115,16.1498056,-27.6606738,-14.962005599999998,-0.9826598,0.103477,0.138447,36.8386192,79.797406,-161.0866882,125.23662365652368,0.9881910363181606,35.35237909338252,0.9977451297170232,8.408957000000001,62.654094400000005,-31.128573199999995
2458.131,26.743071800000003,119.5442672,-28.5425442,-0.3809818,0.4636886,0.8045644,29.1973254,19.5532972,-129.2656696,16.649037,-24.9343764,-13.8418176,-0.9703424,0.1023771999999999,0.146233,34.320277,79.5556122,-163.9767518,125.78036627031224,1.003732097448597,33.02286289763375,0.9866253364913148,5.1229516,60.002315,-34.7110822
2478.116,27.8420838,119.4932068,-28.513638000000004,-0.421071,0.4741678,0.79535,30.0307762,21.950185,-128.5269916,16.668239,-22.186045,-13.0144052,-0.968447,0.1074622,0.1567356,32.1753986,79.326053,-166.4913088,125.96362829669854,1.0172106527646276,30.650049377006443,0.9869162905460626,2.1446224000000007,57.375868,-37.9643172
2498.1,27.5561874,119.4542602,-28.4115662,-0.4591427999999999,0.4822734000000001,0.7751222,30.9096878,24.3330634,-127.7349002,16.607967,-19.331023,-12.158057799999998,-0.9716538,0.0975361999999999,0.1592762,30.3566642,79.12259839999999,-168.67532060000002,125.84069627068266,1.0218679797665842,28.237056991969943,0.9894409154928454,-0.5530235999999997,54.789535,-40.9404204
2518.085,28.720946200000004,119.3153976,-28.0783452,-0.494816,0.4715572,0.742637,31.86433,26.7008136,-126.8826708,17.1771678,-17.5357634,-11.2946868,-0.9698016,0.0867127999999999,0.1637702,28.778442600000005,78.93056039999999,-170.6275728,125.89460005989037,1.0093159963543823,27.020881583698017,0.9873474218604308,-3.0858873999999994,52.2297468,-43.744902
2538.07,30.8663946,118.6408812,-27.5096344,-0.5342228,0.484951,0.7354854,32.9245186,29.0330414,-125.9630556,18.833369,-15.8087676,-10.210255199999995,-0.9714942,0.0909334,0.1703574,27.489147000000003,78.7470734,-172.3217622,125.6390583868611,1.030296193360919,26.6244667959773,0.9905006348326892,-5.435371599999999,49.714032,-46.35870659999999
2558.055,30.8105268,117.8684692,-27.4254856,-0.57073,0.4886806,0.7110558,34.0483014,31.3346028,-124.9797776,18.9938964,-14.029857799999998,-10.2102762,-0.9680948,0.0872886,0.1730884,26.3245096,78.5899078,-173.8934724,124.87762751446184,1.0344765886331118,25.72653786311792,0.9873127344927544,-7.723791799999999,47.255305,-48.9136948
2578.04,30.6947092,117.3471968,-27.3400406,-0.5957608,0.4912484,0.6781208,35.244707600000005,33.605986,-123.9216766,18.4303154,-13.0722226,-10.200682999999998,-0.9735776,0.075573,0.1767778,25.2050708,78.4470336,-175.40777599999998,124.33827885932853,1.027669081325229,24.791398974521726,0.9923784621421404,-10.0396368,44.8410476,-51.4860994
2598.024,32.009878,117.5059188,-26.9752732,-0.6205496,0.4952524,0.6666953999999999,36.5534952,35.8459804,-122.7678848,20.797536,-12.9555718,-9.7307316,-0.9833996,0.072215,0.195322,24.201512,78.29033039999999,-176.8525422,124.73948295075506,1.036744665839704,26.364208347824327,1.005206676852656,-12.3519832,42.44435,-54.084657400000005
2618.009,31.6114546,117.775682,-26.9974446,-0.6516453999999999,0.5062906,0.6492472,37.9542786,38.0610862,-121.51214439999998,23.90654,-12.5676982,-10.726103599999998,-0.9756508,0.0651808,0.1995186,23.2119806,78.1419692,-106.3469424,124.89698694293251,1.0499970598517694,29.060608927822145,0.997973292215398,-14.742298,40.08088300000001,15.165202
2637.994,29.5731798,118.09133,-27.3175054,-0.6865502,0.5040066000000001,0.6139083999999999,39.422014,40.262258,-120.1471404,27.2856194,-11.655744,-11.7807584,-0.966385,0.0629512,0.191641,22.2687906,78.019496,-35.86442900000001,124.76530481640742,1.049884447715157,31.924092198751133,0.9872127909865432,-17.153223399999998,37.757238,84.28271140000001
2657.979,29.9133058,118.1108352,-27.253235,-0.7196922,0.4995554,0.577438,41.0170526,42.436958,-118.6595962,30.416727200000004,-10.7791816,-11.7740824,-0.970071,0.0686368,0.1926142,21.4568388,77.909738,34.686471399999995,124.85076721226464,1.0492602652602452,34.35108536694275,0.99138740429606,-19.560213800000003,35.47278,153.34606760000003
2677.964,32.9831852,117.3262588,-27.1436608,-0.7545415999999999,0.4997234,0.5508748000000001,42.794716,44.5663502,-117.067305,33.9409796,-9.520393,-10.2854992,-0.9727196,0.0737198,0.1947812,20.9193662,77.8092376,105.444226,124.86040137516592,1.0594902302112843,36.72083159291556,0.994765170786372,-21.8753498,33.242887399999994,222.511531
2697.948,35.762472200000005,115.8028824,-27.539315800000004,-0.7838345999999999,0.502205,0.5095866000000001,44.7580186,46.641052,-115.3544402,37.2337878,-8.1275308,-9.919014199999998,-0.9691736,0.0833124,0.1911968,20.571939,77.7302994,176.3268096,124.28867971274026,1.0612657749507048,39.38017970426467,0.991359994785426,-24.1860796,31.0892474,291.68124980000005
2717.933,38.2945576,115.1801452,-28.226443,-0.8040939999999999,0.4966884,0.4833822,46.9194666,48.6672332,-113.4983154,37.8765894,-7.323189600000001,-9.629464799999996,-0.9818712,0.080461,0.203933,20.2890686,77.658246,175.2622924,124.61810091036152,1.0615671805436526,39.76168661951074,1.0060485546927842,-26.630398000000003,28.9910128,288.76060780000006
2737.918,40.2586128,115.3918868,-28.7935672,-0.8203338,0.4928735999999999,0.4571294,49.3092424,50.64526360000001,-111.4655852,39.0107356,-7.700684799999999,-10.109028599999998,-0.9914168,0.0585058,0.2139435999999999,19.9233518,77.5810168,174.0925262,125.55920100074408,1.060584375400543,41.02841085976492,1.0159242412389025,-29.3858906,26.9357532,285.55811140000003
2757.903,41.7218118,115.6538436,-29.2391788,-0.8358357999999999,0.4851706,0.4220957999999999,51.947518200000005,52.5691468,-109.2245956,43.384844400000006,-8.825317199999999,-11.0988218,-0.9917886,0.0417934,0.2225302,19.4911672,77.4865466,172.7670898,126.37820498893886,1.0545979613310656,45.64334335520332,1.0173057580125848,-32.456351,24.9173998,281.9916854
2777.888,42.36548260000001,115.7933136,-29.071244,-0.8604372,0.4766338,0.3791892,54.84939039999999,54.4251176,-106.727272,47.8857064,-9.8678602,-13.325599399999998,-0.9816154,0.0382731999999999,0.2238331999999999,18.9364622,77.38495499999999,171.22400199999998,126.6809489154008,1.054189927784799,50.67531096819264,1.0075390477681945,-35.9129282,22.9598374,277.951274
2797.872,42.6275728,114.66894519999998,-28.641432200000004,-0.8958418,0.4670078,0.3299428,58.0047896,56.1909226,-103.9954742,48.868158,-9.610927,-14.900925999999998,-0.964545,0.042419,0.2098084,18.3165112,77.3012894,169.59216,125.64397556017995,1.062775172442375,51.98561704711957,0.9880111301481171,-39.6882784,21.1103668,273.5876342
2817.865,43.8327204,111.11372219999998,-28.0620098,-0.9281872,0.4610084,0.277378,61.39331259999999,57.8308548,-101.0678466,48.782296800000005,-7.912131599999999,-14.299245,-0.9573106,0.0659708,0.1907172,17.882273599999998,77.24916999999999,168.1476838,122.69899360964068,1.072846111051534,51.44689218124876,0.9783500302554502,-43.511039,19.4183152,269.21553040000003
2837.842,45.530865,105.077237,-27.4509566,-0.9523442,0.459561,0.234644,64.9483092,59.3105882,-98.0294968,42.558952600000005,-5.2917712,-13.7439508,-0.9619424,0.088845,0.1809252,17.514973199999996,77.2437272,166.8955324,117.7617952540529,1.083149848696218,45.035135976646245,0.9828329171012744,-47.433336,17.933139,264.92502920000004
2857.827,44.5468904,97.5296112,-26.8584956,-0.9694904,0.4704796,0.2067353999999999,68.536731,60.61197059999999,-94.9708054,32.4302772,-1.8298386,-13.145165799999996,-0.9656126,0.1033778,0.1687346,17.1346632,77.3037828,165.835196,110.53429011409987,1.0972703474173902,35.04092710646194,0.985680489838751,-51.4020678,16.691812199999998,260.8060014
2877.812,40.4168644,88.5255156,-26.390654800000004,-0.9791768,0.4804088,0.1845722,71.996576,61.7375414,-91.9957092,20.6805096,2.3664288,-12.366114199999998,-0.9624776,0.1119753999999999,0.1528198,16.7250088,77.444362,164.9840028,100.83033522182993,1.1061856615363084,24.211655106345027,0.9809462329704722,-55.27156720000001,15.7068206,256.979712
2897.796,35.263583,77.6903014,-25.6141688,-0.9772988,0.486295,0.152963,75.1989824,62.6921412,-89.2273224,7.978134199999999,6.684381999999999,-10.834649799999998,-0.9674298,0.1210304,0.1386649999999999,16.3283658,77.6633714,164.40495919999998,89.08079961998334,1.1022674135051984,15.024021576254928,0.984782594219252,-58.870616600000005,14.971230200000004,253.6322816
2917.781,30.4380412,65.2591728,-23.981377,-0.9717618,0.4981374,0.1346282,78.0220094,63.4742312,-86.80580439999999,-5.8481148,11.2126436,-9.503086999999995,-0.9711148,0.1247348,0.1272254,15.8979498,77.9654878,164.0737214,75.8969065868253,1.1002666119869493,15.818738437187996,0.9873241754941686,-62.1240596,14.491256600000003,250.8795258
2937.766,25.5028292,51.6113028,-21.6432462,-0.9648294,0.5211425999999999,0.1429253999999999,80.344362,64.0953576,-84.8442032,-17.5692074,15.556965600000002,-7.375621399999997,-0.968197,0.133267,0.122142,15.5605534,78.33757940000001,164.07576899999998,61.50244694312149,1.1058539915396968,24.59869952619317,0.9849285213973652,-64.7838086,14.242221800000005,248.9199722
2957.751,20.09617,35.862070800000005,-18.4829294,-0.9576074,0.5506728,0.1639358,82.0288818,64.56982359999999,-83.4793334,-27.536548600000003,19.5840438,-4.708819799999999,-0.966018,0.1346306,0.1170312,15.3943522,78.7716812,164.45501399999998,45.07286156811543,1.116748589305686,34.116993775380514,0.9823504855975792,-66.6345296,14.201857600000006,247.93434740000004
2977.735,13.450527,19.1702178,-13.9253148,-0.9520782,0.5904408,0.1937108,82.972786,64.8907486,-82.7921966,-34.837769,21.8466116,-2.005788399999999,-0.9779624,0.119631,0.1267704,15.3659182,79.22886960000001,165.1248564,27.24570276862509,1.1369244087697827,41.16998632990045,0.9933744340836038,-67.6068678,14.338121000000005,247.917053
2997.72,5.8098264,3.1358042,-8.1927824,-0.9587732,0.6097585999999999,0.2348241999999999,83.14794459999999,65.0503646,-82.7839904,-35.34374820000001,21.477998,0.5436390000000013,-0.9967222,0.092902,0.1415626,15.5026782,79.6584656,165.9755216,10.52183606756085,1.1602560080507405,41.36158215391825,1.0110024210137185,-67.6452664,14.608101,248.759512
3017.705,-1.8782180000000004,-12.5644148,-1.7486381999999998,-0.9805366,0.6171962,0.262847,82.53947919999999,65.0362486,-83.46610100000001,-29.6818158,19.5518956,3.1220516000000016,-1.0126024,0.072141,0.141419,15.9357248,80.0362212,167.013052,12.82380433711004,1.1880537524215813,35.679602252988914,1.0249718425048369,-66.6037544,14.9999726,250.479153
3037.69,-10.1873932,-29.2827848,4.702356,-1.0023862,0.6134898,0.2561716,81.12413180000001,64.83354019999999,-84.8560592,-24.1837996,17.4447302,5.816560600000001,-1.0286216,0.0847974,0.125964,16.732184,80.354222,168.3069546,31.35883635923459,1.2028182395112903,30.38103276811413,1.0397691687722426,-64.3919478,15.5206818,253.16301380000004
3057.675,-18.1460618,-46.9722428,10.7579182,-1.0208754,0.6031808,0.252374,78.8981218,64.41024000000002,-86.9634842,-24.450157,14.9579892,8.275666400000002,-1.038538,0.1122246,0.1116817999999999,17.7293312,80.6017424,169.8096646,51.491785330375386,1.212314437631508,29.83350922362394,1.0505371781809532,-61.1687906,16.191502399999997,256.77314880000006
3077.66,-24.908187400000003,-65.8087848,15.800526,-1.0289498,0.5692436,0.2607196,75.92144479999999,63.7467674,-89.7637344,-30.9432096,12.3848044,10.665836400000002,-1.0328773999999998,0.1203602,0.1018237999999999,18.8599336,80.78066859999998,171.5771024,72.11706163095461,1.2044711191577655,34.994651969798994,1.0448398860214132,-57.0615112,17.033901199999995,261.3408368
3097.644,-30.4376108,-84.9916656,20.6703442,-1.0308427999999998,0.5557428,0.2965482,72.3310754,62.8109864,-93.1426896,-39.827560600000005,9.986765000000002,12.438559200000002,-1.0260698,0.0961713999999999,0.1008248,19.9312814,80.89933160000001,173.4645324,92.61368420498654,1.2080677849305144,42.9032377972083,1.0354872345640194,-52.399794,18.0883452,266.607222
3117.629,-36.68234,-103.0439118,25.2922526,-1.0213066,0.5604585999999999,0.3470963999999999,68.2838974,61.5732446,-96.9215364,-46.576626,6.7886914,13.134319800000004,-1.0224588,0.0715454,0.1203416,20.769661000000003,80.941507,175.2546234,112.2645975742308,1.215589126477561,48.86694974189592,1.0319994392678515,-47.5142364,19.3682624,272.1761598
3137.614,-43.4477262,-118.9746934,29.6912008,-1.0111180000000002,0.5671844,0.4104118,63.963868000000005,60.0111246,-100.8941956,-48.602037,2.559044,12.526480800000002,-1.0170739999999998,0.0392918,0.146907,21.268730400000003,80.900966,176.74445500000002,130.09323574467695,1.229835598405982,50.25554126637255,1.0283798100275208,-42.6951376,20.8898414,277.6386506
3157.599,-48.745125,-132.4556886,33.982940199999994,-1.0032618000000002,0.5619674,0.4616538,59.620070600000005,58.119298,-104.825586,-44.8163182,-1.9732644,11.526774200000002,-1.013954,0.0064905999999999,0.173194,21.5355264,80.7764268,177.92309260000002,145.17381609092794,1.2391391483834415,46.31698039438391,1.028659809480452,-38.0845442,22.6571288,282.74867860000006
3177.584,-51.9202944,-144.0301424,38.038564,-1.0000964,0.5646975999999999,0.5013516,55.4459282,55.89653020000001,-108.5609376,-36.5397974,-5.5450446,10.3122104,-1.0103992,-0.0020768,0.1856968,21.6046236,80.58935699999999,178.7363586,157.7571907759803,1.2531678321602735,38.36985792237057,1.027323784397655,-33.8413046,24.6928268,287.2972962
3197.568,-54.026624600000005,-154.9407014,41.2836182,-0.9882588,0.5724632,0.526286,51.5086778,53.3543504,-112.0468612,-29.2023264,-7.6392696,9.402054800000002,-1.0013538,0.0244615999999999,0.1889482,21.6161618,80.3660172,107.34335000000002,169.20352906389587,1.2575160137857808,31.615390898355567,1.0193180195268992,-29.892516,27.0116668,219.3902112
3217.553,-55.7440058,-165.65878919999997,43.7815584,-0.9668518,0.5699318,0.5486484,47.8506692,50.5217888,-115.2561752,-26.166929,-8.255809199999998,8.9347914,-0.9889998,0.0496798,0.189583,21.6239582,80.13163599999999,35.88483560000001,180.18616339156864,1.2492556690433867,28.856490711785444,1.0082313230688085,-26.226711,29.6098472,151.14101079999998
3237.538,-56.3255564,-175.661841,46.0728884,-0.942312,0.5599134,0.5804121999999999,44.5038484,47.4240364,-118.1761826,-25.3633402,-8.0185394,8.567707000000002,-0.976645,0.0519889999999999,0.1926928,21.6099468,79.9033538,-35.6117404,190.13774410357803,1.2402956271600736,27.946405912892224,0.9968293872663664,-22.8939016,32.4793174,82.56444219999999
3257.523,-55.8374384,-184.4518832,48.2371142,-0.9093252,0.5472471999999999,0.6145106,41.4874888,44.0871108,-120.7989762,-23.8764344,-6.6724694,8.504777200000001,-0.9679612,0.043274,0.1968476,21.6288482,79.701622,-107.1037478,198.66337339692004,1.2263666233126371,26.209486884963614,0.988721650115542,-19.8586406,35.614511199999995,13.69522839999999
3277.507,-54.4697352,-191.7213228,50.776291,-0.8694684,0.5392828,0.6498646,38.8160096,40.5367858,-123.1284974,-21.2202042,-4.3945306,8.450336600000002,-0.9682304,0.0361768,0.2013778,21.7496874,79.5438172,-178.54516619999998,205.6751064097369,1.2120747647350638,23.259775453287023,0.9896119879403442,-17.0663222,39.0070314,-55.41666880000001
3297.492,-53.6497012,-197.6873446,53.138694,-0.8213762000000001,0.5327674,0.6768707999999999,36.454644,36.807840600000006,-125.1824084,-17.457358,-1.207997,8.3393884,-0.9658134,0.0384442,0.2023332,22.05764,79.44595179999999,-177.87316300000003,211.61828241877893,1.1902327689665748,19.38463319173792,0.987528330710284,-14.397004,42.6381112,-52.69075460000001
3317.477,-53.0193888,-201.9330568,55.1617102,-0.7668464,0.5213038,0.7025904,34.365959200000006,32.9420654,-126.9813738,-14.491984400000002,3.0699894,8.628510600000002,-0.962828,0.0400308,0.204003,22.623749600000004,79.423204,-176.9994904,215.9417266058285,1.1633762603988271,17.14332645492899,0.9850164701880066,-11.7422096,46.4811386,-50.01811660000001
3337.462,-51.2738916,-205.0174592,56.99683219999999,-0.7071788,0.5078358,0.7334032,32.5348728,28.9657108,-128.5607576,-11.09515,8.437988,10.050988400000003,-0.964343,0.043516,0.2049637999999999,23.6385486,79.48371879999999,-175.7401366,218.8830953213774,1.1383669481767815,17.18500401011238,0.986844072392108,-8.896324200000002,50.518008,-47.17937900000001
3357.447,-49.1392786,-207.231189,58.3937406,-0.6408358,0.4977446,0.7526086,30.934925,24.8872352,-129.954091,-7.414289599999999,14.521797,12.057124200000002,-0.9655886,0.0447642,0.200622,25.237975,79.6315352,-173.96365640000002,220.8376402177451,1.1067248592964558,20.27877023776597,0.9872255896883952,-5.696950000000002,54.7443,-44.00956540000001
3377.432,-47.24321,-208.381604,59.172949,-0.5702236,0.487399,0.765577,29.526648800000004,20.7390116,-131.1797852,-4.1922226,21.0124576,14.892536000000002,-0.9612626,0.0648446,0.1906792,27.6399866,79.8517684,-171.4426664,221.71209184452144,1.071830621939381,26.0937872535024,0.9821350037650426,-1.8866622000000024,59.1127568,-40.26288120000001
3397.416,-45.7734032,-208.489215,59.2721664,-0.4906088,0.4729812,0.775143,28.2774594,16.567097,-132.2672698,-3.0118446000000003,27.5720632,18.013705,-0.9645312,0.0809782,0.1823033999999999,30.9025842,80.1273864,-168.0776242,221.5313678050476,1.0321118547133736,33.072397022689,0.98494285839344,2.625124799999999,63.5602894,-35.8103544
3417.401,-43.2318628,-208.4068938,58.3377434,-0.4087174,0.4544005999999999,0.7899996,27.178380600000004,12.3839228,-133.2519134,-3.4333696,32.307991,21.139693,-0.9791608,0.0994426,0.1760721999999999,34.946454,80.4090102,-163.91676619999998,220.6937236296645,0.998813889742869,38.76184889037847,0.9998230456256948,7.768073399999999,68.02508739999999,-30.664852799999995
3437.386,-40.3768144,-207.6646636,56.69646,-0.3225612,0.4348204,0.7889606,26.2199012,8.212128799999999,-134.1614776,-3.7717764,36.299063,23.523078200000004,-0.9973688,0.1002362,0.1621938,39.695091,80.6803374,-159.038983,219.0191503629872,0.956855964267329,43.41869965686308,1.0154302771546255,13.4751898,72.4682086,-24.8775054
3457.371,-37.7660156,-205.5893158,54.6232004,-0.2397242,0.4156856,0.7896980000000001,25.3856762,4.0985512,-135.0172576,-3.3539282,36.87002579999999,25.6676172,-1.013227,0.1000465999999999,0.146642,44.8582764,80.8750854,-153.75231,216.0484499535929,0.9240590572669044,45.049686009884205,1.028660367596886,19.4726002,76.7765342,-18.735052399999997
3477.356,-36.4221588,-202.4248384,52.2907908,-0.1596764,0.396359,0.783726,24.640853,0.0659830000000001,-135.811438,-1.6448927999999998,35.358018200000004,25.6853918,-1.0305724,0.0960477999999999,0.1333126,50.0352478,80.98701319999999,-148.48616020000003,212.2185563408815,0.8926496808233115,43.7336766722686,1.043588472936224,25.3943948,80.92103019999999,-12.674722199999996
3497.34,-34.68486779999999,-198.3729708,49.477672,-0.0873568,0.3700915999999999,0.7799512,23.975709,-3.8826766,-136.5674256,2.2630874000000003,30.942214,24.387763,-1.0453892,0.1027044,0.1181454,54.842202,81.0031876,-143.67239060000003,207.37144360991635,0.8677112868219705,39.46270588728051,1.0570454620295004,30.866493,84.88586419999999,-7.104965000000004
3517.325,-33.3130332,-193.61853660000003,46.709247,-0.0201558,0.3515734,0.7656516,23.3868136,-7.7344674,-137.3005432,6.248370800000001,24.7340228,22.1518132,-1.0488302,0.098815,0.0997287999999999,58.927391,80.94395,-139.66727280000003,201.93971786505216,0.8427529201632944,33.786341168775685,1.0581847788578704,35.5405774,88.6784174,-2.366729600000008
3537.31,-32.3628582,-188.1196534,43.4433702,0.0437636,0.3340611999999999,0.755182,22.861813,-11.4721796,-138.01870119999998,9.688174,16.626083799999996,20.1160628,-1.0481856,0.1120314,0.0943864,62.0537026,80.7907426,-136.69891040000002,195.76436090500152,0.8269292540201972,27.837804521054498,1.058372750564885,39.1918896,92.2629222,1.3197907999999927
3557.295,-32.2108026,-182.6404846,39.95426260000001,0.1002126,0.3194106,0.7487908000000001,22.3827044,-15.090616399999998,-138.7352296,12.7833286,10.515386,16.816364200000002,-1.0376112,0.1254962,0.0809435999999999,64.3399988,80.60808420000001,-134.6419524,189.7140625229684,0.8202154343559747,23.596121243365733,1.0483025159565535,41.9572944,95.6987006,4.093277199999994
3577.28,-31.921882400000005,-177.1718902,36.1066598,0.1550463999999999,0.3007384,0.7347042,21.95022,-18.5890646,-139.4632996,14.6205948,5.195393600000001,15.118716,-1.0156838,0.1286988,0.0647914,65.9529092,80.39516760000001,-133.3027648,183.60984759787047,0.8088715799712338,21.66401348904132,1.025853248870344,44.002689200000006,98.9842322,6.160534799999999
3597.264,-31.664160000000003,-171.5797942,32.466538,0.2082091999999999,0.2863395999999999,0.7166648,21.5664078,-21.9667166,-140.2085572,14.9812782,3.758002,12.9895392,-0.9988628,0.1371843999999999,0.0532222,67.2830644,80.1985612,-132.2569184,177.47202848878862,0.7993434012061649,20.181412343196797,1.0096430336510227,45.7166566,102.1652778,7.951638800000007
3617.249,-31.335584800000003,-166.033023,28.9548304,0.262249,0.2724894,0.7002151999999999,21.2349922,-25.2273808,-140.974225,15.628662600000002,6.403575000000001,11.882225800000002,-0.9909814,0.1459326,0.0414922,68.84258580000001,80.03363200000001,-130.99204719999997,171.42714430558917,0.7958180303463851,20.6506212353878,1.0025278357978695,47.60759360000001,105.2610128,9.982177800000008
3637.234,-31.5673722,-160.4542206,25.8408522,0.3183216,0.2580856,0.6816466,20.9436732,-28.3761406,-141.74935620000002,14.9422166,12.0801096,9.568877400000002,-0.969641,0.1483902,0.0250552,70.90508580000001,79.9422242,-129.20460680000002,165.55906963494644,0.7953482917851021,21.465374433388263,0.9812497558644688,49.9614126,108.3183648,12.544749400000011
3657.219,-32.095013,-154.382718,22.8867682,0.3834114,0.2446943999999999,0.648525,20.6892142,-31.4156246,-142.5320496,13.462400400000002,18.9485898,7.141140200000001,-0.9649604,0.1546865999999999,0.0162942,73.5965882,79.92014619999999,-126.7500934,159.33586424649732,0.7921264587591554,24.316273630937783,0.9774159906310924,52.907374,111.3357708,15.78195620000001
3677.204,-31.6100944,-148.1460786,20.1298254,0.4460338,0.2307112,0.6267296,20.4861906,-34.339679000000004,-143.3323182,12.9090674,27.143616200000004,4.461185000000001,-0.9729434,0.1594892,0.0103556,77.0832474,79.964772,-123.4784808,152.81252744185858,0.8030963827985033,30.38621551221656,0.9859832163741732,56.5970568,114.304451,19.853837400000007
3697.188,-30.9342196,-142.0912538,17.6871756,0.5049140000000001,0.220335,0.6027716,20.3407468,-37.1504944,-144.1505768,13.633974,36.0355434,3.5874804000000013,-0.9749904,0.1490118,0.0007812,81.5512664,80.01955099999999,-119.2255342,146.49125069239554,0.816590020382052,38.6951631445888,0.9863120230965656,61.2105196,117.1700454,24.9250426
3717.173,-30.7904712,-135.38757040000002,15.455658200000002,0.560797,0.2106992,0.571431,20.242909,-39.8383858,-144.98278499999998,15.2145322,45.813686,2.8538324000000013,-0.9641476,0.1503984,-0.0107152,87.0880372,80.0287306,-113.9183548,139.70227165629132,0.8279014529825637,48.35824825548091,0.9758663273314436,66.8451282,119.8671164,31.064430200000004
3737.158,-30.475738,-128.1178576,13.513962,0.6141406,0.2017653999999999,0.5401391999999999,20.1892004,-42.3924798,-145.82536,17.7022618,55.5132132,3.719393400000001,-0.972263,0.1529084,-0.0274784,93.6049332,79.909674,-107.6617142,132.38422569020815,0.8423943901654142,58.38596406576119,0.9845970660255494,73.4157328,122.3021538,38.1636458
3757.143,-29.4240832,-120.290729,11.9672938,0.6637981999999999,0.1916363999999999,0.514238,20.1781306,-44.7894892,-146.662686,20.009970599999995,63.6288734,5.708946600000002,-0.9696998,0.1586578,-0.0434706,100.7102356,79.60297840000001,-100.8452744,124.41403568893456,0.8612742192659664,66.94493651388238,0.9835546210990218,80.532105,124.3924676,45.8174116
3777.128,-27.6224016,-111.4554964,10.582609,0.7122358,0.1878528,0.4816399999999999,20.2156998,-47.0070108,-147.4838132,22.0249892,68.6548248,7.841909000000001,-0.9681856,0.1664832,-0.0588116,107.8816254,79.10589440000001,-93.9912202,115.3139903098014,0.8800827227422885,72.5264134942787,0.9841538580040012,87.6659256,126.1129052,53.492593000000014
3797.113,-25.0204686,-101.7704866,9.282686600000002,0.7540372,0.1805672,0.454412,20.3053928,-49.0422342,-148.277258,22.8234438,68.6459862,9.3685544,-0.961547,0.176262,-0.0766268,114.4932648,78.4561218,-87.71113,105.21133048430757,0.8987028866336638,72.94484779481076,0.9805674848429556,94.187872,127.49835600000002,60.566128000000006
3817.097,-22.3386094,-91.1862442,8.184495600000002,0.7918616,0.1751753999999999,0.4339658,20.4289394,-50.8652504,-149.0230008,22.687463,62.513211,9.9602884,-0.9632964,0.180576,-0.0946038,119.9882598,77.74185179999999,-82.5555118,94.23868934495124,0.9198138561085936,67.24455273044848,0.9846306541050812,99.5593204,128.6071022,66.467489
3837.082,-19.545687,-79.14539099999999,7.048538000000001,0.8193032,0.1773988,0.4106303999999999,20.5725772,-52.4466522,-149.7033414,21.8950864,51.20983359999999,9.062612800000002,-0.9521626,0.1909488,-0.1123804,124.0969786,77.0702148,-78.790877,81.82731014021108,0.9334588331446866,56.4267030453302,0.9776013581027596,103.5244014,129.516867,70.9124644
3857.067,-16.3953332,-66.0266554,5.621034400000001,0.8379286,0.1829018,0.3878654,20.7252772,-53.762746400000005,-150.3029204,19.825823,37.4597226,7.324538600000001,-0.9538955999999998,0.1935388,-0.125879,126.8773512,76.53168339999999,-76.3388262,68.26362282925918,0.9412847473843184,43.01096302803704,0.9814375198889635,106.152074,130.2944298,73.9640942
3877.052,-12.93235,-52.2487742,4.207895800000001,0.8478014,0.1757652,0.379375,20.8706038,-54.8185234,-150.8004058,16.374591199999998,23.651325,5.557709800000001,-0.9489182,0.1911476,-0.1435598,128.552548,76.1598602,-74.94983219999999,53.98968854317224,0.9452967840831789,29.298473500231346,0.978566590198664,107.6819442,130.9783836,75.8505736
3897.037,-8.9396364,-38.138511,2.8129914000000014,0.8507196,0.1755368,0.3700191999999999,21.0093352,-55.59633180000001,-151.1857726,12.2271096,12.171494999999998,3.870266200000001,-0.9442502,0.19087,-0.1557722,129.4008604,75.943524,-74.32665260000002,39.27309563655251,0.9441669419901546,17.681246001464363,0.9758610430757444,108.3915252,131.5398558,76.85912
3917.022,-4.8458502,-23.7214864,1.6393460000000015,0.8473512,0.1783608,0.3624545999999999,21.130157,-56.1021112,-151.44369799999998,8.2682464,3.440034,2.1479558000000014,-0.9367982,0.1915502,-0.162554,129.68493640000003,75.858406,-74.2043182,24.266821722136196,0.938717192864411,9.209313034696052,0.9699000719451876,108.5547794,131.9605172,77.23937980000001
3937.006,-0.6469922,-9.8981474,0.5058638000000014,0.8430676,0.175162,0.362887,21.2259482,-56.34707960000001,-151.5679564,4.3952904,-2.3187624,0.3968650000000012,-0.9370726,0.1858358,-0.164971,129.6317108,75.8752776,-74.3514466,9.932160844606678,0.934415153549406,4.985252109593949,0.969461413916717,108.4057626,132.22235719999998,77.2165098
3956.991,4.003091599999999,3.2351998,-0.5835411999999985,0.8328849999999999,0.1687128,0.3793678,21.3058746,-56.3492744,-151.5605344,1.2627976,-6.1353064,-1.1576407999999987,-0.9301632,0.1820422,-0.1696116,129.3740752,75.9633238,-74.64633780000001,5.179940196180651,0.9306349229347026,6.369990158726414,0.9628660530258816,108.0682006,132.3125982,76.9141966
3976.976,7.6607966,15.312361600000004,-1.863438999999999,0.8164087999999999,0.1743264,0.3944577999999999,21.366733,-56.1096824,-151.44114359999998,-0.8401922,-8.4261312,-3.0332565999999987,-0.9237742,0.188946,-0.1719136,129.018338,76.1031416,-74.99904640000001,17.222909952224892,0.9233146692407956,8.994790466375402,0.9584433469781092,107.651605,132.212824,76.44209719999999
3996.961,10.058746,26.9080226,-3.531916799999999,0.8007602,0.177998,0.4075438,21.3969328,-55.63325640000001,-151.22663859999997,-3.2006196000000005,-10.767372,-5.285717799999999,-0.9211478000000002,0.1933796,-0.1715275999999999,128.56950379999998,76.3031982,-75.3990524,28.94295229614196,0.9159651384340344,12.414470519177408,0.9567291449008756,107.17257100000002,131.9364546,75.8275862
4016.945,12.8618966,37.487345,-5.349119199999999,0.7882444000000001,0.1786142,0.4241266,21.417948000000003,-54.9400824,-150.93352339999998,-6.1774858,-12.701079,-6.863132599999998,-0.9236972,0.1945652,-0.169807,128.0010894,76.5494186,-75.8608078,39.99178034939086,0.9127516855095696,15.702908254798707,0.9591175900732298,106.5831414,131.48950100000002,75.0727156
4036.941,16.910503,47.064295,-6.901181399999999,0.7757322,0.1782347999999999,0.4418555999999999,21.461597,-54.0523634,-150.5686522,-9.4353896,-14.8503512,-6.9146142,-0.9233986,0.191491,-0.1654786,127.2061522,76.82140799999999,-76.4883652,50.48404976104571,0.9103650154192218,18.904269285057577,0.957453364201578,105.7445552,130.8737714,74.080287
4056.915,20.8510742,55.7485038,-8.189642999999998,0.7634408,0.1792864,0.4638168,21.5331618,-52.98872299999999,-150.1389434,-12.4819186,-16.689794,-6.942956399999998,-0.9274604,0.194441,-0.157281,126.1767104,77.1122878,-77.2930284,60.08105544761984,0.9111045452042482,21.967069883618137,0.9605870127219918,104.6435486,130.10101079999998,72.84591499999999
4076.9,23.785353800000003,63.2807442,-9.448561799999998,0.754281,0.1906334,0.4833816000000001,21.636240800000003,-51.7729172,-149.6670776,-15.8226002,-17.9514514,-7.389877999999999,-0.938841,0.1902676,-0.1428768,124.9552412,77.4271988,-78.225023,68.26031762294568,0.9159359646695396,25.04435228370832,0.968523599541591,103.3190004,129.200116,71.44205459999999
4096.885,25.6105906,69.83426519999999,-10.733725799999998,0.7488975999999999,0.1979136,0.4973078,21.7572622,-50.4291582,-149.16352539999997,-19.1579746,-19.8608066,-7.1805016,-0.9457456,0.1855924,-0.1305056,123.4452346,77.75900879999999,-79.3832856,75.1527765052917,0.9205066302268332,28.51384282772933,0.9725795548377932,101.6879724,128.188167,69.7802398
4116.87,27.3662604,75.9274246,-12.1020998,0.7387552,0.204479,0.5189756,21.8996934,-48.9617844,-148.634491,-21.502785,-22.0435718,-6.544645999999998,-0.9551352,0.1832001999999999,-0.1177826,121.5965424,78.0984406,-80.8385256,81.61094800477723,0.9256924869325666,31.4820776271722,0.9796521343935508,99.696849,127.060225,67.7959654
4136.855,27.9885746,81.0628128,-13.7723626,0.7184108,0.2142602,0.5476924000000001,22.0589322,-47.3801606,-148.1015748,-23.1305076,-23.1670416,-6.467915799999998,-0.9637904,0.1828835999999999,-0.1053644,119.5161484,78.4388902,-82.49520120000001,86.85745735844152,0.9284333448764324,33.370138344419225,0.986630631527564,97.4572162,125.8190508,65.6063736
4156.839,26.912413800000003,85.40556179999999,-16.2213362,0.7013263999999999,0.233907,0.565866,22.2351038,-45.698629,-147.60244459999998,-24.6690842,-24.5591944,-6.380476999999998,-0.972545,0.1808496,-0.0934768,117.16169140000002,78.778876,-84.39814759999999,91.00285573007848,0.9310078055215004,35.38966277871562,0.9936238055639568,94.9265876,124.477505,63.204297
4176.824,25.859027200000003,89.4557722,-18.8060952,0.6825862,0.2386052,0.5819084,22.41936,-43.9255242,-147.1323518,-26.1286274,-25.8566036,-4.975056599999999,-0.9783138,0.1774233999999999,-0.0860844,114.49254019999998,79.090285,-86.59055179999999,94.9983877984258,0.928156101034756,37.09474771054209,0.9979917224413036,92.0731802,123.0158092,60.5418
4196.809,25.8877836,93.2695524,-20.8628768,0.6595717999999999,0.247086,0.6101554,22.6227482,-42.06266480000001,-146.67693200000002,-26.2976716,-24.4681924,-3.9342137999999993,-0.9816862,0.1706287999999999,-0.0744528,111.800969,79.35961320000001,-88.80035860000001,99.01841431263556,0.931866977041466,36.13499701299247,0.999182266699985,89.17822079999999,121.422278,57.876573400000005
4216.794,25.663339,96.2704664,-22.9976828,0.6269682000000001,0.2600386,0.6406240000000001,22.8478994,-40.1199296,-146.24598099999997,-26.318903,-22.133298,-3.6188667999999984,-0.981041,0.1661094,-0.0669394,109.2340622,79.5907364,-90.8810974,102.25215442068624,0.9333318309568148,34.57837087539485,0.9972535583901015,86.3861628,119.710666,55.3648836
4236.778,23.9154446,98.9943908,-25.7455236,0.601269,0.2813536,0.658501,23.0822164,-38.1047318,-145.85997319999998,-26.2269578,-20.042593,-3.3854691999999984,-0.9844242,0.1655958,-0.0599164,106.789917,79.78852839999999,-92.8371506,105.0460369824438,0.9350442907129908,33.18162520598982,1.000051473431363,83.7077006,117.8932602,53.022822600000005
4256.763,23.018591200000003,101.8679732,-28.0011262,0.5733393999999999,0.286578,0.6730342,23.3206018,-36.0211956,-145.495874,-24.973111800000005,-17.657197000000004,-2.6344177999999987,-0.98965,0.1629108,-0.048926,104.505687,79.943141,-94.653981,108.12493964473212,0.9294192014618592,30.69809564153883,1.0041617423167644,81.1850852,115.9643366,50.841893000000006
4276.748,23.2363314,104.1673294,-29.481154,0.5449124000000001,0.294763,0.699412,23.5763788,-33.882144,-145.1399628,-23.2625376,-15.3644186,-1.7618481999999986,-0.9920782,0.1554316,-0.0401244,102.4261932,80.0582762,-96.2958282,110.72442392006582,0.9343403531833356,27.934121135043483,1.0049816439463757,78.84981439999999,113.9404202,48.8441346
4296.733,23.563647600000003,106.2082702,-30.7976504,0.5104232000000001,0.3091854,0.7145828,23.8580198,-31.694038200000005,-144.7927948,-23.0204126,-13.4342686,-0.5471399999999986,-0.9849008,0.1524562,-0.0313956,100.501587,80.1338484,-97.783815,113.06607544818124,0.9309973322879288,26.65930102742352,0.997124948267989,76.64356719999999,111.8278866,47.008979800000006
4316.718,23.4705476,107.869873,-32.2315036,0.4716798,0.3260778,0.7372892,24.1565862,-29.4592954,-144.4570008,-22.4429358,-11.8289072,1.7107056000000014,-0.9965126,0.1621574,-0.026057,98.7102968,80.1475844,-99.1467696,115.00280835699976,0.93402565800813,25.42705107791709,1.0099561136913424,74.5537106,109.6068798,45.3102312
4336.702,23.7976748,109.7757736,-33.0446252,0.4396504,0.3314844,0.7358596000000001,24.469761400000003,-27.1892072,-144.11336380000003,-22.3590856,-9.598382,2.795034600000001,-0.9978196,0.1537976,-0.0198054,97.1400042,80.13341199999999,-100.2864516,117.0854262919749,0.9190558919759342,24.492240899951327,1.009796964631544,72.67024280000001,107.3226192,43.8269122
4356.687,25.2062664,111.8946702,-33.279381,0.409351,0.344516,0.756759,24.8133404,-24.8800702,-143.747217,-22.5166764,-6.8313068,3.234619000000001,-1.0042822,0.1392604,-0.0115756,95.8583284,80.107527,-101.1294372,119.42901776677934,0.9267921555224774,23.751425826109983,1.013957686868816,71.044988,104.9875972,42.61777980000001
4376.672,25.8593438,113.9162582,-33.781405,0.3635412,0.3612388,0.7739065999999999,25.1793332,-22.524822,-143.36539320000003,-20.6615398,-4.057188399999999,3.0015676000000013,-1.0084976,0.1464614,-0.0095858,94.9359666,80.073712,-101.6452194,121.60099863006754,0.9282171622236036,21.26897770644956,1.019122288274258,69.75663340000001,102.598534,41.72017380000001
4396.657,25.2959668,115.6071808,-34.7848092,0.3180893999999999,0.3804162,0.7926272,25.5493074,-20.1251424,-142.97819220000002,-18.645398,-1.0384872,1.8467490000000013,-1.0099722,0.1541418,-0.0033577999999999,94.3938584,80.05314619999999,-101.8156692,123.3486487155453,0.9349626889853092,18.765388461525884,1.021672557183034,68.844551,100.1782886,41.16252300000001
4416.642,23.8715338,117.12511,-35.2697098,0.2758946,0.3921468,0.783897,25.9058542,-17.6958456,-142.57744440000002,-17.7987526,1.714563,0.2030856000000012,-1.004524,0.1320182,0.0018066,94.1936356,80.0725814,-101.6566482,124.62782172473712,0.9189077481817204,17.88229750781211,1.0131636272146765,68.2877814,97.768427,40.9207962
4436.627,22.948056200000003,118.65748,-35.2353736,0.2350534,0.4000564,0.7959482,26.250445000000003,-15.236904999999998,-142.150534,-15.0200252,2.90278,-1.805774199999999,-1.0130171999999995,0.1310948,0.0016042,94.2042328,80.13102119999999,-101.3407012,125.88781671011829,0.9213190332972396,15.40415882800553,1.021465744673075,67.9537878,95.3679262,40.8098328
4456.611,22.8065858,119.7460466,-35.3371368,0.1856448,0.4050208,0.8103816,26.6024244,-12.7533334,-141.70513599999998,-11.8921792,1.0549756,-3.300197999999999,-1.0122158,0.1518514,0.0087628,94.0441208,80.2102204,-101.2608734,126.91717484014544,0.9247833139813024,12.386614003863688,1.0235802167468069,67.4416964,92.9635538,40.4442626
4476.596,23.7303266,120.2512042,-35.9781226,0.1479268,0.4322822,0.8248445999999999,26.9974882,-10.2589764,-141.256375,-11.7119636,-1.7349915999999996,-5.611948399999999,-1.0083221999999998,0.1609847999999999,0.0227083999999999,93.5210634,80.331932,-101.5521284,127.74155869533377,0.9429309904464058,13.102452139353844,1.0213449154298655,66.52357520000001,90.59090840000002,39.70424659999999
4496.581,23.5569418,120.6200564,-36.6536162,0.1081592,0.4495948,0.8230666,27.411755,-7.755821,-140.8014984,-8.475404600000001,-6.950588399999999,-7.0898072,-1.0170282,0.1425681999999999,0.0144333999999999,92.4721468,80.4951812,-102.4437606,128.24825571306874,0.944072309077668,13.054061757670963,1.0270736946694914,65.0603918,88.25100219999999,38.3577378
4516.566,23.8025152,121.3609498,-36.9041472,0.0733994,0.4509438,0.8284872,27.8431576,-5.2434614,-140.3272066,-2.980929800000001,-12.560101,-9.188955,-1.0152876000000002,0.1323379999999999,0.0194596,90.8212816,80.70292199999999,-104.0569702,129.0618299372964,0.946112479170759,15.845471706287384,1.0240610006195532,62.978124,85.94638339999999,36.2702364
4536.551,25.080494800000004,122.0744568,-36.13597180000001,0.023252,0.4649052,0.8461878,28.3189178,-2.7226642,-139.8143984,1.5413629999999985,-19.831389,-11.2491716,-1.0151252,0.1356984,0.0300985999999999,88.24532939999999,80.93475179999999,-106.6974334,129.7575149282626,0.9657697931494236,22.851775669591557,1.0245970686858126,59.92641160000001,83.657416,33.11696499999999
4556.535,24.4033136,122.1061888,-35.6359198,-0.0247763999999999,0.4924609999999999,0.8526909999999999,28.8130524,-0.2082410000000001,-139.2731478,5.214408399999998,-25.4098092,-13.803584999999998,-1.0082597999999998,0.143453,0.0296254,84.9049348,81.1753708,-110.184474,129.51973532212463,0.984994237546068,29.38345482400972,1.018844567061237,56.09188240000001,81.3836118,29.0886738
4576.52,22.6279316,122.085208,-35.346337,-0.0705434,0.5009412,0.8479424,29.2949986,2.2983654,-138.70536220000002,9.148146199999998,-29.6190092,-15.009047599999995,-1.0041601999999998,0.1382093999999999,0.0335472,80.95561520000001,81.39387059999999,-114.3644836,129.09757875427064,0.9873827884152934,34.4419191501479,1.0141819166896242,51.6606166,79.09550519999999,24.3408786
4596.505,22.7816772,121.1710616,-34.561759,-0.1213762,0.5032258000000001,0.8483865999999999,29.7991284,4.7813446,-138.1097078,9.7708798,-31.379635200000003,-15.673089,-0.997625,0.1410322,0.039525,76.6492462,81.5797196,-118.9151168,128.04665622533872,0.9938451643850968,36.41149977895786,1.008319367902273,46.85011780000001,76.798375,19.194591000000003
4616.49,24.0072456,119.7440552,-33.8893492,-0.1754127999999999,0.5068956,0.8483504,30.3499214,7.235492199999999,-137.49281620000002,10.802698199999998,-33.1153848,-16.238379799999997,-0.998429,0.1523726,0.0403166,72.0310936,81.71665639999999,-123.7988876,126.74176338618186,1.0036987600288048,38.4319135274501,1.0107934039690405,41.681172200000006,74.4811642,13.693928599999998
4636.474,25.4524884,118.0154694,-33.890428199999995,-0.2199913999999999,0.519668,0.8426214,30.9620118,9.6541906,-136.8649506,10.306453,-32.471784400000004,-15.491242599999998,-1.0010932,0.1492874,0.0533391999999999,67.3829774,81.7833616,-128.6989228,125.39553942239662,1.0141310911494237,37.42483604310575,1.0135676559271414,36.4209656,72.129171,8.166027799999995
4656.474,26.0997264,116.8548082,-34.4480386,-0.2531258,0.5306696000000001,0.8394154,31.6169786,12.044870200000002,-136.2265076,9.8370468,-30.428772200000004,-14.401796,-1.0056924,0.132516,0.0668328,62.9703446,81.79030279999999,-133.34896099999995,124.5909678949511,1.0248419920880292,35.07263028873796,1.0165846333825823,31.353366000000005,69.74543259999999,2.8775465999999943
4676.444,24.8536704,115.9164796,-34.727987,-0.2830702,0.5315797999999999,0.822663,32.275793199999995,14.4092312,-135.5688018,11.573181,-28.9666838,-14.2123506,-0.9956668,0.1161157999999999,0.0706386,58.7963822,81.75919159999998,-137.791916,123.53286306194488,1.0195490343603293,34.27824672303506,1.0049005261426829,26.520589,67.3499604,-2.2231142000000035
4696.429,24.6130744,115.040947,-35.0483668,-0.3122652,0.523407,0.8092855999999999,32.9529864,16.750435,-134.8932434,13.6974512,-28.7357274,-14.674791199999998,-0.9870946,0.1080406,0.0863946,54.6532288,81.6932798,-142.2450104,122.75427053029188,1.01311777456888,35.052984114723955,0.996740963092558,21.7002424,64.9428448,-7.351767000000001
4716.414,25.1288534,114.0038254,-35.0387104,-0.349986,0.5359474000000001,0.796184,33.677746,19.0640106,-134.1912934,14.6626036,-26.3046944,-14.4523306,-0.9813548,0.1115366,0.0991191999999999,50.8730056,81.60878439999999,-146.351477,121.88536706892852,1.0215864024245624,33.403573934233755,0.9926340072913278,17.1952596,62.5447738,-12.1601836
4736.399,24.05173,112.9535706,-35.1104508,-0.3951762,0.5404831999999999,0.7803910000000001,34.419632,21.3539738,-133.461026,16.741691199999998,-23.4202508,-13.8002772,-0.9843902,0.1063432,0.096048,47.58668659999999,81.5211364,-150.0027832,120.70517214544414,1.0282492068607103,31.925538720088937,0.9947653795474992,13.1670546,60.1671626,-16.5417572
4756.383,23.3834188,112.0068986,-35.062545,-0.4348677999999999,0.5387386000000001,0.7582844000000001,35.1888862,23.6183954,-132.697052,17.394629400000003,-22.03197,-13.710333,-0.9887062,0.0990414,0.1055452,44.5433104,81.41924739999999,-153.4226684,119.673354054459,1.0268127939844538,31.240263523458527,0.99924418340836,9.3544242,57.800852,-20.7256164
4776.368,24.2345148,111.1785066,-34.6602716,-0.4751502,0.5452876,0.7545270000000001,36.018145600000004,25.852205400000003,-131.889322,17.351261,-20.2412438,-13.1089218,-0.9955238,0.0975806,0.1135181999999999,41.8148208,81.30597680000001,-156.5248778,118.95085735203185,1.0451876735796304,29.70888822591102,1.0067154471815956,5.796675199999999,55.4537714,-24.6355558
4796.353,24.4161052,110.134688,-34.145257599999994,-0.510267,0.5473079999999999,0.7301949999999999,36.9006436,28.0537632,-131.03396619999998,18.8488414,-18.2005692,-12.6919472,-0.988698,0.0934036,0.1149108,39.4096854,81.1961426,-159.3319396,117.8630319929246,1.0455157560639627,29.11400118592308,0.9997261923414832,2.5090417999999994,53.1423794,-28.2979734
4816.338,24.3564076,108.8445864,-33.8294754,-0.5402796,0.5570090000000001,0.7069424,37.8354742,30.215096600000003,-130.1326356,20.0582492,-16.996098,-12.3714508,-0.9774806,0.0897386,0.1158323999999999,37.2158202,81.0879104,-161.9511626,116.5539016318356,1.0497278833940349,29.0560407332404,0.9884019853258492,-0.619654,50.8728138,-31.818527
4836.323,24.5475018,107.1650698,-33.800809599999994,-0.5675604,0.5625973999999999,0.6888758,38.8235122,32.330077,-129.1933824,20.18329,-15.7177294,-11.0537848,-0.9773906,0.106092,0.1337584,35.3279098,80.9622924,-164.2651732,115.0192451699946,1.0550784378237288,27.86751462043997,0.9921890984096328,-3.4956024,48.6322154,-35.071790799999995
4856.307,24.6991752,104.954233,-33.3538644,-0.5987028,0.5713272,0.6774276,39.8655098,34.3843468,-128.2132218,19.1241532,-13.3532974,-10.0129226,-0.9763,0.1056156,0.129652,33.779665,80.854434,-166.2163848,112.86239653043069,1.0694708810572826,25.38311261574332,0.9905180392437888,-6.085844799999999,46.4700872,-38.003163
4876.292,24.080391,102.5077364,-32.8752502,-0.6289486,0.5745826,0.6471902,40.95084,36.378389000000006,-127.18996439999998,18.150285,-12.6174374,-9.6982434,-0.969634,0.1031622,0.129113,32.3580306,80.74664759999999,-168.02102959999996,110.3108486427213,1.0698488961721464,24.13894150889362,0.983617151250343,-8.5928094,44.3682586,-40.8310652
4896.277,23.4694206,100.0795962,-32.3512818,-0.6551248000000001,0.5868666,0.6244758,42.083504600000005,38.3084786,-126.1197694,17.761815,-12.005604600000002,-9.1274002,-0.9748994,0.1150701999999999,0.1280946,31.1204548,80.63297259999999,-169.6338776,107.7652296102865,1.0786894523245512,23.300773556187487,0.9899889987255212,-10.9630498,42.324494,-43.5141082
4916.262,25.206044,97.6328142,-31.0964954,-0.670971,0.5730864,0.596535,43.3109124,40.1665994,-124.9935106,16.8254566,-11.7906538,-8.464683399999998,-0.9920426,0.107067,0.1408868,29.9426366,80.5090454,-171.1669282,105.52015489423752,1.065121641377622,22.22085443659117,1.0077008252045845,-13.3682758,40.342446,-46.17341760000001
4936.247,29.3473954,95.1994324,-29.2492464,-0.6859816,0.5625718000000001,0.5816914,44.6880082,41.9373016,-123.7987962,17.1030278,-11.8582482,-8.526183999999999,-0.9932242,0.0773632,0.1453956,28.7133186,80.38770600000001,-172.756073,103.82543022311069,1.0608594018661286,22.49060745960927,1.006786599374088,-15.9746896,38.4504044,-48.9572768
4956.232,31.127096400000006,92.7150986,-27.6325404,-0.7083354,0.5615682,0.546344,46.1825326,43.6260452,-122.525841,20.539006,-11.1012104,-8.662948599999998,-0.9823294,0.0624068,0.1561948,27.5602008,80.2746384,-174.337024,101.62943927652188,1.0562147738411918,24.902496225465956,0.9966255436911298,-18.6223318,36.6485932,-51.81118299999999
4976.216,30.2850184,90.9159882,-26.4509796,-0.7310182000000001,0.5615932,0.5116883999999999,47.75066,45.2476394,-121.1636308,24.3237922,-9.16357,-8.576486,-0.9893294,0.0555795999999999,0.1619451999999999,26.6052758,80.1904938,-175.7942536,99.41103345036954,1.0543242147043954,27.37104298783436,1.004035856652321,-21.1453842,34.9428544,-54.630622800000005
4996.201,28.0877252,89.71717220000001,-25.1100588,-0.7517982,0.5521696,0.4890392,49.3682808,46.8073074,-119.7020676,27.043483200000004,-7.8913832,-8.613017599999997,-1.0016082000000002,0.0536389999999999,0.1767447999999999,25.7643176,80.120102,-105.19111320000002,97.30676414008754,1.0532099220117703,29.45858083098767,1.0184963686510031,-23.603963200000003,33.312794600000004,14.510954399999996
5016.186,24.190958,89.0293824,-24.8071856,-0.7672794000000001,0.5436748,0.4670805999999999,50.9996772,48.3246298,-118.1478332,29.0368624,-6.5215828,-8.647302399999997,-0.9999476000000002,0.0540786,0.1812038,25.0434462,80.0700928,-34.507232599999995,95.5344431965563,1.0499829773457092,30.991067407413304,1.0176711231326947,-25.956231,31.745463,83.6406006
5036.171,18.965491,88.41875619999999,-25.0347328,-0.7841290000000001,0.540855,0.426739,52.6316366,49.809822,-116.4957764,30.5167598,-5.3413728,-9.5352858,-0.9877912,0.0554872,0.176664,24.3420352,80.04762880000001,36.16563419999999,93.83125355228668,1.0437857029999025,32.41488188112302,1.0049977378368968,-28.2896014,30.2378068,152.6614106
5056.156,16.234335199999997,88.0043274,-24.9572612,-0.8024510000000001,0.5255970000000001,0.3890654,54.32129640000001,51.262203,-114.734526,32.9917296,-5.3574676,-9.3188586,-0.9916186,0.0587332,0.1728968,23.7396568,80.0221284,106.8878266,92.90414504809446,1.0351578137111077,34.69867154072847,1.0082908013556606,-30.5816396,28.7599254,221.6223526
5076.14,16.6562208,88.0273666,-24.6981078,-0.815056,0.5068832,0.361896,56.14653080000001,52.6776922,-112.8437348,34.9166426,-5.9236006,-9.304654,-0.999388,0.055988,0.1815734,23.1471628,79.9806152,177.5812408,92.93139130976984,1.0257755974842842,36.61744885412106,1.0172904847070774,-32.999368000000004,27.302923,290.4249756
5096.125,18.3106722,88.9192094,-25.0360172,-0.8233266,0.4995623999999999,0.3342992,58.163108,54.0662108,-110.79115,37.425531,-7.331245200000001,-9.5005342,-1.0080028,0.0419946,0.1914158,22.4922648,79.9107436,176.1617186,94.17382159589572,1.0194043539645885,39.30238767428581,1.0268754548272347,-35.6708432,25.844532800000003,286.9528686
5116.11,19.2478224,90.9952348,-25.3946834,-0.8369085999999999,0.5022814,0.3081638,60.40923299999999,55.4303122,-108.5187608,42.3853296,-10.1047224,-10.758437999999998,-1.0106168,0.028399,0.1977372,21.677144,79.79544519999999,174.479904,96.41318047049018,1.0235563185142085,44.8816841070112,1.0301712575621007,-38.732089,24.365133,282.99866480000003
5136.095,20.2518114,93.735573,-25.82215,-0.85063,0.4971313999999999,0.281926,62.920227,56.7694006,-105.9884538,48.916289600000006,-13.651284800000004,-12.5498778,-1.005326,0.0278888,0.2044746,20.7106634,79.61818699999999,172.5110318,99.31403194535,1.0247893906759378,52.31309967605354,1.0262884650460609,-42.2095636,22.8487864,278.4994856
5156.08,22.240283,96.3150012,-26.013581800000004,-0.8657286,0.4856904,0.2468076,65.74282,58.069847,-103.17884999999998,53.9479058,-16.7028386,-13.9638854,-0.9940222,0.0298151999999999,0.202624,19.65734,79.3888764,170.3499632,102.2150482176738,1.0228857047235922,58.17517901104952,1.014901751707957,-46.08548,21.3190294,273.5288132
5176.064,25.304926,97.6433658,-25.7683808,-0.889041,0.4740298,0.1986368,68.901129,59.3051674,-100.0891938,56.953261600000005,-18.949472,-14.531898000000002,-0.9805892,0.0406876,0.1907352,18.639693,79.1205248,168.16057719999998,104.10848002767062,1.0269151519396722,61.75704458148255,0.999795267276976,-50.26143600000001,19.815357400000003,268.249771
5196.049,28.8739862,97.0301454,-25.1248018,-0.9179986,0.4658614,0.1537728,72.35747359999999,60.4430076,-96.7794342,56.622535600000006,-19.1524676,-14.143658,-0.9661154,0.0610846,0.1673046,17.791059,78.85122240000001,166.14477820000002,104.30633662876008,1.0408623096412706,61.4245196526866,0.9823956044565142,-54.56641460000001,18.4082148,262.9242124
5216.034,32.8232988,93.2562318,-24.125889800000003,-0.9438972,0.4595954,0.110761,76.009819,61.449593400000005,-93.387584,51.11857619999999,-16.699195600000003,-12.5436772,-0.9536786,0.090944,0.145523,17.219406799999998,78.62304700000001,164.5170804,101.76518202357404,1.05566938716153,55.22061031988024,0.9689946474377245,-58.790412200000006,17.1734536,257.9046644
5236.019,35.6421476,86.62846379999999,-23.0407782,-0.959449,0.4570269999999999,0.0695926,79.70722359999999,62.3074098,-90.05649580000001,40.2448694,-11.1135474,-9.771432399999998,-0.9502752,0.1175943999999999,0.1269644,16.9911418,78.4898302,163.4554288,96.46621629332049,1.06501605260426,42.87938129197846,0.9659044246268672,-62.716081800000005,16.1824204,253.5119246
5256.004,36.432176000000005,78.2707152,-22.1554908,-0.9649736,0.460262,0.0441156,83.2910432,63.018522,-86.90605020000001,25.7973574,-4.2173122,-7.371625399999999,-0.9529494,0.1283348,0.1224778,16.954061,78.4758806,162.8809354,89.13177928552403,1.070028664804976,27.15934888861529,0.9693209949981688,-66.3369822,15.4573586,249.78698560000004
5275.988,35.1046774,67.8449294,-21.074623,-0.9696178,0.4781034,0.0768662,86.5770144,63.5945382,-84.09155899999999,12.7109028,3.270389,-5.335168999999999,-0.9538372,0.1188827999999999,0.1252808,17.03902,78.5936692,162.6985502,79.24274449589176,1.0838126922447624,14.167798786718064,0.9693471014493829,-69.5379944,14.999131,246.7901092
5295.973,28.897958,55.3071976,-19.2835434,-0.9567806,0.5257698,0.1306232,89.3372058,64.0485384,-81.7367418,4.046670799999999,9.000519800000001,-4.484989799999998,-0.9511312,0.1004562,0.1428716,17.120697399999997,78.808301,162.6925262,65.31334571888729,1.0995114458279365,10.839743296769932,0.9670337645700072,-72.2165084,14.759762600000002,244.429268
5315.958,16.7681198,42.6363094,-16.2739632,-0.9316162,0.5818806,0.1547966,91.3985888,64.3871674,-79.8949692,1.9295874,11.9833584,-4.154576999999998,-0.9523004,0.0915807999999999,0.157657,17.235689999999998,79.0694444,162.76542060000003,48.61961126042283,1.109259105948813,12.829056712245771,0.9695972485613809,-74.1628988,14.682277,242.6603898
5335.943,3.576728599999999,30.472193600000004,-11.7446852,-0.9225992,0.6191948,0.1480722,92.723366,64.6041946,-78.58146819999999,4.5766864,12.5780052,-2.249512999999998,-0.9648988,0.0941416,0.1527678,17.603147999999997,79.3287416,163.04157719999998,32.85247632555327,1.1209446286951554,13.5724935790127,0.9814429865299562,-75.120218,14.724547,241.6230454
5355.928,-7.586469600000001,16.9617438,-6.307830399999999,-0.9385262,0.6281445999999999,0.1347126,93.2783556,64.7062424,-77.87654260000001,7.280071599999999,12.973971,1.2546914000000011,-0.9846638,0.1249276,0.1277414,18.3799642,79.5691072,163.6791534,19.62253801330824,1.137341000401533,14.92975607701618,1.0007435083707312,-74.89839140000001,14.862864800000002,241.555696
5375.912,-19.3783168,2.2712846,-1.2076072,-0.9589026,0.6245704,0.0905981999999999,92.9798738,64.7128616,-77.8549742,2.8666749999999994,14.417088799999998,4.800505400000001,-0.9991814,0.1672248,0.0863722,19.5434132,79.8052584,164.797525,19.54830455269334,1.1479505279785187,15.463347862547089,1.0167535398383625,-73.4364606,15.0923968,242.6524992
5395.897,-30.761886,-13.1270812,2.9824828,-0.9849152,0.5884548,0.0470302,91.7836168,64.63828120000001,-78.581938,-9.7997014,17.836994,9.0958002,-1.0120454,0.196787,0.0439072,21.177258200000004,80.0741364,166.64663679999998,33.57840220678591,1.1482808204207366,22.291838949793217,1.0319345217803308,-70.6063586,15.435855199999995,245.2285748
5415.882,-37.07366,-30.5291956,6.0850252,-1.0164752,0.5237242,0.047062,89.7179078,64.489827,-80.1241484,-30.340482,21.6428912,13.1205716,-1.0249768,0.1938716,0.0164216,23.1108946,80.3892824,169.21369,48.4098707028153,1.144431606398862,39.51087175193795,1.043280071108118,-66.6070132,15.8994554,249.33783839999995
5435.867,-40.8674944,-50.370112000000006,8.271775,-1.0390156000000002,0.475739,0.1076168,86.7931854,64.24948499999999,-82.53160679999999,-51.9104868,23.9132214,14.869159200000002,-1.0262897999999998,0.1564884,0.0201946,24.91061,80.727652,172.08308699999998,65.38900934466893,1.1478076445147942,59.05618251168405,1.0383483012880406,-61.88257539999999,16.478167000000003,254.6146938
5455.852,-46.6812578,-70.3311556,9.9727664,-1.0347448,0.463971,0.1765546,83.0044982,63.8758422,-85.7670942,-66.4624316,23.5855702,12.9557864,-1.0132332,0.0888963999999999,0.0419258,26.1915388,81.07511600000001,174.72304979999998,85.00039616078529,1.1476660737118616,71.70346112347877,1.0179891257871274,-56.8129594,17.1992738,260.490144
5475.836,-51.39181,-88.60328200000001,12.0406818,-1.02211,0.4553805999999999,0.2396746,78.5193542,63.3032882,-89.6744658,-70.38916259999999,20.7232472,10.423992000000002,-1.0067574,0.0400434,0.0797016,27.0125994,81.3883332,176.97702320000002,103.13407649490286,1.1443444659898172,74.11306764166228,1.010700886207626,-51.5067548,18.085045,266.651489
5495.821,-51.4362694,-105.2136518,14.7464526,-1.0159768,0.4593003999999999,0.294662,73.6323492,62.4622596,-94.0467636,-68.82308739999999,16.0829074,7.511057200000001,-1.008466,0.0283889999999999,0.1154014,27.3468154,81.630272,106.7066528,118.03838443135804,1.1532525351467475,71.07526468446449,1.0154442828629051,-46.2855338,19.1680124,200.7534164
5515.806,-50.0899316,-120.2287016,17.6961856,-1.0140046,0.4863481999999999,0.3481736,68.579457,61.2969208,-98.6731492,-65.1494424,11.5820556,4.5409372,-1.008874,0.0302919999999999,0.1405546,27.151966800000004,81.8018174,35.8284972,131.44237110195542,1.1772700438732653,66.32657060037668,1.0190681766796372,-41.4274902,20.5048966,134.5016464
5535.791,-49.1397096,-133.2484344,20.2890832,-1.0030902,0.5200476,0.3839816,63.5420356,59.7915246,-103.349222,-60.77869499999999,8.213406,2.3527864000000007,-1.00244,0.0403064,0.153465,26.6091876,81.92293099999999,-35.4893128,143.46254991014192,1.1933487858712388,61.37626094727411,1.0149197336272264,-36.93284799999999,22.1314064,67.85990919999999
5555.776,-47.008799,-144.58544620000004,22.9014132,-0.9932086,0.5515772,0.4166532,58.7379706,57.9413452,-107.8838564,-56.97857359999999,6.3868936,2.531022800000001,-1.0006122,0.0612329999999999,0.1631666,26.1174114,81.99917,-106.8338196,153.75062004048192,1.210082897880984,57.39125661424793,1.0156759298287026,-32.6205592,24.0578248,1.0500368000000009
5575.777,-44.5339074,-154.7832916,25.5963804,-0.9753436,0.5780136,0.4516536,54.2930586,55.7587776,-112.1530032,-54.5474976,5.4611744,3.1084440000000004,-0.9974042,0.0668663999999999,0.1700366,25.702202600000003,82.0484696,-178.15057059999998,163.08375442214933,1.2204039635460384,54.9082538818196,1.0140013308502902,-28.590855999999995,26.289691999999995,-65.99756740000001
5595.745,-42.6765596,-163.677292,28.7544536,-0.9568702,0.5938169999999999,0.4947578,50.2657478,53.26387939999999,-116.07511760000004,-50.484845,5.225419199999999,4.435050800000001,-0.9942134,0.055836,0.173918,25.4810734,82.082506,-177.35308519999998,171.57611505562235,1.230042474794216,50.94795634849679,1.010853804642175,-24.7846744,28.8186266,-61.2779676
5615.73,-42.5521988,-171.11184099999997,31.8586934,-0.9349348,0.605792,0.5407903999999999,46.6575234,50.4895972,-119.6081314,-43.3320294,5.7104336,6.1767938,-0.9945106,0.0441002,0.1719522,25.622063200000003,82.11340039999999,-176.3347014,179.17848112504805,1.2383623396434502,44.14098555164114,1.010229538390776,-21.0354602,31.6238032,-56.72657
5635.715,-44.319596,-177.7300234,35.1875732,-0.9127694,0.602159,0.5827002,43.4266458,47.4663992,-122.7469008,-36.2078904,7.213144199999999,7.3755736,-0.9910926,0.0426085999999999,0.1637148,26.1708032,82.1637194,-175.05007,186.5217229039908,1.239065358218605,37.6489025390837,1.0054265613697302,-17.2558426,34.69732019999999,-52.3031692
5655.7,-47.4928024,-184.1242434,38.76044399999999,-0.8890558000000001,0.5897216000000001,0.6222438,40.513743000000005,44.2144676,-125.5076278,-30.8915884,9.4319734,8.107450199999999,-0.9867134,0.0462888,0.1539108,27.1121186,82.2477662,-173.4786436,194.06100923808737,1.2350623982854632,33.30139794120964,0.9997172205687166,-13.4016244,38.0332986,-47.9710158
5675.685,-49.76606579999999,-190.5871706,42.168184,-0.8602527999999999,0.567537,0.6667776,37.8888116,40.7494484,-127.9480986,-28.3456514,12.5939326,8.974523399999999,-0.9835716,0.0454034,0.1476413999999999,28.480284600000005,82.377652,-171.530139,201.44052880287344,1.2274874720902855,32.28970674813898,0.9956267091897848,-9.408527,41.628203600000006,-43.5820404
5695.669,-51.455692,-197.0438508,45.2749084,-0.8163319999999998,0.5480068,0.7170976,35.5195992,37.081622200000005,-130.0999556,-25.894182,16.3869422,9.863767200000002,-0.9861534,0.0405762,0.1422756,30.3585774,82.5592224,-169.1193694,208.6235478269889,1.2169381064770712,32.19214872435608,0.99718970246055,-5.1610218,45.477600200000005,-39.01941380000001
5715.654,-53.5070074,-203.2354982,48.0910346,-0.7623894,0.5327214,0.7555654,33.367207,33.229602,-131.9989836,-22.952106200000003,21.5271804,10.1820832,-0.9826594,0.0359896,0.137253,32.8913498,82.81292420000001,-166.1126494,215.59317052820637,1.1982941045200382,33.074060731666215,0.9928510128541542,-0.4758572000000001,49.583322200000005,-34.11366580000001
5735.639,-55.574266,-208.6205964,50.2052368,-0.7012008,0.5197464,0.7870282,31.3980324,29.222548400000004,-133.679492,-19.0577716,27.2275662,11.4537772,-0.9869052,0.0392584,0.1361554,36.45024,83.11860800000001,-162.15756219999997,221.65653179158636,1.175258384283575,35.152923515411764,0.9970262728267296,5.0522076,53.8960596,-28.47807020000001
5755.624,-55.2653342,-213.4467866,51.7273848,-0.628502,0.4965568,0.8181132,29.6199608,25.0804012,-135.17195099999998,-14.9750038,32.931296200000006,13.8551014,-0.9954056,0.0415042,0.1372348,41.3284524,83.4354432,-156.96380319999997,226.47187510229807,1.1449421940187547,38.73867373860947,1.0056780287249196,11.7084916,58.355042000000005,-21.791852200000008
5775.609,-53.2418404,-217.577057,53.2617026,-0.5474044,0.4841325999999999,0.8429016,28.0483742,20.8175392,-136.4943112,-9.964304000000002,37.6793706,16.629464000000002,-1.0113878,0.0470186,0.1348546,47.605433000000005,83.7122514,-150.4694062,230.24178218953045,1.115580144500914,42.37406513356792,1.0214214575169056,19.5570588,62.8947122,-13.97509500000001
5795.594,-52.1603204,-220.4131196,54.39471579999999,-0.4640883999999999,0.4777669999999999,0.8483789999999999,26.6463302,16.469073599999998,-137.66441319999998,-5.2032046,40.4858164,19.1161184,-1.0278784,0.055437,0.1259614,54.9242532,83.8997956,-143.02468119999995,232.9408238651983,1.0786038554281918,45.073280891974,1.0370504040043185,28.277923,67.43072200000002,-5.360268000000007
5815.578,-51.4916566,-221.9247742,54.6045134,-0.378178,0.4628321999999999,0.8464644,25.378501,12.0702998,-138.697067,0.8372048,39.0953996,22.1173204,-1.043959,0.0719112,0.1176914,62.5780946,83.9297364,-135.3606674,234.2725954668708,1.036211477213122,44.925794855929695,1.0530303319469956,37.1995936,71.85943660000001,3.336399599999996
5835.563,-49.239463,-222.4444184,54.3569402,-0.2886626,0.4381632,0.8392678,24.2522456,7.6436398,-139.6338346,5.5910648,33.7924734,23.1150912,-1.0592118,0.077923,0.1115798,69.5364838,83.8160356,-128.4840866,234.223655811596,0.9897896375441804,41.32189135642056,1.0679193241796312,45.2842382,76.1723958,11.149747999999995
5855.548,-46.526342,-221.617636,53.9012792,-0.2026269999999999,0.4168268,0.8309013999999999,23.2608504,3.2170544,-140.47672400000002,10.3603356,26.2308276,21.705319000000003,-1.078052,0.0815958,0.100509,75.1094742,83.60810860000001,-123.0884002,232.77548192523588,0.9514196859689208,35.58811238626334,1.0857974251040754,51.8486238,80.39105420000001,17.388323800000002
5875.533,-44.4480262,-219.087628,52.783589000000006,-0.1197912,0.3917684,0.8096340000000002,22.3768692,-1.1703994000000002,-141.239459,17.0805024,13.7507148,19.0945702,-1.079867,0.0809062,0.0882602,78.4300354,83.341391,-120.0863694,229.6978951655047,0.9073806394187612,29.0762502890258,1.0864844286925974,56.0531662,84.51179040000001,21.1530896
5895.518,-42.3155304,-215.2783996,51.1607848,-0.0480076,0.3631972,0.7960900000000001,21.583767,-5.483768,-141.942114,25.4105948,0.6282820000000008,14.887989200000002,-1.07939,0.0864348,0.0835108,79.43277739999999,83.0715928,-119.580072,225.28386393331084,0.8763425265531738,29.45751667708308,1.086060679919718,57.8490104,88.5553608,22.362042
5915.502,-39.707624,-211.1512114,49.0611686,0.0174898,0.3306398,0.7734602,20.8841512,-9.7143078,-142.604907,31.8955158,-13.1721002,10.820421200000002,-1.074009,0.0904332,0.0658138,78.2963836,82.8097016,-121.3580872,220.38268476404969,0.8413496606240001,36.16503375876067,1.0798170919251464,57.41223240000001,92.5240094,21.2468198
5935.487,-36.1632282,-205.72503340000003,46.454846200000006,0.0811768,0.2965415999999999,0.7535128,20.2866448,-13.8361822,-143.2350492,38.207551800000005,-22.7739164,7.725996800000002,-1.0543222,0.0974418,0.0491118,75.9119294,82.5525726,-124.5224976,213.9827590642341,0.8138231584027577,45.14597777540634,1.0599538549858292,55.6252846,96.3887548,18.712551599999998
5955.472,-32.8190754,-198.82937,44.0310562,0.1393422,0.2753608,0.7314962,19.7847462,-17.8199948,-143.8317076,40.87088,-30.7148098,4.900623800000002,-1.0361182,0.1064341999999999,0.0354414,72.5478638,82.29281160000001,-128.7301896,206.27395374791104,0.7939310483234171,51.35995022051426,1.0421733330568577,52.7631176,100.1128064,15.101517999999992
5975.457,-30.769612800000004,-191.0763702,41.1913146,0.190689,0.2544484,0.712638,19.347901200000003,-21.6443028,-144.3945402,40.1715952,-32.4101738,3.536888800000001,-1.0216068,0.1280564,0.0265154,69.17266759999998,82.01849519999999,-132.9382844,197.8728700937689,0.7803583805070334,51.73669886108346,1.0299426983208142,49.8247664,103.662798,11.456255799999992
5995.442,-28.894145400000003,-183.0427214,37.8187324,0.2439734,0.2332058,0.6824428000000001,18.9763908,-25.3039376,-144.9483732,35.567114999999994,-30.1189204,3.987203800000002,-0.9986704000000002,0.1318826,0.0172846,66.2721846,81.73271179999999,-136.5776338,189.1289666239869,0.761338387534111,46.77677660578478,1.007489129180102,47.2957938,107.03664940000002,8.370739399999994
6015.426,-26.4859758,-174.20242919999998,34.9404456,0.2923474,0.2188917999999999,0.665893,18.676461,-28.7837862,-145.48738699999998,28.777137000000003,-21.4889174,3.147656600000001,-0.9790636,0.1355093999999999,0.0153624,64.4720122,81.51320960000001,-138.9738954,179.63526377631356,0.7594696240423312,36.05280747753655,0.9885162283276284,45.7955512,110.29699580000002,6.513491599999995
6035.411,-25.2104148,-165.73697199999998,32.7391056,0.337952,0.208026,0.6381644000000001,18.4230052,-32.099375,-145.99267279999998,21.9477538,-12.908381,3.6843356000000016,-0.9679506,0.1343434,0.0079284,63.73074319999999,81.35106679999998,-140.1664278,170.81029810173854,0.7514919642999253,25.727505237002728,0.9772611588979068,45.30773799999999,113.4504418,5.8262449999999975
6055.396,-24.735441200000004,-157.5532318,30.321272,0.3831724,0.1955155999999999,0.6159290000000001,18.1962268,-35.2525274,-146.4900482,18.3669296,-1.6917896,4.998534800000002,-0.9474404,0.1341116,-0.0027671999999999,64.4124816,81.2565324,-139.8526642,162.33989786149667,0.7512762281651936,19.10998705203212,0.9568891734169428,46.2162548,116.5090598,6.637384
6075.381,-24.1522972,-149.717804,28.053569600000003,0.4266004,0.188791,0.5975798,18.0022234,-38.2483366,-146.9849854,16.0909272,11.1097142,5.805547200000001,-0.937967,0.1311834,-0.0171269999999999,66.6684746,81.24433760000001,-137.9055358,154.22631766959097,0.7581105198644852,20.397256336399984,0.947251028847982,48.6662512,119.4926742,9.079449599999997
6095.366,-23.456755,-142.1091386,25.620509400000003,0.471733,0.1800896,0.5786064000000001,17.849104599999997,-41.0923072,-147.48649,14.6020016,25.3517228,6.265058400000001,-0.933908,0.1391036,-0.0302277999999999,70.6866074,81.2900574,-134.149652,146.29298387373032,0.7679515957650718,29.919546393785,0.9446944923570794,52.8375028,122.3823646,13.336837999999991
6115.351,-23.2901158,-134.7186996,23.079527,0.5241796,0.167923,0.5467136,17.732073000000003,-43.7988784,-148.006601,14.8971338,40.296233,7.019618600000001,-0.9328212,0.1454416,-0.0377337999999999,76.6474702,81.32394100000002,-128.43562160000002,138.65144096775978,0.7757951710407329,43.5314373152881,0.944845220045294,58.9153972,125.1228194,19.57097939999999
6135.335,-23.2760272,-126.98318780000002,20.3508494,0.5799112,0.1623824,0.5237018,17.653648600000004,-46.35649479999999,-148.552652,15.943868599999998,55.237937,7.650344400000002,-0.9329906,0.1550994,-0.0460193999999999,84.3908128,81.26998900000001,-120.9361586,130.69300095019128,0.7980780782845999,57.99969309736601,0.9469134431113964,66.73716420000001,127.6264838,27.61649339999999
6155.32,-23.0831598,-119.220172,17.1314716,0.6386480000000001,0.1511984,0.4874392,17.6268192,-48.761522,-149.141202,15.9827136,67.9400186,8.6289148,-0.9243564,0.1648382,-0.0560467999999999,93.3405472,81.0400956,-112.2070586,122.636735920537,0.817514035208693,70.32603665793793,0.9406102435070756,75.71372799999999,129.8016176,36.9341434
6175.305,-21.5156636,-111.0516538,14.084919,0.6986792,0.1403869999999999,0.446845,17.6759018,-51.000982,-149.76886919999998,15.683021,75.3101448,9.0654596,-0.9263298,0.1703952,-0.0631831999999999,102.5629974,80.613031,-103.18179460000002,113.99025631649393,0.8411489691526941,77.45810232146565,0.943988103374889,84.8870956,131.614013,46.5870746
6195.29,-19.338773600000003,-101.1090466,11.428182,0.7649178000000001,0.135731,0.4032619999999999,17.793797,-53.0356194,-150.41141979999998,16.401363999999997,75.525273,8.2890646,-0.9246796,0.171269,-0.0755567999999999,111.1667236,80.0304078,-94.7835692,103.57427678983883,0.8752955990760151,77.72888906145512,0.9434374717189264,93.3729266,133.0660272,55.62785059999999
6215.275,-17.005371,-88.53628280000001,9.1592012,0.8227715999999999,0.1332798,0.3622048,17.9500542,-54.80739139999999,-151.02890340000002,16.052872400000002,66.58718100000002,6.799445400000001,-0.9192854,0.1671828,-0.0845113999999999,118.2205306,79.392708,-87.93707859999999,90.61869002314754,0.9087953168880438,68.83153233486108,0.9381779745863577,100.2704764,134.2000994,63.0918248
6235.26,-14.1209144,-73.916934,7.3070256,0.8618178000000001,0.1345002,0.3322606,18.1186174,-56.2753518,-151.5796694,14.3273524,52.535488,2.780441800000001,-0.9261732,0.16982,-0.0918998,123.441284,78.84608920000001,-82.9077558,75.60757884347004,0.9333902348478048,54.52505279956286,0.946087312058607,105.3226666,135.12144099999998,68.6719136
6255.244,-12.1146014,-58.7745726,5.8959616,0.8937614,0.140371,0.3125206,18.2546536,-57.4378738,-152.0347108,11.4284954,34.5458582,-1.3808243999999987,-0.9520982,0.1687662,-0.0949346,126.77478779999998,78.5010086,-79.735266,60.29905732747592,0.9571742700236568,36.41336982354096,0.9715892089678848,108.5201342,135.93888239999998,72.29944479999999
6275.229,-11.1788716,-42.8207106,4.6629732,0.912462,0.1422346,0.2879138,18.3097364,-58.2841858,-152.3660494,8.261328,18.2761416,-4.305684599999999,-0.9588966,0.1613347999999999,-0.1034249999999999,128.6560424,78.3635026,-77.9788848,44.50082859455717,0.9673220451905352,20.513551910420382,0.9778590582530796,110.346306,136.6476884,74.38716459999999
6295.214,-6.593093399999999,-24.334042,4.2075108,0.9085728,0.129927,0.2869374,18.2905258,-58.7813378,-152.5003694,5.1780862,6.6728988000000005,-5.774949199999999,-0.9653056,0.1571296,-0.1129589999999999,129.5925964,78.3772706,-77.125772,25.560078790391163,0.9616229145291828,10.23182258213328,0.9845122387601486,111.3020706,137.1586084,75.3745974
6315.199,-1.2844106,-8.6573822,3.3117048,0.8957286,0.1322466,0.3044391999999999,18.2549554,-58.98901679999999,-152.4878968,2.317422,-1.9025304,-6.078031799999999,-0.9671902,0.1629244,-0.1252516,129.8456452,78.49299620000001,-76.91439520000002,9.357743629134765,0.9552497655410128,6.777354735501115,0.9887816778207208,111.5906898,137.482013,75.5735016
6335.184,3.5814712,5.6064050000000005,1.6725066000000002,0.8801846,0.1305086,0.3235008,18.2209244,-58.92531820000001,-152.3633178,-0.6536501999999998,-6.468829,-5.558101599999999,-0.9659614,0.1627046,-0.1327113999999999,129.6841402,78.65427700000001,-77.0673524,6.859736970722566,0.9467894128853364,8.553683452824496,0.9885173386648716,111.4632158,137.5795952,75.29596539999999
6355.168,9.157881,19.3786172,-0.3915736000000001,0.8575935999999998,0.122065,0.3438705999999999,18.2157918,-58.594278,-152.1436706,-3.0492181999999994,-7.5316768,-5.6063736,-0.9517529999999998,0.1557294,-0.1420902,129.4294496,78.82622059999998,-77.2683044,21.437138775464277,0.931994440182086,9.871945704553204,0.974820518849188,111.2136578,137.42049860000003,74.87536619999999
6375.153,15.3434496,32.2799096,-2.594031,0.8387808,0.116505,0.3770334,18.2667042,-58.0151298,-151.8458434,-5.4179762,-8.228532,-6.926599199999998,-0.9455492,0.1529927999999999,-0.1451246,129.166382,79.0252364,-77.4303924,35.834941136283085,0.9269740180766666,12.04329612092267,0.9687782181684516,110.8996778,137.0403662,74.41545099999999
6395.138,18.011857,41.6620184,-5.320931799999999,0.8253458,0.1193876,0.3997372,18.3601098,-57.2457968,-151.5345428,-8.609435999999999,-11.0534714,-8.978418199999998,-0.9392278,0.1534332,-0.1411402,128.7323304,79.2904188,-77.7023422,45.69970552389412,0.9247912833040978,16.64072148684681,0.9620868792427844,110.3722206,136.53621560000002,73.8322006
6415.123,20.3104046,51.5275788,-7.761646600000001,0.8131142,0.1172903999999999,0.4178056,18.472179,-56.2703664,-151.1906798,-11.6129674,-12.281065,-10.7266662,-0.9458276,0.1473434,-0.132049,128.2141052,79.60160959999999,-77.99878679999999,55.92715860786423,0.9216687363500836,20.01866471905432,0.9663006079095262,109.7419262,135.871976,73.19189300000001
6435.108,22.491648,60.5491074,-9.943365,0.8061608,0.1186458,0.426182,18.609623,-55.1143216,-150.8215332,-14.075708600000002,-14.1428184,-11.344018799999995,-0.947854,0.1407805999999999,-0.1226592,127.4794844,79.94756299999999,-78.46517779999999,65.35242263463432,0.9195668319585476,22.95281349687323,0.9660702158730492,108.8698614,135.06188459999998,72.35635540000001
6455.092,24.719483,69.30002759999999,-11.7671456,0.8029282,0.1269855999999999,0.43377,18.7748714,-53.7872884,-150.4245422,-16.1329476,-16.8702382,-10.852459799999998,-0.9556376,0.1330714,-0.1107122,126.351161,80.32097759999999,-79.28941180000001,74.51182711972407,0.9213986378666944,25.74204379803012,0.971189173776438,107.5762896,134.108266,71.1351304
6475.077,26.9142722,77.99028940000001,-13.2238766,0.7919018,0.1331302,0.4507261999999999,18.9567062,-52.2881048,-149.9864196,-17.2984176,-21.2165684,-9.4254672,-0.96538,0.1308948,-0.0973801999999999,124.5523206,80.71762820000001,-80.7694228,83.55677232327416,0.9208616716758928,28.95198539088717,0.979068381891214,105.5956144,133.00573300000002,69.2169968
6495.062,28.7170234,85.2381044,-14.748513399999998,0.7717962,0.1483408,0.4736539999999999,19.1695038,-50.63797280000001,-149.5298888,-17.9744812,-23.1913624,-6.874715799999999,-0.9743332,0.1297148,-0.0864599999999999,122.231288,81.08532240000001,-82.76351,91.1466978127646,0.917617828398664,30.136074424318387,0.9867251114476008,103.0617842,131.72329520000002,66.7663788
6515.047,30.5482178,92.0637728,-16.5450126,0.7519747999999999,0.1675776,0.4872204,19.4279042,-48.848361,-149.0683074,-18.840961,-24.657892600000004,-4.342266599999999,-0.9829954,0.1309544,-0.0752208,119.3993316,81.41065040000001,-85.2554366,98.40055546012135,0.9115547542703948,31.33446597761212,0.9945286220381796,99.9714274,130.25901140000002,63.8128708
6535.032,31.9658634,98.6559556,-18.8441336,0.7285915999999999,0.1873326,0.5131224,19.729607,-46.9145614,-148.61127919999998,-19.140837,-26.7343954,-1.1417625999999983,-0.987217,0.132986,-0.0693555999999999,115.9602768,81.674542,-88.35314919999999,105.40358328534796,0.9106227649224896,32.899896053010096,0.9985453823118708,96.2306698,128.5891034,60.25813
6555.016,33.0503292,104.6451554,-21.278832,0.6958363999999999,0.1991808,0.5457584,20.0649922,-44.8432204,-148.15894459999998,-19.0105846,-27.331847,0.4000508000000014,-0.9837844,0.1373686,-0.0596159999999999,112.1693894,81.8868254,-91.8064712,111.78426320463336,0.9064841519983458,33.295528647368656,0.9951160462003013,92.1043972,126.7300458,56.3524734
6575.001,33.6840564,109.243045,-24.212981,0.6618489999999999,0.2199304,0.5780444,20.4502846,-42.6569946,-147.7403258,-19.4265258,-25.507343,1.3606774000000017,-0.9901232,0.142722,-0.0460227999999999,108.3534684,82.0335936,-95.2730316,116.85429810382144,0.9058414916620456,32.09152371833699,1.0014148084495655,87.9031838,124.6905882,52.46729419999999
6594.986,33.8917354,113.2754348,-27.547314,0.627013,0.2386801999999999,0.5991664,20.882089200000003,-40.368747,-147.36402579999998,-19.8970852,-25.1471048,3.1761846000000014,-0.9993228,0.1413004,-0.0345913999999999,104.4216508,82.11404239999999,-98.8441208,121.4035764142361,0.8995075958156218,32.22357875673525,1.0098556464138626,83.5395616,122.4827894,48.519905
6614.971,33.8147494,116.8543028,-31.0058138,0.5915623999999999,0.247215,0.6312894,21.3413738,-37.9832544,-147.02194219999998,-19.504725200000003,-22.6584452,4.104387400000001,-0.9883288,0.12967,-0.0262991999999999,100.7725082,82.1447874,-102.1357682,125.53774671093616,0.8997708796527703,30.177565175775808,0.9971458136752518,79.43113439999999,120.1280418,44.886174
6634.956,33.2981574,120.4126602,-33.718799000000004,0.5491400000000001,0.256903,0.6599512000000001,21.807011,-35.5050252,-146.6937104,-20.0876498,-19.2766904,3.2610132000000016,-0.9877598,0.1228216,-0.0146057999999999,97.5759476,82.1573928,-104.9571718,129.4022157023528,0.8961525971565558,28.031030561780398,0.995473704984838,75.7689366,117.662418,41.7365386
6654.941,32.1931168,123.7803084,-36.2529982,0.5088594000000001,0.2715365999999999,0.686887,22.2700496,-32.9407552,-146.3785768,-21.4097352,-15.9987424,4.764162200000001,-0.9969148,0.1232348,-0.0066709999999999,94.7880798,82.112236,-107.3374024,132.93698279781574,0.8969301895225291,27.148365718466103,1.0045249805908665,72.5180302,115.0529912,39.0411744
6674.925,30.9958412,127.1938232,-38.3290968,0.4747073999999999,0.2836998,0.6940684,22.7257126,-30.3039048,-146.0655398,-22.1670438,-10.8210744,4.129688400000001,-0.9899088,0.114022,0.0025298,92.7066024,82.06577300000001,-108.9888718,136.41162154828393,0.8874478215722658,25.010553937938845,0.9964571484461736,69.9808898,112.3696778,37.076668
6694.91,29.812976000000003,131.40183240000002,-39.6481986,0.442316,0.299917,0.7108983999999999,23.1616558,-27.583563,-145.7285312,-23.9676366,-3.7613826,-0.076846999999999,-0.9925342,0.1076992,0.0118326,91.6198316,82.09412379999999,-109.6014786,140.45367474110216,0.8893650464615528,24.261111036278848,0.9984304013165064,68.4581758,109.6776868,36.1270526
6714.895,28.5388188,135.221585,-40.5020554,0.3902565999999999,0.3117756,0.7439684,23.567154,-24.7771324,-145.35911879999998,-27.2280454,-0.0706144000000001,-2.6095213999999998,-1.0077952,0.10886,0.0127214,91.0207122,82.1680558,-109.6573166,144.0130470479537,0.8960988889611905,27.35289828583081,1.0137373914190004,67.4535582,106.9451882,35.7018022
6734.88,27.6962742,137.7085204,-41.237352,0.3431536,0.3322348,0.7650938,23.9668164,-21.9157498,-144.9708374,-27.6763078,5.9206782,-4.640398199999999,-1.013003,0.1022533999999999,0.0114848,91.3165602,82.28054660000001,-108.8025298,146.3941234998547,0.9019439441131804,28.6804068876796,1.0182154666138203,67.3497438,104.1962964,36.16830759999999
