Timestamp (ms),Wrist Gyroscope X (deg/s),Wrist Gyroscope Y (deg/s),Wrist Gyroscope Z (deg/s),Wrist Accelerometer X (g),Wrist Accelerometer Y (g),Wrist Accelerometer Z (g),Wrist Roll (deg),Wrist Pitch (deg),Wrist Yaw (deg),Arm Gyroscope X (deg/s),Arm Gyroscope Y (deg/s),Arm Gyroscope Z (deg/s),Arm Accelerometer X (g),Arm Accelerometer Y (g),Arm Accelerometer Z (g),Arm Roll (deg),Arm Pitch (deg),Arm Yaw (deg),Wrist Gyroscope Magnitude (deg/s),Wrist Accelerometer Magnitude (g),Arm Gyroscope Magnitude (deg/s),Arm Accelerometer Magnitude (g),Difference Roll (deg),Difference Pitch (deg),Difference Yaw (deg)
0.0,-7.796795,-3.080819,1.804976,-0.900237,-0.367121,0.153287,-67.597687,65.94809,136.474182,-5.08651,-0.640623,1.152527,-0.983966,-0.097572,-0.127622,-142.603271,80.404816,90.760208,8.575511433340989,0.9842262896199226,5.254645591660583,0.9969938611766876,-75.00558400000001,14.456726000000003,-45.71397400000001
19.986,-7.7047025,-3.03465,1.951952,-0.9059815,-0.374352,0.152868,-67.5973855,65.955254,136.5843275,-6.125241,-0.5998110000000001,0.7538445,-0.985084,-0.093479,-0.130045,-142.6877975,80.413849,90.747669,8.507741054258188,0.9921242481011388,6.200534821608717,0.9980182926790472,-75.09041200000001,14.458595000000004,-45.8366585
39.972,-7.1708153333333335,-3.0124033333333333,2.060585333333333,-0.9073923333333332,-0.3756493333333333,0.1543596666666666,-67.58361066666667,65.96359533333333,136.70662933333332,-7.210894,-0.9183863333333332,0.510067,-0.9884246666666666,-0.0939936666666666,-0.130829,-142.74755333333334,80.426435,90.77520233333333,8.04619029748829,0.9941328758869878,7.287015443992035,1.001466104413702,-75.16394266666667,14.462839666666667,-45.931427000000006
59.958,-6.76689425,-2.873218,2.13257375,-0.90969825,-0.378776,0.15286525,-67.57298675,65.973118,136.8246155,-8.19390375,-1.10637925,0.44845325,-0.9909905,-0.0959832499999999,-0.13195,-142.810066,80.44018175,90.8124445,7.654678978598392,0.9971910292850736,8.280413276312371,1.0043334893703448,-75.23707925,14.467063749999998,-46.012171
79.944,-6.046122800000001,-2.7515196,2.1723684,-0.9123964,-0.3783672,0.1537422,-67.552208,65.98433539999999,136.9397614,-8.4811754,-1.1886072,0.580365,-0.989805,-0.0976374,-0.1360854,-142.8913908,80.4539306,90.8296554,6.988965981258069,0.9996327289708156,8.58370239317988,1.0038756078304325,-75.3391828,14.469595199999995,-46.110106
99.93,-5.1684308,-2.6433916,2.1978562,-0.9154648,-0.3768732,0.1543747999999999,-67.5106354,66.00542440000001,137.164911,-8.7412642,-1.3976632,0.6558552000000001,-0.9898298,-0.0993526,-0.1408752,-143.0487914,80.4816954,90.8481948,6.207315680809027,1.001968456485692,8.876559484293614,1.0047287166543215,-75.538156,14.476270999999995,-46.3167162
119.916,-4.7770016,-2.7030604,2.1301526,-0.9165368,-0.3759503999999999,0.1529062,-67.4616212,66.0255338,137.38746659999998,-8.187986,-1.5356262,0.8772504,-0.9877242,-0.102985,-0.145174,-143.2040952,80.51063819999999,90.8575652,5.887599673189192,1.0023765335505617,8.376803138824656,1.0036336461909994,-75.74247399999999,14.485104399999994,-46.5299014
139.903,-4.4147186000000005,-2.7522006,2.0292902,-0.9167088,-0.3757975999999999,0.1480124,-67.4117112,66.04425180000001,137.60365620000002,-7.011464999999999,-1.2456154,1.20674,-0.9851576,-0.1093793999999999,-0.1475517999999999,-143.3736906,80.5350782,90.8280654,5.584117403461568,1.001741748514536,7.222770977854839,1.0021331666327384,-75.9619794,14.490826399999994,-46.7755908
159.888,-4.1805816,-2.8825758,1.8689102,-0.9152604,-0.3746436,0.1469914,-67.35560760000001,66.0591916,137.8217012,-5.6512014,-0.8738927999999999,1.3504216,-0.9816924,-0.1085157999999999,-0.1481356,-143.5583128,80.5547148,90.755722,5.4110378942184685,0.9998329352962324,5.875662038187727,0.998719081150831,-76.20270520000001,14.495523199999996,-47.0659792
179.875,-4.190041,-3.0091618,1.7556568,-0.9123614,-0.3740409999999999,0.1459422,-67.29789120000001,66.0706938,138.0412264,-4.778001400000001,-0.6222977999999999,1.2758916,-0.9818936,-0.1000242,-0.1451638,-143.7524596,80.5733794,90.6563856,5.449204448325139,0.9967994380173978,4.984420859562058,0.9975933094889118,-76.4545684,14.502685599999998,-47.384840800000006
199.861,-4.1573308,-3.0717016,1.5707388,-0.9131566,-0.3771878,0.146162,-67.2420486,66.07676380000001,138.25512400000002,-4.8883986,-0.0067858,1.090291,-0.982193,-0.0939052,-0.1418898,-143.98302600000002,80.5831436,90.5224242,5.402404138704975,0.9987436822510568,5.008514888092537,0.996821945575076,-76.74097739999999,14.5063798,-47.732699800000006
219.847,-3.3869888,-3.0174182,1.4425568,-0.9140574,-0.3774608,0.1511538,-67.1695602,66.0798248,138.46621399999998,-5.1900396,1.5019264,0.4656022000000001,-0.9815992,-0.0946606,-0.1403722,-144.2553374,80.56115580000001,90.3515564,4.759986958621097,1.0004124435880637,5.423013864008644,0.996093355647873,-77.08577720000001,14.481331,-48.1146576
239.833,-2.000796,-2.9488046,1.3555424,-0.9160292,-0.3758026,0.151086,-67.0736298,66.08298479999999,138.6650268,-5.0855442,2.5754178,0.096591,-0.982678,-0.0912202,-0.1475604,-144.5824034,80.51531680000001,90.1231934,3.812627493054484,1.001580784967144,5.701303927698599,0.9978733628172464,-77.5087736,14.432332,-48.5418334
259.819,-0.6103592000000001,-3.1195052,1.1069790000000002,-0.9217814,-0.3718274,0.1465576,-66.9518402,66.08422699999998,138.8540434,-4.308555,3.193714,0.243355,-0.984967,-0.0902278,-0.155973,-144.9632872,80.4579026,89.8246614,3.3658956538034093,1.0046968174003938,5.368675531064064,1.0013134492809133,-78.01144699999999,14.373675600000002,-49.029382000000005
279.805,0.8970997999999998,-3.468176,0.7232065999999999,-0.9238636,-0.3757758,0.1461895999999999,-66.796338,66.0741912,139.0443448,-3.1979869999999995,3.565947800000001,0.5243966,-0.9822486,-0.0966248,-0.1601691999999999,-145.3591948,80.393564,89.4878344,3.654594451429543,1.0080192470477731,4.818515991317804,0.9999014135431752,-78.56285679999999,14.319372800000002,-49.5565104
299.791,3.3733356,-3.7996026,0.5569474000000001,-0.9199796,-0.3724078,0.1438704,-66.5837862,66.05961299999998,139.254791,-1.9727662,3.7203728,1.172514,-0.9796478,-0.1024894,-0.1606274,-145.7815794,80.33194440000001,89.0986528,5.111415009028408,1.0028702438068249,4.371243453645459,0.9980055364515572,-79.1977932,14.272331400000002,-50.1561382
319.777,5.09493,-3.9251984,0.1196198,-0.9161238,-0.3685376,0.1369822,-66.3488602,66.03839860000001,139.4658904,-1.3294244,2.9597878,2.3184232,-0.979928,-0.09768,-0.1583091999999999,-146.2521636,80.2986772,88.647905,6.432713508373787,0.996928734994152,3.9878313894449504,0.9974277268998692,-79.9033034,14.2602786,-50.817985400000005
339.764,5.4706498,-3.9194878,-0.0132917999999999,-0.9088668,-0.3642708,0.1394168,-66.10605460000002,66.0147186,139.6804016,-2.014734,2.6681852,2.8884908000000005,-0.975054,-0.0931626,-0.1484228,-146.757663,80.2819124,88.175479,6.729826930949718,0.989024327302984,4.418341821762966,0.990675981597717,-80.6516084,14.267193800000005,-51.50492260000001
359.75,5.0981028,-3.419208,0.350144,-0.9003132,-0.3639878,0.1393186,-65.8872834,66.0000624,139.8778168,-4.163879,3.2149410000000005,2.8613962,-0.9738222,-0.0974971999999999,-0.1396116,-147.29999700000002,80.25777000000001,87.70813580000001,6.148514969272487,0.9810507881598384,5.98843236360706,0.9885983917017264,-81.4127136,14.257707600000003,-52.169681
379.736,4.688128799999999,-2.6595286,1.2480374,-0.8974081999999999,-0.3604505999999999,0.1349594,-65.6972504,66.0098234,140.05367740000003,-7.079956200000001,3.9598586,2.6256596,-0.9733064,-0.099875,-0.1401736,-147.90826099999998,80.216968,87.2324034,5.532561917539302,0.9764630828228784,8.526449921332123,0.988407305741373,-82.21101060000001,14.2071446,-52.821274
399.722,3.449194,-1.8554224,2.1757834000000003,-0.8997620000000002,-0.3571328,0.1396054,-65.5412398,66.04383820000001,140.2148224,-8.4970134,6.641026600000001,2.2639128000000004,-0.9579088,-0.1013242,-0.1488106,-148.66047659999998,80.1186128,86.63838640000002,4.480353215514746,0.9780619413866384,11.019427035363089,0.9746796690684792,-83.1192368,14.0747746,-53.576436
419.708,3.1100562,-1.5781274,3.318343,-0.9006382,-0.3555894,0.1564656,-65.360501,66.09753559999999,140.403302,-5.5878808,13.1619906,1.0450514000000002,-0.9320362,-0.1117584,-0.1770382,-149.5707214,79.8852234,85.82258600000002,4.813972987402214,0.9808539507362756,14.337173390112117,0.9552611906385812,-84.2102204,13.787687800000004,-54.580716
439.694,3.6883838,-2.567723,4.8486702,-0.9075356,-0.3610356,0.1519552,-65.1083556,66.16954779999999,140.6584838,0.0696407999999998,21.9140448,-0.0752577999999998,-0.9127576000000002,-0.1393135999999999,-0.2122788,-150.6540282,79.4825242,84.712593,6.611125408672828,0.9884624183760148,21.914284680862675,0.9474159616726754,-85.5456726,13.312976400000002,-55.9458908
459.68,6.273975,-5.364820999999999,6.284843,-0.9165624,-0.3546104,0.1413468,-64.6728948,66.24930859999999,141.0624298,9.568521,30.8354964,-0.5120672,-0.9018418,-0.1735979999999999,-0.2394067999999999,-151.8588988,78.9136276,83.2820952,10.375129791829837,0.9928817083379874,32.29003941123593,0.9490893075561856,-87.186004,12.664319,-57.78033459999999
479.666,7.8325452,-8.9947482,7.1059544,-0.924573,-0.364171,0.1376322,-64.0546926,66.30788559999999,141.6352906,23.603912,40.2701614,1.1837336000000005,-0.9105712,-0.1804068,-0.267039,-153.22474979999998,78.17795559999999,81.395741,13.883401867925802,1.0031940849341368,46.69295221038784,0.965917362550586,-89.1700572,11.870070000000002,-60.2395496
499.652,9.4020722,-13.8510472,7.7815916,-0.944725,-0.3621884,0.1598643999999999,-63.1738898,66.3307906,142.4529786,34.9424864,45.0364394,2.3458286,-0.9349122,-0.16135,-0.2824442,-154.5607972,77.3673402,79.3056532,18.460867748289385,1.024325333625465,57.05051394566603,0.9898835135118071,-91.3869074,11.0365496,-63.1473254
519.639,8.815065,-20.496243,7.696308999999999,-0.9600760000000002,-0.3758504,0.1941042,-62.03114459999999,66.275865,143.5662872,36.727500000000006,44.8927762,3.6706826,-0.959943,-0.1578744,-0.2741791999999999,-155.7906892,76.568587,77.2832258,23.601578766954447,1.049135782162538,58.11836647689979,1.0107369208340022,-93.7595446,10.292721999999998,-66.2830614
539.625,8.737100600000002,-27.8017198,6.756139,-0.9751436,-0.408136,0.2387347999999999,-60.61881100000001,66.10500320000001,144.9759094,34.8137894,41.8967724,5.7991226000000005,-1.0011662,-0.1486462,-0.2674102,-156.9313692,75.8320482,75.38610220000001,29.915179506724566,1.0837316733619995,54.7811034285983,1.0468704159832392,-96.3125582,9.727045,-69.58980720000001
559.611,8.899788,-34.594984,5.403924600000001,-0.977883,-0.4306618,0.291473,-58.9684342,65.8067458,146.64327699999998,27.9592102,35.6548696,5.6484516,-1.0218072,-0.1075784,-0.2566663999999999,-157.8929354,75.2107882,73.8128998,36.1278499981342,1.1075564353102916,45.66061942942004,1.0590281899021197,-98.92450119999998,9.4040424,-72.8303772
579.597,8.5453346,-41.6486178,2.9498674,-0.9790324,-0.4480556,0.3648977999999999,-57.1341362,65.3711562,148.5134154,14.3920826,28.4738982,5.056924,-1.0021122,-0.073118,-0.2528502,-158.8112702,74.7251818,72.564583,42.61844466605998,1.1368415304632216,32.30274602276039,1.036102469330558,-101.677134,9.3540256,-75.94883239999999
599.583,10.1677712,-50.4013716,-0.7241730000000001,-0.9792504,-0.4887824,0.41203,-55.1275406,64.7430854,150.5440002,0.3897316000000003,24.3394744,4.204587000000001,-0.979348,-0.1150291999999999,-0.2797484,-159.7321504,74.3048234,71.5991486,51.42184610523785,1.1694478617492616,24.70304549299261,1.024994336208352,-104.6046098,9.561738000000002,-78.94485160000002
619.569,14.1262442,-60.198351200000005,-5.4495952,-0.9939824,-0.5028336,0.4459551999999999,-52.953393600000005,63.8896522,152.6849792,-3.909313,21.2413444,3.256705,-0.9840618,-0.143691,-0.3082519999999999,-160.54693600000002,73.92870339999999,70.8316926,62.073265986577816,1.1998827781103285,21.84224273073636,1.0411743490906027,-107.5935424,10.0390512,-81.8532866
639.555,15.5250256,-71.62513040000002,-10.4396124,-1.0112292,-0.5195152000000001,0.4875512000000001,-50.6807662,62.78063959999999,154.9280852,-3.4951122,18.624706600000003,0.3492296,-0.9402562,-0.1585175999999999,-0.338699,-161.09205000000003,73.58286000000001,70.337555,74.0281786332738,1.2370071586636515,18.953033175198865,1.0118925653196589,-110.4112838,10.8022204,-84.5905302
659.541,16.1324578,-86.2190102,-15.9101374,-1.0403976,-0.5419084,0.541618,-48.314299600000005,61.354007,157.275015,0.9274362000000004,20.6586372,-3.0179834,-0.9101046,-0.2015398,-0.3755838,-161.3578214,73.1673266,70.0416276,89.14654444577964,1.2920688596202292,20.89850838382897,1.0049735642033777,-113.0435218,11.813319599999998,-87.2333874
679.527,16.765178400000003,-102.9504104,-21.7769744,-1.0606646,-0.5536444,0.6075856,-45.8759796,59.5685196,159.7193022,10.701116,24.317546,-8.3651982,-0.949134,-0.2382644,-0.376464,-161.122885,72.6469774,70.06007539999999,106.55559498370091,1.3418985716781575,27.85378731937284,1.0484991261605132,-115.2469054,13.0784578,-89.65922680000001
699.513,15.5961432,-119.117781,-27.2070336,-1.0657200000000002,-0.5636422,0.662898,-43.4810394,57.4230224,162.1854032,21.2672046,25.8487484,-13.6361366,-0.9819584,-0.2131981999999999,-0.3606432,-160.417352,72.0649782,70.3515184,123.17673526437692,1.3758217204364962,36.14410057974362,1.0675950962420349,-116.9363126,14.6419558,-91.8338848
719.5,14.146738000000004,-134.5923812,-32.050534,-1.0647292,-0.57882,0.7159738,-41.2012268,54.9415312,164.60755899999998,27.408248000000004,27.8042844,-17.685517400000002,-0.9804794,-0.191313,-0.3460143999999999,-159.4262602,71.42414860000001,70.814618,139.07723035354104,1.407586354018495,42.86102909556991,1.057197466323449,-118.2250334,16.482617400000002,-93.792941
739.486,13.9130412,-149.5259078,-37.6431862,-1.0639828,-0.5571940000000001,0.7701354,-39.062034,52.1285338,166.9142088,31.0795976,31.0661622,-20.4087498,-0.992775,-0.1707212,-0.339618,-158.32386780000002,70.6932738,71.3188004,154.8178907172387,1.426756141274675,48.45167581429599,1.0630561201923632,-119.2618338,18.56474,-95.5954084
759.472,12.8102274,-162.813629,-44.1461106,-1.0680796,-0.5577362,0.8220886000000001,-37.1668482,48.9997258,169.03388360000002,34.205319,34.271734200000004,-21.6994674,-1.0048756,-0.1535508,-0.3378455999999999,-157.2212984,69.8856016,71.7584656,169.17818652325357,1.4586614984212616,53.06055501416164,1.0712107491503993,-120.0544502,20.8858758,-97.275418
779.458,15.829668000000002,-176.2222838,-50.1014228,-1.0721532,-0.545914,0.8592244000000001,-35.415116999999995,45.5559758,170.97384340000002,36.829542200000006,37.5791462,-22.8157314,-0.9775374,-0.1822082,-0.3594298,-156.12803060000002,68.994609,72.1312546,183.88861917819256,1.47844551784014,57.35124241984215,1.0573405211539184,-120.7129136,23.4386332,-98.8425888
799.444,17.597112,-190.5780852,-56.0123748,-1.0761797999999998,-0.5282828,0.8957626,-33.826657999999995,41.800884,172.741153,41.3692242,42.9589524,-24.406987,-0.9620368,-0.2043288,-0.3662734,-155.03265100000002,67.9883194,72.4093474,199.41677722793204,1.4965414509002546,64.44055645813046,1.049486191720139,-121.205993,26.187435400000005,-100.3318056
819.43,18.2093354,-205.1487272,-61.1329894,-1.0658918,-0.4980864,0.9035924,-32.4095422,37.72337159999999,174.36020520000002,43.091481,42.73506999999999,-28.990988200000004,-0.9649994,-0.2019064,-0.3752356,-153.792554,66.94726560000001,72.8159224,214.8367346625577,1.4834738341170564,67.2580057650448,1.0548894690291868,-121.3830118,29.223894,-101.5442828
839.416,19.6887702,-218.8468444,-66.475424,-1.032268,-0.4941196,0.9309538,-31.1441872,33.3293206,175.83320339999997,40.3577572,35.2534424,-34.6757436,-1.005097,-0.1973938,-0.3367628,-152.2885958,65.98584439999999,73.5769012,229.5660492577376,1.4752648510225543,63.82758777736481,1.0782362798344711,-121.1444086,32.6565238,-102.2563022
859.402,19.4687714,-232.2148498,-69.64785299999998,-0.9623449999999998,-0.44833,0.948397,-30.027111400000003,28.6428498,177.2101596,29.690892400000003,19.466929,-40.6336512,-1.038082,-0.1905366,-0.2976282,-150.5116152,65.23722380000001,74.8809966,243.21511662512185,1.4235745704156135,53.95928118537793,1.096586056859561,-120.4845038,36.594374,-102.329163
879.388,13.134458,-243.4285096,-72.89107659999999,-0.8741122000000001,-0.4299566,0.9198484,-29.1855206,23.7038548,106.5012972,14.6547352,-2.2957526,-45.990693,-1.0606012,-0.1456476,-0.2706786,-148.4369966,64.7939772,76.854367,254.4465804858421,1.3397969603842816,48.32365452242591,1.104244100425789,-119.251476,41.0901224,-29.6469302
899.374,7.549225199999999,-250.5184084,-75.4831818,-0.7582562,-0.4092795999999999,0.8621089999999999,-28.595369,18.5894454,35.70129419999999,-2.1942463999999995,-26.989295200000004,-48.6674882,-1.0730104,-0.1263747999999999,-0.2428452,-146.0744142,64.70833259999999,79.5206634,261.75212412326545,1.2188905544369435,55.69345724906827,1.1073823638410718,-117.4790452,46.1188872,43.81936920000001
919.36,4.6405198,-254.44695460000003,-77.5835328,-0.6222054,-0.4108446,0.8452209999999999,-28.188127200000004,13.3768276,-35.1844144,-15.726647,-46.4825996,-47.1920082,-1.0816526,-0.149875,-0.2042768,-143.545697,64.9173446,82.66393580000002,266.052610757642,1.12708978523422,68.08116574637508,1.110929283856538,-115.3575698,51.540517,117.8483502
939.347,1.9041798,-256.1193696,-77.245282,-0.4879887999999999,-0.3864747999999999,0.7944786,-27.9413614,8.132108399999998,-106.0999174,-24.717947200000005,-59.76009280000001,-42.3070366,-1.050413,-0.1872986,-0.2052286,-140.9558868,65.3563324,86.06208939999999,267.52119724663254,1.0093027721246188,77.27956360591291,1.0865390073020482,-113.0145254,57.22422400000001,192.16200680000003
959.333,1.2622491999999998,-254.812558,-76.782016,-0.3636248,-0.4006931999999999,0.7499402,-27.815896,2.9113776,-177.051718,-24.787782,-68.2859878,-33.410447999999995,-1.011245,-0.2024086,-0.188967,-138.3091766,65.98952779999999,89.5096496,266.1325064109428,0.924763937054922,79.96041709409711,1.048472326038203,-110.4932806,63.0781502,266.5613676
979.319,5.088498400000001,-251.89575800000003,-73.5793846,-0.2539372,-0.3912546,0.7064504,-27.7154968,-2.2299948,-175.9968168,-23.6059384,-69.111135,-22.9450416,-0.9974384,-0.2395396,-0.1510836,-135.81332400000002,66.726274,92.748944,262.4715061725293,0.8465438153014645,76.55105644443158,1.036864907281407,-108.0978272,68.9562688,268.7457608
999.305,8.809036,-247.844345,-68.8334136,-0.1543738,-0.3716294,0.6313375999999999,-27.6413276,-7.2572606,-174.8991422,-22.816029,-67.9759544,-15.550263199999998,-0.963264,-0.2575678,-0.1456172,-133.4151796,67.5016478,95.846141,257.3761008554543,0.7486834085543501,73.36969566182617,1.0076820303194256,-105.773852,74.7589084,270.7452832
1019.291,7.420092800000001,-241.6374602,-63.45305019999999,-0.0664798,-0.3400282,0.5843054,-27.6931282,-12.1173166,-173.7534758,-23.4026684,-72.52836520000001,-7.8242874,-0.9173578,-0.2372275999999999,-0.141599,-130.8976184,68.3989836,99.0645158,249.940011860348,0.6793022457437042,76.61114879795714,0.9580566497987476,-103.2044902,80.5163002,272.8179916
1039.277,7.1980316,-233.4827484,-57.96291659999999,0.0167044,-0.3500784,0.5534392,-27.857388200000003,-16.7768382,-172.5575408,-27.0113938,-76.65894840000001,-0.3332405999999999,-0.9396994,-0.2374095999999999,-0.1183236,-128.2555332,69.4080596,102.470044,240.67759588318737,0.6550792862108831,81.27927665838341,0.976421402289749,-100.398145,86.18489780000002,275.0275848
1059.263,13.252689800000002,-224.3005768,-51.8292954,0.0733076,-0.3391362,0.5022404,-28.0113808,-21.2133282,-171.2953918,-31.3185022,-72.2868888,0.1965824000000003,-0.9541416,-0.2327157999999999,-0.1369038,-125.7053286,70.3157638,105.8537978,230.59197384429527,0.6104365534274304,78.77995631551822,0.9916075266327096,-97.6939478,91.529092,277.1491896
1079.249,19.7672158,-213.4098206,-46.26072860000001,0.1321606,-0.3107958,0.4449884,-28.142075800000004,-25.3999438,-169.9884674,-33.5942166,-64.4940856,-0.5959175999999997,-0.9061108,-0.2091748,-0.1643262,-123.4267274,71.0884628,108.99116039999998,219.2590918516512,0.5586368495047207,72.72147952382318,0.9443484414336268,-95.2846516,96.4884066,278.9796278
1099.235,21.4937244,-201.198587,-41.307895,0.1921054,-0.2819248,0.4445179999999999,-28.329690200000005,-29.325595,-168.6575014,-33.761631,-48.9283398,-0.4050887999999998,-0.8930800000000001,-0.2045164,-0.1941,-121.80762339999998,71.659964,111.4255674,206.51681236332976,0.5603412619896914,59.447407515385486,0.9365327833391418,-93.4779332,100.985559,280.0830688
1119.222,21.631256,-188.0774078,-36.4842648,0.2437436,-0.266759,0.407789,-28.5956894,-32.9819456,-167.3091738,-30.9456722,-26.6463334,-4.1174252,-0.8994402000000001,-0.220154,-0.248005,-121.0027786,71.8926238,112.9308606,192.80073687333652,0.544851516601505,41.04406049419822,0.9586276321476656,-92.4070892,104.8745694,280.2400344
1139.208,22.192277,-172.91550279999998,-32.052029399999995,0.2899602,-0.2473554,0.3682104,-28.915583,-36.32780279999999,-165.96867379999998,-23.3134436,-4.999354800000001,-8.9855514,-0.8425572000000001,-0.203737,-0.2856684,-120.9867462,71.79281139999999,113.4446698,177.25574985224034,0.5299438745389553,25.48039118358873,0.9126981073714354,-92.0711632,108.1206142,279.4133436
1159.194,20.2641756,-155.1803558,-27.8666678,0.347964,-0.2275092,0.3186284,-29.3005114,-39.3173982,-164.6802826,-17.211612,12.1449808,-7.2943702,-0.8053112,-0.2074851999999999,-0.2971633999999999,-121.7691422,71.53143299999999,112.9871686,158.95952570776558,0.5237971350314929,22.29233013584629,0.8831094628436726,-92.4686308,110.8488312,277.6674512
1179.18,17.05543,-134.696846,-23.5596868,0.4106884,-0.2111812,0.2851584,-29.7370982,-41.903618,-163.4829408,-11.679603600000002,29.715252,-5.111893599999999,-0.7837632,-0.217746,-0.3295212,-123.3160538,71.1027678,111.5992934,137.80125854630904,0.5427501950423971,32.33482330018765,0.8776572767542464,-93.5789556,113.0063858,275.0822342
1199.166,15.0068688,-111.1754548,-19.7092726,0.4672544,-0.2107442,0.2589108,-30.140356,-44.0325386,-162.44592899999998,-7.3471444,45.4536354,-2.1415581999999995,-0.8019106,-0.2049764,-0.3193028,-125.51338959999998,70.5193724,109.425238,113.90190203674553,0.5742600408435538,46.093381015440514,0.8871472330099216,-95.3730336,114.551911,271.871167
1219.152,17.8952672,-84.70378240000001,-16.260969999999997,0.5112432,-0.2240524,0.2320746,-30.3380592,-45.6606568,-161.6513672,-3.64272,54.6077694,1.7428812,-0.8403902000000001,-0.1834576,-0.2895856,-128.0627304,69.8653594,106.793396,88.08740254069731,0.604506168254022,54.75687648797445,0.9076189723563298,-97.7246712,115.5260162,268.4447632
1239.138,22.128150800000004,-56.9857368,-12.5296288,0.5532324,-0.2151402,0.1778232,-30.250906,-46.770704,-161.1467316,-4.3004888,58.056801400000005,6.7071864,-0.8265162,-0.1897652,-0.2966892,-130.84696179999997,69.22185959999999,103.9191758,62.40209014393832,0.6196551335412626,58.60096195560541,0.8984232529215392,-100.5960558,115.9925636,265.0659074
1259.124,19.6523372,-26.870660200000003,-9.3746854,0.600479,-0.2096973999999999,0.1405654,-29.9676156,-47.327166,-160.98989260000002,-5.2931428,56.21230799999999,9.5500786,-0.8201044,-0.1935226,-0.3050888,-133.5806364,68.61938760000001,101.1120256,34.585133559888725,0.6513882564837349,57.26294554643721,0.8961592489594469,-103.6130208,115.9465536,262.1019182
1279.111,12.1190676,4.554570200000001,-7.0790452,0.6278115999999999,-0.2238368,0.1611146,-29.5543404,-47.3180908,-161.2223846,-4.2850088,47.9585754,14.484578199999998,-0.8819446,-0.2001122,-0.2917012,-136.050595,68.1614714,98.557869,14.755635877309416,0.6857173123539757,50.28110241875647,0.9502424743924258,-106.4962546,115.4795622,259.78025360000004
1299.097,11.0033792,33.450448800000004,-3.0789002,0.6416486,-0.2439356,0.1855624,-28.9471944,-46.7640862,-161.75574939999998,-2.2587040000000003,29.5161538,17.9282646,-0.8910876,-0.2368368,-0.2930326,-137.81994300000002,67.97062679999999,96.7018784,35.348076400024574,0.7110913493518818,34.608203514087286,0.9674693201186072,-108.8727486,114.734713,258.4576278
1319.083,9.9496096,60.600337,1.8858248,0.6395172,-0.2453967999999999,0.1896262,-28.2023194,-45.6820182,-162.5180082,-3.3068238,11.0710522,20.259385,-0.8560893999999999,-0.2705732,-0.291399,-139.0063598,68.0638458,95.49005280000002,61.440637292286254,0.7107460406309134,23.322649099911363,0.9439344757723388,-110.8040404,113.745864,258.008061
1339.069,3.4917152,86.8216712,7.614436,0.6201086,-0.2505004,0.2206766,-27.4784864,-44.0776068,-163.4488402,-1.1548136,-3.3091983999999983,20.9053884,-0.8795126,-0.2878394,-0.2902376,-139.665564,68.3705308,94.7959168,87.22484910045368,0.7042608096306935,21.197161429214106,0.969861741798737,-112.1870776,112.4481376,258.24475700000005
1359.055,-4.3579934,111.106787,14.845416999999998,0.58753,-0.25595,0.2797188,-26.87875,-41.9709678,-164.45032039999998,3.1087978,-12.6559766,15.8132168,-0.9397488,-0.306238,-0.2735776,-139.6869294,68.75309,94.689975,112.17885999528478,0.6992456724738738,20.49136874454302,1.025550692538989,-112.8081794,110.7240578,259.1402954
1379.041,-7.872614200000001,131.3600158,24.203609,0.541341,-0.2672347999999999,0.3413972,-26.3972166,-39.4046492,-165.40412899999998,4.5026062,-15.001773599999996,0.7105770000000007,-1.0077022,-0.3097188,-0.2637344,-139.0302064,68.9778748,95.2816834,133.80301377003124,0.6935535774400418,15.679017616255946,1.0867130682483026,-112.6329898,108.38252400000002,260.68581240000003
1399.027,-6.791646,149.2194794,33.95732,0.4773355999999999,-0.3091876,0.3962717999999999,-25.971002,-36.4261134,-166.275821,1.3073188000000002,-2.340652399999999,-20.2498398,-1.0171138000000002,-0.2893918,-0.2547756,-138.128702,68.7467086,96.2083954,153.18511373295627,0.6931649057016375,20.426545180918957,1.0877401814831702,-112.1577,105.172822,262.4842164
1419.013,-4.021285399999999,164.5264772,43.1391246,0.4089728,-0.3021045999999999,0.4624328,-25.5845468,-33.085381,-167.04111640000002,-4.8590234,15.363301600000003,-42.944766400000006,-1.0159006,-0.2504918,-0.2334737999999999,-137.18440260000003,67.94620660000001,97.321257,170.1355827196789,0.687291812112468,45.86822544643383,1.072058853904038,-111.5998558,101.0315876,264.3623734
1438.999,-6.7067104,177.56910720000002,50.4870026,0.3437156,-0.2885916,0.5058218,-25.3378976,-29.4390352,-167.714328,-11.5022124,33.6958508,-57.4571994,-0.917917,-0.2054543999999999,-0.269439,-136.4873536,66.68716500000001,98.3131316,184.72873416912427,0.676225715740802,67.59468184792303,0.978458228075864,-111.149456,96.1262002,266.02745960000004
1458.986,-8.170172399999998,187.0113862,56.0248896,0.2568888,-0.2739322,0.5751413999999999,-25.1966462,-25.5697142,-168.3247528,-15.7287856,45.224565600000005,-59.63828060000001,-0.8612563999999999,-0.2182896,-0.3057925999999999,-136.2191162,65.2263046,98.9374496,195.39395727653263,0.6868903375039133,76.48124308014226,0.9396393192198162,-111.02247,90.7960188,267.2622024
1478.972,-0.6524225999999992,193.3630158,58.6464212,0.1767534,-0.325711,0.6911902,-24.9662096,-21.564657000000004,-168.9121826,-19.4217982,52.196117400000006,-49.4789502,-0.7833247999999999,-0.232095,-0.323993,-136.5628966,63.7895912,98.9701706,202.06208019835844,0.784266098023241,74.4970296713244,0.8788841194202112,-111.596687,85.3542482,267.8823532
1498.958,5.913943400000001,198.008728,60.1878976,0.1308398,-0.2450186,0.656948,-24.6454922,-17.460941,-169.4753906,-15.8706598,46.742405000000005,-28.749925399999995,-0.7301358,-0.2517412,-0.3618982,-137.2719358,62.696962000000006,98.5133744,207.03867780737124,0.7132558042623979,57.125200027456586,0.8529022367084753,-112.6264436,80.157903,267.98876500000006
1518.944,5.7936164,202.7026428,59.73145459999999,0.0654655999999999,-0.2920892,0.7143089999999999,-24.3622978,-13.2746892,-170.05260320000002,-3.121510400000001,40.4400258,-1.5171913999999986,-0.7973776,-0.3138686,-0.3514176,-138.3287412,62.0605774,97.382007,211.3995602117625,0.774492861827015,40.58868541387129,0.9261851135909496,-113.9664434,75.3352666,267.4346102
1538.93,14.428098600000002,206.2759094,61.75529879999999,0.0071565999999999,-0.2468372,0.7190679999999999,-23.9521336,-9.0070678,-170.5836122,6.737590999999999,41.897225000000006,17.890228200000003,-0.9100032,-0.3239292,-0.3110636,-139.7312528,61.6475966,95.635689,215.8046286757668,0.7602885036954063,46.052501128950446,1.0147889011355218,-115.7791192,70.65466439999999,266.2193012
1558.916,18.828938,208.089453,62.735515,-0.0413088,-0.2865932,0.810355,-23.5061658,-4.690273400000001,-171.06777359999998,10.8505172,43.4989592,29.3772346,-0.9169828,-0.2734244,-0.269826,-141.390698,61.339578200000005,93.503473,218.15474828286975,0.8605331517545852,53.599581040659245,0.9941953672629944,-117.8845322,66.0298516,264.5712466
1578.902,26.0039082,208.6367614,64.501291,-0.0929192,-0.2820776,0.7565706,-22.9600778,-0.3426578000000003,-171.48277,11.2751392,42.5111426,35.9842944,-0.9248088,-0.2434528,-0.2487155999999999,-143.166342,61.10529699999999,91.2245102,219.9225272449852,0.8127735372997573,56.82601035267901,0.9881295623897912,-120.2062642,61.447954800000005,262.7072802
1598.888,24.971043,209.1139922,65.3617708,-0.1844914,-0.2853194,0.7816756,-22.4611876,4.0236478,-171.8459048,6.320386999999999,49.6727896,39.079244800000005,-0.9421776,-0.1897574,-0.2037157999999999,-145.232547,60.758377,88.7205902,220.5093553671618,0.8523268037118626,63.51787695298045,0.9824493004558352,-122.7713594,56.7347292,260.56649500000003
1618.874,18.7452364,208.4541044,64.9897364,-0.2748558,-0.2587959999999999,0.7794014,-22.128096,8.3790996,-172.18557460000002,-9.6399928,54.4254114,38.7547362,-0.9155246,-0.1381584,-0.268514,-147.6642334,60.2973434,86.15771939999999,219.15328737265037,0.8660182577357131,67.50544011540768,0.9640398357390216,-125.5361374,51.918243800000006,258.343294
1638.861,11.1269204,205.6379758,62.6206056,-0.3672326,-0.3145006,0.9412224,-21.9790636,12.6664038,-172.54953319999998,-20.2313222,50.1681078,36.9962706,-0.9003318,-0.1155436,-0.3047606,-150.098819,59.8366798,83.82434700000002,215.2489853505007,1.0581446102328735,65.53525369220034,0.957510677175226,-128.1197554,47.170276,256.3738802
1658.847,19.0141464,198.894702,59.1482666,-0.4739132,-0.3552172,0.9269478,-21.710387200000003,16.8001778,-172.93332519999998,-26.9125018,54.2813844,38.966419,-0.8605276,-0.1821024,-0.3819598,-152.7059906,59.272592800000005,81.4306764,208.37264141142447,1.1000023655587836,72.03563878525078,0.9589381227501386,-130.99560340000002,42.472415,254.3640016
1678.832,13.631843800000002,192.2257902,54.9900544,-0.562551,-0.280727,0.855011,-21.5821186,20.7786238,-173.34161680000005,-22.8464904,52.2240042,43.1310972,-0.8991676,-0.2445966,-0.4308428,-155.2567902,58.722921,78.9916078,200.4008175290634,1.0612799283181606,71.48146811555257,1.026623294072933,-133.6746716,37.9442972,252.3332246
1698.819,-0.7754155999999994,188.8209868,47.9540848,-0.610003,-0.3370863999999999,0.916001,-21.820097,24.6391106,-173.88942860000003,-12.323287,32.051434400000005,43.2814612,-0.9938442,-0.2721598,-0.4453476,-157.2819336,58.4997154,76.9121476,194.81673586856976,1.1509946711757444,55.248916126825314,1.1225558941252949,-135.46183660000003,33.8606048,250.8015762
1718.805,-0.9931807999999992,181.9813872,45.7940018,-0.6696734,-0.4107877999999999,1.12028,-22.105846,28.3508152,-174.47305899999998,5.5150918,26.649567800000007,43.2259954,-0.9273766,-0.2359066,-0.457455,-158.8295594,58.3339156,74.966365,187.6574067181901,1.3682968821481687,51.07937333024013,1.0606339421195798,-136.7237134,29.9831004,249.439424
1738.791,5.032353800000001,169.8820586,45.3086204,-0.7334674,-0.3861442,0.9753126,-22.2567166,31.835836,-174.985962,14.0732786,19.588900200000005,44.341207,-0.8823922,-0.3091622,-0.4879356,-160.1276276,58.284121000000006,73.10719900000001,175.89232360024556,1.279967358089713,50.47697316416296,1.054646106652388,-137.87091099999998,26.44828500000001,248.093161
1758.777,-4.562326599999999,160.79759819999998,40.718895,-0.7744488,-0.3453158,0.8736618,-22.6564262,35.11514939999999,-175.55403459999997,13.900991,3.847352800000003,40.6001698,-1.0084769999999998,-0.265107,-0.4658728,-161.1240204,58.4902268,71.60415479999999,165.93586357660823,1.21749697590192,43.08611681433569,1.1420792646562845,-138.46759419999998,23.3750774,247.1581894
1778.763,-21.1048928,156.92658379999995,37.6064396,-0.7737764,-0.3732248,0.8988106,-23.47417,38.2929706,-176.2242402,8.150613400000001,-15.759768999999997,30.257690399999998,-1.0509362,-0.1560886,-0.422927,-161.7289734,58.9924804,70.6985152,162.7440121867049,1.2433371076278388,35.07606942164233,1.1435461489810546,-138.2548034,20.6995098,246.9227554
1798.749,-23.7702576,150.9332854,36.9505242,-0.8111980000000001,-0.4426873999999999,1.0296880000000002,-24.4301312,41.3456528,-176.9681428,-2.2349399999999995,-21.0599166,27.2878524,-0.9515998,-0.1101118,-0.4171238,-162.4238464,59.572905000000006,69.9348816,157.19803760436386,1.3835720822084985,34.54188663936499,1.044824890776306,-137.9937152,18.2272522,246.9030244
1818.735,-23.4278864,140.9596434,38.1444862,-0.8410396,-0.3810364,0.7929107999999999,-25.3651662,44.2255248,-177.660849,-20.4283398,-38.2644816,22.9526892,-0.8893304000000001,-0.2509662,-0.4639338,-163.1838652,60.450158,69.52095039999999,147.896885552362,1.2170636317176518,49.07457142566605,1.0339860563320185,-137.81869899999998,16.2246332,247.1817994
1838.721,-33.1458438,132.9251784,35.799954199999995,-0.8671365999999999,-0.39509,0.7248730000000001,-26.528166,46.9358306,-178.3948486,-24.4266474,-48.379406,16.327628999999998,-0.9032768,-0.2461654,-0.4647567999999999,-163.7206908,61.47477339999999,69.4605348,141.59585705312116,1.1972730921926544,56.60229232883067,1.0452297664732095,-137.19252479999997,14.5389428,247.8553834
1858.707,-43.2169956,125.06100899999998,37.1665474,-0.8866187999999999,-0.3864342,0.7070948,-27.899204200000003,49.5114218,-107.10994859999998,-17.915499,-53.610805600000006,12.9305024,-0.870836,-0.1413668,-0.4733744,-163.990564,62.5744422,69.5639712,137.43841139370372,1.1980848649532805,57.98518322654847,1.001210883687148,-136.09135980000002,13.0630204,176.67391980000002
1878.693,-42.97587779999999,116.242195,34.532518,-0.9440882,-0.4350286,0.77089,-29.3759166,51.883399,-35.929489000000004,-18.9815414,-49.266555,11.9887348,-0.8152898000000001,-0.1136623999999999,-0.4645898,-164.288861,63.5894066,69.65599540000001,128.6532890000053,1.2941498384256749,54.14076207066788,0.9452302795730996,-134.9129444,11.706007599999998,105.5854844
1898.68,-38.7904232,104.8593276,31.823170800000003,-0.9666058,-0.3764948,0.6221334,-30.846546,54.0061742,35.1935274,-24.5652646,-46.16160719999999,9.0109052,-0.8471537999999998,-0.1927718,-0.4960208,-164.6248382,64.5264976,69.8294588,116.24495566055842,1.2095970711010504,53.06168690004579,1.0004334869257026,-133.77829219999998,10.5203234,34.63593140000002
1918.666,-42.7710602,98.3483016,24.0881958,-0.9641734,-0.3675602,0.5516066000000001,-32.6430834,55.93101779999999,106.043396,-17.5066956,-46.2777792,9.095601599999998,-0.961341,-0.1244116,-0.43677,-164.81718759999998,65.46607739999999,70.0027772,109.91812041304073,1.170043027864856,50.30752634527894,1.06321342984161,-132.17410420000002,9.5350596,-36.04061879999998
1938.652,-48.3005944,94.72592,18.9051434,-0.9363434,-0.3927912,0.5724929999999999,-34.7862458,57.7238026,176.63267820000002,-15.6920244,-53.09634239999999,10.8986322,-1.0257254,-0.0565673999999999,-0.3895068,-164.9767458,66.55245520000001,70.17169039999999,107.99699896855596,1.1656638128422792,56.42908283730216,1.0986482668234454,-130.1905,8.828652599999998,-106.4609878
1958.638,-48.1298958,92.1533828,15.7770862,-0.9375978,-0.4255752,0.6427908,-37.1274926,59.405816400000006,174.99917899999997,-18.2716738,-54.06885279999999,8.384002,-0.9787248000000002,-0.1151317999999999,-0.3364338,-165.0434206,67.65070519999999,70.4942002,105.1553578290922,1.2138302591320256,57.68523551219737,1.041319003614512,-127.915928,8.244888799999996,-104.50497879999998
1978.624,-43.391439000000005,84.3384734,15.9731426,-0.9524778000000002,-0.4132272,0.5708292,-39.3912666,60.9346044,173.3773132,-18.0916854,-51.5972982,8.3101114,-0.9236214,-0.1951723999999999,-0.395368,-165.1192416,68.6977862,70.8000992,96.1817880809728,1.184827689533512,55.3050469092352,1.023466956810878,-125.727975,7.763181799999998,-102.577214
1998.61,-44.4568172,74.2524208,14.8119366,-1.0076644,-0.410813,0.4768944,-41.6586296,62.2764464,171.8113464,-11.616742,-48.8294772,6.556913400000001,-0.932775,-0.1600174,-0.4124375999999999,-165.0144168,69.672803,71.1609634,87.80218708014571,1.1881006408329724,50.61876778088324,1.0323659926700026,-123.35578719999998,7.396356599999999,-100.650383
2018.596,-45.2762598,61.9640576,14.6530688,-1.0317584,-0.4238438,0.4968035999999999,-43.7491118,63.3907684,170.4808472,-9.9803058,-40.0704512,0.9454771999999998,-0.9027546,-0.127064,-0.4311908,-164.695688,70.4485994,71.7147796,78.12935786879825,1.2210580574821002,41.30546562343553,1.0084823418988555,-120.94657619999998,7.0578309999999975,-98.7660676
2038.582,-40.7917474,46.658468000000006,12.2030486,-1.09216,-0.4603951999999999,0.5706708,-45.4781386,64.2274498,169.4656282,-10.9439468,-25.6472542,-4.0995822,-0.8770640000000001,-0.1715418,-0.4561337999999999,-164.2997528,70.9164932,72.3673888,63.165605254651,1.315462796036315,28.184360801252964,1.0033573106055889,-118.8216142,6.689043399999998,-97.09823939999998
2058.568,-28.582546200000003,25.1645666,8.6925506,-1.126014,-0.4799394,0.5535932,-46.503726,64.7037514,168.9815676,-6.2361526,-17.813847599999995,-5.2367062,-0.9033308,-0.2417183999999999,-0.5072356,-163.83763119999998,71.21873300000001,72.98744180000001,39.06120575935324,1.343396734756565,19.586879725766195,1.0638243619294303,-117.3339052,6.514981599999999,-95.99412579999998
2078.554,-17.811876599999998,1.4273389999999992,3.0900388,-1.1684682,-0.4929845999999999,0.536712,-46.8047736,64.758928,169.0587038,6.9070858,-12.112209599999996,-6.9552898,-0.9363326,-0.222381,-0.5217965999999999,-163.0982972,71.394496,73.6218718,18.134182761295143,1.377102581942391,15.581704394734158,1.0947345517317522,-116.2935236,6.635567999999999,-95.436832
2098.541,-7.693801400000001,-23.6050792,-2.2153122,-1.1889292,-0.5028618,0.5989458,-46.311183,64.36914440000001,169.7836732,16.9014196,-4.677494199999996,-10.7353424,-0.8991874,-0.217811,-0.5325177999999999,-162.077707,71.4130278,74.3424238,24.92592931395705,1.4230807088319062,20.5617244639533,1.0674993299092042,-115.766524,7.043883399999999,-95.4412494
2118.527,1.0966043999999993,-49.997261,-9.923244,-1.219554,-0.5279976,0.6385132,-45.1646986,63.4851142,171.0433656,25.3794248,3.6066328000000025,-12.6167408,-0.920761,-0.2443108,-0.5228714,-160.94887720000003,71.2562178,74.99802700000001,50.98430562629794,1.4743786932453955,28.571054438842044,1.086684446863762,-115.7841786,7.771103600000001,-96.0453386
2138.513,10.3439826,-76.9764888,-18.2086138,-1.2184632,-0.512824,0.6801512,-43.4470626,62.0867484,172.7458406,37.2559528,10.479213000000003,-15.045873,-0.9581968,-0.2409188,-0.5014128,-159.5843112,70.9389724,75.64899740000001,79.77425286722013,1.4866898397418609,41.523465877348514,1.1079701131923732,-116.1372486,8.852224,-97.0968432
2158.499,15.106822200000002,-101.32356339999998,-26.533291,-1.2082853999999998,-0.5044291999999999,0.7159656,-41.4332702,60.18726939999999,174.6982056,44.8168304,18.0435018,-18.8681826,-0.9784756,-0.1786198,-0.4624613999999999,-158.0743686,70.4561524,76.29745940000001,105.82389195426008,1.492316711039972,51.86641070033582,1.0969002138924762,-116.6410984,10.268883,-98.4007462
2178.485,16.737703200000002,-123.143045,-32.9881534,-1.184447,-0.4900352,0.7555636,-39.302053,57.8463538,104.7900544,45.5535264,24.660874600000003,-22.7729304,-0.9523592,-0.1713576,-0.4242846,-156.5528688,69.8224518,76.94723200000001,128.57907491122046,1.487926593180255,56.585235375631925,1.056583595698684,-117.2508158,11.976098,-27.84282239999999
2198.471,16.947090600000003,-143.1047744,-39.8106102,-1.1693912000000002,-0.4859099999999999,0.8038905999999999,-37.231636,55.08076239999999,34.8579988,46.4114572,31.8366042,-25.1875428,-0.936181,-0.180488,-0.3936786,-155.1167236,69.0191024,77.4897446,149.50272579580565,1.4999414666932174,61.66040089649695,1.031500665536848,-117.8850876,13.93834,42.63174580000001
2218.457,19.6951784,-162.584816,-45.8760398,-1.1414758,-0.4483171999999999,0.8739505999999999,-35.2040906,51.903746,-35.1341796,47.2228394,39.57797420000001,-27.440474,-0.9119674,-0.1651949999999999,-0.3800578,-153.797653,68.0420716,77.8900206,170.0774337579588,1.5059033717479484,67.44918247183382,1.001707471285205,-118.5935624,16.138325599999998,113.0242002
2238.443,22.7789454,-181.151413,-52.0839668,-1.1216616,-0.4509868,0.876117,-33.285170400000005,48.31952299999999,-105.2629944,45.1407256,47.1716258,-31.525473,-0.8883604,-0.1597598,-0.3699755999999999,-152.6015928,66.8986466,78.2072524,189.86167170615624,1.4930153503490178,72.5031229409013,0.97549440725181,-119.3164224,18.5791236,183.4702468
2258.429,25.971675,-198.0667176,-57.1725502,-1.0993014,-0.4406942,0.8853633999999999,-31.4878708,44.376951,-175.54398500000002,42.898087200000006,52.29600680000001,-34.7507804,-0.8889984,-0.1856532,-0.3557233999999999,-151.485281,65.627803,78.4882674,207.78270625707836,1.4786964854273374,76.04429597973457,0.9753586023511353,-119.9974102,21.250852,254.0322524
2278.416,27.7141872,-214.3352296,-62.481541400000005,-1.0642548,-0.4179897999999999,0.920087,-29.8606586,40.0755358,-174.0036164,38.054819,50.61830560000001,-39.960478,-0.9289448,-0.1811822,-0.33418,-150.2890134,64.328099,78.96917260000001,224.97024211117628,1.4676218313298832,74.88138562370649,1.003713954991102,-120.4283548,24.2525632,252.972789
2298.402,29.771685,-229.4775574,-69.804647,-0.9979378,-0.4083668,0.9662528,-28.4082604,35.4192194,-172.6781128,30.3202542,37.2241712,-44.1199766,-1.0085156,-0.1309168,-0.3042118,-148.8958402,63.2195778,79.85181580000001,241.7002096002486,1.447856266871446,65.20375044017081,1.0615025874791073,-120.4875798,27.800358400000004,252.5299286
2318.388,32.556836999999994,-242.0743988,-76.5422088,-0.9290872,-0.4280798,0.9673718,-27.120806,30.4559224,-171.5799438,18.1415566,15.969082400000003,-46.7836202,-1.0803284,-0.103813,-0.2663821999999999,-147.2841734,62.439807,81.261612,255.9661538520451,1.4079288120523423,52.657713467134535,1.1175178152013503,-120.1633674,31.9838846,252.8415558
2338.374,35.7331954,-251.3620606,-81.1256332,-0.8386625999999999,-0.4018232,0.946705,-25.940116,25.2616538,-170.6623412,4.0568888,-5.988688999999996,-45.698792,-1.0987434,-0.1108984,-0.2272644,-145.592346,62.02880699999999,83.086113,266.53539188009086,1.3270520704637023,46.267724527293865,1.1274682353279315,-119.65223,36.7671532,253.74845420000003
2358.36,31.797544200000004,-259.5864746,-85.832344,-0.7256288000000001,-0.367666,0.9407056,-24.9844016,19.8529454,-169.910617,-12.2949612,-26.233892399999995,-41.331976,-1.1015262,-0.1379462,-0.2144778,-143.9578826,61.9849922,85.2162812,275.25154475305266,1.2436408118169813,50.47489892440458,1.1306590335170543,-118.973481,42.1320468,255.1268982
2378.346,28.9052002,-266.4471314,-89.2057404,-0.5964624,-0.3901371999999999,0.9131906,-24.2089038,14.275291799999996,-169.2805664,-22.468870000000003,-41.2173292,-35.0798418,-1.0732636,-0.2026584,-0.1950304,-142.371646,62.2390906,87.51647200000001,282.4663671133311,1.158400406321562,58.60301738111357,1.1095053127856935,-118.1627422,47.9637988,256.7970384
2398.332,26.074048999999995,-270.6770264,-86.99674680000001,-0.4718812,-0.3723046,0.8198626000000001,-23.570248,8.622014399999996,-168.6642884,-25.5871318,-50.23114459999999,-24.4946142,-1.0211122,-0.2834218,-0.1626136,-140.91225880000002,62.7414366,89.737526,285.50716734573234,1.01659100181605,61.46426056159402,1.0721199674518893,-117.3420108,54.11942220000001,258.40181440000003
2418.342,20.0902886,-270.7721192,-82.7248734,-0.3276351999999999,-0.3687646,0.7221782,-23.1159818,2.994150999999997,-168.030539,-23.5207714,-57.67401579999999,-10.2071578,-0.9589512,-0.3455246,-0.1650032,-139.5534666,63.5109276,91.7835878,283.83897708231746,0.8745704700293967,63.11659731088018,1.0325699536577848,-116.4374848,60.5167766,259.8141268
2438.304,13.6767906,-268.0670166,-76.71464540000001,-0.1967734,-0.3644257999999999,0.6525567999999999,-22.8607512,-2.537603800000003,-167.3432618,-17.732232600000003,-69.4187378,4.729581399999999,-0.9324708,-0.3545128,-0.1527586,-138.0763396,64.62346579999999,93.812636,279.1632440146601,0.7728882919797917,71.80363619584232,1.0092156895780209,-115.2155884,67.16106959999999,261.15589780000005
2458.29,10.907480799999998,-261.6492158,-69.10254219999999,-0.0842063999999999,-0.3721926,0.5515274,-22.729209,-7.8938422000000035,-166.57927560000002,-13.7159916,-85.03394699999998,13.932314600000002,-0.933556,-0.3350668,-0.1060744,-136.1128996,66.052585,96.2602876,270.84026030976287,0.67067169483025,87.25256419202503,0.997521099492938,-113.3836906,73.94642719999999,262.83956320000004
2478.276,5.1904792,-251.2180512,-61.1241318,-0.0054221999999999,-0.3373556,0.4642503999999999,-22.7916248,-12.996160000000003,-165.7426332,-14.5531878,-92.3252488,16.976627,-0.9727236,-0.3019764,-0.0827967999999999,-133.7583022,67.5869052,99.1206024,258.5993229135668,0.5739047264175126,94.9944877633492,1.021878788430487,-110.9666774,80.58306520000001,264.8632356
2498.263,1.8404882,-237.46029980000003,-55.296206600000005,0.0676956,-0.3496394,0.4175837999999999,-22.9941504,-17.7979416,-164.8788912,-18.6581256,-91.3659218,12.711989999999998,-0.960077,-0.2724424,-0.112343,-131.13846740000002,69.0051136,102.3307052,243.8205320359016,0.5488229535234108,94.11403724752854,1.0042876365343547,-108.144317,86.80305519999999,267.2095964
2518.249,3.377714,-222.4362366,-48.9612594,0.1066238,-0.3040036,0.3568128,-23.2432424,-22.271537200000004,-163.9761934,-23.2803892,-83.5983474,1.9597661999999996,-0.9324758,-0.2559888,-0.1386768,-128.34307719999998,70.1200244,105.8112304,227.7860689916551,0.4807308995511314,86.80150282612176,0.9768687927092972,-105.0998348,92.39156160000002,269.78742380000006
2538.235,0.3414063999999996,-205.107834,-44.1081298,0.1467341999999999,-0.2679776,0.3387099999999999,-23.6009064,-26.3862664,-163.07994100000002,-28.8569114,-71.70619339999999,-11.5426858,-0.9168422,-0.2580996,-0.1793045999999999,-125.48636940000002,70.815758,109.4627242,209.79720503608996,0.4561440382723422,78.15198719765975,0.9692085239008992,-101.885463,97.2020244,272.5426652
2558.221,-1.6253362000000002,-184.7276582,-39.2488518,0.1805391999999999,-0.2577778,0.3139655999999999,-24.0388302,-30.081955000000004,-162.209372,-27.7092446,-48.72327399999999,-19.971811,-0.867847,-0.2601982,-0.2525754,-123.18390060000002,71.053798,112.49205320000002,188.85820551259465,0.4445426806200278,59.50321756175396,0.9405614553964032,-99.1450704,101.135753,274.7014252
2578.207,0.7140827999999997,-162.367882,-33.0818474,0.2087155999999999,-0.2384561999999999,0.3323258,-24.4649276,-33.311126,-161.36185600000002,-21.8542274,-26.163069399999998,-22.0181086,-0.80336,-0.2919624,-0.3233216,-121.71886,70.9689728,114.5074036,165.70530361701785,0.4591993013359667,40.5821458525978,0.9138742745259436,-97.2539324,104.2800988,275.8692596
2598.193,2.1624282,-138.213994,-25.8025944,0.2489814,-0.1922981999999999,0.3194366,-24.878768200000003,-36.0469154,-160.546115,-14.2199946,-3.3636347999999927,-21.9405562,-0.7686002000000001,-0.302528,-0.3776464,-121.1730012,70.62252659999999,115.3834336,140.61848424344186,0.4483414733088608,26.361151186113982,0.908232493173967,-96.294233,106.669442,275.9295486
2618.179,-1.9602544,-111.962295,-19.062898,0.2957252,-0.165001,0.3419222,-25.3550564,-38.2430618,-159.80724479999998,-4.4821486,12.427444200000007,-16.4408084,-0.78152,-0.2658102,-0.3849562,-121.3508438,70.1926804,115.2847092,113.5904581342031,0.4812374827139715,21.091021934987086,0.910834698912201,-95.9957874,108.4357422,275.091954
2638.165,-2.7174436,-83.36922039999999,-13.0296032,0.3378047999999999,-0.1749682,0.3148476,-25.7824468,-39.8732176,-159.20287159999998,3.5878558,31.851104400000008,-9.4888614,-0.7735766,-0.2384447999999999,-0.4081754,-122.4540482,69.67472219999999,114.0282578,84.42500796193274,0.4938167323410983,33.427594161257005,0.906578091440423,-96.6716014,109.5479398,273.2311294
2658.152,-1.9471834,-53.5657056,-6.709896800000001,0.3761296,-0.1482292,0.3012408,-26.0946466,-40.9111868,-158.7663696,6.8479062,43.06766760000001,-6.991021999999999,-0.7670682,-0.2377014,-0.416721,-124.0329696,69.07262879999999,112.1931106,54.01943219514398,0.5041739692937747,44.16550917211951,0.904738620184968,-97.938323,109.9838156,270.95948020000003
2678.138,-3.3465144,-23.2934934,-2.483984,0.4381489999999999,-0.1377942,0.284471,-26.2895598,-41.3687452,-158.56490179999997,8.1994524,43.141103,-3.3635844,-0.7726379999999999,-0.2037014,-0.4088771999999999,-125.6414076,68.5243974,110.2939528,23.663393034759554,0.5402643219717919,44.04201956918413,0.897576907059111,-99.3518478,109.8931426,268.8588546
2698.124,-6.399255200000001,7.724399000000003,2.0575268,0.47172,-0.159662,0.267248,-26.3891726,-41.2174452,-158.6086884,8.474044,37.9392228,1.9513024,-0.8118072,-0.210336,-0.365299,-127.121771,68.10159619999999,108.523326,10.239639815864928,0.5651842231945262,38.92302184361103,0.9147215545010624,-100.7325984,109.3190414,267.1320144
2718.11,-5.776923200000001,39.1774058,5.7543880000000005,0.4907416,-0.1836922,0.2615158,-26.3031368,-40.4684852,-158.9238892,7.6287914,34.185205800000006,5.9812938,-0.8271136,-0.2331424,-0.357781,-128.5781096,67.76885539999999,106.7975966,40.01693326744462,0.5856284282384523,35.53312017449335,0.9308488222819644,-102.2749728,108.2373406,265.7214858
2738.096,-5.420884200000001,69.91337800000001,10.7245974,0.4921408,-0.192077,0.2656184,-26.075627000000004,-39.1179092,-159.461087,9.1980102,24.723066800000005,10.8944286,-0.8563941999999999,-0.24278,-0.3117314,-129.7460906,67.6226046,105.3448256,70.93858892219933,0.591311487603784,28.539831782213863,0.9431487793236016,-103.6704636,106.7405138,264.80591259999994
2758.083,-4.1850682,98.230307,15.6933082,0.4782006,-0.202902,0.2997238,-25.7300562,-37.2209526,-160.1725036,8.993300399999999,14.068402000000006,14.568013000000002,-0.8656124000000001,-0.256775,-0.2907918,-130.5877564,67.6571748,104.2444288,99.56398912967022,0.5997327669310725,22.159115273097285,0.9485663385372686,-104.8577002,104.8781274,264.4169324
2778.068,-1.727533,124.72350780000002,20.7187828,0.4471186,-0.2245835999999999,0.2941338,-25.2767538,-34.7986554,-161.0094206,11.2124178,13.166232200000008,13.4014108,-0.8971848,-0.2754138,-0.2445007999999999,-131.29347239999998,67.6846436,103.24104,126.4444768620454,0.5804029015755865,21.878432180950043,0.9698319275947354,-106.0167186,102.48329900000002,264.2504606
2798.055,-0.9793594,149.2655182,25.6412708,0.4047032,-0.2311648,0.3287324,-24.790004000000003,-31.88994300000001,-161.9361022,11.111082800000002,14.424370800000004,6.5076874,-0.9972478,-0.2698288,-0.1981223999999999,-131.80151700000002,67.5920562,102.4510818,151.45503899371533,0.5703392285815873,19.33568279788608,1.0519330973479444,-107.011513,99.4819992,264.387184
2818.041,-1.5352958,171.12078860000005,32.2219588,0.3482422,-0.2581875999999999,0.408581,-24.3455654,-28.521268400000004,-162.8785888,5.9894984,30.371760800000004,-14.3251524,-1.0788564,-0.27443,-0.179253,-132.25421160000002,66.987126,101.824472,174.13482148378105,0.5957112557402285,34.11052530318531,1.127552479811898,-107.9086462,95.5083944,264.7030608
2838.027,5.442879,187.7088134,39.29117720000001,0.2921049999999999,-0.2602398,0.4995338,-23.8296006,-24.783977,-163.77223519999998,-5.467437599999999,48.47224680000001,-36.89858460000001,-0.9662966,-0.2315718,-0.1706516,-132.8031128,65.79252,101.3379928,191.854163795333,0.634495155120573,61.16336427334064,1.008204635135824,-108.9735122,90.576497,265.110228
2858.013,4.491042,199.4371672,45.678876200000005,0.2242096,-0.2301059999999999,0.5663394,-23.4056076,-20.767194400000005,-164.5876406,-17.038932199999998,61.9147566,-47.15057,-0.9246722,-0.2192991999999999,-0.1739978,-133.6696808,64.2689376,100.7525056,204.65070938040125,0.6511213650008115,79.66767567011316,0.9661190666674166,-110.26407319999998,85.03613200000001,265.3401462
2877.999,-1.5625158,208.1317106,51.8048776,0.142361,-0.2587564,0.587277,-23.1848244,-16.538298400000002,-165.3209292,-28.5200154,67.7837274,-51.3873364,-0.8450094,-0.2492758,-0.2427452,-134.7609344,62.5937446,100.1650146,214.48775199544235,0.6573551578796352,89.71445435904135,0.9138405455422954,-111.57611,79.13204300000001,265.4859438
2897.985,-2.2084034,213.855487,57.4616318,0.0523816,-0.2569674,0.6875836,-23.05207,-12.152388600000004,-165.9736726,-30.705467,67.86983880000001,-44.5183546,-0.7701081999999999,-0.2987058,-0.2792658,-136.0080138,61.00546799999999,99.4380432,221.45176787441335,0.7358989629495886,86.7814762418652,0.8719410425656771,-112.9559438,73.15785660000002,265.4117158
2917.971,4.5638760000000005,213.9028076,61.62994679999999,-0.0146771999999999,-0.2836306,0.8003166,-22.8526384,-7.724783200000003,-166.5266816,-28.5183042,56.3339334,-18.2781692,-0.7147928,-0.3131912,-0.3020054,-137.4953826,59.923642,98.3727798,222.6510507630198,0.8492163432787666,65.73353174798386,0.836794321394714,-114.6427442,67.64842519999999,264.8994614
2937.957,6.6441550000000005,211.9081878,64.41002119999999,-0.0821974,-0.2593554,0.7790590000000001,-22.6628788,-3.3096290000000024,-166.98574219999998,-18.7191464,44.3748902,7.303461600000001,-0.7933199999999999,-0.357881,-0.3469158,-139.08362419999995,59.343180800000006,96.9603012,221.58040455628867,0.8251997101047238,48.71219430029162,0.9369023454184752,-116.4207454,62.6528098,263.9460434
2957.943,12.127708000000002,211.417987,64.2946152,-0.1483017999999999,-0.3309804,0.7753334000000001,-22.406942,1.0984003999999974,-167.421875,-5.3704788,38.1169968,27.896767600000004,-0.8830385999999999,-0.3626874,-0.3346486000000001,-140.75281660000002,59.1054038,95.1385878,221.31074097788724,0.8559692343904424,47.53921675964876,1.0115774832857245,-118.3458746,58.0070034,262.5604628
2977.929,19.6347406,210.8761382,64.9911354,-0.2239297999999999,-0.2945512,0.8465820000000001,-22.034059000000003,5.504084999999998,-167.81219800000002,6.9652622,37.248849400000005,43.292645400000005,-0.9177978,-0.3026758,-0.3119311999999999,-142.5381866,59.0540152,92.8965026,221.53581286364496,0.9239080297699984,57.534726947025405,1.0155129320318477,-120.5041276,53.54993019999999,260.70870060000004
2997.916,24.2464206,207.4852538,63.063281200000006,-0.2928978,-0.3132912,0.9238328,-21.5997552,9.839277199999998,-168.1781924,12.906108999999995,41.69691920000001,55.1124732,-0.93417,-0.2506959999999999,-0.317096,-144.599829,59.0407278,90.1957198,218.2086086571123,1.0185320513357052,70.3035235426499,1.0178761941081047,-123.0000738,49.2014506,258.3739122
3017.902,25.4834112,203.489569,60.4556922,-0.366779,-0.288887,0.8425796,-21.1703386,14.078378599999995,-168.52936119999998,15.2076022,39.43124720000001,53.894439,-0.9210102,-0.2136098,-0.3087188,-146.53565659999998,59.0163986,87.58841079999999,213.8043490146428,0.9632875562085084,68.48872152074146,0.9945834467924348,-125.36531799999996,44.93802000000001,256.117772
3037.888,19.1106088,201.3318238,57.2535742,-0.4694482,-0.3078059999999999,0.8319316000000001,-20.8944918,18.254846,-168.9007906,7.5441188000000015,39.30005900000001,53.833319800000005,-0.9381914,-0.2014631999999999,-0.3194654,-148.6059478,58.96143500000001,85.0016204,210.1848957513736,1.003611644610504,67.07782559505837,1.011359810248242,-127.711456,40.706589,253.902411
3057.874,14.5135052,197.2765138,54.53034279999999,-0.582858,-0.3386386,0.9484912,-20.7585764,22.3435636,-169.29681399999998,4.8131612,44.42143420000001,47.8772896,-0.8620908,-0.2301094,-0.3623134,-150.6235932,58.7055764,82.5348342,205.1882623742341,1.163630141433007,65.48790114642844,0.9630274571540316,-129.8650168,36.3620128,251.8316482
3077.86,13.402277800000002,186.7026126,53.1449234,-0.6629989999999999,-0.3133078,0.9769032,-20.63492,26.2254156,-169.638443,2.2160562,43.4555514,46.0605834,-0.8650094000000002,-0.3008798,-0.4016102,-152.57704159999997,58.3979744,80.1923462,194.58126704563807,1.221502891405534,63.36302704028554,1.000030333980145,-131.9421216,32.172558800000004,249.8307892
3097.846,4.7228996,176.369095,48.5277824,-0.719906,-0.3129154,0.8522359999999999,-20.7322112,29.8797084,-170.0147276,-0.1720546000000002,26.706230400000003,41.3451636,-0.9276886,-0.2824986,-0.4637635999999999,-154.1902924,58.30917960000001,78.30143580000001,182.9844504771169,1.1586573678569343,49.22067551419861,1.0749364047500114,-133.4580812,28.4294712,248.3161634
3117.832,-8.8127326,172.48300479999995,43.0688352,-0.7473208,-0.3467942,0.8786565999999999,-21.19891,33.4123096,-170.53372480000002,2.5139396,12.775561400000008,39.2124472,-0.9876828,-0.2194307999999999,-0.4259113999999999,-155.49209,58.4287694,76.7107834,177.9971229155142,1.2044882797229035,41.31768237462511,1.0977557606564583,-134.29318,25.0164598,247.2445082
3137.818,-12.4989992,167.8549132,38.8286282,-0.7918622000000001,-0.4249768,1.0138818,-21.8432372,36.8143552,-171.196408,3.8162912,4.585877200000006,40.574594000000005,-0.9381968,-0.2120396,-0.4307296,-156.7069642,58.6803898,75.19457700000001,172.74014945656083,1.354845868982269,41.01087692895037,1.053898484586898,-134.86372699999998,21.8660346,246.390985
3157.804,-13.531597,158.4283782,37.4928088,-0.8065642000000001,-0.3360838,0.8616284000000001,-22.5348266,40.0231202,-171.87691339999998,-1.8228478000000004,-13.642087599999996,42.2878462,-0.9285162,-0.2589678,-0.4681762,-157.880548,59.2650892,73.86706079999999,163.3657425783203,1.2271518361762086,44.47124086893566,1.071632217388839,-135.3457214,19.241969000000005,245.7439742
3177.79,-25.929997000000004,153.3992278,29.2606894,-0.834318,-0.3821188,0.7802946000000001,-23.6526408,43.0696794,-172.80016460000002,-1.2978888000000002,-33.2831154,37.6716476,-1.0091414,-0.2003346,-0.4521978,-158.6895232,60.1707358,72.9598098,158.30311360873347,1.2045584108820129,50.28521968695641,1.1238252388498666,-135.0368824,17.1010564,245.7599744
3197.776,-31.054086800000004,150.8387116,27.2040046,-0.8692332,-0.4178175999999999,0.8296184,-25.0227272,46.0222222,-173.89458,-3.1187652,-38.96396399999999,30.3079528,-0.9436794,-0.1784202,-0.3884473999999999,-159.2469298,61.120285,72.3867386,156.38647988367387,1.27216531648625,49.46199743129117,1.0359806756494832,-134.22420259999998,15.098062800000005,246.2813186
3217.763,-33.6421094,143.95050980000002,28.4907312,-0.9324544,-0.3953,0.762976,-26.5184208,48.8450142,-175.035208,-8.8693668,-42.49844579999999,31.020634,-0.8763491999999999,-0.2591106,-0.4627476,-159.9182586,62.128029600000005,71.815068,150.5498673558769,1.2680164331172368,53.357879423853,1.0243346936811035,-133.39983779999997,13.2830154,246.850276
3237.749,-41.538905,135.59467339999998,27.5147494,-0.9489976,-0.350434,0.629788,-28.29701,51.49223859999999,-176.2845732,-7.6836032,-58.5767746,26.7324858,-0.9591504,-0.2604918,-0.4371352,-160.22543019999998,63.4145942,71.6322754,144.45918979973715,1.1916515254493487,64.84521630561083,1.08577744071538,-131.9284202,11.9223556,247.9168486
3257.735,-52.8312584,131.9781604,24.8532948,-0.9440182,-0.388889,0.6225282,-30.521262,54.019967,-105.7751158,-8.0578754,-70.845449,22.9826258,-1.0245546,-0.0971518,-0.374232,-160.25795599999998,64.9083036,71.770215,144.31584441464287,1.1958036527990203,74.91467205185079,1.0950799927166963,-129.736694,10.8883366,177.5453308
3277.721,-54.355873800000005,129.3163012,24.8265794,-0.9655254,-0.4229678,0.669678,-32.999662,56.4521402,-35.4962524,-21.6247176,-71.8720558,20.942607,-0.9384782,-0.05958,-0.348668,-160.4519472,66.4097638,72.026912,142.4556977355246,1.2488433374791252,77.92184292067606,1.002925960626825,-127.4522852,9.957623600000002,107.5231644
3297.707,-51.8039444,122.77375499999998,23.8178502,-0.9926412,-0.4033716,0.5908686,-35.6264004,58.728161,34.590600599999995,-34.1117402,-69.63175439999999,21.5614936,-0.8915995999999999,-0.1588062,-0.4044928,-160.9471864,67.87249120000001,72.2231262,135.3674021334086,1.2235893519028187,80.48037056672301,0.991858700183872,-125.320786,9.144330200000002,37.6325256
3317.693,-52.1551476,113.2827394,19.8153488,-1.0276868,-0.4081127999999999,0.5167594,-38.489907,60.7689828,104.4516754,-35.808059,-67.5045076,16.7745,-0.912383,-0.214336,-0.3981686,-161.3296814,69.27450400000001,72.5819566,126.2766269553149,1.2205476204992742,78.23336555406483,1.018293127547741,-122.83977439999998,8.5055212,-31.8697188
3337.679,-52.9479776,102.441948,17.110211999999997,-1.0561060000000002,-0.4162476,0.4941598,-41.4836432,62.55765699999999,174.20915219999998,-26.3077648,-57.5412096,13.4627832,-0.9008786,-0.1913894,-0.4340963999999999,-161.55647600000003,70.45577540000001,72.9058992,116.57873046422212,1.2380694066480282,64.68644233912894,1.01816100832004,-120.0728328,7.898118399999999,-101.303253
3357.665,-48.6975572,89.65441200000001,14.0160706,-1.1207406,-0.4500427999999999,0.524457,-44.42433080000001,64.06613999999999,171.9644438,-16.8992488,-41.1552372,10.0663858,-0.8791812,-0.227508,-0.4730194,-161.7278718,71.30177160000001,73.0881104,102.98454206033642,1.3166826341868416,45.61436486532512,1.023946690640582,-117.303541,7.235631599999998,-98.8763334
3377.651,-40.511605200000005,72.4247778,11.040795,-1.1468572,-0.4385545999999999,0.4499234,-47.0276222,65.2439536,169.952188,-5.8615458,-29.981772399999997,8.42735,-0.9262488,-0.2835712,-0.4904657999999999,-161.7909272,71.92536179999999,73.149524,83.71641266497308,1.3076859868640331,31.690450035198285,1.0857744544519916,-114.763305,6.681408199999997,-96.802664
3397.637,-35.9136852,53.8708936,6.201182599999999,-1.1610532,-0.4520286,0.4223269999999999,-49.270877,66.0585372,168.2639862,7.1101074,-21.5973148,5.2308788,-0.9667012,-0.2317352,-0.4774808,-161.5615816,72.36909799999998,73.24442919999998,65.04091502697177,1.3155738228534346,23.331517885258197,1.102814729394344,-112.29070459999998,6.310560799999996,-95.019557
3417.623,-28.3642228,35.2993216,2.482158,-1.1606416,-0.4676438,0.4613176,-50.911157200000005,66.52816920000001,167.0894652,16.2804874,-11.895699599999991,1.6126428000000004,-0.9614202,-0.1880006,-0.4665214000000001,-161.1111056,72.6042282,73.377585,45.351211106267385,1.333639222353167,20.227766949304872,1.085041585943304,-110.1999484,6.076058999999995,-93.7118802
3437.609,-19.3117866,15.46166,-1.9773924,-1.1624025999999998,-0.4865674,0.4864468,-51.85262,66.6632902,166.51271960000005,14.5972072,-4.900521799999995,-3.5712104,-0.967693,-0.2119382,-0.4348625999999999,-160.5082094,72.6641662,73.70408640000001,24.817697563293763,1.3507620547156929,15.80655293456088,1.081874772673344,-108.6555894,6.000875999999996,-92.8086332
3457.596,-9.3486446,-6.443760599999999,-7.1001498,-1.140242,-0.4991162,0.4819312,-51.9951516,66.4411834,166.605545,14.208707999999998,-1.2377125999999945,-7.578814199999999,-0.9715944,-0.2109368,-0.4180288,-159.7630038,72.622975,74.18892539999999,13.391464957563883,1.3347383568324842,16.151090990629218,1.0785351590629952,-107.7678522,6.181791599999997,-92.4166196
3477.582,0.4964462000000004,-27.2131758,-12.1961634,-1.1262964,-0.5159304,0.4843282,-51.3976136,65.86948240000001,167.2911896,16.713196,1.9477474000000057,-11.2265822,-0.9557684,-0.1713258,-0.4066767999999999,-158.8461244,72.4879178,74.8032594,29.825321417056003,1.3301509551973263,20.227723261948675,1.052725882574585,-107.4485108,6.618435399999996,-92.4879302
3497.568,8.528841,-48.10017739999999,-17.4839156,-1.1307008,-0.5187138,0.531294,-50.130343,64.9395614,168.5374634,14.4940402,5.936456200000007,-14.171204799999998,-0.916181,-0.1620521999999999,-0.4180946,-157.9084778,72.25413019999999,75.4862732,51.88502191791649,1.3527089930458362,21.12206805730153,1.0200253108795878,-107.7781348,7.314568799999995,-93.0511902
3517.554,16.029115400000002,-70.2920882,-24.8435114,-1.1472182,-0.5128116,0.5685640000000001,-48.3336054,63.5980964,170.2073456,12.7567668,12.659664800000003,-17.046956799999997,-0.9050844,-0.1664049999999999,-0.4250444,-157.01705320000002,71.867909,76.1565994,76.25687026560313,1.3792571760196863,24.770969867548736,1.0136721053278126,-108.6834478,8.269812599999996,-94.0507462
3537.54,23.2853142,-92.1752578,-33.3158444,-1.1575884,-0.4998383999999999,0.609727,-46.1708452,61.80877840000001,172.1271942,15.226375,20.228079600000008,-19.3839788,-0.9296836,-0.1714842,-0.428886,-156.16990040000002,71.3265318,76.7298492,100.73941381591514,1.4005771469141284,31.886616848819365,1.0381048251282718,-109.9990552,9.517753399999997,-95.397345
3557.526,28.2465596,-111.8257094,-40.5627968,-1.1726584,-0.4977914,0.6361082,-43.832374,59.5972206,174.1627288,22.0991672,27.027322000000005,-21.9922804,-0.935905,-0.1899105999999999,-0.4276913999999999,-155.2392332,70.6356368,77.2469924,122.26282303418196,1.423923327680167,41.26147988884384,1.04637667149613,-111.4068592,11.038416199999997,-96.9157364
3577.512,30.4067026,-131.0446868,-47.0596778,-1.1820678,-0.4882155999999999,0.713166,-41.4470942,56.9851898,104.2416898,30.422290800000003,35.621104200000005,-23.8978844,-0.9202756,-0.2142052,-0.433323,-154.278781,69.76451879999999,77.6184754,142.51979082273013,1.464323905232787,52.58790470006184,1.0394998172156646,-112.8316868,12.779329,-26.623214399999995
3597.498,32.8296716,-149.81520700000002,-53.83071439999999,-1.1769182,-0.4712029999999999,0.7701884,-39.1095606,53.9741928,34.2579068,44.229348400000006,46.1284654,-25.329638600000003,-0.916032,-0.2064492,-0.4164122,-153.2750456,68.68153240000001,77.7421952,162.54270023175778,1.4833606736713765,68.74344457222224,1.0271976526031783,-114.165485,14.7073396,43.4842884
3617.485,34.0605882,-167.3347534,-60.7527344,-1.1517558,-0.4733242,0.8165462,-36.9393098,50.5758782,-35.89788840000001,52.4499338,54.52013420000001,-27.0282908,-0.9315718,-0.1841191999999999,-0.3844478,-152.2762694,67.44246840000001,77.6830964,181.2510361378542,1.4890684731985029,80.33659871054884,1.0244637667036935,-115.3369596,16.8665902,113.5809848
3637.471,35.631762,-183.2464844,-66.6402328,-1.1164818,-0.4771282,0.8309822,-34.9379502,46.830674,-106.2302186,53.8946864,58.29752360000001,-30.1454618,-0.9372146,-0.1729132,-0.3712376,-151.2776366,66.10593659999999,77.5970994,198.21659147463484,1.4712968244658589,84.92342048682544,1.022784208345612,-116.33968639999998,19.2752626,183.827318
3657.457,34.7344452,-197.5070436,-73.2875816,-1.0603142,-0.4556958,0.8450076000000001,-33.1735378,42.7673682,-176.7778686,51.5722002,55.11766660000001,-33.480077,-0.9667214,-0.1476344,-0.3576826,-150.17913199999998,64.79288039999999,77.6760194,213.5101486387492,1.4303715282810407,82.57459997374232,1.04128911625162,-117.0055942,22.0255122,254.453888
3677.443,32.230711400000004,-209.2995332,-81.645218,-0.9871546,-0.4561224,0.9086688,-31.6989524,38.3939078,-175.584738,43.8683586,45.976749600000005,-36.4153362,-1.0254059999999998,-0.1195174,-0.30436,-148.9863158,63.6156152,78.03476880000001,226.9604700765213,1.417110029664726,73.24186712938389,1.0762791846629571,-117.2873634,25.2217074,253.6195068
3697.429,34.1219352,-219.6725342,-88.5458452,-0.9168942,-0.4698296,0.9444156,-30.3982936,33.7559814,-174.61775500000002,28.946324,27.338110400000005,-40.138704,-1.0703068,-0.1149176,-0.2656168,-147.62247,62.7254708,78.922629,239.2920714228232,1.3976250042672962,56.5365148568178,1.1087447791796992,-117.2241764,28.9694894,253.540384
3717.415,35.1446098,-229.1334198,-92.9730592,-0.8602335999999999,-0.4513161999999999,0.92359,-29.2420092,28.8891952,-173.8153808,11.1682466,2.049031800000006,-44.1557678,-1.0654138,-0.13187,-0.2275033999999999,-146.0120086,62.1951148,80.49452840000001,249.7624019027764,1.3404128644008904,45.59232494009644,1.0973851006561006,-116.7699994,33.3059196,254.3099092
3737.401,32.079406000000006,-237.9984954,-96.9932496,-0.7871058,-0.4493664,0.929016,-28.280311600000005,23.805873,-173.14654839999997,-5.654943800000001,-19.988970799999997,-45.48163520000001,-1.0544854,-0.1672398,-0.2191596,-144.257129,61.9982314,82.6106036,258.99819028314573,1.2978969258375643,50.00116482133482,1.0899263919133988,-115.9768174,38.1923584,255.757152
3757.387,29.471433,-247.437686,-99.4515032,-0.7070898000000001,-0.4480966,0.9549352,-27.4666442,18.5084812,-172.54840399999998,-19.138575,-33.947759,-44.6437844,-1.0415128,-0.2066452,-0.2038736,-142.5116364,62.019709,85.0237764,268.2994135380241,1.2699085732424364,59.26046641485696,1.0812102459854145,-115.0449922,43.51122779999999,257.57218040000004
3777.373,25.8704622,-257.7508422,-99.7658418,-0.6182546,-0.4249968,0.8986832,-26.7893886,13.0165654,-171.95215760000002,-26.1878718,-46.9417466,-42.183881,-1.009028,-0.2392586,-0.1991338,-140.66779179999995,62.2535102,87.7054902,277.5932287706484,1.1706803681593196,68.32870567699938,1.0559528648383885,-113.8784032,49.23694479999999,259.6576478
3797.359,16.87626,-264.85687240000004,-100.861638,-0.4949793999999999,-0.4235436,0.83733,-26.3456,7.378575,-171.37675159999998,-28.2097322,-55.2400214,-33.8804668,-1.0385608000000002,-0.2695858,-0.1699582,-138.8567078,62.6836196,90.3887924,283.91379154444144,1.0609030664605132,70.67626890020495,1.086356676513529,-112.5111078,55.3050446,261.765544
3817.345,11.610868,-267.693878,-101.7575516,-0.3537929999999999,-0.4312194,0.798504,-26.0625862,1.6787682000000004,-170.8338926,-25.566060400000005,-57.577172,-23.8698146,-1.0202871999999998,-0.2726338,-0.1790642,-137.122998,63.2526352,92.9083846,286.6172079307503,0.974026845523962,67.36855519403993,1.0711578534968222,-111.0604118,61.57386699999999,263.7422772
3837.331,6.0920192,-267.4263488,-101.7807404,-0.2276419999999999,-0.3916258,0.7292974,-25.9395442,-4.018196399999999,-170.316345,-19.0591676,-63.5181382,-11.184464,-0.9638926,-0.2851405999999999,-0.1634837999999999,-135.3286924,64.0363998,95.3304518,286.20496824269947,0.8585256810581732,67.25249426576299,1.018391407547,-109.3891482,68.05459619999999,265.6467968
3857.318,0.8066156000000003,-263.4228026,-101.7149428,-0.1129465999999999,-0.3945616,0.649513,-25.972594,-9.6431434,-169.83382539999997,-12.7302134,-75.5356592,1.9060718000000008,-0.9764584,-0.3448162,-0.1271792,-133.23008099999998,65.1267622,97.9230894,282.3794488753953,0.7683117386940798,76.6245864830267,1.0433330089792232,-107.257487,74.76990559999999,267.7569148
3877.304,0.9742884000000004,-256.0478026,-98.7028258,-0.0232688,-0.3986984,0.5591994,-26.0651928,-15.1085416,-169.34553499999998,-7.369541,-82.84085780000001,9.449542200000002,-0.968391,-0.3610205999999999,-0.1297436,-130.74743180000002,66.3738302,100.7871672,274.4151494999504,0.6871723365913096,83.7031164496286,1.0416095258043292,-104.682239,81.4823718,270.1327022
3897.29,1.1124764000000005,-247.4138,-92.0072844,0.0472825999999999,-0.3528932,0.4833858,-26.2309884,-20.3566402,-168.78301679999998,-4.7350136,-88.3241602,12.8318544,-0.900103,-0.3664936,-0.1446588,-127.810318,67.677989,104.057704,263.9700104497536,0.6003591312794702,89.37692160826668,0.9825625363646836,-101.5793296,88.0346292,272.8407208
3917.276,-3.3536108,-236.69496160000003,-83.9579292,0.1118695999999999,-0.3358824,0.4235841999999999,-26.577633400000003,-25.3384566,-168.12032159999998,-3.1872878,-92.9914094,14.3414184,-0.9022898,-0.3764452,-0.1543372,-124.421289,68.97858260000001,107.7587706,251.16664871709293,0.5520465274988694,94.14476781766628,0.9897766632381872,-97.8436556,94.3170392,275.8790922
3937.262,-3.2196286,-224.3899444,-74.5049148,0.166636,-0.3259134,0.3859872,-27.0395924,-30.0084932,-167.3216034,-0.9428998,-87.20653239999999,8.700352,-0.9450468,-0.374707,-0.1635506,-120.830217,70.05194999999999,111.6110044,236.45759764810327,0.5319522716930534,87.64453478790901,1.0296929585073409,-93.7906246,100.0604432,278.9326078
3957.248,-1.6793534,-211.183789,-64.4456902,0.2093218,-0.2891046,0.3391154,-27.5972356,-34.3415826,-166.37456980000002,1.1202154,-65.8934432,-1.2677647999999997,-0.8884453999999999,-0.321976,-0.2038241999999999,-117.711032,70.68127439999999,114.904286,220.80457411383716,0.4923376282730785,65.91515733791539,0.9667202686727944,-90.1137964,105.022857,281.27885580000003
3977.234,-2.347521199999999,-195.3269164,-55.7385078,0.2488535999999999,-0.2622402,0.3109264,-28.2875084,-38.306767,-165.31703819999998,3.9253682,-40.98738159999999,-8.1014722,-0.8544262,-0.303431,-0.2447412,-115.4647582,70.9131974,117.2029646,203.13762915296545,0.4768367256681893,41.964363664149154,0.9391553428399798,-87.1772498,109.2199644,282.52000280000004
3997.22,-0.9890917999999996,-176.48395380000002,-48.837693,0.3027704,-0.2398964,0.2822002,-29.0166664,-41.8703782,-164.2272676,9.556299,-14.845918199999996,-15.6440916,-0.8523966,-0.288351,-0.26656,-114.1735182,70.75751819999999,118.3657866,183.11931768393967,0.478390165794783,23.589441277140978,0.9384990657920548,-85.1568518,112.62789639999998,282.5930542
4017.206,1.1591056000000006,-156.0018614,-42.9828262,0.3470234,-0.2121356,0.287626,-29.7260238,-45.0139892,-163.1634248,15.4469548,11.655554200000005,-20.146253,-0.8237030000000001,-0.2777523999999999,-0.2979817999999999,-113.9739914,70.2857286,118.2434372,161.81918191053916,0.4981520539061542,27.934420814514656,0.9189266461725876,-84.2479676,115.2997178,281.406862
4037.193,3.424589800000001,-134.0015196,-36.520464,0.3880164,-0.2086248,0.279802,-30.3902184,-47.7061248,-162.1497162,17.896029600000002,28.7187944,-18.7918964,-0.7556042,-0.2680316,-0.3187482,-114.618869,69.6978868,117.1720842,138.93120369874703,0.521890978124742,38.706232024596254,0.8627740495978307,-84.2286506,117.40401160000002,279.32180040000003
4057.179,5.7337096,-110.373873,-29.8018922,0.4385666,-0.1841994,0.248868,-30.9675794,-49.9209396,-161.2318022,17.83198,39.0083542,-13.449361600000003,-0.72407,-0.2705878,-0.3323033999999999,-115.83657680000002,69.1133364,115.4863908,114.47017098571,0.5368476162002771,44.95015612387361,0.8413802184865057,-84.86899739999998,119.034276,276.718193
4077.165,3.854524,-84.9788634,-23.6573486,0.5074522,-0.1606808,0.2178114,-31.4586306,-51.6299948,-160.49727159999998,16.6459942,45.60753860000001,-6.8766184,-0.752332,-0.2598258,-0.2998404,-117.4611374,68.5734026,113.3844986,88.29459056366,0.5751242133169495,49.034932249123614,0.850539328921244,-86.00250679999999,120.2033974,273.8817702
4097.151,-2.3342536000000003,-57.3065628,-18.0539452,0.5537748,-0.164992,0.2035851999999999,-31.866345000000003,-52.8061162,-160.03717039999998,14.368947,46.6007996,1.044256,-0.7753186,-0.2515676,-0.3062446,-119.3171234,68.146303,111.0818864,60.1284942194968,0.6126465725343446,48.77695800110648,0.8707416057045166,-87.4507784,120.95241919999998,271.1190568
4117.138,-5.0089958,-30.1267346,-12.6826502,0.6097346000000001,-0.1576016,0.1830456,-32.0904398,-53.458743000000005,-159.8789458,10.7677332,42.46066520000001,8.049814399999999,-0.7634878,-0.2324301999999999,-0.3074042,-121.17889699999998,67.8607362,108.8467834,33.06901559887767,0.6558355269723348,44.538204716482696,0.8552395926280075,-89.0884572,121.3194792,268.72572920000005
4137.123,-8.7778924,-1.937888799999999,-8.9775648,0.6496862,-0.1587782,0.1425304,-32.08513,-53.5913144,-160.10279540000002,6.612835200000001,38.3168878,13.7266836,-0.791699,-0.2151497999999999,-0.2909152,-123.09187,67.7002014,106.6474624,12.704466841443692,0.6838257016154335,41.235122440883536,0.8704644717804857,-91.00674,121.2915158,266.7502578
4157.109,-15.001022799999998,27.7172572,-6.5971176,0.6699234000000001,-0.1652348,0.1385742,-31.8546806,-53.191219,-160.767212,3.1335062,30.060782800000005,20.0686406,-0.8416140000000001,-0.2184644,-0.2647762,-124.899652,67.7162902,104.636586,32.199363229189814,0.7037774576556428,36.27974447520521,0.90892642999849,-93.0449714,120.9075092,265.403798
4177.096,-19.7453464,56.6939472,-3.7827432,0.66417,-0.1897776,0.1552,-31.415164,-52.26728859999999,-161.82395319999998,1.1291516,18.9493734,24.8562818,-0.8507468000000001,-0.2576067999999999,-0.2767818,-126.426097,67.901895,102.9727922,60.15306725088528,0.7079720095891927,31.276004868100102,0.9309884778705484,-95.010933,120.1691836,264.7967454
4197.082,-18.9600258,82.1566686,1.6265674000000003,0.648699,-0.1904458,0.1923081999999999,-30.7935758,-50.8525228,-163.109738,-0.4503864,5.810734400000004,27.5715074,-0.8494659999999999,-0.2859821999999999,-0.2657444,-127.51106260000002,68.2656492,101.8141252,84.33176445025703,0.7028957526730973,28.18076476046921,0.9348788103300876,-96.7174868,119.118172,264.9238632
4217.068,-19.379038,107.4951752,8.6884542,0.607846,-0.2227386,0.1942176,-30.0893728,-48.9214522,-164.54069199999998,-2.2973596,-3.903855399999996,28.9491988,-0.8750026,-0.3202687999999999,-0.2391204,-128.2812378,68.7562986,101.0326952,109.5730306301219,0.6758770004932257,29.30143442355242,0.9619668497179932,-98.191865,117.6777508,265.5733872
4237.054,-17.417204599999998,131.433557,17.9480528,0.5613002,-0.2418158,0.2400814,-29.364934800000004,-46.474504,-165.99406119999998,-1.5671366,-9.297642399999996,29.0970736,-0.9022334,-0.3453233999999999,-0.2368554,-128.812555,69.30321799999999,100.4895052,133.7918963205997,0.6566367902239716,30.58662719891087,0.9946727296816176,-99.4476202,115.777722,266.48356640000003
4257.04,-13.9870122,152.85292180000002,28.7205334,0.5224694000000001,-0.2664405999999999,0.3072152,-28.6735874,-43.533425,-167.3654358,2.189098,-6.3027925999999965,19.351201,-0.9792988,-0.3675377999999999,-0.2420418,-129.08449420000002,69.6544448,100.1441896,156.15543939248604,0.6620770698157127,20.469155448005655,1.0736360682547508,-100.4109068,113.1878698,267.5096254
4277.026,-8.856007799999999,170.28329739999998,40.2685932,0.4739761999999999,-0.2732804,0.384342,-28.034878600000003,-40.1571556,-168.5623506,2.1385922,9.149220400000004,-5.1932922,-1.1076468,-0.3354162,-0.2183476,-129.17727680000002,69.4414184,99.9907762,175.20385225752767,0.6686212591255232,10.735552822293684,1.1777355964725018,-101.1423982,109.598574,268.55312680000003
4297.012,-5.540153800000001,183.8204708,50.7980652,0.4171768,-0.2958954,0.453648,-27.4875726,-36.4223948,-169.57309279999998,-4.2134632,36.9664392,-33.249821600000004,-1.0524308,-0.253769,-0.1650532,-129.55505999999997,68.4469054,99.6637894,190.7907288557931,0.6836571349027231,49.89811154439492,1.0951035809364702,-102.0674874,104.8693002,269.2368822
4316.998,-2.9579348,194.215347,59.6283784,0.3494935999999999,-0.3085264,0.5163738,-27.0381546,-32.4127268,-170.40444359999998,-13.750145200000002,55.4932032,-50.247169,-0.9243214,-0.2148248,-0.1947132,-130.2616334,66.95932,99.1857072,203.18438399450156,0.6956839923876069,76.11399402824776,0.968727503195424,-103.2234788,99.3720468,269.59015080000006
4336.984,-3.2311582000000003,200.4849364,65.9660394,0.2857632,-0.2821972,0.5611765999999999,-26.704945,-28.2239306,-171.0961854,-21.0172008,66.64357199999999,-58.5878466,-0.8944044000000002,-0.2306284,-0.2383534,-131.2278138,65.1965742,98.578914,211.0833211334989,0.6900833591310834,91.19004434482876,0.9539187768974255,-104.5228688,93.4205048,269.6750994
4356.971,-3.2093630000000006,204.8930724,69.9351228,0.2164464,-0.2865578,0.5960812,-26.4668094,-23.9212624,-171.68658139999997,-24.4107962,71.57045000000001,-54.16888660000001,-0.820946,-0.2292594,-0.2476678,-132.4520326,63.4276236,97.7466142,216.52342258847767,0.6959002901330333,93.01873230593984,0.8876100194123543,-105.9852232,87.348886,269.4331956
4376.957,0.7445257999999996,208.480719,71.8503282,0.1636462,-0.3015712,0.6838042,-26.2204342,-19.5355058,-172.23358760000002,-23.585774000000004,64.295569,-29.8691582,-0.7076762000000001,-0.262093,-0.2731264,-133.9882142,62.09673299999999,96.535753,220.51583656479536,0.7650578091762217,74.71529655826485,0.8025561507286578,-107.76778,81.63223880000001,268.7693406
4396.943,13.271496,212.2769532,71.9512758,0.1191184,-0.3325478,0.6439598,-25.781609,-15.078447799999998,-172.76953740000002,-18.4255564,49.93755660000001,-1.110241599999999,-0.7854052,-0.3118269999999999,-0.2962539999999999,-135.65064999999998,61.36104819999999,95.055292,224.53201009032244,0.734480399002887,53.23995984444537,0.895468502311522,-109.869041,76.439496,267.8248294
4416.935,20.5985534,215.5323608,71.4864426,0.0549335999999999,-0.2899817999999999,0.7232316,-25.2423634,-10.5638872,-173.3062714,-10.742665400000002,47.680057,16.326729800000003,-0.9485526,-0.3162086,-0.2440298,-137.469333,60.8799356,93.2157504,228.01054894411604,0.7811344903272163,51.5301348861209,1.029218371857382,-112.2269696,71.44382279999999,266.5220218
4436.915,31.223237,218.0211882,71.5689636,-0.0015179999999999,-0.3309053999999999,0.7726024,-24.5279308,-6.001714399999999,-173.80192879999998,-9.5809976,48.0614122,27.080259,-0.904743,-0.300288,-0.2280269999999999,-139.50144059999997,60.5216624,91.097832,231.58204935546303,0.8404850721808924,55.99138581225326,0.9801678895587226,-114.97350980000002,66.5233768,264.8997608
4456.901,42.2350068,217.0474426,71.7302536,-0.0874886,-0.3273338,0.7800326,-23.636787,-1.4498409999999986,-174.2134828,-9.069137200000002,50.68032,36.713108,-0.8977364000000001,-0.2758409999999999,-0.229352,-141.7905182,60.19719260000001,88.6653736,232.46207738062708,0.8504425488033627,63.23445566994697,0.9667581088721006,-118.1537312,61.64703360000001,262.8788564
4476.887,41.89301379999999,215.6261382,71.3255828,-0.1988966,-0.2875708,0.7286212,-22.791366,3.0755046000000013,-174.5442842,-14.432739200000004,56.774491200000014,45.29226440000001,-0.9062494,-0.2298312,-0.2544284,-144.501889,59.8097314,85.8620364,230.9480349387112,0.8081742854073247,74.04752545705767,0.9689397123765544,-121.710523,56.7342268,260.4063206
4496.873,30.902919200000003,215.6551208,69.3574164,-0.2976318,-0.286317,0.8428564,-22.2031354,7.596999600000001,-174.85339679999998,-18.8231536,58.62774200000001,49.1514632,-0.9330512,-0.2240756,-0.3037902,-147.38307200000003,59.3769546,82.9540072,228.63195916587716,0.9385995013216232,78.78698863498155,1.0065201945082076,-125.17993660000002,51.779955,257.807404
4516.86,35.844797,212.6298004,67.7793952,-0.386399,-0.3543764,0.8821975999999999,-21.551903,12.0593116,-175.11952219999998,-17.950077200000003,56.649494,51.9520072,-0.8536672000000001,-0.2282192,-0.3672302,-150.21311640000002,58.9462798,80.0762452,226.0316966794543,1.0262355604459046,78.9327656556569,0.9569167734952294,-128.6612134,46.8869682,255.1957674
4536.846,35.6425646,206.6326996,64.2337408,-0.4830921999999999,-0.2952398,0.8441246,-20.9226702,16.385689000000003,-175.364798,-16.0454832,55.7748222,57.8455498,-0.9373934,-0.262415,-0.3874384,-153.112094,58.5266822,77.06370240000001,219.3021623523366,1.0164108192704562,81.94141781924068,1.0477005929095966,-132.1894238,42.1409932,252.4285004
4556.832,21.9127414,204.6126586,59.407807000000005,-0.5370378,-0.2730718,0.8148032000000001,-20.6067568,20.6438808,-175.6725678,-18.062375,40.66808860000001,55.31729740000001,-1.048258,-0.2524829999999999,-0.3880168,-155.7355224,58.2938224,74.414421,214.1863577064904,1.0133518941188793,70.99398715847789,1.1459273698342491,-135.1287656,37.6499416,250.08698880000003
4576.818,13.378557400000002,204.2236938,54.75705620000001,-0.6133348,-0.4176992,0.9939428,-20.5300174,24.857323200000003,-176.0925536,-4.711256200000003,28.970114200000005,47.0293604,-0.9666032,-0.2070741999999999,-0.394035,-157.6274048,58.1444802,72.2996642,211.85994928516152,1.2403928765691616,55.43666829253151,1.0641734124572366,-137.09738740000003,33.287157,248.3922178
4596.804,21.8542684,196.1675232,56.75066360000001,-0.7061766,-0.3530022,0.9619644,-20.252488,28.9309074,-176.41108079999998,2.386879399999997,19.242701600000007,46.672448,-0.8130434000000001,-0.2775898,-0.4341384,-159.2253386,58.1332636,70.3606734,205.3775645604021,1.2444562870827405,50.5400451172087,0.962586005353371,-138.9728506,29.202356200000004,246.77175420000003
4616.79,10.2730244,186.3558502,50.800714000000006,-0.7876996,-0.2910114,0.8300616,-20.253933,32.775542,-176.7865448,1.933468199999997,8.397205000000007,48.4143112,-0.905219,-0.245173,-0.4800649999999999,-160.76059260000002,58.312575,68.5089126,193.4289287490308,1.180745762035452,49.1751652774333,1.0535623579622613,-140.50665959999998,25.537033,245.2954574
4636.776,-6.852475399999999,182.2990754,43.8866642,-0.8368610000000001,-0.3123094,0.8163406,-20.7167012,36.495406200000005,-177.337906,0.9934335999999974,-11.916879799999991,42.2624892,-1.022814,-0.0950247999999999,-0.4297443999999999,-161.9444,58.8139596,67.0972656,187.6324828098964,1.210076638010056,43.92171362623928,1.1134893086789832,-141.2276988,22.318553400000003,244.4351716
4656.762,-14.2474828,179.322809,37.7421284,-0.9019188,-0.4179708,0.9789068,-21.5096078,40.1027876,-106.1198732,-7.751896200000003,-22.695935599999995,36.9617206,-0.909289,-0.0736416,-0.4491249999999999,-163.0675232,59.4808426,65.9641434,183.8045942025086,1.395140005351549,44.06093708907456,1.0168297971620224,-141.5579154,19.378055,172.08401659999998
4676.748,-9.0922458,168.8894776,36.7191624,-0.9508987999999998,-0.3259018,0.8552958,-22.2392492,43.50379160000001,-34.925692999999995,-33.6720462,-38.6775084,37.744681,-0.8724909999999999,-0.2131067999999999,-0.5053856,-164.6368164,60.44507659999999,64.9243996,173.07403463560354,1.319830071100943,63.674306396840834,1.030567638718876,-142.39756719999997,16.941285,99.8500926
4696.734,-21.9291702,159.9052428,29.3288182,-0.9788146,-0.3292844,0.7216511999999999,-23.3694512,46.6766676,36.0753478,-45.874205,-48.1612576,33.2574996,-0.9650874,-0.1698206,-0.5150376,-166.2859864,61.54984880000001,64.087069,164.04497784935742,1.2598756651820686,74.36404169785006,1.107021433955495,-142.9165352,14.8731812,28.0117212
4716.72,-35.0741316,153.67965080000002,27.1897526,-0.9969204,-0.346907,0.7164542,-24.8927792,49.707505600000005,106.9315642,-49.0783542,-63.9164132,27.9076744,-1.0177778,-0.149523,-0.4523584,-167.76475219999998,62.9263892,63.5274744,159.9590960963248,1.2757356196652974,85.28089479918822,1.1237690597949386,-142.871973,13.218883600000002,-43.4040898
4736.707,-41.6324896,147.8847166,26.4465728,-1.012542,-0.4043156,0.7728218,-26.7248112,52.5950102,177.6043364,-44.8761704,-63.0463364,21.7467898,-0.9005561999999999,-0.1742997999999999,-0.467599,-169.0051148,64.262484,63.1453278,155.89283115981348,1.3364003669269924,80.3842899442247,1.0295779302410673,-142.28030359999997,11.667473800000002,-114.4590086
4756.693,-38.1201102,139.75855700000002,27.245818600000007,-1.0273542,-0.359003,0.6704816,-28.6559314,55.307936,176.1293914,-37.5458142,-58.69323059999999,22.3294436,-0.9276976,-0.1715214,-0.446534,-170.218863,65.52146760000001,62.630658,147.40397446326372,1.2782352608988692,73.16548047878369,1.043760049465259,-141.5629316,10.213531600000003,-113.49873340000002
4776.679,-43.0774348,135.4074126,22.504593600000003,-1.0187102,-0.3497648,0.5548004,-31.0446658,57.86511900000001,174.2723418,-27.6233938,-58.8107232,19.9409358,-1.0207304,-0.0810976,-0.3779272,-171.20809020000002,66.76420680000001,62.149456,143.86552578389325,1.211573097564996,67.96612368611747,1.0914652256071928,-140.1634244,8.899087800000002,-112.1228858
4796.665,-48.6831214,133.6791152,19.5900412,-1.0164494,-0.366205,0.5545466,-33.925376,60.327568,172.0106322,-23.8001418,-64.22919479999999,19.488528,-1.0344652,-0.024582,-0.3504268,-172.1653228,68.0948426,61.62928,143.6103125270595,1.2144123749192115,71.21544030590022,1.0924840808420415,-138.2399468,7.767274600000003,-110.3813522
4816.651,-51.0202004,130.7087036,18.504552000000004,-1.0255536,-0.3886366,0.5770646,-37.2068372,62.6671272,169.3901916,-25.498606800000005,-54.92052639999999,14.589689800000002,-0.9095417999999998,-0.0313916,-0.3673214,-173.0189484,69.2236038,61.25756739999999,141.52824626331494,1.2392748467977877,62.28404464430941,0.9814156761514256,-135.81211119999998,6.556476600000002,-108.1326242
4836.637,-46.0995408,121.7333436,18.3946934,-1.0731272,-0.3998428,0.5432889999999999,-40.6101378,64.8014984,166.56838980000003,-34.3326184,-43.97133519999999,11.790409800000004,-0.8685136,-0.100842,-0.4300219999999999,-173.9669036,70.12489,60.9691612,131.46307219628838,1.26753271737367,57.019477099695614,0.9743735951024944,-133.3567658,5.323391600000001,-105.59922860000002
4856.623,-41.1651332,106.3297272,16.8630324,-1.1148554,-0.381934,0.4242034,-43.972892,66.62134019999999,163.7376648,-32.73864720000001,-35.67717319999999,9.9376758,-0.8874601999999999,-0.1051522,-0.4838624,-174.8992918,70.8328262,60.66849139999999,115.2603181477633,1.2524873922865332,49.4311350095744,1.0162506648866902,-130.9263998,4.2114860000000025,-103.0691734
4876.609,-39.224767,87.8891564,15.380894800000004,-1.143571,-0.389001,0.4183684,-47.1121108,68.09611220000001,161.1501924,-24.59755340000001,-24.664815599999997,3.3216146,-0.9042144,-0.0918698,-0.5054044,-175.41521899999998,71.2943314,60.6406228,97.4661894389876,1.2783225446500426,34.991797401659554,1.039941031433398,-128.3031082,3.1982192000000027,-100.5095696
4896.595,-29.7718556,66.515545,13.507312200000005,-1.1778898,-0.4534504,0.5241781999999999,-49.6484162,69.19805920000002,159.0390198,-16.140836600000007,-9.560952399999994,-3.1753766000000003,-0.8909624,-0.1022445999999999,-0.4986144,-175.46622,71.44055180000001,60.9240548,74.11564339181403,1.366676418015413,19.02686084184128,1.0261014941662838,-125.8178038,2.242492600000003,-98.114965
4916.581,-7.027126,41.3307934,10.686417800000005,-1.1852116,-0.4877444000000001,0.5510927999999999,-51.0277872,69.9002932,157.6993836,-5.215930800000004,-0.0157839999999943,-2.3539964,-0.935262,-0.1371628,-0.5261768,-175.39688400000003,71.39754200000002,61.1033502,43.26447166312697,1.395107311541933,5.722541594104637,1.0818459535470288,-124.3690968,1.4972488000000026,-96.59603339999998
4936.567,15.3686924,14.6281582,5.474767000000003,-1.168391,-0.4582214,0.4885183999999999,-51.1341188,70.15613579999999,157.2589602,12.883870799999997,2.293052400000005,-0.0227132,-0.9980788,-0.0801428,-0.476354,-175.1172576,71.3124118,61.12251140000001,21.912389009743645,1.3467570706840637,13.086356711846602,1.1088269895332097,-123.9831388,1.1562760000000023,-96.1364488
4956.554,27.4588652,-9.5779332,0.2325122000000025,-1.1502038,-0.445706,0.5512992,-50.203981,70.0107484,157.6766054,17.7648582,4.058863400000005,-2.8904020000000004,-0.9589074,-0.0296389999999999,-0.4590416,-174.587262,71.19804859999999,61.30389340000001,29.082299502937904,1.351130425936401,18.45044667989289,1.0635323514714163,-124.383281,1.1873002000000017,-96.372712
4976.54,39.7654112,-33.2657772,-5.398907199999998,-1.1520728,-0.4592418,0.5903943999999999,-48.3277374,69.459282,158.8466614,17.341347,7.1986644000000055,-3.2302726,-0.9284806,-0.054281,-0.4906206,-174.08058160000002,71.0334764,61.47136479999999,52.12531112213468,1.3735866608694334,19.05197485796544,1.051537552673094,-125.7528442,1.574194400000002,-97.3752966
4996.526,49.16190160000001,-57.462115,-12.893820799999997,-1.165739,-0.4190185999999999,0.577724,-45.7224014,68.4473236,160.6019226,21.156279399999995,9.159299400000004,-3.2334516,-0.944572,-0.0775906,-0.499946,-173.53096920000002,70.8412186,61.605108,76.71400031300558,1.3668536949662753,23.279521747648666,1.0715328120540033,-127.8085678,2.393895000000001,-98.9968146
5016.512,50.114076,-80.631259,-21.4951604,-1.171917,-0.3998212,0.5864988,-42.835234,66.94831760000001,162.66326599999996,26.6212708,9.554258000000004,-4.8874162,-0.9662194,-0.0509508,-0.4670172,-172.7912048,70.63354799999999,61.82485820000001,97.33890518123052,1.370119443428156,28.703009285604864,1.0743746916475834,-129.9559708,3.685230399999999,-100.83840779999998
5036.498,46.2863394,-102.0091048,-27.7467878,-1.1811684000000002,-0.4027617999999999,0.6568138,-39.9075218,65.00396860000001,164.88454280000002,26.0586372,10.139637200000006,-7.5307372,-0.9384572,-0.0497477999999999,-0.4744084,-171.96103520000003,70.4029586,62.15673460000001,115.404362614104,1.410241193756671,28.958190862764745,1.0527298275565484,-132.0535134,5.398989999999998,-102.7278082
5056.484,44.5553968,-123.5468854,-34.9837054,-1.1916672,-0.4117702,0.6984698,-37.0378244,62.5853422,167.0931792,30.426402799999995,12.800576000000008,-8.6442238,-0.9343538,-0.094931,-0.4658762,-171.0188172,70.1051712,62.5155396,135.9149584098828,1.4413484917520536,34.12247556060536,1.048365180679843,-133.9809928,7.519828999999996,-104.5776396
5076.47,41.4453826,-144.6483504,-42.918268,-1.1898728,-0.3943136,0.7709696,-34.3763334,59.6858052,169.175412,40.4536238,15.909917600000004,-8.931900800000001,-0.9431344,-0.1065166,-0.4212558,-169.9054598,69.741336,62.842981,156.46994197104243,1.4716231241214444,44.37792253465406,1.038414527812742,-135.5291264,10.055530799999996,-106.332431
5096.456,37.1910538,-164.4329956,-49.3921752,-1.1757226,-0.4169355999999999,0.8016804000000001,-32.0209794,56.3490202,171.0675386,50.29326,20.285157200000008,-10.1143432,-0.9549904,-0.1088196,-0.4000516,-168.58430800000002,69.28406379999998,63.1786576,175.67291053469685,1.482852113476688,55.16520227846262,1.0411002123229445,-136.56332860000003,12.935043599999997,-107.888881
5116.442,32.7288014,-181.1114014,-53.5406348,-1.1573176,-0.4082864,0.8197142,-29.9754018,52.6616026,172.768039,59.8531552,26.42675400000001,-12.9201762,-0.965195,-0.125801,-0.3852014,-167.03154,68.70328520000001,63.5567734,191.67449943312636,1.475809330969404,66.6911123569764,1.046808195510505,-137.05613820000002,16.041682599999998,-109.2112656
5136.429,27.410470600000004,-196.0828248,-58.40869819999999,-1.132181,-0.4164892,0.8740628000000001,-28.292226400000004,48.6518066,174.2235992,69.4955624,33.5673796,-15.439446800000002,-0.9671374,-0.1411484,-0.3701488,-165.2965972,67.97872459999999,63.9240288,206.42525064894463,1.48972576295823,78.70691636694211,1.0451257127459643,-137.0043708,19.326918000000003,-110.2995704
5156.415,23.042936,-210.5349886,-62.1997748,-1.1053116,-0.4161734,0.9351466,-26.887752,44.3480248,175.5250672,75.95788239999999,40.624057400000005,-20.5833874,-0.9761516,-0.1353282,-0.34306,-163.3641082,67.1086318,64.3691598,220.73688026578827,1.5064571668167934,88.56404335388714,1.0434921329352704,-136.4763562,22.760607,-111.1559074
5176.401,21.289896,-224.2276216,-64.9017098,-1.0768254000000002,-0.4230158,0.9342912,-25.684185,39.774296,176.6863006,73.605248,39.9374946,-27.8780926,-0.9974174,-0.1034214,-0.3284956,-161.24184259999998,66.20480640000001,65.0807594,234.40033680659892,1.4870761095291125,88.26054642409999,1.0551998933946496,-135.5576576,26.430510400000003,-111.6055412
5196.387,18.4426714,-236.04710400000005,-67.4356552,-1.0526244000000002,-0.3990965999999999,0.9447424,-24.6822166,34.9515402,177.7206908,63.7104612,26.99055940000001,-35.8133064,-1.0034514,-0.093102,-0.2932608,-158.89899599999998,65.4720732,66.2648514,246.18272690708525,1.469637515159667,77.91088549324743,1.049564000612921,-134.2167794,30.520533,-111.4558394
5216.373,14.3440504,-247.8623902,-70.61097720000001,-1.0106872,-0.3818466,0.9741424,-23.8903748,29.8701434,106.6479004,43.9726684,5.161309200000005,-43.9963748,-1.0050186,-0.125574,-0.272533,-156.3111664,65.0436324,68.15923,258.12289003239084,1.4547332599666372,62.41727064215832,1.0488591191914003,-132.4207916,35.173489000000004,-38.4886704
5236.379,8.6476,-260.6525208,-74.32888039999999,-0.9566694,-0.3593842,1.001152,-23.323968200000003,24.511369,35.5001068,28.392394000000003,-22.4761236,-50.6146284,-1.0425276,-0.1390952,-0.2582646,-153.2467958,65.0010528,70.91880319999999,271.18130475140043,1.4306217778329815,62.23459469783506,1.0830105609078613,-129.9228276,40.4896838,35.41869640000001
5256.345,4.768691,-271.9068208,-77.8192552,-0.8825179999999999,-0.3556,0.9498054,-22.937663800000003,18.9060524,-35.71503,14.0295066,-49.5798278,-54.6008864,-1.079717,-0.150354,-0.2363182,-149.7339936,65.33250419999999,74.47954999999999,282.8637412099676,1.3444030936416205,75.07491708808476,1.1154556992800029,-126.7963298,46.4264518,110.19458000000002
5276.331,-3.4817694,-279.6488892,-80.65041360000001,-0.777611,-0.3323754,0.9128356,-22.8033754,13.1280724,-106.9708832,2.6587354000000003,-69.2353728,-54.0865424,-1.0907474,-0.170294,-0.1997169999999999,-145.9454712,65.9323654,78.57909079999999,291.0671969885987,1.24435569933742,87.89743903817215,1.121880928232475,-123.1420958,52.80429300000001,185.549974
5296.317,-10.0704728,-284.7286378,-83.4573182,-0.6251106,-0.3316746,0.8910468,-22.8782072,7.2344656,-178.2552124,-3.5537214,-79.9102752,-49.3069412,-1.0687178,-0.1922368,-0.1826125999999999,-142.0139344,66.679332,82.95106799999999,296.8786546166551,1.1378645360093442,93.96518221569524,1.101117652655628,-119.13572720000002,59.4448664,261.2062804
5316.303,-17.541665799999997,-287.0780764,-85.772577,-0.479738,-0.311561,0.8278095999999999,-23.1755246,1.2815386000000004,-177.5634858,-1.949856,-82.8337478,-39.9974996,-1.0255896,-0.197354,-0.1706108,-138.04455879999998,67.47608640000001,87.303752,300.1307497638055,1.0062243980430807,92.00560682516442,1.0582488714951697,-114.86903420000002,66.1945478,264.8672378
5336.289,-21.8698474,-285.38642600000003,-86.90908959999999,-0.3406656,-0.3302508,0.7263262,-23.6355278,-4.643409,-176.8709564,-1.1481593999999995,-85.54591659999998,-26.0327218,-0.9613774,-0.2302454,-0.1181667999999999,-134.0862778,68.3821624,91.5981368,299.12688315404483,0.8675646320191021,89.42664435870417,0.9956017487299628,-110.45075,73.0255714,268.4690932
5356.276,-21.4360494,-281.1667482,-85.29239179999999,-0.2023294,-0.3321274,0.6409826,-24.1740708,-10.472451800000002,-176.1303252,-2.48832,-91.045767,-8.265670800000002,-0.9399456,-0.2815832,-0.0619212,-130.13524779999997,69.5095596,95.883055,294.5997905739346,0.7497362799264018,91.45405807734647,0.9831688890984296,-105.961177,79.9820114,272.0133802
5376.262,-17.3262772,-274.2074342,-80.429154,-0.0871454,-0.318948,0.5252032,-24.7379108,-16.1248132,-175.2886046,-2.8185154,-94.5803846,1.1071245999999997,-0.9612506,-0.2982319999999999,-0.0342484,-125.9037872,70.7088638,100.435353,286.2844139406026,0.6206130426726464,94.62884816494324,1.0070342569778443,-101.1658764,86.83367700000001,275.7239576
5396.248,-19.769209,-264.7141206,-73.89523599999998,0.0135577999999999,-0.2681204,0.4463152,-25.4718284,-21.5387528,-174.3204864,-7.027449200000001,-94.5475904,1.0222892,-0.9889382,-0.2521302,-0.040704,-121.3802322,71.7753906,105.3533812,275.54472082225186,0.5208355024266683,94.8139070385415,1.0213839712797923,-95.9084038,93.3141434,279.6738676
5416.234,-20.6227344,-252.3598206,-66.505242,0.1017938,-0.2898888,0.4080074000000001,-26.361507,-26.6486802,-173.2060912,-16.251306800000002,-88.09284339999999,-2.468715200000001,-1.005418,-0.2196749999999999,-0.046688,-117.0730362,72.6171386,110.2225326,261.78946396078607,0.5107519285706517,89.61332817021896,1.0301952386285818,-90.7115292,99.2658188,283.4286238
5436.22,-14.4509958,-238.5167268,-58.226570800000005,0.1655894,-0.2550332,0.3472526,-27.2881524,-31.421991,-171.9273346,-26.597027000000004,-68.920172,-10.725721,-0.9978336,-0.2059534,-0.0781162,-113.5732986,73.05937800000001,114.4473266,245.9459163924558,0.4615692263370252,74.64873103220278,1.0218565637911028,-86.28514619999999,104.481369,286.3746612
5456.206,-11.413581000000002,-223.1817232,-52.2360962,0.2174096,-0.2116552,0.2991006,-28.2966862,-35.8517826,-170.5366394,-28.048249200000004,-42.35260079999999,-22.3525222,-0.9273446,-0.1803496,-0.1555972,-111.1250488,73.0196366,117.5921798,229.4971920263528,0.4260587128314124,55.49848940656812,0.9574468517976128,-82.82836259999999,108.87141920000002,288.1288192
5476.192,-11.471959000000002,-207.5411318,-48.3371574,0.2850758,-0.1848371999999999,0.2952546,-29.4324936,-39.9502902,-169.0715912,-23.679640400000004,-14.457756799999991,-27.1399168,-0.8361664000000001,-0.1779702,-0.2038604,-110.1012574,72.6293594,119.154953,213.4043298942995,0.4501202962216212,38.8114311134256,0.8788667153016777,-80.66876380000001,112.5796496,288.2265442
5496.178,-7.1336518,-190.5719148,-45.35979699999999,0.3426498,-0.2034539999999999,0.2735206,-30.5721134,-43.706906,-167.5769652,-14.977015400000004,10.734764000000007,-21.6637808,-0.8209502000000001,-0.2108128,-0.210196,-110.5462388,72.1446684,118.9979402,196.02564853208196,0.4833383226896042,28.44056165018515,0.8732603425897001,-79.9741254,115.8515744,286.5749054
5516.164,2.5293566,-173.0785676,-42.1553552,0.3707274,-0.1963656,0.244373,-31.5859714,-47.11269059999999,-166.0775146,-2.7256356000000013,34.12875960000001,-14.1137424,-0.7614062,-0.2216958,-0.246582,-112.1982178,71.6139738,117.3107332,178.15628582600138,0.4855063512490027,37.03240534710293,0.8304764366675794,-80.6122464,118.7266644,283.38824780000004
5536.151,7.806088,-153.6581132,-37.6466928,0.425747,-0.181271,0.2012653999999999,-32.5361736,-50.1221068,-164.5995024,6.779935799999999,53.513864,-8.0296962,-0.736346,-0.2189178,-0.2845437999999999,-114.7372696,71.0144102,114.4808016,158.39515220114956,0.5046062273566984,54.53601737133829,0.819204253523674,-82.20109599999999,121.136517,279.080304
5556.137,6.052277999999999,-130.1761032,-33.093664,0.4994078,-0.158447,0.1797112,-33.4517696,-52.672383,-163.260739,9.9020362,71.3122382,-1.6174884000000005,-0.7773175999999999,-0.2172814,-0.2908328,-118.1033142,70.3123928,110.6993394,134.45310896469158,0.55390406923517,72.01459509518736,0.8579146668588665,-84.6515446,122.9847758,273.96007840000004
5576.123,2.680391,-103.1201402,-28.8036158,0.5583928,-0.1741264,0.1637156,-34.2531388,-54.7127716,-162.1836028,7.597151599999999,77.84799100000001,6.464001400000001,-0.8232656,-0.2254634,-0.2945742,-121.8209838,69.6211972,106.5784318,107.10086878235182,0.607392229084436,78.48445533523608,0.9029805934728388,-87.567845,124.3339688,268.7620346
5596.109,4.5584036,-74.1074914,-23.43048,0.5949274,-0.2003232,0.1030273999999999,-34.7644166,-56.203044,-161.4371124,2.518509799999999,75.0992712,8.8406724,-0.7830598,-0.2414872,-0.3186428,-125.45255120000002,68.93481419999999,102.6492356,77.85683475464417,0.6361467133293702,75.65977078254974,0.8792223564785645,-90.68813459999998,125.1378582,264.086348
5616.095,2.5629076,-42.7592534,-16.742538399999994,0.6490090000000001,-0.1846045999999999,0.0399396,-34.999247000000004,-57.0992842,-161.0839904,-2.665085400000001,65.24545280000001,9.9518878,-0.7881246,-0.2655208,-0.3051888,-128.655626,68.3198118,99.278659,45.99168227807093,0.6759339554056447,66.05385576974376,0.8858791588039758,-93.656379,125.419096,260.3626494
5636.081,-6.166437800000001,-9.8094212,-10.807606999999994,0.6792114,-0.1909422,0.0245574,-35.0132026,-57.3841116,-161.2106414,-5.525224200000001,48.7469344,13.228324000000004,-0.8106016,-0.2860712,-0.296371,-131.220772,67.9006942,96.6456314,15.844685812180916,0.7059675031653794,50.81122190724353,0.9092565397251758,-96.2075694,125.2848058,257.8562728
5656.067,-11.989748,21.3953914,-3.521666799999994,0.6684096,-0.225186,0.0449512,-34.7987472,-57.07151699999999,-161.752658,-6.648605000000001,25.520521800000008,15.6635804,-0.810246,-0.2893646,-0.2964795999999999,-132.8896884,67.7722732,94.9945512,24.777388226221916,0.7067536617164428,30.673257608828653,0.9100168160343632,-98.0909412,124.84379020000002,256.7472092
5676.053,-10.4048998,50.033978000000005,4.862030000000006,0.6478797999999999,-0.2460598,0.0726306,-34.3028616,-56.1921622,-162.60258779999998,-7.308978200000001,5.616240600000006,17.071576,-0.7899432,-0.282131,-0.3099176,-133.88058200000003,67.90624840000001,94.0896638,51.33517536809848,0.6968277150633719,19.401083163806597,0.8942354718847827,-99.5777204,124.0984106,256.6922516
5696.04,-10.5606202,77.7528356,13.420662800000006,0.6258324,-0.2401289999999999,0.1110536,-33.6177348,-54.7517104,-163.6992156,-6.2808568000000005,-1.8387591999999944,20.823041,-0.7919470000000001,-0.2717286,-0.3349064,-134.71832920000003,68.1973404,93.3289842,79.6061827551138,0.6794564236238554,21.827258967295272,0.9017642594536114,-101.1005944,122.9490508,257.02819980000004
5716.026,-12.4790318,105.5693558,20.629087400000003,0.6088927999999999,-0.2419992,0.1474318,-32.8084912,-52.7574286,-165.022818,-2.4593556000000008,-6.042240799999994,25.1539038,-0.8361609999999999,-0.2564544,-0.3366832,-135.5187442,68.6017776,92.5309084,108.28746171948644,0.6716027027519468,25.986072812798984,0.937171091296888,-102.710253,121.3592062,257.5537264
5736.012,-13.5681834,131.85718079999998,27.261389200000007,0.5906266,-0.2424751999999999,0.2119597999999999,-31.9261152,-50.2450194,-166.50676879999995,4.2626262,-7.768846399999994,24.72314,-0.9258194,-0.2408074,-0.3235076,-136.1226962,69.0413054,91.8007692,135.32773208183826,0.6727265120824657,26.263255852375185,1.0098450042302929,-104.196581,119.2863248,258.307538
5755.998,-9.925549,155.2604736,33.60465280000001,0.5706994,-0.255999,0.2816074,-30.960938,-47.2495132,-168.04313059999998,6.818110199999998,-2.5726735999999955,13.750735200000005,-0.9689458,-0.2380288,-0.3000482,-136.42992880000003,69.2630614,91.3298906,159.16533503013855,0.6859562820589371,15.562390391324852,1.0418937543196618,-105.4689908,116.5125746,259.37302120000004
5775.984,-4.7218368,176.19468060000003,40.838816400000006,0.5328073999999999,-0.2844414,0.300682,-29.9501174,-43.80324,-169.54705520000002,7.501214999999999,12.116124600000006,-4.225958400000001,-1.0139746,-0.2410912,-0.2567975999999999,-136.5535646,69.040805,91.035251,180.92725095865129,0.6746853345469427,14.863627625767569,1.0734125318480123,-106.6034472,112.844045,260.58230620000006
5795.97,-1.4427527999999996,193.4551268,47.48944680000001,0.4887439999999999,-0.2657284,0.3594366,-28.9789892,-39.9776618,-170.96871040000002,6.4455318,27.122178200000008,-24.6080942,-1.0825476,-0.23262,-0.1908594,-136.4732636,68.32911820000001,90.9789246,199.20395372134564,0.6623269204268538,37.18488578244446,1.12358741592905,-107.4942744,108.30678,261.947635
5815.957,0.8890920000000004,205.8697142,54.078509200000006,0.41694,-0.2896778,0.4270243999999999,-28.1241422,-35.85328439999999,-172.22416679999998,1.5835133999999988,42.86426060000001,-43.7286678,-0.9907834,-0.185947,-0.1820552,-136.3072144,67.1328606,91.1127244,212.85585466852592,0.6634018613240394,61.25396916964198,1.024388660798039,-108.1830722,102.986145,263.3368912
5835.942,9.594201000000002,212.09328,59.96340160000001,0.3298324,-0.2840032,0.5306106,-27.285125,-31.5406998,-173.2694,-8.873926800000001,55.286150600000006,-50.082351,-0.8676042,-0.1827788,-0.2038796,-136.4781678,65.65453339999999,91.0980348,220.615542619802,0.6862906370717584,75.12354429008818,0.9097868040828246,-109.1930428,97.1952332,264.3674348
5855.929,11.6753326,215.190326,63.49580900000001,0.2616944,-0.278827,0.552123,-26.568552,-27.122517,-174.1508422,-17.495367400000003,64.20700620000001,-46.1100656,-0.8245452,-0.2252366,-0.2392124,-137.1714936,64.0849312,90.6923462,224.66621365009777,0.671616156781059,80.96150736778635,0.8875972539031202,-110.60294159999998,91.2074482,264.84318840000003
5875.915,7.973262200000001,217.859195,65.3919286,0.1887436,-0.2649842,0.6147318,-26.0377204,-22.6260192,-174.9306884,-18.6903028,60.259992800000006,-33.412872400000005,-0.7669208,-0.2853256,-0.3028344,-138.16106580000002,62.736994200000005,89.98800659999999,227.60119965014567,0.6955112930225074,71.3933763946658,0.8725175558757313,-112.1233454,85.3630134,264.918695
5895.901,14.357693,220.5428894,67.5077864,0.1175658,-0.3495714,0.6689536,-25.479095,-18.0544998,-175.61301880000002,-14.549314600000002,54.0044836,-9.369741000000005,-0.7502336000000001,-0.330332,-0.3002482,-139.544922,61.78228299999999,88.74178939999999,231.09004876413636,0.763885331696165,56.70942470735815,0.8729940815356082,-114.06582699999998,79.83678280000001,264.35480820000004
5915.887,25.480778800000003,218.6397188,69.982785,0.0788178,-0.2818676,0.7825738,-24.783755000000003,-13.493129199999998,-176.1656282,-11.156654400000004,52.1789176,13.917062599999998,-0.8997059999999999,-0.351484,-0.2622706,-141.3806244,61.13026119999999,86.8969544,230.9765938824837,0.8355138191394801,55.14340405452811,1.0008984745299394,-116.5968694,74.62339039999999,263.0625826
5935.873,27.647579,216.7793214,69.77402479999999,0.0291145999999999,-0.350018,0.7895094000000001,-24.1030494,-8.9568844,-176.638852,-10.050554600000002,50.15909860000001,25.936429,-0.8683474,-0.3388972,-0.3185088,-143.4144928,60.63180620000001,84.79079139999999,229.40374309935916,0.8641095723029112,57.35544585655441,0.98505145801224,-119.3114434,69.58869059999999,261.42964340000003
5955.859,36.4697326,217.1246948,72.610765,-0.0332494,-0.3272026,0.7363012000000001,-23.3026352,-4.3934606,-176.997992,2.6769889999999976,39.249088400000005,41.4454196,-0.9333124,-0.2982037999999999,-0.2580408,-145.37938839999998,60.4640252,82.468718,231.83075223488763,0.8064158487830954,57.14350370914615,1.0132041239517533,-122.07675319999998,64.8574858,259.46671000000003
5975.845,42.5423248,217.527234,72.1223786,-0.1114742,-0.3631031999999999,0.7647088,-22.4278348,0.1772594000000001,-177.29883420000002,-1.544560000000002,45.1513776,48.4190234,-0.9782684,-0.1670486,-0.1812694,-147.70263359999998,60.248481000000005,79.829335,233.0870747725004,0.8538442363296246,66.22261239018836,1.008847308851483,-125.2747988,60.0712216,257.1281692
5995.831,33.283743599999994,214.8813966,73.2944688,-0.1789344,-0.2119559999999999,0.7935592,-21.7647034,4.7129038,-177.4942504,-22.757909400000003,48.2925954,51.1316066,-0.9512096,-0.1381004,-0.2546798,-150.53787540000002,59.94517140000001,77.07879940000001,229.46437926064084,0.8406420578010596,73.92251621951104,0.9943506545179924,-128.773172,55.2322676,254.57304980000004
6015.818,21.4870238,214.8863464,67.0591768,-0.2523566,-0.3558564,0.8410914000000002,-21.3862706,9.197881,-177.7837492,-26.602700400000003,39.1412366,49.4671686,-0.9476722,-0.1569272,-0.2807832,-153.19611519999998,59.7215286,74.6145554,226.12997867159547,0.9474979546882834,68.45977534618532,1.0007736757903458,-131.8098446,50.5236476,252.3983046
6035.804,28.8662414,214.509265,66.9682818,-0.3490276,-0.3466352,0.828125,-20.881726800000003,13.6771182,-178.0505278,-25.6846978,35.54291500000001,45.558135,-0.990517,-0.1596278,-0.231316,-155.6154328,59.48573,72.40119480000001,226.56618333424677,0.9632067499066854,63.23405864289256,1.029617430737184,-134.73370599999998,45.8086118,250.4517226
6055.79,22.5045402,212.323062,65.62526260000001,-0.4289063999999999,-0.2926568,0.7720038,-20.509218600000004,18.107043,-178.295462,-37.6158464,33.891289400000005,40.5507002,-0.9388808,-0.2070154,-0.278068,-158.1048188,59.195562,70.378531,223.37012351249712,0.9303754993343494,64.86856468500922,1.0008368223990365,-137.59560019999998,41.088519,248.673993
6075.776,4.3115616,210.6688718,61.0367906,-0.5079551999999999,-0.279032,0.8381522,-20.5711124,22.4749436,-178.62967220000002,-29.598494800000005,20.351254800000007,41.39015859999999,-0.9746466,-0.245584,-0.3404728,-160.2541626,59.1235168,68.5607622,219.37514197297668,1.0190075822072573,54.80319055760626,1.0612112058809973,-139.68305019999997,36.6485732,247.1904344
6095.762,3.162108399999999,204.494946,57.54963680000001,-0.6361882,-0.4599882,1.1044518,-20.680795,26.7023684,-179.0129762,-6.355135200000002,10.521469600000009,33.965208,-0.9066632,-0.17945,-0.3739108,-161.57406,59.1496788,67.16819319999999,212.46209677231417,1.3550418253624943,36.120969262151135,0.9970204346405744,-140.893265,32.4473104,246.1811694
6115.748,15.5406824,193.46405,61.61774440000001,-0.7538966,-0.3202828,0.8708052000000002,-20.4779392,30.7607508,-179.2227846,-8.420568400000002,2.9798022000000057,29.6240264,-0.8159137999999999,-0.2011082,-0.4720094,-162.7221038,59.2758514,66.02449039999999,203.6334890846884,1.1955094528335777,30.941366057078028,0.9638219290024688,-142.2441646,28.5151006,245.247275
6135.734,-1.7922093999999986,183.3555388,52.80671040000001,-0.8704156000000001,-0.2840015999999999,0.8051702000000001,-20.715109,34.5639272,-107.5650514,-13.088878800000003,-12.923919399999994,31.807162799999997,-0.9558566,-0.1947026,-0.5106504000000001,-163.9034942,59.7135284,64.956121,190.81670337379063,1.2192535735005905,36.742918314751336,1.1010607491099116,-143.1883852,25.1496012,172.5211724
6155.72,-17.2786726,176.618991,44.660811200000005,-0.9229382,-0.3485318,0.9435024000000002,-21.3887066,38.178551000000006,-36.1063264,-11.377961800000003,-32.8274996,28.557399999999998,-1.0468184,-0.0721634,-0.5009912,-164.79724419999997,60.509395600000005,64.1845122,182.99565176724315,1.3650956433291552,44.97363493726362,1.1627676041907773,-143.4085376,22.3308446,100.2908386
6175.706,-17.997515,169.2107788,40.8389408,-0.9670732,-0.3722225999999999,1.0701052,-22.2164742,41.615708,35.195150600000005,-21.9750756,-47.24615719999999,28.7689578,-0.995963,-0.0435966,-0.4930428,-165.8449128,61.577353,63.4895834,174.99719224588625,1.4895990659154026,59.521057204077,1.112175419406669,-143.6284386,19.961645,28.2944328
6195.692,-17.8876732,162.7220642,35.24235660000001,-0.9555936,-0.2978467999999999,0.7293866,-23.189981,44.8795768,106.3159302,-40.1489346,-68.2811776,31.05229139999999,-1.0199994,-0.1256504,-0.47253,-167.23523559999998,63.0605896,62.828993,167.452867185786,1.238497741980485,85.07938037590738,1.1311372153370784,-144.0452546,18.1810128,-43.4869372
6215.678,-36.725956,159.809311,25.246318800000005,-0.984745,-0.3462756,0.7547090000000001,-24.823940200000003,47.9992224,177.06175539999998,-47.847651600000006,-85.4752104,33.394374799999994,-1.0592034,-0.0639586,-0.4232056,-168.8599152,64.8721536,62.0934668,165.90716783599163,1.288105267771761,103.49199787830035,1.1424121519648152,-144.03597499999998,16.8729312,-114.96828859999998
6235.664,-47.1982782,156.9421052,24.110661200000003,-0.9494648,-0.3476536,0.7382028,-26.8822044,51.0368598,175.5743774,-58.9945,-96.5334562,30.858495199999997,-1.0113062,-0.002888,-0.380997,-170.6835114,66.8801492,61.397164,165.64970821934355,1.2519144563267253,117.26596233424146,1.0806975917024335,-143.801307,15.843289399999998,-114.1772134
6255.651,-52.570891,153.1742646,19.15719720000001,-1.0224416,-0.4039495999999999,0.722503,-29.4403248,53.914842,173.65846259999998,-72.8369514,-93.0208998,26.311204,-0.9245796,-0.0556692,-0.3755362,-172.71355599999998,68.81123819999999,60.7737342,163.07376282175005,1.3155123297634728,121.0387902483217,0.9994868353686508,-143.2732312,14.896396199999998,-112.8847284
6275.637,-52.0685724,149.04494019999998,14.980762800000004,-1.0557336,-0.4178829999999999,0.5629700000000001,-32.445267,56.6052694,171.2795076,-82.1854278,-92.8179686,16.402977599999996,-0.964254,-0.1295488,-0.347166,-174.5755646,70.70849,60.534157400000005,158.58736924820172,1.2673337590224447,125.05469807986304,1.0330018875362426,-142.1302976,14.103220599999997,-110.7453502
6295.623,-58.0712266,147.8307984,11.237347800000006,-1.0312886,-0.4172556,0.4783022,-36.0863114,59.1647612,168.3534486,-77.13046399999999,-91.273947,14.296626599999996,-1.0382914,-0.0865988,-0.3126649999999999,-104.506363,72.5560182,60.1254934,159.22465355587417,1.2109630080007234,120.35129999278747,1.0877995153981268,-68.4200516,13.391257,-108.2279552
6315.609,-64.9010812,143.9115738,13.295885600000004,-1.0208738,-0.4303993999999999,0.4812386,-40.2267156,61.602256,165.06636980000002,-66.93741920000001,-85.10379939999999,9.316159999999998,-0.979889,-0.0660478,-0.3341313999999999,-34.21172180000001,74.2730958,59.7485586,158.4281287789833,1.2078979879016107,108.67412570900936,1.0373950822477422,6.014993800000002,12.6708398,-105.31781119999998
6335.595,-66.1971368,137.39587999999998,14.074268200000006,-1.0953394,-0.468069,0.5185864,-44.72562860000001,63.8443626,161.455179,-53.7959686,-63.28655019999999,2.636462999999998,-0.8882294,-0.1254826,-0.3954234,36.6821136,75.545038,59.7197898,153.15930852174097,1.2991492771111102,83.10321661030741,0.9803351545235331,81.4077422,11.7006754,-101.7353892
6355.581,-58.3464822,121.1129012,17.133812800000005,-1.1136988,-0.4734249999999999,0.4461176000000001,-49.0295448,65.7897148,157.9439912,-36.2923034,-43.1917588,0.4340389999999974,-0.8843435999999999,-0.1759457999999999,-0.504786,108.0368134,76.409781,59.8034842,135.52200693341774,1.2897585668551306,56.416732483976325,1.0333583275875795,157.06635820000002,10.620066200000002,-98.140507
6375.567,-51.0029156,95.9467598,19.62527440000001,-1.1491828,-0.4307836,0.2771140000000001,-52.7444442,67.3588838,154.95083619999997,-7.887653200000004,-23.828705799999994,1.8834481999999968,-0.8734928,-0.138316,-0.5944644,107.8210816,76.8860048,59.7403266,110.41842921856347,1.2581684254664791,25.170809884239063,1.065602604339535,160.5655258,9.527121,-95.2105096
6395.553,-48.0919854,67.4006522,19.348245400000003,-1.2343424,-0.4281762,0.3259284,-55.643373,68.5062302,152.8121582,13.514807999999997,0.2649136000000048,-4.266800400000003,-0.8914953999999999,-0.1006814,-0.6019075999999999,36.4086212,76.8694902,60.0677154,85.02965116215519,1.3465382804104606,14.17482981011656,1.080367322471797,92.0519942,8.36326,-92.7444428
6415.565,-38.8642438,39.4203176,15.153436800000003,-1.270808,-0.4463798,0.3992348,-57.54579220000001,69.2238938,151.57584839999998,25.3013552,18.74078860000001,-9.797943400000005,-0.993039,-0.114335,-0.5228375999999999,-34.34136660000001,76.48907019999999,60.834603,57.39353215025454,1.4048474380668814,32.9753760733075,1.128077170994857,23.204425599999997,7.265176399999999,-90.7412454
6435.525,-23.731328,11.592382600000002,10.708392200000006,-1.2198394,-0.4618895999999999,0.4078394000000001,-58.2054824,69.538225,151.3718902,37.4219072,19.507567000000005,-7.109547000000002,-1.0848723999999998,-0.0659408,-0.420045,-105.10400380000002,76.097403,61.3398764,28.499630287029827,1.366632042860433,42.79591063746757,1.16521848398118,-46.89852140000001,6.559178,-90.0320138
6455.511,-9.983438,-9.88912,5.322078000000007,-1.1677758,-0.4587768,0.4297150000000001,-57.8222388,69.5267,152.00786739999998,41.4327304,14.291087800000003,-4.765292000000002,-1.0925212,0.0409791999999999,-0.3290735999999999,-176.0009582,75.8119004,61.6261886,15.026251791858412,1.3262094301085632,44.08644175652711,1.141740470290442,-118.1787194,6.285200399999999,-90.3816788
6475.498,1.192172000000001,-26.366875,-0.680292399999994,-1.1247402000000002,-0.4453088,0.5192092,-56.6522232,69.22291419999999,153.268814,30.1888356,11.053974400000005,-4.393030000000003,-1.0337488,0.0704625999999999,-0.2994836,-175.15632320000003,75.5937562,61.878266200000006,26.402578834134875,1.3164036760120812,32.44772499730271,1.0785601449011364,-118.5041,6.370841999999999,-91.3905478
6495.484,11.230690200000002,-42.9952272,-8.575961999999993,-1.101233,-0.4615624,0.5539182000000001,-54.89286499999999,68.5787568,154.9549896,20.1982868,8.456561600000006,-4.623538200000002,-0.9973838,0.0048599999999999,-0.3204042,-174.4742582,75.4327272,62.1671776,45.2577627437928,1.3162747971734474,22.379931394812363,1.0475957786666,-119.5813932,6.853970399999997,-92.787812
6515.47,22.4611154,-61.2531556,-17.098488199999995,-1.1046886,-0.4753299999999999,0.566269,-52.593284,67.55288540000001,156.9988434,18.9990826,5.870902600000006,-2.029238600000002,-0.9868698,-0.0025828,-0.3391704,-174.009445,75.3172776,62.2562082,67.44485951275655,1.3292614837686978,19.988757997335387,1.0435301784059914,-121.416161,7.764392199999998,-94.7426352
6535.456,32.0010696,-80.2099694,-24.2030316,-1.1171988,-0.4607302,0.5726074000000001,-49.8578028,66.1284164,159.3221254,17.560134999999995,5.941899400000007,-4.353389800000002,-0.9502918,-0.0216008,-0.377981,-173.437454,75.18323519999998,62.4882334,89.68553052373376,1.3372676285800984,19.0424922856408,1.022932420088874,-123.5796512,9.054818799999998,-96.833892
6555.442,35.6637906,-101.5954056,-30.0987654,-1.1526846,-0.454195,0.6213624000000001,-46.820669,64.2721306,161.92334,17.357987399999995,9.729915200000006,-7.754936400000003,-0.9300056,-0.0693816,-0.3885006,-172.6396238,74.9461914,62.9570002,111.80102002036206,1.386025294587339,21.356732309644062,1.0102756745810917,-125.8189548,10.674060799999996,-98.9663398
6575.428,36.3979366,-124.6512254,-35.995836999999995,-1.1799661999999995,-0.4754935999999999,0.6721158,-43.6387614,61.9439156,164.6936404,23.064864199999995,14.624780600000008,-10.494761000000002,-0.9538768,-0.0983276,-0.3655116,-171.5899504,74.596817,63.567927,134.753248806067,1.4388029904726496,29.25768576989129,1.0262299918802609,-127.951189,12.6529014,-101.1257134
6595.414,37.7733218,-146.9045336,-41.3342004,-1.2018711999999998,-0.4870219999999999,0.7444636000000001,-40.4836946,59.1537362,167.4471896,29.786049599999995,18.97079040000001,-11.410526400000002,-0.9630948,-0.0739,-0.3284864,-170.410913,74.155931,64.17195380000001,157.21412771995793,1.4952962454304497,37.11198932824121,1.020252968029008,-129.92721840000002,15.002194799999998,-103.2752358
