Timestamp (ms),Wrist Gyroscope X (deg/s),Wrist Gyroscope Y (deg/s),Wrist Gyroscope Z (deg/s),Wrist Accelerometer X (g),Wrist Accelerometer Y (g),Wrist Accelerometer Z (g),Wrist Roll (deg),Wrist Pitch (deg),Wrist Yaw (deg),Arm Gyroscope X (deg/s),Arm Gyroscope Y (deg/s),Arm Gyroscope Z (deg/s),Arm Accelerometer X (g),Arm Accelerometer Y (g),Arm Accelerometer Z (g),Arm Roll (deg),Arm Pitch (deg),Arm Yaw (deg),Wrist Gyroscope Magnitude (deg/s),Wrist Accelerometer Magnitude (g),Arm Gyroscope Magnitude (deg/s),Arm Accelerometer Magnitude (g),Difference Roll (deg),Difference Pitch (deg),Difference Yaw (deg)
0.0,-2.993012,2.644294,-5.448015,-0.962126,0.274393,0.152542,63.376141,71.557091,-88.31916,-1.074161,-1.033195,1.408232,-0.997401,0.025301,0.011199,83.365952,88.095047,49.451229,6.755092821775656,1.012050897973516,2.050470952676482,0.997784702730504,19.989811,16.537955999999994,137.770389
19.986,-2.9236115,2.1951345,-5.470091,-0.9531155,0.2778215,0.1515085,63.313406,71.6129725,-88.350803,-0.2052319999999999,-0.7578315,1.439122,-0.9996755,0.022252,0.0120465,83.224537,88.083557,49.3030375,6.579362828139478,1.004275245027353,1.6393599016385176,0.9999956874739512,19.911131000000005,16.4705845,137.6538405
39.972,-4.246216333333333,2.269500333333333,-5.307107333333334,-0.9479976666666668,0.280928,0.139363,63.26153433333334,71.669037,-88.34759000000001,0.72242,-0.5917786666666667,1.4674456666666666,-1.0013056666666666,0.0262756666666666,0.0126363333333333,83.13980866666667,88.06852199999999,49.19902166666666,7.165638363745922,0.9985199862588854,1.7393934090195224,1.0017300662741768,19.878274333333337,16.399485000000002,137.54661166666668
59.959,-4.3982195,2.40571525,-5.05134875,-0.9432265,0.27769475,0.13496325,63.2261715,71.724228,-88.33416174999999,1.1400692499999998,-0.5415745000000001,1.33767975,-1.002128,0.02933525,0.014184,83.02969925,88.05522725,49.0672255,7.116735545767411,0.9924745252803092,1.839143264513636,1.0026576041364084,19.80352775,16.33099925,137.40138725
79.945,-4.6461392,2.6789792,-4.7715356,-0.9466114,0.2857159999999999,0.1426956,63.199480400000006,71.772171,-88.310884,1.071605,-0.6032248,1.1244578,-1.0021418,0.0285822,0.015756,82.83799739999999,88.047113,48.8588882,7.178515933107389,0.9990339381248866,1.6663201311095297,1.0026731177208652,19.638517,16.274942000000003,137.16977219999998
99.932,-6.1497566,2.9726496,-4.5528036,-0.9453276,0.2861213999999999,0.1434354,63.1165962,71.87592,-88.273793,1.5143458,-0.4714594,0.8800774,-1.001954,0.0294274,0.0145398,82.5486312,88.03146660000002,48.5386132,8.208786299069837,0.9980397992228968,1.8138504342466495,1.0024914941139402,19.432035000000003,16.1555466,136.8124062
119.918,-7.452618599999999,3.692105,-4.239559,-0.9518116,0.2834598,0.1386144,63.0617028,71.983171,-88.18288720000001,1.8843868,-0.529598,0.6559282,-1.0006726,0.0327408,0.0137264,82.2473068,88.0187836,48.1987764,9.3352570314144,1.0027505831451606,2.0643714436054093,1.0013021653988172,19.185604,16.0356126,136.3816636
139.904,-8.3914414,4.3365672,-3.9922752,-0.9622362,0.2877348,0.1407552,63.03075260000001,72.0901092,-88.047885,1.8913536,-0.616932,0.4026708,-0.9995966,0.0354536,0.0101184,81.94845740000001,88.01035320000001,47.861071800000005,10.254772797204472,1.014150800447606,2.029770259420903,1.0002763130770815,18.917704800000003,15.920244000000002,135.9089568
159.89,-11.1320832,5.1939066,-4.0588498,-0.9728186,0.2919246,0.1442272,62.989109,72.203955,-87.8644026,1.3827104,-0.5398616,0.2555541999999999,-0.9977216,0.0384411999999999,0.0069903999999999,81.72024239999999,88.00389720000001,47.6043586,12.937318263079328,1.025864262858864,1.506202691061319,0.9984863457534908,18.7311334,15.799942200000004,135.4687612
179.877,-13.9411036,5.33511,-4.0807252,-0.9759336,0.279978,0.14019,62.896222,72.3255372,-87.6744032,0.6713182,-0.3627102,0.2151597999999999,-0.9973712,0.0421746,0.0023305999999999,81.6335786,87.9970154,47.5039642,15.474821047622749,1.0249328310640458,0.7927928823919398,0.9982652148457142,18.7373566,15.671478200000005,135.1783674
199.863,-15.6105864,5.3158538,-3.9418796,-0.9731192,0.2794244,0.1340667999999999,62.7838982,72.444687,-87.47006819999999,-0.3054054,-0.2188702,0.1772014,-0.9983466,0.0404572,0.0031703999999999,81.579532,87.9926788,47.4558906,16.955445265628843,1.0212800201640293,0.4154238305142834,0.999171041513694,18.7956338,15.547991800000004,134.9259588
219.849,-16.1186176,5.209167,-3.7971942,-0.967251,0.2756812,0.1320435999999999,62.6618072,72.5606248,-87.2654174,-1.1358578,-0.0361602,0.1174675999999999,-0.9999404,0.0382999999999999,0.0035364,81.5839022,87.9919708,47.483049,17.359836922086348,1.0144013669822214,1.1424881351395473,1.000679868727817,18.922095,15.431346000000003,134.7484664
239.836,-15.103488000000002,4.333978,-3.5216932,-0.9665164,0.2645384,0.1400653999999999,62.49766459999999,72.6656952,-87.1230804,-1.671609,0.0821798,0.1008535999999999,-1.0014674,0.0355912,0.0053714,81.60214099999999,87.9936554,47.5349008,16.10282702091637,1.0118067171256968,1.6766638354309429,1.0021140347875386,19.104476400000003,15.3279602,134.6579812
259.822,-13.2990202,2.7427936,-2.954382,-0.9615648,0.2600516,0.13671,62.2998252,72.7472108,-87.05241240000001,-1.5997948,0.0901854,0.1415686,-1.0036808000000002,0.0327488,0.0065796,81.6059802,87.996205,47.5708758,13.896590517610177,1.005446827714723,1.6085765374971002,1.004236487748897,19.306155000000004,15.248994200000002,134.6232882
279.808,-11.3571664,2.2118526,-2.8028118,-0.952365,0.2470552,0.1277885999999999,62.11939220000001,72.82773139999999,-87.0021516,-1.1770676,0.0967442,0.2023725999999999,-1.0042972,0.0329796,0.0078033999999999,81.6095324,87.9971176,47.5981234,11.90517847609329,0.9921518489434972,1.1982496586413702,1.0048688536299448,19.490140200000003,15.1693862,134.600275
299.795,-5.990208,2.110016,-2.6138422,-0.9509086,0.2300486,0.1376588,62.014079800000005,72.90892799999999,-86.9835282,-0.9909924,0.0639274,0.1729828,-1.0052172,0.0353104,0.0085422,81.5937074,87.99688280000001,47.602244,6.867818463676864,0.9879774638792932,1.0080058027731589,1.0058734576003283,19.5796276,15.0879548,134.5857722
319.781,-1.7551442000000002,1.8489548,-2.4136284,-0.9468244,0.243828,0.1632816,61.9541236,72.9695786,-87.00269639999999,-1.3117084,0.0210684,0.0314878,-1.0045844,0.0359116,0.0080296,81.5490418,87.9993424,47.5837716,3.5106647616261,0.9912564849310798,1.3122554193669616,1.0052581430727532,19.5949182,15.0297638,134.586468
339.768,-0.8170930000000002,2.793501,-2.4618752,-0.9311298,0.238094,0.1600059999999999,61.9662018,73.04058699999999,-86.96433119999999,-1.7077938,0.1674144,-0.1616104,-1.0010819999999998,0.0353476,0.0078218,81.55545359999999,88.0072876,47.624346200000005,3.812101560560138,0.9743168772632648,1.7235733712360377,1.001736394519536,19.5892518,14.9667006,134.5886774
359.754,3.3098646,4.8377818,-2.7924792,-0.9199942,0.218792,0.1549983999999999,62.1608476,73.145128,-86.8184128,-1.8642868,0.3470026,-0.3009264,-0.9989554,0.0361234,0.0076563999999999,81.63995059999999,88.0185594,47.746347,6.4928635052014645,0.9582712409856616,1.9200345765839637,0.9996376401865228,19.479103,14.8734314,134.5647598
379.74,10.485817399999998,5.870754799999999,-2.7203686,-0.9176642000000002,0.230208,0.1553484,62.57203460000001,73.2502504,-86.5942748,-1.6785624,0.3722318,-0.3925994,-0.9970052,0.0352354,0.0086515999999999,81.7176408,88.0323534,47.8577332,12.321466381390314,0.9587681850208633,1.7635936415471,0.9976651504501698,19.1456062,14.782103000000005,134.452008
399.727,13.4555648,6.1024088,-2.1096282000000004,-0.9196376,0.2534848,0.1451768,63.1121156,73.33638619999999,-86.2986022,-1.0103662000000002,0.3645779999999999,-0.3765777999999999,-0.9961976,0.0344756,0.0091714,81.7965136,88.046071,47.956884,14.92454851550129,0.964916660869238,1.1382301242012884,0.9968361649835342,18.684398,14.709684800000002,134.2554862
419.713,13.8919066,5.6261094,-1.6114377999999998,-0.9185644,0.235971,0.1178499999999999,63.67565999999999,73.4236298,-85.9875028,-0.172805,0.4372581999999999,-0.291439,-0.9958776,0.0354334,0.0090838,81.9362704,88.0572664,48.1004044,15.074312844941248,0.9556837825810166,0.553166333224682,0.9965491635838948,18.2606104,14.6336366,134.0879072
439.699,16.2311406,4.7553978,-1.3723608,-0.9233136,0.2343558,0.1026174,64.2661056,73.5028184,-85.700134,0.6043014,0.3965932,-0.120982,-0.997561,0.0383926,0.0099984,82.0764346,88.06214,48.228917,16.96900431901029,0.9581028001844896,0.7328731081518819,0.9983495923063824,17.810329000000003,14.5593216,133.929051
459.685,16.8296616,2.7290284,-0.7850238,-0.9377864,0.2550318,0.111759,64.76399839999999,73.5417252,-85.525015,1.1144998,0.2522234,-0.011703,-0.9981072,0.0366456,0.008715,82.17731660000001,88.065146,48.3077782,17.067553074330473,0.9782507986795614,1.1427438067723663,0.9988177180628104,17.4133182,14.523420799999997,133.8327932
479.672,13.8066036,0.8803350000000002,-0.5610174000000001,-0.9462806,0.2542192,0.1169559999999999,65.0829116,73.5606308,-85.4748808,1.2669318,0.3492706,0.0240693999999999,-0.9986116,0.036198,0.0079152,82.3407794,88.0679504,48.4464036,13.846011454670284,0.986789279188318,1.3144144985094923,0.9992987907776132,17.2578678,14.507319599999995,133.9212844
499.677,10.8448708,-0.98242,-0.8661902000000001,-0.9558348,0.2418402,0.1218576,65.1986632,73.5754608,-85.5727538,0.9934792,0.5131516,0.0186661999999999,-0.9968444,0.0404366,0.0055062,82.6190446,88.0686996,48.7057892,10.923674161547874,0.9934566532591343,1.1183353309440065,0.997679404753531,17.420381399999997,14.493238799999997,134.27854299999998
519.644,8.665408,-2.5729796,-1.262297,-0.968022,0.2379853999999999,0.1304478,65.14282820000001,73.5854858,-85.8023284,0.4701594,0.5704104,0.026372,-0.9968044,0.0418304,0.00617,82.9066208,88.0684754,48.9850852,9.127042979228769,1.0053458467721446,0.7396711216618639,0.997700788374711,17.763792599999995,14.4829896,134.78741359999998
539.63,8.094153799999999,-4.8236108,-1.5405694,-0.9776414,0.2308259999999999,0.142659,64.9020964,73.5828474,-86.2091918,-0.0424042,0.557364,0.0083514,-0.9977888,0.0393165999999999,0.0071351999999999,83.1557952,88.0701814,49.2361068,9.54755994818296,1.0146008769713142,0.5590371101774908,0.9985886017374924,18.2536988,14.487334,135.4452986
559.617,8.2447296,-7.654037199999999,-2.1557006000000003,-0.979266,0.2262703999999999,0.1514278,64.4593626,73.56622899999999,-86.8256408,-0.6620912000000001,0.7013204000000001,-0.0019548,-0.9984674,0.040149,0.0093108,83.431227,88.07176360000001,49.5260064,11.454557901243518,1.0164106312337549,0.964478554358074,0.999317658235058,18.9718644,14.505534600000004,136.3516472
579.603,8.8723578,-10.6669068,-2.5357848,-0.9849688,0.227355,0.1559928,63.836443200000005,73.5275556,-87.63921660000001,-0.9747706,0.6478906,-0.0311944,-1.0001909999999998,0.0411435999999999,0.009191,83.67309400000002,88.07324679999999,49.7884872,14.10431984049632,1.0228331176933412,1.1708599586560642,1.0010790711941588,19.8366508,14.545691200000004,137.42770380000002
599.589,8.765625600000002,-13.131204,-3.2530924,-0.9887976,0.2313158,0.1692038,63.0347412,73.4728056,-88.63132479999999,-0.7611246,0.6152272,-0.0272984,-1.0029882,0.0362537999999999,0.0103776,83.8776016,88.077684,50.0091332,16.119780420710736,1.0294938654648895,0.979060961834124,1.003696847626533,20.842860400000003,14.604878400000004,138.640458
619.576,10.6745594,-16.144341,-3.6965662,-0.9951822,0.2503042,0.1943258,62.073526,73.38033279999999,-89.82288220000001,0.0134996,0.8374492,0.0456975999999999,-1.0050134,0.038314,0.0089383999999999,84.232727,88.07953640000001,50.3654924,19.70407486738192,1.044414821936246,0.8388037150767514,1.0057831733381304,22.159201000000003,14.699203600000004,140.1883746
639.562,11.5745138,-19.7378968,-3.8073698,-1.0057742,0.2772878,0.2203882,60.9276116,73.232608,-91.2224076,0.6113122000000001,1.06961,0.1647738,-1.004858,0.0429084,0.0071892,84.7456162,88.076071,50.8683374,23.19590490987133,1.066321351241604,1.2429475303226922,1.005799391305841,23.8180046,14.843463000000003,142.090745
659.548,10.27288,-23.306226200000005,-3.215157,-1.0168018,0.3114256,0.2416854,59.6181946,73.01654060000001,-92.7652772,0.8720209999999999,1.1640834000000002,0.1910914,-1.0045798,0.04357,0.0059234,85.3231462,88.0716034,51.430848000000005,25.671958976958027,1.0905428177709302,1.4669787693591616,1.0055416481357695,25.704951600000005,15.055062800000002,144.1961252
679.535,6.7677052,-27.8354246,-2.4053142,-1.0270892,0.3263858,0.284571,58.032724,72.71361540000001,-94.51897139999998,0.5996774,1.3523438,0.0809688,-1.0027102,0.0411764,0.0078585999999999,85.9497926,88.071399,52.04812020000001,28.74714303608471,1.1146392103453386,1.4815541448231446,1.003586069400607,27.917068600000004,15.3577836,146.5670916
699.521,6.168479,-34.7981728,-0.2442436,-1.0369114,0.3417933999999999,0.3166368,56.208116800000006,72.272136,-96.511615,0.1568429999999999,1.4144686,-0.0132434,-1.0005986,0.0457022,0.0071969999999999,86.604973,88.0702942,52.7029534,35.341514092186856,1.136779153067015,1.4231994008846829,1.0016676326086411,30.3968562,15.7981582,149.21456840000002
719.507,7.1785888,-43.1241924,2.5636996,-1.046732,0.3568657999999999,0.3248626,54.2251022,71.666655,-98.6948944,-0.1719962,1.1591778,-0.0011808,-0.998761,0.0444418,0.0068142,87.003902,88.0653472,53.123835,43.79270102369507,1.1526217019961058,1.1718691305414268,0.9997724951357084,32.7787998,16.3986922,151.8187294
739.494,7.6933172,-51.6472504,6.461929,-1.0530132,0.403489,0.3291554,52.1606216,70.878505,-100.9753326,-0.5940516,0.930959,-0.019193,-0.9991402,0.0430046,0.0082946,87.2525148,88.0612732,53.4022918,52.61541722557331,1.1747269682119332,1.1045136189257967,1.0000996626668563,35.0918932,17.182768199999998,154.3776244
759.48,4.1550306,-60.622586,10.601396,-1.0554412,0.3966374,0.3550436,49.9477478,69.888974,-103.3491608,-0.6929392,0.7791186000000001,-0.0474778,-1.0006096,0.0417827999999999,0.010919,87.3832398,88.0584288,53.56439279999999,61.68267025480616,1.1820885379856958,1.0437646618157947,1.001541111761769,37.435492,18.1694548,156.91355360000003
779.466,4.0688974,-70.28701559999999,16.0339292,-1.0514834,0.4163997999999999,0.3753388,47.7807114,68.6588364,-105.69635,-0.1124228,0.6106280000000001,0.0889127999999999,-1.0020292,0.042545,0.0111182,87.4429032,88.0516204,53.6435844,72.2073914055686,1.1915894211938272,0.6272247813564767,1.002993623633211,39.6621918,19.392784,159.3399344
799.452,2.0353202,-79.9739336,20.8905634,-1.0453629999999998,0.4460814,0.3879226,45.6766884,67.1981574,-107.9663238,0.949826,0.6002997999999999,0.2492872,-1.0032608,0.0415204,0.011084,87.5198806,88.0417832,53.71888739999999,82.6824541419953,1.200939782331204,1.1509445634955144,1.004180776299168,41.8431922,20.8436258,161.6852112
819.439,-4.6270408000000005,-88.8614474,25.9574396,-1.0405498000000002,0.4583362,0.4125924,43.598671,65.5153632,-110.1042404,1.4594002,0.6225267999999999,0.2915784,-1.0041654000000002,0.0432762,0.0130186,87.7099532,88.03353279999999,53.8808602,92.69064144332738,1.2095653959370036,1.6131976084239772,1.0051818064358111,44.11128219999999,22.5181696,163.98510059999998
839.425,-12.284358,-98.2381472,31.1566576,-1.039377,0.4262659999999999,0.4564008,41.5284356,63.594757,-112.1085832,1.6545608,0.6157424,0.2606047999999999,-1.0042022,0.0428614,0.0113879999999999,87.91923979999999,88.02644819999999,54.0581406,103.79005891493014,1.2125629637778157,1.7845517660850974,1.0051810009340605,46.390804200000005,24.4316912,166.1667238
859.412,-15.5541876,-108.216431,36.7210474,-1.045019,0.4321492,0.4701988,39.5954506,61.4380264,-113.927652,1.8759236,0.4576880000000001,0.2039689999999999,-1.0022696000000002,0.0411601999999999,0.0090496,88.0846862,88.0217486,54.18685000000001,115.33067247019244,1.2247059046738853,1.9416928210564,1.0031552264771193,48.4892356,26.5837222,168.11450200000002
879.398,-19.403665,-118.4492084,41.18098,-1.0602568,0.4318374,0.4783875999999999,37.7631614,59.0638404,-115.587877,2.2317048,0.3048796,0.2045345999999999,-1.0006208,0.0424772,0.0067174,88.2143692,88.0160768,54.2724632,126.89598220502988,1.240758928164033,2.261701193225215,1.0015445179198177,50.4512078,28.952236400000004,169.86034020000002
899.384,-22.6269952,-128.516823,45.6710236,-1.0677358,0.4236966,0.508027,36.045742,56.46470480000001,-117.083162,1.840131,0.0110092,0.1334165999999999,-1.0006144,0.0464248,0.0061262,88.20062879999999,88.0091904,54.2219444,138.25482668777212,1.2560533349273828,1.8449941161969048,1.0017095236987816,52.1548868,31.544485599999994,171.3051064
919.37,-23.7856604,-138.63478260000002,49.1954224,-1.0598047999999998,0.3936688,0.5385524,34.4408976,53.6555954,-118.4566666,1.4301986,-0.2294129999999999,0.0835225999999999,-0.999764,0.0430683999999999,0.005826,88.0647248,88.0056168,54.05691300000001,149.0152682523768,1.2522779347022928,1.4508874472962126,1.0007081917574974,53.62382720000001,34.3500214,172.5135796
939.357,-23.2890292,-147.9225724,53.1169144,-1.045173,0.4046343999999999,0.5807325999999999,33.002997,50.6401366,-119.6827484,1.8087582,-0.2582248,0.1399705999999999,-0.9977756,0.0392856,0.004751,87.9380754,88.0031738,53.893519600000005,158.8863521574104,1.2622860017821318,1.8324513751438647,0.998560002365266,54.9350784,37.3630372,173.576268
959.343,-23.9151114,-156.64357,56.459877000000006,-1.019987,0.4097014,0.6276214,31.6843592,47.4350806,-120.7849502,2.5768764,-0.3111288,0.3499195999999999,-0.9989224,0.0432204,0.0030136,87.8324526,87.9932388,53.73592759999999,168.21670037922647,1.2657556395564349,2.619071751123012,0.999861513402171,56.14809340000001,40.5581582,174.5208778
979.329,-22.4113112,-164.4893402,60.9389726,-0.9789734,0.4166556,0.6875959999999999,30.5409176,44.0387314,-121.7362502,2.8612428000000003,-0.4825507999999999,0.4190165999999999,-1.0010898,0.0416496,0.0016106,87.6721804,87.982727,53.5177292,176.84051654153842,1.2667987472897655,2.9317470126544074,1.001957120278388,57.1312628,43.9439956,175.2539794
999.316,-19.6727318,-171.3631074,65.8904358,-0.925525,0.4102462,0.7244464,29.594653,40.4688692,-122.5312592,3.1357782,-0.4950806,0.3999274,-1.000336,0.039121,0.0008914,87.522284,87.9744964,53.304351,184.64528286466617,1.2448779284381262,3.199711181554104,1.0011010738836312,57.927631000000005,47.505627200000006,175.8356102
1019.302,-14.7035972,-176.8776154,71.3003572,-0.8628492,0.4347084,0.7584850000000001,28.9010002,36.7356596,-123.1555222,3.1750302,-0.3955626,0.3495921999999999,-1.000976,0.042671,-0.0007756,87.4468582,87.9652572,53.1649444,191.2736979750686,1.2283239109437707,3.2186179095586414,1.0018854068067666,58.545858,51.22959760000001,176.3204666
1039.288,-10.4135094,-181.8164674,75.87714700000001,-0.7922458,0.4555662,0.8034408,28.397477,32.8662448,-123.6603348,2.7997818,-0.5946201999999999,0.2115325999999999,-1.0029354,0.0452783999999999,0.0014527999999999,87.2383818,87.9573608,52.8994956,197.28915437169567,1.216844726867286,2.870034381452954,1.0039579974817472,58.8409048,55.091116,176.5598304
1059.275,-2.955144199999999,-186.6195404,80.51202860000001,-0.707411,0.4512998,0.8144335999999999,28.1247452,28.8693656,-124.0681322,2.4013338,-0.7250186,0.0279379999999999,-1.0022981999999998,0.0445406,0.0038445999999999,86.9266738,87.9539138,52.5383566,203.26773596819848,1.169360475306909,2.5085526745939384,1.00329473621701,58.8019286,59.08454819999999,176.60648880000002
1079.261,3.588223800000001,-189.5703796,83.6940094,-0.6037063999999999,0.4300754,0.8038412000000001,28.0323868,24.7902658,-124.4153048,2.3188224,-0.7116596,-0.0036694,-1.001349,0.0450762,0.0055778,86.6000838,87.9507614,52.1639494,207.25465346084331,1.0934289834751776,2.425574194600173,1.0023785689350506,58.567697,63.1604956,176.5792542
1099.247,8.266919600000001,-190.5659088,85.1157456,-0.4998576,0.4302386,0.802562,28.0737884,20.6747594,-124.7300782,2.6566654,-0.8109135999999999,0.1410054,-1.0016196000000002,0.042958,0.0066734,86.2253768,87.945314,51.7345328,208.8741192811754,1.0387822856844064,2.781246921265942,1.0025625901337634,58.1515884,67.2705546,176.46461100000002
1119.234,12.3978092,-190.4022552,85.3822754,-0.3973634,0.4181587999999999,0.795247,28.2205464,16.5548518,-125.0362016,3.4140092,-0.9740403999999998,0.246465,-1.001516,0.0432978,0.0073415999999999,85.79003900000001,87.9368424,51.229103,209.03793294683857,0.9824318015445144,3.5587861012909725,1.002478377238831,57.5694926,71.38199060000001,176.26530459999998
1139.22,19.2490952,-189.4843842,85.691768,-0.2943307999999999,0.4071501999999999,0.7871198,28.520319,12.4431314,-125.34024359999998,4.0871402,-0.9402766,0.395918,-1.0009872,0.0430174,0.0071918,85.3976394,87.9251388,50.7533272,208.84908097628224,0.9337877086044344,4.212551027784423,1.0019369207958353,56.8773204,75.4820074,176.0935708
1159.206,18.952649,-187.2262208,84.3714554,-0.2084254,0.4066432,0.786083,28.830906,8.3775404,-125.6646804,4.1692742,-0.7181328,0.4802912,-1.0016046,0.0441868,0.0063571999999999,85.1325316,87.9112746,50.4037384,206.2314310319398,0.90924491879823,4.257844725916966,1.002598953733366,56.3016256,79.5337342,176.0684188
1179.193,19.0601122,-185.0252076,82.44546360000001,-0.1420306,0.396583,0.7742552,29.1610512,4.3660820000000005,-126.01898179999998,4.0699196,-0.5901270000000001,0.5092608000000001,-1.0011144,0.0457596,0.0062232,84.9347166,87.8959884,50.1237436,203.45729230656397,0.8814317227967235,4.143892130474658,1.002178981568542,55.773665400000006,83.5299064,176.1427254
1199.179,20.7448998,-182.4298768,80.9878968,-0.0863312,0.3969752,0.7886092,29.541317,0.4205380000000002,-126.3962158,3.791858,-0.5195964,0.4296664,-1.0005504,0.0460883999999999,0.006571,84.76096179999999,87.88254859999999,49.8734574,200.67398995650305,0.8871002512868092,3.851334927832936,1.001632877653145,55.21964479999999,87.46201060000001,176.2696732
1219.165,18.4360118,-181.1022706,79.1232072,-0.0517735999999999,0.4152205999999999,0.8232296,29.9089874,-3.4778968,-126.8184356,3.6129782,-0.4057714,0.38913,-0.9998776,0.044015,0.0067516,84.63356160000001,87.8717728,49.6732476,198.49030420949907,0.9234693425541964,3.656457856947513,1.0008686823501471,54.724574200000006,91.3496696,176.49168319999998
1239.152,12.121099600000004,-179.89745480000002,74.90616,-0.0074186,0.3785148,0.7820628000000001,30.180959,-7.302696,-127.324472,3.7496164,-0.2584443999999999,0.3019962,-0.9987728,0.0440158,0.0046564,84.6024398,87.8635256,49.566835,195.24586578203588,0.8688789976681679,3.770625725241735,0.9997530588752604,54.421480800000005,95.1662216,176.89130699999998
1259.138,10.885817800000002,-177.5786162,70.6163956,0.0465222,0.3739443999999999,0.7802868000000001,30.4704994,-11.039078,-127.9035462,4.2727056,-0.1398275999999999,0.3486574,-0.9972998,0.0452787999999999,0.0031599999999999,84.6587096,87.8537844,49.5376474,191.4140571855092,0.8665138311870388,4.289187205586611,0.9983321323134302,54.1882102,98.8928624,177.4411936
1279.124,5.647183600000002,-175.61237780000002,65.5930276,0.0832543999999999,0.3964421999999999,0.8171874000000001,30.7222588,-14.6880324,-128.578447,4.5622728,0.0679556,0.4171986,-0.9973736,0.0455468,0.0020244,84.83163440000001,87.842859,49.6197876,187.54744250166783,0.9120816628893272,4.5818124947484655,0.9984150976235086,54.1093756,102.5308914,178.1982346
1299.11,-1.5291917999999984,-176.23539720000002,59.9501542,0.1147486,0.3852578,0.8092284000000001,30.918694400000003,-18.2981052,-129.3898072,4.8119718,0.350469,0.4766618,-0.9983608,0.0480982,0.001101,85.1522032,87.82966780000001,49.8451866,186.15927224397592,0.9035714786497856,4.848206637049981,0.99951935249943,54.2335088,106.127773,179.2349938
1319.097,-7.198071399999998,-177.0970428,54.27323220000001,0.152237,0.3561588,0.7678068,31.104610200000003,-21.867843,-130.3471894,4.8191068,0.5247832000000001,0.453634,-0.9988934,0.0477482,-0.0002656,85.5643142,87.8177872,50.1622986,185.36655182049336,0.8599723699705009,4.86877516042428,1.000033992277343,54.459704,109.6856302,180.509488
1339.083,-10.446095799999998,-177.407721,48.9857902,0.1917238,0.3514648,0.7504725999999999,31.3404134,-25.388167400000004,-131.4459596,4.7362974,0.6834034000000001,0.4354751999999999,-0.9998622,0.048478,0.0003235999999999,86.03327479999999,87.80616760000001,50.538192,184.3426918252933,0.8505848837571944,4.805121425957243,1.001036782635783,54.692861400000005,113.194335,181.9841516
1359.069,-12.708405799999998,-177.7601838,44.2234734,0.2185597999999999,0.339854,0.7258048,31.660681600000004,-28.8655672,-132.69237379999998,4.3619954000000005,0.8223052000000001,0.3621684,-1.0004982,0.0493084,0.0006607999999999,86.541681,87.79580840000001,50.961203,183.6189045881381,0.830699545681277,4.4535778494966,1.0017127348548784,54.88099939999999,116.6613756,183.6535768
1379.056,-14.444363399999997,-178.4282838,40.3416564,0.2602338,0.3192258,0.6752408,32.0887966,-32.3106692,-134.09215720000003,3.952499200000001,0.9640794,0.2586308,-0.99977,0.0507964,0.0018065999999999,87.0800614,87.7868988,51.422545,183.50133878241945,0.7909341818588447,4.0765903530050265,1.0010612323711874,54.9912648,120.097568,185.5147022
1399.042,-17.408690399999998,-177.0987428,36.6632922,0.3168328,0.3034744,0.613004,32.6021572,-35.6794456,-135.63410360000003,3.4561370000000005,1.0565236,0.1448288,-0.9982988,0.0490072,0.001156,87.6471298,87.7817564,51.9225764,181.6899122068316,0.753826000232945,3.616918641804845,0.9995016438552164,55.04497260000001,123.461202,187.55668
1419.028,-19.5475526,-173.9350128,33.3352222,0.3812718,0.2951794,0.5543654,33.225556600000004,-38.9531822,-137.3101382,3.0250764,1.2578126,0.0215547999999999,-0.9965938,0.0494396,0.000882,88.29197079999999,87.7791,52.509332400000005,178.17612783285335,0.7347244792279348,3.276224102829164,0.9978197503410124,55.06641420000001,126.7322822,189.8194706
1459.001,-19.3849522,-167.0516356,30.9894862,0.4332876,0.2977596,0.5047858,34.2260788,-42.6555428,-139.5049532,2.6142632,1.3598564000000002,-0.0485455999999999,-0.9961644,0.0522648,0.0006663999999999,88.9696014,87.77595360000001,53.13729120000001,171.00401627848237,0.7288399190409098,2.94719157551296,0.997534743873796,54.743522600000006,130.4314964,192.6422444
1478.987,-20.8943562,-159.5543396,29.7386012,0.4967171999999999,0.3038949999999999,0.4437102,35.3485666,-46.1966966,-141.7978212,2.2586594,1.3964404,-0.077772,-0.9968456,0.0523989999999999,-0.0001844,89.6559706,87.7731094,53.7811746,163.6415161489811,0.7320921317599856,2.65662126769032,0.9982218387932212,54.307404000000005,133.969806,195.5789958
1439.015,-21.8299574,-155.5666932,28.1077388,0.5372488000000001,0.2918704,0.3849387999999999,35.8358378,-48.041028,-142.9581972,1.6542127999999998,1.441022,-0.1608087999999999,-0.998052,0.0523948,-5.720000000000013e-05,90.3396498,87.771901,54.4344872,159.58567621725254,0.722497393243076,2.1997326797420818,0.999426341979678,54.503812,135.812929,197.3926844
1498.974,-22.0767018,-144.51841280000002,27.2770812,0.6068608,0.288332,0.3069544,36.8820476,-50.712156,-144.9144716,1.0344214,1.5436458,-0.2302233999999999,-0.9975914,0.052478,0.0024242,91.0194992,87.77179579999999,55.096485,148.71782529135075,0.7386720358047948,1.8723976080264468,0.998973682628126,54.1374516,138.4839518,200.0109566
1518.96,-17.103473799999996,-131.029442,27.2391032,0.6626762000000002,0.2903716,0.24486,38.0147478,-53.13864,-146.78658760000002,0.4929734,1.6513514,-0.1360537999999999,-1.0001006,0.0503913999999999,0.005797,91.6881256,87.77057959999999,55.7582236,134.91928042351432,0.7638140033627299,1.7287263681346334,1.0013860936338792,53.6733778,140.90921959999997,202.5448112
1538.946,-13.8226706,-117.7847964,26.3391734,0.7190288,0.3006704,0.1792912,38.922693,-54.7466738,-148.11961380000002,0.3281824,1.8081656,-0.0416739999999999,-1.0017096,0.0443004,0.0074273999999999,92.3968842,87.7707368,56.4636076,121.48282405715148,0.7997189750550128,1.8381793293825064,1.0027162183006118,53.47419119999999,142.5174106,204.5832214
1558.933,-9.2204066,-102.1537614,23.4756178,0.776601,0.289953,0.118049,39.791552,-56.0696398,-149.2722048,1.0803965999999998,1.8605882,0.0513594,-1.0015481999999998,0.0404932,0.0078544,93.127974,87.7707368,57.17633120000001,105.2212502165277,0.8373275475051565,2.152134533722081,1.002397220551234,53.336422000000006,143.84037659999998,206.448536
1578.919,-3.7668847999999984,-78.0039322,19.7938288,0.8499015999999999,0.3083791999999999,0.0374634,41.311544000000005,-58.5492502,-151.3699312,2.2099606,1.6593828000000002,0.1374454,-1.0033394000000002,0.042022,0.0063024,93.799103,87.76777200000001,57.80617959999999,80.56425087048459,0.904894450759181,2.767014341934165,1.0042387765477494,52.48755900000001,146.31702220000005,209.1761108
1598.906,5.112404400000001,-56.11584700000001,15.4804462,0.8764986,0.3216627999999999,0.0277438,42.2277754,-59.5998536,-152.3257142,3.0134308,1.3053236,0.2172338,-1.0051458,0.043552,0.0003986,94.3945268,87.7620804,58.3437758,58.43602636924968,0.9340698427549408,3.2911738651988656,1.0060889696461244,52.16675140000001,147.36193400000002,210.66949
1618.892,8.901523800000001,-32.67466280000001,9.6725212,0.9020718,0.3304979999999999,0.0109812,42.8855544,-60.2179368,-152.8850648,3.206265,0.8994148000000001,0.1215988,-1.0017242,0.0489492,-0.0076165999999999,94.9077332,87.7550248,58.79476,35.219715805499064,0.9607721098744902,3.332246764698779,1.0029483584122565,52.022178800000006,147.97296160000002,211.6798248
1638.895,13.308016200000004,-8.198093400000001,4.3213686,0.9115888,0.2996073999999999,0.0169462,43.2210182,-60.3999992,-152.96650999999997,2.3321892,0.5374490000000002,-0.1359602,-0.9970914,0.0536008,-0.0124845999999999,95.3050338,87.7508134,59.146771,16.216851024525447,0.9597113670862922,2.397173975368012,0.998609118199789,52.0840156,148.15081260000002,212.113281
1658.864,17.9709332,16.704303599999996,-1.0750502000000002,0.8937419999999999,0.2830624,0.043025,43.2170838,-60.141706,-152.54587999999998,0.5525474000000001,0.3608198000000001,-0.5592086000000001,-0.995387,0.052663,-0.012257,95.6011856,87.7570894,59.4328084,24.55898881819761,0.9384829436291102,0.8649935350236788,0.996854505626072,52.38410180000001,147.89879539999998,211.9786884
1678.851,20.5584148,40.9736212,-6.399489,0.854307,0.2714267999999999,0.0967106,42.8663574,-59.455451200000006,-151.6565612,-0.7593813999999999,0.5961740000000001,-0.8677604000000001,-0.9935832,0.0471116,-0.0102214,95.9704406,87.77342239999999,59.8185148,46.2864938485415,0.9015907598015852,1.2981108044963343,0.994752006881494,53.104083200000005,147.2288736,211.475076
1698.837,20.0632226,63.0452818,-12.8683378,0.8141605999999999,0.260548,0.1138692,42.2138528,-58.3511528,-150.4175568,-1.3800494,0.8469728,-1.0906116,-0.9939905999999998,0.0494502,-0.0027015999999999,96.34901419999998,87.79295979999999,60.22621360000001,67.40055323269587,0.8623856084171395,1.9522635407226043,0.9952235597145798,54.1351614,146.14411260000003,210.6437704
1718.823,20.4433648,82.91672739999998,-19.819512,0.7659002,0.2399554,0.150138,41.3837388,-56.8558814,-148.9446442,-1.5496512,0.8706096000000001,-1.1568414,-0.9985262,0.0465226,0.0056462,96.6328308,87.8164628,60.5423132,87.66942399143461,0.81653115641303,2.1207691864103366,0.999625331797689,55.249092,144.6723442,209.4869574
1738.81,19.9379038,100.5564498,-28.3135124,0.7290258000000001,0.2436574,0.1907814,40.4922706,-54.9765778,-147.38469260000002,-0.8887959999999999,0.8278068,-1.0815782,-1.0034106,0.0430174,0.0096125999999999,96.861049,87.84087980000001,60.7893836,106.3521254547502,0.7919880606589723,1.626355997454887,1.0043782808154904,56.3687784,142.8174576,208.1740762
1758.796,16.9549932,115.4200546,-36.6561504,0.6857272,0.2550894,0.2363731999999999,39.5748282,-52.7540406,-145.831708,0.0610884000000001,0.6273932,-0.902359,-1.0060764,0.042547,0.0093628,97.013443,87.8617782,60.941268,122.28219069196643,0.7688723460304968,1.100729660226252,1.0070191814805711,57.4386148,140.6158188,206.77297600000003
1778.782,17.5348228,128.447264,-44.3020862,0.668686,0.2512292,0.2358537999999999,38.7438064,-50.216335400000006,-144.32902840000003,0.5520544000000002,0.2291278,-0.7941732,-1.0058284,0.0455336,0.0036791999999999,97.0597732,87.87858120000001,60.976705800000005,136.9994324126393,0.7522526786280525,0.9939691548989034,1.0068652419704236,58.3159668,138.09491659999998,205.3057342
1798.769,23.3030516,141.2034438,-51.28314819999999,0.6448134,0.2296462,0.2751968,38.1157172,-47.38024,-142.8812164,0.8193910000000002,0.0866336,-0.7781606,-1.0036298,0.044445,-0.0031833999999999,97.1389312,87.8954056,61.0395728,152.02436003534166,0.7377363870138438,1.1333317744254416,1.004618468628066,59.023214,135.27564560000002,203.9207892
1818.755,29.2691916,153.1065824,-57.4603912,0.6046766,0.2685698,0.3401732,37.6922972,-44.2600908,-141.4787658,0.8236998000000003,0.1554306,-0.8086148,-1.001257,0.0449256,-0.0069803999999999,97.3000868,87.91188199999999,61.1846228,166.1325004566612,0.7439632612285637,1.1646879095772569,1.0022886887361946,59.6077896,132.1719728,202.6633886
1838.741,28.0267088,162.11607039999998,-64.3002944,0.5435504,0.3193246,0.3828716,37.3731636,-40.8959382,-140.1777892,0.2176000000000001,0.3238914000000001,-0.8432742,-0.999639,0.0467234,-0.0080304,97.5409956,87.92713619999999,61.421955,176.63987247511366,0.7375675559512362,0.929175320044393,1.000762556130434,60.167832,128.8230744,201.5997442
1858.727,30.2452322,170.60920700000003,-70.7264204,0.5077856000000001,0.3005662,0.3528962,37.2068452,-37.310772,-138.95837079999998,-0.4372549999999998,0.5319212000000001,-0.8338334,-0.9979334,0.045876,-0.0078227999999999,97.8640258,87.942012,61.7549362,187.14834256973347,0.6875478049737633,1.0813927302280146,0.9990179549995084,60.6571806,125.252784,200.713307
1878.714,41.713511800000006,179.037213,-76.3904678,0.443341,0.3059688,0.3971836,37.359988400000006,-33.5227196,-137.7844634,-0.3859303999999998,0.7936266000000002,-0.8100999999999999,-0.9974808,0.0429533999999999,-0.0040049999999999,98.2635314,87.9575668,62.1637894,199.0724598637364,0.6692704692150999,1.1979346659445664,0.9984132315655676,60.903543,121.4802864,199.9482528
1898.7,44.6039232,184.179074,-82.1309722,0.3404282,0.4425394000000001,0.5208814,37.6735528,-29.587809000000004,-136.6754698,0.0212648000000002,0.9851588,-0.702477,-0.9991674,0.0382154,-0.0011109999999999,98.7247696,87.9731384,62.6265534,206.53556076096476,0.7635770509736134,1.210150399109747,0.9998985670261358,61.051216800000006,117.5609474,199.3020232
1918.687,29.2901684,183.3326294,-89.86258540000001,0.2718188,0.4692743999999999,0.5339636000000001,37.8259668,-25.580581,-135.7413848,0.7530612000000001,1.28518,-0.6097284,-0.9993328,0.0386606,-0.0007403999999999,99.3279526,87.984787,63.2172876,206.26209351790845,0.7610657321504891,1.6095208992467291,1.0000806144208376,61.5019858,113.565368,198.9586724
1958.659,37.6651786,185.0169434,-91.3655518,0.1740396,0.5548146,0.6773388,38.230166800000006,-20.7283812,-134.672885,1.5721282000000003,1.5581406,-0.4413722,-0.9993026,0.0409416,-0.0028625999999999,100.0813004,87.9892564,63.9424684,209.75604658690335,0.8926908046612556,2.257033146751824,1.000145037210144,61.8511336,108.7176376,198.6153534
1978.645,22.822561200000003,179.82179580000002,-94.5712586,0.0634128,0.688891,0.8173245999999998,38.430105600000005,-15.919108,-133.7236938,2.0258532,1.8430178,-0.4902978,-0.9994204,0.0443506,-0.0040817999999999,100.9855926,87.9906114,64.81021439999999,204.4516336389923,1.0707994652828323,2.782299001141308,1.000412301377667,62.55548700000001,103.9097194,198.5339082
1998.632,-3.165176200000002,172.4349398,-96.103598,0.0106082,0.6981257999999999,0.8101778,38.209089,-11.2078602,-132.91551199999998,1.9307288,2.0137932,-0.5327071999999999,-0.999078,0.0451544,-0.0045847999999999,101.9726394,87.99101879999999,65.76302719999998,197.43284517210472,1.0695233677417806,2.840220715445812,1.0001083892830815,63.7635504,99.198879,198.6785392
1938.673,-12.0481084,170.43995379999998,-97.1963638,0.0411664,0.5704605999999999,0.702228,38.0696114,-9.5952796,-132.6692414,2.0572474,2.3111388,-0.3530082,-0.998038,0.0471318,-0.0059933999999999,103.0826552,87.9834276,66.8368836,196.57585788520987,0.905673303473896,3.11420041213462,0.9991682425191464,65.01304379999999,97.5787072,199.506125
2018.618,0.9384893999999996,171.1360232,-91.6301436,-0.0179171999999999,0.5781959999999999,0.7646454,37.9950096,-5.760254999999999,-131.9968414,2.3134012000000004,2.6243664,-0.1692061999999999,-0.9973266,0.0465812,-0.0077007999999999,104.3235382,87.9690508,68.03705300000001,194.1249659760987,0.9588087547644732,3.5025354890034794,0.99844351747189,66.3285286,93.7293058,200.0338944
2038.604,-13.2955406,164.14832180000002,-90.6991468,-0.0637351999999999,0.6203214,0.7798786,37.674456000000006,-2.8490792,-131.55684200000002,2.8300052,2.8652472,-0.1500055999999999,-0.9968672,0.043848,-0.0070182,105.6527542,87.953354,69.3155838,188.01004808214523,0.9985346492510714,4.030021417953786,0.9978557594517756,67.9782982,90.8024332,200.8724258
2058.591,-13.9416182,159.2955416,-88.1976072,-0.0961852,0.5174676,0.6949797999999999,37.3566606,-0.0447645999999998,-131.1597808,3.7009152,3.0634752,-0.0393639999999999,-0.9962494,0.0421702,-0.0079391999999999,107.0670822,87.93348399999999,70.662123,182.61504923602928,0.8717919661001929,4.804498219700167,0.9971731161965008,69.71042159999999,87.9782486,201.8219038
2078.577,1.1208620000000011,158.1575014,-83.6214094,-0.1291728,0.5494088,0.7554618,37.3677606,2.6828348000000006,-130.7099152,4.4170614,3.5545594,0.0698526,-0.9956242,0.0470888,-0.0104888,108.6779328,87.9025254,72.19168859999999,178.9066563623513,0.9430048637395886,5.67011493051288,0.9967923141941456,71.3101722,85.2196906,202.90160380000003
2098.563,-1.102661599999999,152.2067354,-78.6243818,-0.2582036,0.6835448000000001,0.92023,37.1906586,8.3431504,-129.76685479999998,4.424947,3.8495438,-0.0959583999999999,-0.9954504,0.049164,-0.008435,110.3585602,87.87045739999999,73.791214,171.31812390159396,1.175042912220656,5.865863230203889,0.9966994265981896,73.16790160000001,79.527307,203.5580688
2118.55,-20.4499508,143.4961824,-78.48406059999999,-0.3140382,0.726069,0.9252068,36.8768624,11.5950484,-129.27893060000002,4.362697,4.128918799999999,-0.2630339999999999,-0.992426,0.0471814,-0.0107146,112.163092,87.8381362,75.51632079999999,164.83052696439748,1.2172936402472825,6.012510495288838,0.9936046762345274,75.28622959999998,76.2430878,204.7952514
2138.536,-25.2010656,138.3627976,-76.0095398,-0.3232316,0.5622286,0.7398032000000001,36.4767838,14.7306146,-128.8329848,4.6369698,4.729417799999999,-0.3800889999999999,-0.99011,0.0475474,-0.0130535999999999,114.198706,87.7989592,77.467862,159.8649667928588,0.983813214297694,6.634255745823331,0.991336957759429,77.7219222,73.0683446,206.3008468
2158.522,-6.269833200000001,141.3056016,-69.5748504,-0.3375974,0.5618622,0.718539,36.5166252,17.838612599999998,-128.2456146,5.156128600000001,5.5480958000000005,-0.5513576,-0.9893738,0.0478624,-0.0133035999999999,116.5279632,87.75145239999999,79.70377359999999,157.63008488253794,0.9726044575245376,7.594144082699075,0.990620164963928,80.011338,69.9128398,207.9493882
2178.527,-4.912718000000001,142.14716040000002,-66.0969184,-0.4263704,0.6184154,0.8454586000000001,36.65359120000001,20.9152604,-127.56788939999998,5.6651294,6.1740942,-0.7041136,-0.9890528,0.0469894,-0.0105678,119.0086638,87.6978558,82.08145300000001,156.83989489255313,1.130941894735216,8.408858797180683,0.9902247842268138,82.3550726,66.7825954,209.6493424
2198.495,-16.548202600000003,139.1936632,-65.857653,-0.4666081999999999,0.5939532,0.7647758,36.5956902,23.9366176,-126.9043106,6.2392518,6.9410188,-0.8967288,-0.9852256,0.0440554,-0.0189696,121.813945,87.6331738,84.7730882,154.8739789086407,1.0748886641709083,9.37604007811966,0.986392521711656,85.2182548,63.69655620000001,211.6773988
2218.481,-11.470381200000002,139.6375046,-62.9847098,-0.499877,0.4929462,0.6201255999999999,36.685389,26.9225908,-126.1749878,7.222112,8.0444454,-1.3217666,-0.9847038,0.038737,-0.0247146,125.05507659999998,87.556117,87.8820862,153.6140488509386,0.9367116584087122,10.89123824360668,0.9857752991207478,88.36968759999999,60.63352619999999,214.057074
2238.468,4.109575,144.9247162,-60.0873594,-0.5411009999999999,0.4878928,0.6012786,37.192025,29.955964,-125.2850846,8.90974,9.2413456,-1.6718792,-0.9873382000000002,0.034277,-0.0272666,128.62841039999998,87.46132499999999,91.2900802,156.94123974276468,0.9446510632560576,12.945312488527728,0.9883092134467838,91.4363854,57.50536099999999,216.5751648
2258.454,7.3803246,147.86462999999998,-60.600672,-0.6301336,0.5450936,0.7564637999999999,37.867881,33.031173,-124.2889892,10.3383864,10.3331216,-1.9967178,-0.9899314,0.0360858,-0.0314586,132.3921572,87.343814,94.8598374,159.9714332094635,1.125358994863577,14.752712202470716,0.99108829333292,94.5242762,54.312641,219.14882660000004
2278.44,-5.8636626,144.7273346,-64.7498702,-0.7006973999999999,0.5472616,0.6681608000000001,38.3088408,36.10266,-123.3392988,11.8933722,11.0830952,-2.1910134,-0.9919432,0.0357566,-0.0368904,136.21968420000002,87.2080108,98.461766,158.65979204078093,1.1121649876965018,16.403897135101023,0.9932727460682488,97.9108434,51.1053508,221.8010648
2298.427,-1.4569417999999985,144.88341659999998,-63.891281000000006,-0.7499584,0.4217457999999999,0.5105984,38.9134598,39.1623112,-122.3109266,13.4600622,11.313224600000002,-2.4452936,-0.9975558,0.0295296,-0.0348818,139.9664768,87.0671128,101.9508666,158.35221145572518,1.0005087943795197,17.75223326987664,0.9986021787283664,101.05301699999998,47.9048016,224.2617932
2318.413,14.367436400000004,148.2934936,-60.7499816,-0.834225,0.4358804,0.5287464,40.0318002,42.2216992,-121.0507888,15.0084676,10.9515988,-2.6577108,-1.0001334,0.0280788,-0.0341814,143.439365,86.92552500000001,105.133725,160.89730804833755,1.079581321273261,18.76845871862812,1.0011111850893286,103.4075648,44.7038258,226.1845138
2338.399,12.204890600000002,148.91034240000002,-59.6214492,-0.932364,0.457877,0.6189416,41.3009888,45.2532652,-119.592227,15.782425800000002,9.7118642,-2.899713,-1.0001686,0.0307168,-0.0366398,146.47324859999998,86.7981842,107.8606432,160.86630048879533,1.2091495688439706,18.756694960843085,1.0013107535486874,105.17225979999998,41.54491900000001,227.4528702
2378.372,-2.0315585999999994,134.39410099999998,-61.9321114,-1.0088504,0.4052788,0.4898276,42.4577064,48.631554400000006,-117.9976424,16.017313,8.2083012,-3.0561282,-0.9975762,0.0267186,-0.0434907999999999,149.1257998,86.69082800000001,110.200287,147.9915133931856,1.192460109618498,18.255696204328277,0.998881178157362,106.6680934,38.0592736,228.1979294
2398.358,6.569245,122.0542298,-61.95587379999999,-0.998422,0.2869282,0.2540141999999999,43.691562,51.8257972,-116.5501648,13.217477000000002,5.448900999999999,-3.8440498,-0.9975188,0.0180628,-0.0536166,153.1994264,86.64075940000001,113.9023928,137.03620065611406,1.0694379345435994,14.8043554138034,0.99912199500003,109.5078644,34.814962200000004,230.4525576
2358.386,14.2214692,120.8290224,-61.1586342,-1.0845186,0.3588688,0.4768648,44.839888,53.5474334,-115.4417558,10.388821,2.6886368000000003,-3.6942961999999993,-0.9994024,0.0170998,-0.0553736,157.617804,86.6971298,117.9901522,136.1700458160886,1.2378883014385589,11.349193540762696,1.0010813133121403,112.777916,33.1496964,233.431908
2418.345,16.5441384,106.436548,-66.09150159999999,-1.115731,0.3634794,0.4927346,45.899565,55.9984008,-114.4952576,7.1819568,-0.3242209999999998,-3.6931362,-1.0038626000000002,0.014873,-0.0508807999999999,161.63063060000002,86.80914,121.7369204,126.37457754349748,1.2726980492726938,8.082380696654772,1.0052612504301557,115.7310656,30.8107392,236.232178
2438.331,18.8865188,87.02400060000001,-70.41035,-1.112385,0.4316662,0.5097768,46.6378342,58.2278456,-114.0248536,3.819804,-3.0703626,-3.8647968,-1.0036488,0.0114188,-0.0500416,165.41084600000002,86.97323000000002,125.31946739999998,113.52310187769736,1.2975393952653922,6.241368712004203,1.0049604293032837,118.7730118,28.7453844,239.344321
2458.318,25.635169,77.18186499999999,-69.230638,-1.0681607999999998,0.4708296,0.5310676,47.0621094,59.757608600000005,-114.082979,1.1428116,-5.626683,-3.8296152,-1.0049578,0.0114749999999999,-0.0435082,168.9000214,87.18855440000002,128.66584039999998,106.80394848704718,1.282451091723407,6.901560150839417,1.005964621084201,121.837912,27.430945800000007,242.7488194
2478.304,25.4015594,69.93940740000001,-64.8274314,-1.0532212,0.5609170000000001,0.681838,47.4223846,61.1241408,-114.1945894,1.4652482,-6.676482,-3.0509008,-1.0043054,0.0185674,-0.0384008,170.3556642,87.4143708,130.08748799999998,98.68817451618308,1.3743383263456057,7.485343003187488,1.005210777027664,122.9332796,26.29023,244.2820774
2498.29,25.716048,51.7931282,-60.8005676,-0.964724,0.562913,0.5374144000000001,47.9026634,63.6052284,-114.1422944,1.7820204,-7.3322512,-2.762757,-1.0014328,0.0260394,-0.039421,170.7348604,87.5911912,130.44243799999998,83.9079988675818,1.2395070306667728,8.03556660148907,1.002546616626479,122.832197,23.985962800000003,244.5847324
2518.288,19.0394568,41.0702008,-51.2243976,-0.9229324,0.6438366,0.5903394,48.14272,64.91692359999999,-114.255356,1.895788,-7.456583999999999,-2.1439698,-0.9968886,0.0306344,-0.0417764,170.8276276,87.7671524,130.508899,68.36081639707261,1.270759768666635,7.986943319775847,0.9982337476113898,122.6849076,22.850228800000004,244.764255
2538.262,11.783955600000002,29.856889,-38.2399436,-0.9183246,0.6464394,0.5487792,48.2443786,65.88561179999999,-114.34054899999998,2.1243908,-7.170664,-1.5610364,-0.9949334,0.0280442,-0.0422938,170.76520699999998,87.93558340000001,130.4156188,49.925832160037885,1.2499450304674042,7.639914470342295,0.9962267378000051,122.52082839999998,22.049971600000006,244.7561678
2558.249,7.0641394,18.6714868,-22.8912284,-0.9204822,0.6584276000000001,0.5261864,48.3211274,66.47637339999999,-114.3366808,2.9322348000000003,-6.899041200000001,-1.107423,-0.9930684,0.0253793999999999,-0.0429386,170.57290659999998,88.097876,130.17656240000002,30.37325834424376,1.2480731198545862,7.577674848036005,0.9943202122017232,122.2517792,21.621502600000007,244.5132432
2578.235,4.218331000000001,4.688363000000001,-7.2787082,-0.9678748,0.6484373999999999,0.5497909999999999,48.339619600000006,66.647728,-114.3470552,4.303717600000001,-6.3068336,-0.6530822000000001,-0.9919492,0.0227752,-0.0409924,170.2225312,88.2476668,129.7514648,9.630921923994466,1.2882246829939257,7.663201132594366,0.9930570487003452,121.8829116,21.599938800000004,244.09852
2598.221,0.4137894000000003,-12.9685934,8.8860456,-1.009891,0.6798458000000001,0.5988203999999999,48.184559,66.341948,-114.4747286,5.558315400000001,-5.7276332000000005,-0.4865916,-0.992647,0.0172119999999999,-0.0389038,169.8828004,88.38725120000001,129.3119476,15.72632960507172,1.3567077854552174,7.996088015073994,0.9935581639780532,121.6982414,22.045303200000003,243.7866762
2618.208,-8.985358399999999,-31.7102488,24.2648668,-1.0262916,0.6491696,0.6195102,47.702418,65.55520700000001,-114.767441,6.968457000000001,-5.224608399999999,-0.8317724,-0.9923608000000002,0.0118423999999999,-0.0393168,169.9002198,88.5196396,129.20283519999998,40.927500599915625,1.3632639163781752,8.74915831492386,0.9932099529186366,122.19780179999998,22.9644326,243.9702762
2638.194,-17.28417,-49.2534112,38.654282,-1.0290794,0.6213628,0.6379916,46.96757,64.3161918,-115.1773058,8.4428568,-4.7916176,-1.1694792,-0.991743,0.0082329999999999,-0.0387776,170.30414439999998,88.6462952,129.45233779999998,64.95224833953564,1.360929616989343,9.777991192937773,0.992534967948112,123.3365744,24.3301034,244.6296436
2658.18,-23.9742606,-67.1058218,50.7257802,-1.0479136,0.6103046,0.6613118,45.9832994,62.6343742,-115.73935120000002,9.8521504,-3.7870134,-1.4152402,-0.986902,0.0075786,-0.043642,171.03062759999997,88.7441924,129.9949006,87.47034507573855,1.38127763851637,10.64937757898065,0.9878955496133992,125.0473282,26.1098182,245.7342518
2678.167,-30.3267894,-86.9749534,61.828808,-1.0705748,0.6091200000000001,0.6884498000000001,44.7381874,60.4963638,-116.4644748,11.3610282,-2.6797266000000004,-1.9087646,-0.9869618,0.0013109999999999,-0.0419478,172.30571300000005,88.8156158,131.05504760000002,110.93763190615252,1.411070765027424,11.827818002918203,0.9878536993427112,127.5675256,28.319252,247.5195224
2698.153,-36.025246,-107.3666612,72.1831758,-1.0839986,0.5891680000000001,0.7020828,43.2898362,57.90506740000001,-117.3078006,13.19636,-1.4627094,-2.7661084,-0.9824896,-0.0026262,-0.0432182,174.3518434,88.8538894,132.8484314,134.29753964674782,1.4195394165298123,13.562256144130256,0.9834431980779776,131.0620072,30.948822,250.156232
2718.139,-39.7965422,-126.829355,81.9022034,-1.0911736,0.5834914,0.7137002,41.7472564,54.8810624,-118.1952746,14.869961,0.0580047999999997,-3.42461,-0.9802876,-0.0053054,-0.0417636,104.993143,88.847055,135.19994200000002,156.13270311682746,1.4284572148618802,15.259326929797528,0.9811911762077152,63.245886600000006,33.9659926,253.3952166
2738.126,-42.2966452,-146.2950198,90.4745774,-1.1084164,0.5815604000000001,0.747503,40.1605192,51.442476,-119.103679,16.464716399999997,1.9865724,-4.107706,-0.979971,-0.0040946,-0.0428034,35.9992068,88.7790696,137.87767639999998,177.13522565872003,1.457930090795207,17.085274496340602,0.9809138890043916,-4.161312399999997,37.3365936,256.9813554
2758.112,-43.197782,-165.9395556,99.0439408,-1.1100448,0.578636,0.7710982000000001,38.61000800000001,47.610326400000005,-119.9854752,17.430159800000002,3.3356905999999995,-4.9942398,-0.986669,-0.002028,-0.0346102,-32.6730772,88.67733480000001,140.8542938,198.01940988609908,1.470241991151892,18.43582744582864,0.9872779215038896,-71.2830852,41.067008400000006,260.83976900000005
2778.098,-41.482872,-183.14126,107.3103058,-1.0826634,0.5783254,0.7903819999999999,37.195841,43.4216172,-120.7808212,17.2442104,4.0130046,-5.8183868,-0.9899652,-0.0001278,-0.0311678,-101.1280088,88.5560336,144.04977119999998,216.2800303186716,1.4599054804708145,18.63654000058765,0.9904557260679148,-138.3238498,45.134416400000006,264.8305924
2798.085,-40.2413536,-196.99003,114.3714936,-1.0231072,0.5709478,0.8083856,35.923572199999995,38.9379796,-121.4626266,16.6465244,4.4654958,-6.3177156000000005,-0.9946928,-0.0026222,-0.0300783999999999,-169.58642559999998,88.4181888,147.25122979999998,231.3120770890616,1.423452497031088,18.35649633623193,0.9951509194344544,-205.5099978,49.4802092,268.7138564
2818.071,-36.6759148,-208.2109956,119.8084962,-0.9455898,0.5647260000000001,0.8322882,34.821182,34.2176342,-122.0432358,16.1685222,4.6528884,-6.3497886,-1.0025072000000002,0.0007399999999999,-0.0317972,-166.4502502,88.2723986,150.0549956,243.0041505342357,1.3804923660778714,17.983055798707777,1.0030116128837594,-201.2714322,54.0547644,272.09823140000003
2838.057,-33.217339800000005,-216.4391114,123.74929980000002,-0.848686,0.5519399999999999,0.8244944000000001,33.8858884,29.308574,-122.5228028,15.339476,4.183082,-6.0050462,-1.0103606,-0.0021042,-0.0306027999999999,-163.74168079999998,88.1408982,152.4488006,251.52170842295212,1.3056403432137658,16.995831219373603,1.0108261477909246,-197.6275692,58.8323242,274.9716034
2858.043,-30.0241238,-221.548108,126.5416536,-0.7440784,0.5438968,0.8396768,33.098619,24.2641098,-122.90438840000002,13.623064200000002,3.5058738,-5.682885799999999,-1.0179654,-0.0082574,-0.0338518,-161.3019896,88.0237106,154.60911860000002,256.9003742001163,1.2468093370098894,15.171493674476809,1.018561576251117,-194.4006086,63.7596008,277.513507
2878.03,-29.1498828,-224.85978100000003,126.5833466,-0.6328090000000001,0.507032,0.8230466,32.382511400000006,19.1436668,-123.2360322,11.4262842,3.0219586,-5.6340206,-1.0203746,-0.0150702,-0.0411768,-159.01146839999998,87.9101776,156.6643828,259.682460738259,1.1553936062124284,13.0932957088927,1.0213162899471644,-191.3939798,68.7665108,279.900415
2898.016,-27.1413334,-226.4235506,125.0537094,-0.5139158,0.4762754,0.8053252000000001,31.7440822,14.0066198,-123.5358232,9.2038594,2.6665062,-5.4123024,-1.0241184,-0.0208516,-0.0449021999999999,-156.9523254,87.8010314,158.53290099999998,260.082114878629,1.067471959299091,11.005194248110868,1.0253143391204278,-188.6964076,73.7944116,282.0687242
2918.003,-26.8708264,-226.5131226,121.5959838,-0.4056274,0.4582309999999999,0.7795082,31.1459034,8.9031602,-123.833336,7.696047200000001,1.9335474,-5.2394254,-1.0240178,-0.030048,-0.0503916,-154.944998,87.7023406,160.3806488,258.4875612050054,0.99103091317022,9.508907748781654,1.02569715334079,-186.0909014,78.7991804,284.2139848
2937.989,-27.7098084,-226.50838320000005,117.2714292,-0.3118345999999999,0.437982,0.782862,30.560246,3.8390966,-124.148604,7.052092399999999,1.0868361999999998,-5.0039882,-1.0211104,-0.0328122,-0.055388,-153.0007994,87.6187348,162.1794128,256.5666955161043,0.9497062499137088,8.71510860801559,1.023137781533357,-183.5610454,83.7796382,286.3280168
2957.975,-29.2884836,-225.4103578,110.59921239999998,-0.2061903999999999,0.380399,0.7256058,29.970343,-1.1407688,-124.51478,6.8092478,0.2954759999999998,-4.7502244000000005,-1.012743,-0.0332458,-0.0576174,-151.1040434,87.55065619999999,163.93681339999998,252.7841578473853,0.8448204881788793,8.30769483784378,1.0149253332385588,-181.0743864,88.69142500000001,288.4515934
2977.962,-28.0077864,-221.0622834,104.1521132,-0.0915878,0.3482532,0.6922164000000001,29.4268338,-5.9829932,-124.8991808,6.547428999999999,-0.6548638000000002,-4.3565974,-1.0075834,-0.0331358,-0.0543359999999999,-149.2328092,87.5047058,165.6754578,245.96876209200943,0.7802769770075496,7.891616691925565,1.009591348067722,-178.659643,93.487699,290.5746386
2997.948,-26.2773858,-215.7016846,97.2523864,-0.037219,0.3427216,0.6947842000000001,28.9568814,-10.6770948,-125.3120378,5.6872754,-2.0344696000000004,-3.925501600000001,-1.003947,-0.0278356,-0.0510938,-147.3251188,87.4906098,167.4699492,238.0666805839381,0.7756084280338889,7.2037303420083605,1.0056316302875523,-176.2820002,98.1677046,292.781987
3017.934,-25.1878574,-210.9118836,89.96003420000001,0.0107663999999999,0.302637,0.6797116,28.5507728,-15.2344704,-125.7792116,2.9404538,-4.1041502,-3.0093362,-1.0076962000000005,-0.0176472,-0.0423306,-144.8555754,87.5535324,169.9061126,230.67522311112623,0.7441188939359892,5.8776204180539695,1.008739279922538,-173.4063482,102.7880028,295.6853242
3037.92,-22.317605800000003,-204.9561676,81.8039644,0.0643236,0.2698482,0.6327444,28.2645678,-19.612391,-126.3195742,-1.0566241999999997,-6.1935196,-2.3863916,-1.012068,-0.0159284,-0.0349682,-141.9925566,87.6618834,100.818283,221.8039556849245,0.6908842539033293,6.720937777137976,1.0127971788871648,-170.2571244,107.2742744,227.1378572
3057.907,-17.094732999999998,-196.8955322,74.43999799999999,0.1055776,0.2627984,0.625502,28.1483104,-23.7818064,-126.917383,-5.0986694,-7.861033600000001,-1.6850085999999995,-1.0177804,-0.0158834,-0.0336365999999999,-138.8237762,87.80507800000001,32.1188568,211.1904207081906,0.6866311824176936,9.520059500491543,1.0184599382790076,-166.9720866,111.5868844,159.03623980000003
3077.893,-13.435418800000004,-190.1608672,67.13107160000001,0.1170148,0.2650704,0.6481786,28.1902136,-27.7649496,-127.6050478,-8.740627,-8.9288246,-0.8871792,-1.0218858,-0.0142362,-0.0340249999999999,-135.5155914,87.9728698,-36.3673676,202.10949177797605,0.7099931533987917,12.526354458644654,1.022551200799784,-163.705805,115.7378194,91.2376802
3097.879,-12.2477504,-183.47333680000003,59.2423508,0.1566278,0.2404404,0.6047278,28.3524988,-31.555105000000005,-128.411107,-11.314073,-9.3543826,-0.3213396,-1.0201108,-0.0184918,-0.031707,-132.02836599999998,88.1482604,-104.623706,193.18936004526023,0.669357576918227,14.683868046772956,1.020770946291517,-160.3808648,119.7033654,23.787401000000003
3117.866,-10.9018324,-175.88890380000004,51.9699798,0.2111508,0.2193094,0.5760972000000001,28.6465056,-35.13886660000001,-129.3313766,-12.2628304,-8.415141000000002,-0.1056444,-1.01032,-0.0216968,-0.0302707999999999,-129.1140136,88.2835236,-173.4570832,183.72978863008515,0.6515897920600353,14.872887016591518,1.0110062190030684,-157.76051920000003,123.4223902,-44.12570660000001
3137.852,-8.3013688,-167.2833282,45.478810800000005,0.261701,0.2193306,0.5503284,29.108809200000003,-38.4952844,-130.3636962,-12.095276,-6.9966382,0.3605792,-1.001211,-0.0213612,-0.0301014,-126.6983154,88.4012314,-170.79367080000003,173.55387304639655,0.6476532045345874,13.9777918491208,1.0018911426239878,-155.8071246,126.8965158,-40.429974600000016
3157.839,-9.9860614,-160.17452080000004,39.0028056,0.310973,0.2234852,0.5369238,29.6739966,-41.6536924,-131.5385038,-11.1432064,-5.241324,0.7494086,-0.9946588,-0.0245618,-0.0308087999999999,-125.0157776,88.4954498,-168.88338040000002,165.15694772084402,0.659497542341501,12.337104173821784,0.9954388944551644,-154.68977420000002,130.1491422,-37.34487660000001
3177.825,-12.23408,-152.8118164,32.436110199999995,0.375738,0.216067,0.4787504,30.3440128,-44.61095039999999,-132.8685698,-9.2590888,-3.3643448,0.7860666000000001,-0.9915138,-0.0306224,-0.0228975999999999,-123.9369492,88.559764,-167.6163026,156.69468781621237,0.6458064250479086,9.8826839491713,0.9922507984667788,-154.280962,133.1707144,-34.74773280000001
3197.811,-13.1814108,-144.7562606,27.1950656,0.4496641999999999,0.2183025999999999,0.4353785999999999,31.1398842,-47.376992,-134.33227219999998,-6.5193698,-1.9118728,0.4867516000000001,-0.9930466,-0.0303807999999999,-0.0145144,-123.23214579999998,88.59781939999999,-166.77989200000002,147.87730105246638,0.6628789054317236,6.811341080333184,0.9936172354521432,-154.37203,135.9748114,-32.44761980000002
3217.797,-15.9787624,-135.5539566,23.3214894,0.525691,0.230816,0.3872263999999999,31.9868606,-49.9436218,-135.88057859999998,-0.7367534000000007,1.8044252,-0.550957,-0.9834632,-0.0301748,-0.0212902,-123.806447,88.4687774,-167.6551146,138.47053067560853,0.6925108939171716,2.0254158809132514,0.9841563173222636,-155.7933076,138.41239919999998,-31.77453600000001
3237.784,-20.0812394,-124.4140854,20.7081128,0.6215832,0.2187406,0.3125624,32.7921372,-52.2895158,-137.4342468,3.2882164,6.094755999999999,-2.1966242,-0.975103,-0.0260108,-0.0199004,-125.4142686,88.25164939999999,-169.6492674,127.71431696366751,0.7293204909395868,7.265230599835809,0.9756528318238,-158.20640580000003,140.5411652,-32.2150206
3257.77,-17.532071600000002,-109.8345612,19.7280546,0.7226662,0.2043784,0.211653,33.585777400000005,-54.3715654,-138.8691406,6.3072788,10.6006476,-3.8893584,-0.9691942,-0.0221726,-0.0169391999999999,-127.7704422,87.9423568,-100.4577878,112.96105747949004,0.7802653134786911,12.93377764475506,0.9695957704121032,-161.35621959999995,142.3139222,38.4113528
3277.757,-11.312287,-91.9877716,19.6750478,0.8150995999999999,0.2155141999999999,0.1342436,34.3306276,-56.1449074,-140.062204,8.6296836,14.8300172,-5.1970978,-0.9682314,-0.023929,-0.0232788,-130.73387459999998,87.5474868,-31.924246000000004,94.74611056416204,0.8537300934503597,17.9279300180241,0.9688067627325896,-165.0645022,143.6923942,108.137958
3297.743,-4.8082846,-72.5562004,19.2266938,0.8924038,0.2363356,0.0771888,34.9656808,-57.5735184,-140.9478334,9.450216,19.3445442,-6.5655456,-0.9657846,-0.0331088,-0.0418782,-134.8343628,86.962625,35.4301424,75.21427771213732,0.9263893182281626,22.50831761323109,0.9672589466476078,-169.8000436,144.5361434,176.3779758
3317.729,3.6045006,-51.145741400000006,17.0647174,0.9490036,0.2501564,-0.0018027999999999,35.497249,-58.61069259999999,-141.49787299999997,5.9856898,21.7661852,-8.111136400000001,-0.975026,-0.0503768,-0.047545,-138.2549652,86.4046294,103.8456818,54.03780036116328,0.9814220842032034,23.98720146748945,0.9774835291089258,-173.75221420000003,145.01532200000003,245.34355480000005
3337.716,14.25932,-28.0439642,13.8693652,0.98113,0.2697192,-0.0138102,35.9251358,-59.2311698,-141.6692536,3.9739338,24.5950224,-9.6469062,-0.985746,-0.0588928,-0.0610984,-141.1531068,85.77536620000001,172.82373660000002,34.382429029436715,1.0176223490925698,26.71647573941748,0.9893920117377136,-177.0782426,145.006536,314.4929902
3357.702,20.3940604,-5.211604800000001,8.166480199999999,0.981123,0.2901776,0.0153284,36.2029556,-59.41299660000001,-141.519507,2.5534146,27.1345686,-11.117454,-0.9907412,-0.0698946,-0.077189,-143.4762604,85.07898560000001,170.4058928,22.57808501727335,1.0232498915305683,29.434716283153048,0.996198535537771,-179.67921600000005,144.4919822,311.92539980000004
3377.688,21.705880200000003,15.881034999999995,0.6300404000000001,0.9568876,0.2877348,0.0511314,36.3045372,-59.1647248,-141.13214120000004,0.890939,29.0921918,-12.3755006,-0.9993490000000002,-0.066341,-0.0946548,-145.4019896,84.33454739999999,168.4203978,26.902592046745408,1.0005196720858416,31.627557780048537,1.0060114727203862,-181.7065268,143.4992722,309.552539
3417.661,25.309762,40.9518808,-9.142855,0.9078484,0.254392,0.0836778,36.2182824,-58.0841424,-140.33066100000002,1.0776566,29.1543884,-12.1516688,-0.9983284,-0.0539674,-0.093128,-145.0744628,84.4366302,168.7671934,49.002371280429664,0.9465231012814216,31.603840927179583,1.0041139870021332,-181.2927452,142.5207726,309.0978544
3437.647,30.3709014,64.7147602,-18.780092,0.8366111999999999,0.2495614,0.1668944,36.0771912,-56.50243,-139.3319732,0.0763304000000001,29.579184,-12.497921,-1.013836,-0.0486174,-0.0997396,-145.9962982,83.8852752,167.8499206,73.91267614638568,0.8888492184205148,32.11124385255204,1.019889736337669,-182.0734894,140.3877052,307.18189379999995
3397.674,29.5352194,76.255378,-24.6064416,0.8082649999999999,0.23678,0.185342,35.97325059999999,-55.8260392,-138.86299739999998,-2.7304114,27.9535568,-12.2906842,-1.0228524,-0.0526938,-0.1121566,-146.7186676,83.3636534,167.1909302,85.3972413321603,0.8623854912908726,30.65807238376552,1.030331389247052,-182.6919182,139.1896926,306.0539276
3457.634,28.1776486,92.2914208,-32.9056726,0.7463402,0.2464588,0.2397404,35.771205800000004,-53.9397072,-137.9223816,-5.6248282000000005,24.892327,-11.5076484,-1.0401482000000002,-0.04097,-0.1214398,-147.292859,82.9085174,166.7414704,101.95327127251063,0.8217305480664815,27.994510309210035,1.0480145246547303,-183.0640648,136.84822459999998,304.663852
3477.62,26.6206858,108.5471726,-41.663175,0.717527,0.2223174,0.235128,35.5357306,-51.685269000000005,-136.95602720000002,-7.894210599999999,22.103099,-10.6466452,-1.0417486,-0.0452554,-0.1247444,-147.72247940000003,82.5122956,166.4839996,119.27686172513567,0.7871182874611414,25.77239997391854,1.0501663497572564,-183.25821,134.1975646,303.4400268
3497.606,28.9605044,119.735846,-47.707530000000006,0.673565,0.2165033999999999,0.2802228,35.4366438,-49.488146,-136.1696106,-12.5451684,21.1494954,-10.4236862,-1.0506486000000002,-0.0549926,-0.1456004,-149.6800202,81.38848440000001,164.7346648,132.10371702241778,0.7609785470539888,26.70834401184488,1.0621139972794258,-185.116664,130.8766304,300.9042754
3517.593,31.2735118,126.8041976,-52.035256,0.6193088,0.2444856,0.3300265999999999,35.4304602,-47.127826600000006,-135.4110444,-15.8188748,18.7785482,-8.561714599999998,-1.0440164,-0.050406,-0.1650384,-150.3815246,80.9697252,164.34435720000002,140.5880682571253,0.7431245891991194,26.003338811192137,1.0581817810657677,-185.8119848,128.0975518,299.7554016
3537.579,33.648727,144.9965804,-62.8975158,0.5568479999999999,0.2623048,0.3164456,35.4074028,-43.1841414,-134.0643464,-16.406658800000002,16.874859800000003,-5.5729072,-1.0456152,-0.0398956,-0.1819574,-151.2917144,80.611655,163.7560606,161.5931392424364,0.6921136618839422,24.18670380413763,1.062078763927215,-186.6991172,123.7957964,297.82040700000005
3557.565,40.7062332,157.775714,-71.05420919999999,0.5338128,0.1817318,0.2851134,35.618808,-39.7905356,-133.15600899999998,-17.373522200000004,14.7351866,-2.9754534,-1.0367864,-0.0567318,-0.1927996,-152.28768,80.3082934,163.099478,177.76072118041134,0.6318798963684792,22.974296957824063,1.0560853289939975,-187.906488,120.098829,296.255487
3577.551,55.1037726,167.5374512,-76.72062000000001,0.4133554,0.3018088,0.4708705999999999,36.1530266,-36.1773894,-132.2331178,-19.4192228,12.594726,-0.9357884,-1.0308229999999998,-0.0574916,-0.2066754,-153.38947439999998,80.0564486,162.377423,192.33116451196696,0.6954641330873649,23.16482326936017,1.0529083827022747,-189.542501,116.233838,294.6105408
3597.538,42.83565900000001,172.22968759999998,-87.0963028,0.3220664,0.4387358,0.5042166,36.5518562,-32.370548799999995,-131.439798,-20.7523348,9.59931,0.5793451999999999,-1.022528,-0.045694,-0.2103962,-154.51441640000002,79.87340259999999,161.6600646,197.69604177673148,0.7419233436994419,22.872293129202284,1.0449488089827366,-191.0662726,112.2439514,293.09986260000005
3617.524,29.7082706,179.080008,-96.548755,0.326934,0.3199622,0.3608383999999999,36.7792724,-28.3443182,-130.7423402,-20.757002,6.5525106,2.8988124,-1.0139646,-0.0372484,-0.2118226,-155.7153166,79.765207,160.8663236,205.60615919610217,0.5826371089275039,21.958862459642805,1.0365232593755338,-192.494589,108.1095252,291.6086638
3637.51,44.2432208,188.4543458,-100.2393692,0.2804786,0.3045438,0.4945308,37.3333182,-24.129339,-129.99064040000002,-22.9942832,3.5098672,4.04984,-0.9993516,-0.0405426,-0.2010612,-156.888989,79.7225876,160.14478739999998,217.99182134951167,0.6449619239343048,23.610536454495016,1.020182791946012,-194.2223072,103.8519266,290.1354278
3657.496,37.3216152,189.9356262,-104.6741378,0.09502,0.6117108,0.7433294,37.8142036,-19.844035400000003,-129.27427219999998,-25.649325,1.8223752,4.4144468,-0.9865844,-0.0502221999999999,-0.2013028,-158.0300412,79.7088272,159.50901779999998,220.05708392436807,0.9673455949871276,26.090156474717244,1.0081636102260587,-195.8442448,99.5528626,288.78329
3677.483,-3.4157062,188.055484,-113.3716064,0.073006,0.5582466,0.5684218000000001,37.5772132,-15.4841868,-128.7356446,-28.402005,1.8819302,4.6479368,-0.9698906,-0.0552652,-0.2109746,-159.208444,79.68706660000001,158.8901794,219.6125070414604,0.8000453019440837,28.841270183445303,0.9941087969355064,-196.7856572,95.1712534,287.625824
3697.469,-0.8698541999999998,193.0367064,-111.4683716,0.1120203999999999,0.3216394,0.4297584,37.4153014,-11.064745,-128.1378832,-30.685432799999997,4.1063188,5.767357800000001,-0.9617826,-0.041162,-0.2306954,-160.6216216,79.6245894,158.0790954,222.91057518934528,0.5483545896763152,31.49158707026005,0.989919414643394,-198.036923,90.6893344,286.2169786
3717.456,21.593757,200.1514098,-109.604959,-0.0372862,0.551952,0.7627366,37.7341552,-6.5549674,-127.4208162,-35.2274426,9.6270084,6.2037762,-0.9505772,-0.0452154,-0.231878,-162.28443299999998,79.4507018,157.10442199999997,229.21632625904783,0.9422358473301682,37.04239249845577,0.9794941819332058,-200.0185882,86.0056692,284.52523820000005
3737.442,-12.783780399999998,193.9892424,-115.8021972,-0.2171692,0.764875,0.8238834,37.434571,-2.0678332,-126.8807588,-39.5651206,17.6862834,6.1489212,-0.9487304,-0.0684596,-0.2421854,-164.1160706,79.10731799999999,156.0415284,226.28610227892716,1.1449803857923506,43.7722814178273,0.9815446279662886,-201.5506416,81.17515119999999,282.9222872
3757.428,-32.8001668,191.6168334,-116.6686752,-0.1645122,0.4542956,0.5096057999999999,36.7758566,2.3971542,-126.430855,-43.81649159999999,29.0571978,5.5262264000000005,-0.9444582,-0.062974,-0.2578546,-166.1587678,78.537448,154.84824840000002,226.72547619814205,0.7022441366945259,52.86534647900505,0.9810484243728236,-202.9346244,76.1402938,281.2791034
3777.415,5.297994400000005,199.5709258,-109.0107102,-0.2124182,0.3918898,0.609158,36.9335622,6.8996542000000005,-125.7800172,-47.2456488,42.4088256,4.945047199999999,-0.9483858,-0.0562376,-0.2544852,-168.3362306,77.70584699999999,153.58473519999998,227.46419082492943,0.7548328132767415,63.679771600676965,0.9835451236798646,-205.2697928,70.8061928,279.3647524
3797.401,3.759818000000004,199.110794,-109.8959106,-0.4151686,0.7307821999999999,0.978132,37.1126676,11.4027378,-125.1188232,-51.5948782,55.7305968,2.9317386,-0.9688196,-0.0752472,-0.252823,-170.4068056,76.600334,152.51450519999997,227.45627202894792,1.2896316527159215,76.00346023291135,1.004088157375138,-207.5194732,65.1975962,277.63332840000004
3817.387,-38.7044672,190.1854888,-114.3879394,-0.498111,0.681485,0.8006318,36.449919,15.818009,-124.654573,-49.723754,59.6542892,2.3723378,-0.9953308,-0.075087,-0.256274,-172.2305208,75.41882460000001,151.6531618,225.28461246056924,1.163420668854237,77.69629282306242,1.0305327855403923,-208.6804398,59.6008156,276.3077348
3837.374,-34.205610199999995,188.3979948,-107.9341476,-0.4957254,0.4429704,0.5972838,35.9120634,20.1322312,-124.151213,-43.0038084,54.90795119999999,3.7117972,-1.0171506,-0.049455,-0.2564456,-173.8616792,74.34366739999999,150.8487428,219.8035678326304,0.8937082215263323,69.84259502867444,1.0501454593839463,-209.7737426,54.2114362,274.99995580000007
3857.36,-6.567773799999995,191.3373136,-102.6216736,-0.5982656000000001,0.5044266000000001,0.7228998000000001,36.009673199999995,24.433807,-123.5166686,-33.7410042,44.2827914,5.890224399999999,-1.0312896,-0.0323754,-0.2441605999999999,-175.2806306,73.4934812,150.069922,217.21949986319748,1.0653412804218938,55.98317356208638,1.0602927917257952,-211.2903038,49.0596742,273.5865906
3877.346,-12.718297799999997,185.8402462,-102.4638672,-0.7352406,0.647002,0.9315384,36.04006879999999,28.6397834,-122.9099106,-20.5249744,27.957170400000003,9.7401828,-1.0469106,-0.0266464,-0.2350872,-176.5035126,72.98493020000001,149.21746520000002,212.596322376906,1.3516486668387315,36.02428502930638,1.0733116167400591,-212.5435814,44.3451468,272.12737580000004
3897.332,-22.0387436,175.0992368,-100.0042984,-0.8121406,0.5641464,0.7556762,35.8773888,32.643413800000005,-122.3931428,-6.534588000000001,7.4503562,13.655741,-1.0447632,-0.0102016,-0.2153108,-177.58598940000002,72.8964964,148.22108759999998,202.84552902611696,1.2445400893694667,16.87269717904353,1.0667675273054762,-213.4633782,40.253082600000006,270.61423040000005
3917.319,-3.895096599999995,170.3110166,-91.3053026,-0.8109774,0.3904975999999999,0.6102852,36.1601166,36.467232,-121.7599534,5.232047199999999,-8.4489702,17.722251,-1.0357648000000002,-0.0133534,-0.2063682,-106.6416748,73.1273116,147.0073272,193.2813297649992,1.0874836753972723,20.318405347135805,1.0562077769936369,-142.80179139999998,36.6600796,268.7672806
3937.305,18.39869000000001,169.041986,-85.546863,-0.9098672,0.4719125999999999,0.7326181999999999,37.047697600000006,40.1958334,-120.9341476,16.023657800000002,-19.2208488,20.795517,-1.0231162,-0.0183516,-0.184878,-35.713430800000005,73.56437980000001,145.5542784,190.3469742172989,1.2598766807294437,32.53693539934656,1.0398477844420309,-72.76112839999999,33.3685464,266.488426
3957.291,7.614612200000005,158.4223298,-83.1653764,-1.0164646000000002,0.6378919999999999,0.902132,37.762150000000005,43.7165298,-120.0988724,24.983216,-29.7750446,25.3400272,-1.0199412,-0.003689,-0.1612074,34.9562714,74.2058486,143.6528958,179.08684130881878,1.5013156337496656,46.398613569064594,1.0326090673595696,-2.805878599999994,30.4893188,263.7517682
3977.278,-4.488957599999996,140.5693178,-80.11262980000001,-1.0676264,0.5564944,0.6767622,38.1422678,46.917498,-119.4333602,30.0857668,-39.76830639999999,30.4820156,-1.0184608,-0.0080518,-0.151882,105.1473236,75.01933899999999,141.15826699999997,161.85770695448468,1.3811296907087185,58.44505824196692,1.0297550070496768,67.00505580000001,28.101841,260.5916272
3997.264,9.933969400000006,127.4261552,-73.4836016,-1.054882,0.4374594,0.5531900000000001,38.7768014,49.8310584,-118.8033522,38.45067279999999,-47.6796044,33.8110282,-1.0173504000000002,-0.0175642,-0.13876,174.9866182,75.97234499999999,138.1349638,147.43116523042931,1.2689231405693413,69.96416613134436,1.0269199944989875,136.2098168,26.1412866,256.938316
4017.251,21.369985400000004,113.2690386,-69.64809199999999,-1.1146920000000002,0.5324215999999999,0.6296307999999999,39.579268,52.473241400000006,-118.270587,43.795584000000005,-54.224214200000006,35.051361,-1.0157414,-0.0038491999999999,-0.1256542,172.3726686,77.02134559999999,134.549768,134.67519482297016,1.386522974681343,78.0186932181055,1.0234912730415633,132.7934006,24.5481042,252.820355
4037.237,16.604651200000003,95.354297,-66.5261476,-1.0905354,0.5490528,0.6750556,40.1627336,54.7891168,-117.91306,47.610234000000005,-60.4610788,35.9746526,-1.0207114000000002,0.0081476,-0.1213532,169.105948,78.1528154,130.2342682,117.44736996772151,1.3951438990055327,84.94970312417374,1.027932266555516,128.94321440000002,23.363698600000003,248.1473282
4057.223,19.442849200000005,79.1932724,-60.1883508,-1.0329506,0.5232618,0.6196775999999999,40.7122452,56.77393119999999,-117.6854674,50.5391754,-64.08498399999999,36.1931974,-1.0250012,0.0140739999999999,-0.128369,165.0112062,79.28186819999999,125.03244479999998,101.35204166891954,1.313312674621455,89.28068639088517,1.0331041272003707,124.298961,22.507937000000005,242.7179122
4077.21,22.667417000000004,67.24747160000001,-51.97442480000001,-0.959332,0.5431798,0.5681183999999999,41.3206994,58.473977000000005,-117.4533112,52.1790474,-64.2614564,33.865354,-1.02184,0.040688,-0.1135569999999999,160.1556184,80.3417268,119.0448456,87.96235026041285,1.2402099410061993,89.4374081006704,1.028935222058707,118.834919,21.8677498,236.4981568
4097.196,24.9482186,59.6942856,-44.1423164,-0.9297048000000002,0.5467932,0.5524699999999999,42.0475268,59.955382,-117.1422456,49.488398,-62.9235406,33.943594999999995,-1.0118792,0.0448528,-0.1034759999999999,154.2426972,81.2744874,112.0549026,78.32218997043853,1.2118403028490512,86.95194730292287,1.018144671270483,112.1951704,21.3191054,229.1971482
4117.182,26.052842000000005,50.3514946,-33.706657,-0.9230304,0.6486362000000001,0.6441046,42.8935274,61.1528026,-116.722954,47.822213,-59.3203638,34.9680016,-1.0111312,0.0471036,-0.1005612,147.3704194,82.00285040000001,104.1389876,65.95576025523808,1.2990707351856403,83.83692953275019,1.017210699752927,104.476892,20.8500478,220.8619416
4137.168,19.0894706,34.9527748,-22.5182412,-0.9150372,0.653576,0.6320342,43.5516762,61.972305600000006,-116.375493,43.3220176,-50.7361226,32.808691200000005,-0.9931666,0.0634,-0.10368,140.46449439999998,82.4819458,96.2868376,45.751235401343614,1.2899309652572422,74.34622763579803,1.0005743339480382,96.9128182,20.509640200000003,212.6623306
4157.155,18.3795856,20.5335428,-9.886053600000002,-0.9320506000000002,0.6083578,0.542156,44.1816286,62.4073436,-116.0532014,36.3163832,-39.014196600000005,28.1499064,-0.9891618,0.0587098,-0.0949826,134.4780502,82.7422272,89.5077316,29.27745894932196,1.238043077650047,60.27772768943315,0.9954444241131898,90.2964216,20.334883600000005,205.560933
4177.141,18.333934600000003,7.663350800000001,3.3376544000000004,-0.9687912,0.621114,0.6055612,44.8291146,62.47041879999999,-115.7244262,28.6249312,-26.1554758,22.674032,-0.9878824,0.0362012,-0.0936614,130.0517762,82.826764,84.4591064,20.14944267950797,1.3004012292899758,44.91778409122764,0.992972618434748,85.2226616,20.356345200000003,200.1835326
4197.127,13.170750600000002,-8.896698599999999,16.8135508,-0.9835498,0.6880862,0.7203126,45.295736,62.107635,-115.4937454,22.559570200000003,-8.3960634,16.1405584,-0.9793988,0.0314794,-0.1144084,128.1044404,82.717241,82.0353348,23.13688414309116,1.3998868059344085,28.981816949414306,0.9865608161975418,82.80870440000001,20.609606000000007,197.5290802
4217.114,3.404350000000003,-27.7866438,28.5634374,-0.9849328,0.6588263999999999,0.7178344,45.3798668,61.3105028,-115.4765608,15.957126999999996,14.4947494,7.3258806,-0.9601574,0.0306977999999999,-0.1206332,129.3660524,82.40391079999999,82.98615120000001,39.99446372554953,1.385435336519233,22.76831545873312,0.9681926237282744,83.9861856,21.093408000000004,198.462712
4237.1,-2.168293999999997,-44.4309706,40.0150874,-1.0023774,0.6549596,0.6903083999999999,45.2317658,60.1055642,-115.5991712,8.8149074,40.6777232,-0.0398204000000003,-0.964304,0.0137834,-0.1262108,133.4147966,81.8001144,86.90200200000001,59.833267226168914,1.3821209125013194,41.621885383421166,0.9726260085809962,88.18303080000001,21.6945502,202.5011732
4257.086,-9.553795799999998,-61.4632888,50.537797,-1.004386,0.6475953999999999,0.7001182,44.8055016,58.49341059999999,-115.8754332,0.6177140000000001,71.0823064,-6.981744399999999,-0.9551254,0.0077518,-0.1396918,139.5000994,80.75123740000001,93.0564712,80.14411899767514,1.385040264060363,71.42702995782624,0.965317781414825,94.6945978,22.257826800000004,208.9319044
4277.073,-15.054305799999998,-80.1244062,60.37431779999999,-1.0087510000000002,0.6506082,0.727695,44.1159646,56.457130600000006,-116.3353698,-7.474147799999999,108.3988952,-7.781921200000001,-0.925188,0.008875,-0.1790376,146.4599,79.00768120000001,100.2784958,101.44757681599845,1.4037127993052,108.93457515169294,0.9423937941130344,102.3439354,22.5505506,216.6138656
4297.059,-22.1843446,-99.5385436,69.2224608,-1.0190392,0.646755,0.7390454,43.1523522,54.003277,-116.9649336,-14.122677199999998,146.42956999999998,3.5824698,-0.9025664,0.0234173999999999,-0.241331,152.6585938,76.4240996,106.8742524,123.2550846275649,1.4152459236552497,147.15265227493595,0.934566815478016,109.5062416,22.4208226,223.839186
4317.045,-29.162774199999998,-118.2028534,77.92524560000001,-1.026013,0.63354,0.7413828,41.9917322,51.1502572,-117.6871626,-18.1918492,157.6078796,11.0411398,-0.9000157999999999,0.0569382,-0.2777052,157.35854179999998,73.50351560000001,112.0447846,144.55008077743298,1.4155296054497908,159.0380264509302,0.9436050958827638,115.3668096,22.353258400000005,229.7319472
4337.032,-35.269153,-136.7409912,86.4519928,-1.0274742,0.624533,0.7697786,40.6948764,47.9141144,-118.454695,-20.3887948,147.784034,15.2692836,-0.86592,0.0903187999999999,-0.3240978,160.2668486,70.661354,115.4518922,165.57765213574908,1.4276917709269743,149.96324443131687,0.928985638208837,119.5719722,22.747239600000004,233.9065872
4357.018,-41.2700442,-155.332982,94.1296586,-1.0274880000000002,0.6155511999999999,0.8085366,39.2831468,44.3110184,-119.2484938,-17.662567,121.7328502,21.3976786,-0.8416982000000001,0.1375654,-0.3667584,161.3805998,68.21610100000001,116.97549,186.2577366807479,1.4451180932730032,124.85477059493572,0.9283812918897926,122.097453,23.905082600000004,236.2239838
4377.004,-46.0514562,-172.496219,100.6680298,-1.010453,0.5919298,0.8155444000000001,37.8212708,40.3758658,-120.0255918,-12.7577832,82.6495612,22.1577344,-0.8391926,0.1933168,-0.39447,161.36714780000003,66.48751200000001,117.2399996,204.96276347485696,1.427063005514613,86.51402309725106,0.9472181300825064,123.54587700000002,26.111646200000006,237.2655914
4396.991,-48.9100546,-187.0297242,105.819832,-0.9677442,0.5587704,0.8222862000000001,36.3768998,36.1442598,-120.7505918,-9.316539199999998,35.98518839999999,10.345839000000002,-0.8532564,0.2314032,-0.3737866,161.1546448,65.7167738,117.2288178,220.38636078444435,1.387410462430005,38.58455742214172,0.9598491274417872,124.777745,29.572514,237.9794096
4416.977,-49.5866966,-199.7689362,109.556592,-0.9062772,0.5397952,0.8485518000000001,34.9934296,31.6545348,-121.4201688,-8.641786199999999,8.745315799999995,3.2336666000000003,-0.8415462,0.227439,-0.3950824,160.8596832,65.4993468,117.1138504,233.17185765189285,1.3537936986358448,12.712891757904474,0.9570886104458668,125.8662536,33.844812000000005,238.5340192
4436.963,-49.5097932,-210.4698486,110.9905824,-0.8249442000000002,0.4998446,0.8380528,33.6840422,26.9533382,-122.0453778,-8.232318799999998,-4.5957590000000055,-0.0135601999999991,-0.8461218,0.2256742,-0.4008332,160.51861879999998,65.5497924,116.9399598,243.03844587617172,1.27777543130655,9.428269061176527,0.9630774627220388,126.8345766,38.5964542,238.9853376
4456.95,-45.5525616,-217.217813,111.4317704,-0.7082402,0.463799,0.8093821999999999,32.528294,22.118921800000003,-122.60575980000002,-7.217760599999998,-9.111048000000006,-5.760355,-0.8416952,0.2043744,-0.4116872,160.4061036,65.7189788,116.9886048,248.34583468885293,1.1712443122482514,12.972623229834491,0.9590130633741336,127.8778096,43.600057,239.5943646
4476.936,-43.54152499999999,-220.7557892,109.88132779999998,-0.5771176,0.4417442,0.7845126,31.4781702,17.2370818,-123.1153576,-4.326917599999999,-13.255581800000003,-13.463336199999995,-0.8613508,0.1845796,-0.4169156,160.6507232,66.01999359999999,117.3593308,250.4054493491136,1.0694216577300837,19.382829680103765,0.974583730071542,129.172553,48.7829118,240.4746884
4496.922,-40.1099554,-221.8747192,106.6816496,-0.4557416000000002,0.4254991999999999,0.7637396000000001,30.547215800000004,12.37168,-123.5941754,0.2734750000000012,-18.386890000000005,-18.4078576,-0.8590154,0.1478592,-0.4304336,161.1826506,66.4517044,117.9349,249.4357109630576,0.985925023406628,26.01925698150512,0.9721331619026068,130.63543479999998,54.0800244,241.5290754
4516.909,-36.5382704,-220.4632202,101.8170484,-0.3325978000000001,0.3945326,0.7222107999999999,29.7315584,7.577194200000001,-124.05969360000002,5.454889200000001,-24.452660200000008,-21.371603,-0.8531992,0.1419292,-0.4229026,161.875766,67.01548460000001,118.5732346,245.57236817212387,0.8876179970371488,32.93074280714831,0.9627769117402224,132.14420760000002,59.43829040000001,242.6329282
4536.895,-32.81400419999999,-216.9384278,95.468791,-0.228959,0.3918164,0.7051364,29.0360118,2.905752,-124.5312956,8.246701600000002,-31.87539540000001,-25.071994,-0.8505396,0.1390824,-0.4161576,162.7095002,67.73816059999999,119.302864,239.2766816532173,0.8385461571046163,41.38422165900696,0.957052074443016,133.6734884,64.83240860000001,243.8341596
4556.881,-30.910252799999995,-213.0607576,87.29583419999999,-0.1563308,0.378821,0.6972982,28.4183532,-1.6265814000000005,-125.0533188,9.4352472,-47.8585824,-25.364196,-0.8934615999999999,0.132114,-0.3940054,163.3750366,68.7802872,119.82581480000002,232.3163636636897,0.808807423799312,54.980089466907145,0.9853770825931156,134.95668340000003,70.40686860000001,244.8791336
4576.868,-26.6060906,-209.0102632,79.234664,-0.1110356000000001,0.3719514,0.7144594,27.9325858,-6.0321008,-125.6368822,9.7752136,-61.62595000000001,-20.6942656,-0.9004116,0.0947354,-0.3767184,163.6622742,70.0628312,119.9317596,225.10287905564772,0.8130983843777333,65.73861226898138,0.9806286750479408,135.7296884,76.094932,245.5686418
4596.854,-25.292308,-204.5497652,70.96128159999999,-0.0663948000000001,0.3435002,0.708712,27.5289378,-10.295796800000002,-126.2971788,9.0048936,-71.5602586,-15.540657399999995,-0.8936667999999999,0.0831628,-0.3411272,163.4721254,71.50466779999999,119.5500062,217.9812165615572,0.790362800118452,73.77988040157268,0.9601688222942464,135.94318760000002,81.80046460000001,245.847185
4616.84,-23.195078199999998,-199.8414644,64.007634,-0.0299914,0.3285026,0.7336018,27.2251596,-14.4244258,-127.0201418,6.1785222000000015,-79.7276504,-14.456269400000002,-0.974816,0.067899,-0.2938464,162.957312,73.11912240000001,118.888672,211.11987058663743,0.804353804767504,81.2628826700474,1.0204029668959025,135.7321524,87.5435482,245.9088138
4636.827,-23.7307252,-196.5080416,58.9695724,-0.0207356,0.3498382,0.8039472,26.9758874,-18.4569318,-127.798308,4.663688800000002,-85.92522880000001,-8.979345,-0.9922748,0.0301584,-0.2592708,161.8656128,74.83151419999999,117.657004,206.5332133121065,0.8770107363507245,86.51892032488976,1.0260312644058367,134.88972540000003,93.288446,245.455312
4656.813,-31.7821242,-193.7823488,53.7424942,0.0279119999999999,0.3181714,0.7660788000000001,26.6419774,-22.398775,-128.6468538,4.586017200000002,-76.2009788,-4.887585400000001,-0.9637094000000002,0.0212624,-0.2266224,160.5364534,76.327228,116.1855164,203.59262709623383,0.8299932814977481,76.49515811395541,0.9902250297199522,133.894476,98.726003,244.8323702
4676.799,-35.689442,-190.0058106,49.3387162,0.0981731999999999,0.2407008,0.69985,26.3002136,-26.2386082,-129.5421692,2.4676308000000016,-62.65017,-1.1890107999999997,-0.9658598000000002,0.053157,-0.1766062,158.9120486,77.5346026,114.4668244,199.52506922263825,0.7465687341557239,62.71002112482921,0.983311023930618,132.611835,103.7732108,244.0089936
4696.786,-35.44197039999999,-186.0509706,46.005819,0.1727659999999999,0.2364948,0.6934368,26.0268726,-29.9774902,-130.4694,-3.011758999999998,-55.7895522,-2.2821902,-1.0212794,0.0477,-0.1414768,157.1594698,78.6121326,112.7380538,194.9041618562757,0.7527499430602966,55.917378506682354,1.0321349658850825,131.1325972,108.5896228,243.2074538
4716.772,-40.408559,-183.9154328,40.311960600000006,0.2480183999999999,0.210803,0.6340452,25.766531,-33.6309216,-131.51077279999998,-5.271915999999997,-41.7260744,-0.8747271999999997,-0.946324,0.0388362,-0.1301472,155.5945316,79.4068652,111.2479812,192.56892851621663,0.7127161757604494,42.06689352471622,0.9560207409226432,129.82800060000002,113.0377868,242.758754
4736.758,-42.2359714,-179.37423700000002,33.4888554,0.3563407999999999,0.1412222,0.5099005999999999,25.6001438,-37.1522172,-132.6819946,-3.791673599999997,-23.848025600000007,-1.6893425999999998,-0.9722596,0.0572598,-0.1179619999999999,154.6771182,79.8712892,110.3915266,187.2978847062505,0.6379036740745736,24.20658984919948,0.9810618981145888,129.07697439999998,117.0235064,243.0735212
4756.744,-36.4151956,-172.1544586,27.074401,0.4499163999999999,0.134204,0.4620965999999999,25.6878092,-40.4893006,-133.976239,-3.249888399999997,-9.123926600000006,-4.339693,-1.0173104,0.0534542,-0.1010783999999999,154.651459,80.0944092,110.4307356,178.03439913666733,0.6587630441490474,10.613234499854002,1.0237160956009044,128.9636498,120.5837098,244.4069746
4776.731,-32.800973199999994,-164.804776,19.5430256,0.5242845999999999,0.1511488,0.4224135999999999,26.0200656,-43.624573600000005,-135.4458772,-4.060301799999998,1.460157999999994,-8.276855399999999,-1.0021876,0.0356144,-0.1013342,155.48001119999998,80.1565078,111.3537244,169.16987877538824,0.6900388039839208,9.334047750282636,1.007927076315921,129.45994560000003,123.7810814,246.7996016
4796.717,-26.3261062,-155.83662099999998,12.1181336,0.5906007999999998,0.137395,0.31754,26.663504,-46.5294098,-137.0960756,-1.4411683999999978,18.013414999999995,-10.6225838,-0.9673794,0.0573694,-0.1060001999999999,157.2403964,79.9298506,113.1730696,158.50856593351276,0.6844839973188853,20.961855187635607,0.9748590636603632,130.5768924,126.4592604,250.2691452
4816.703,-16.401288599999994,-142.3787292,7.070263999999999,0.6649579999999998,0.1527986,0.2333094,27.624525,-49.1349608,-138.8334808,-2.334052599999997,29.14441039999999,-14.6558304,-1.0168558,0.0688534,-0.1098918,159.6942324,79.51196420000001,115.7191008,143.49457630648317,0.7210754676553071,32.70531797455512,1.0250915648821035,132.0697074,128.64692499999998,254.5525816
4836.69,-5.917629199999998,-126.3554108,3.2787552,0.7382629999999999,0.1743428,0.1771059999999999,28.8558174,-51.396823000000005,-140.589624,-5.979991199999998,31.159480599999995,-18.6777016,-1.011641,0.0751728,-0.1093594,162.395041,79.0701994,118.5945068,126.53639164069352,0.7789699636807826,36.817523858517376,1.020307767837333,133.5392236,130.4670224,259.1841308
4856.676,7.384644200000002,-108.5142562,0.9904974,0.7780565999999999,0.2079656,0.1392222,30.3281658,-53.3028854,-142.2703308,-7.450724199999999,30.114715599999997,-18.5833934,-0.9722562,0.072533,-0.1410176,164.8281708,78.61244500000001,121.230069,108.76974695980148,0.8173154743180626,36.16285244601858,0.9851036077678328,134.50000500000002,131.91533040000002,263.5003998
4876.663,16.355884000000003,-87.2595512,0.9841636,0.8147511999999999,0.277742,0.0869272,31.8176852,-54.820472,-143.7171844,-5.171862199999998,32.4313428,-19.6758752,-0.9945267999999998,0.0747308,-0.1696988,167.252063,78.0882416,123.81341859999998,88.78464278825727,0.8651684660025929,38.28420326078206,1.01166493025523,135.4343778,132.9087136,267.53060300000004
4896.649,19.8710302,-63.82263959999999,2.0857626,0.8535737999999998,0.2967462,0.0770186,33.0975358,-55.9337876,-144.8006896,-5.026907999999998,30.181967999999998,-20.7745832,-1.0316610000000002,0.0586696,-0.177148,169.5693846,77.598175,126.2884994,66.87703322026447,0.9069610818589956,36.98383840986776,1.048402572864623,136.4718488,133.5319626,271.08918900000003
4916.635,26.451595200000003,-38.4373196,2.0506846000000003,0.8724413999999999,0.2945588,0.067891,34.16552900000001,-56.6084336,-145.456839,-3.0448517999999978,23.683032399999995,-17.9788444,-0.9952841999999998,0.0551406,-0.176644,171.4097624,77.2041184,128.2386336,46.704600779643584,0.9233244667896544,29.889730545838383,1.012340963941497,137.2442334,133.812552,273.6954726
4936.622,35.437814200000005,-11.4995792,1.6299400000000002,0.8563789999999999,0.293491,0.0687464,35.0047682,-56.8244912,-145.61609800000002,2.3863122000000017,23.3154726,-15.3396868,-0.973695,0.0428514,-0.1928278,173.0454772,76.7912874,129.8693952,37.29256898437536,0.9078810639257544,28.01092179131765,0.9935294439319852,138.04070900000002,133.6157786,275.4854932
4956.608,41.2371124,15.942883,0.4496146000000003,0.8331861999999999,0.2801438,0.0990342,35.5361,-56.5780976,-145.261331,4.8215264000000015,20.59857759999999,-15.6836592,-0.9958203999999998,0.0361506,-0.1860926,174.6352446,76.4348038,131.40571559999998,44.21399225053598,0.8845832721222574,26.33487577094039,1.0137038969596988,139.0991446,133.01290139999998,276.66704660000005
4976.594,47.516546600000005,43.190042600000005,-2.5774851999999995,0.8046407999999999,0.2506616,0.1415754,35.8196846,-55.8596534,-144.4474942,7.666077400000002,10.258050999999996,-16.693261200000002,-1.0361106,-0.0020783999999999,-0.1865058,176.2598662,76.2810562,132.91967140000003,64.26387329235615,0.8545885844219778,21.039518115033367,1.0527648876233286,140.44018160000002,132.1407096,277.3671656
4996.58,51.93627160000001,71.1261992,-7.804103,0.7710134,0.2412033999999999,0.1514236,35.8784524,-54.6264144,-143.238989,10.3617704,-0.9060752000000056,-16.306972,-1.0061902,-0.0239923999999999,-0.189072,105.8683654,76.3297456,134.362158,88.41502442448149,0.8219305626317104,19.341783627658412,1.0240813322279632,69.98991300000002,130.95616,277.601147
5016.567,56.243933000000006,97.83108,-13.096546,0.7245465999999998,0.2255719999999999,0.19419,35.7735704,-52.898056,-141.6974118,19.9526632,-6.005718400000006,-16.058145599999996,-0.996618,-0.0116155999999999,-0.2019979999999999,35.64844659999999,76.4658478,135.78388660000002,113.60378396164894,0.7833008737742859,26.306680945788887,1.0169491393827716,-0.1251238,129.3639038,277.4812984
5036.553,57.5968604,120.5895372,-19.9617008,0.6767761999999999,0.2434923999999999,0.249006,35.585878,-50.7214896,-139.9775908,24.532217,-14.988505400000008,-13.7179926,-0.999151,-0.0797088,-0.2231551999999999,-33.773938,77.3682372,137.3516052,135.12107277873423,0.7611297929921019,31.85385825978657,1.026866328635563,-69.359816,128.0897268,277.329196
5056.54,53.991867,139.3656282,-28.558378999999995,0.6345335999999999,0.2605174,0.2731812,35.3425658,-48.137873,-138.2234954,37.4586232,-23.53905500000001,-11.5560638,-1.0061164,-0.1122495999999999,-0.2276164,-102.91263720000002,78.4250336,138.94022220000002,152.16267951384785,0.7383293122077437,45.72502786092397,1.0376316343472185,-138.255203,126.56290660000002,277.16371760000004
5076.526,51.307196,154.88635259999998,-37.3168534,0.6068945999999998,0.2445255999999999,0.2864314,35.1186644,-45.1890442,-136.50467840000002,47.341447200000005,-25.979106200000007,-8.4066942,-0.9781764,-0.0954782,-0.2145877999999999,-171.9368774,79.51542959999999,140.44024960000002,167.37609784790368,0.7142525964044372,54.651615614852425,1.0059786678160925,-207.0555418,124.7044738,276.944928
5096.512,55.73098600000001,167.51895459999997,-45.9004564,0.5697873999999998,0.2206933999999999,0.2933139999999999,35.1104308,-41.9323548,-134.8762726,53.2718264,-16.216185000000007,-5.319332999999999,-0.9357944,-0.0745367999999999,-0.2499817999999999,-169.1688476,80.40053700000001,141.60349420000003,182.41544575100363,0.6777878433538919,55.93878303566185,0.9714719728107652,-204.2792784,122.3328918,276.4797668
5116.498,62.428704800000006,177.0185456,-54.229744800000006,0.4929899999999998,0.2769511999999999,0.391525,35.381082,-38.4242738,-133.3576936,50.1816118,-6.220256600000004,-3.6788306,-0.9418412,-0.0832311999999999,-0.2912074,-166.8012512,81.0910706,142.418695,195.38109911252408,0.68777389664514,50.69930521811161,0.989340198559444,-202.1823332,119.5153444,275.7763886
5136.485,56.66332179999999,183.8979522,-62.8027756,0.4466079999999999,0.3544542,0.4632509999999999,35.678382000000006,-34.7062208,-131.9578614,47.1595342,7.273164199999995,-5.1111348,-0.9686394,-0.0042337999999999,-0.2972713999999999,-165.5023102,80.92000440000001,142.7770538,202.41881702012736,0.7346413918114333,47.99004357556787,1.0132376313347031,-201.1806922,115.6262252,274.7349152
5156.471,46.1707104,191.990747,-71.17501759999999,0.4540605999999998,0.3022321999999999,0.36935,35.8771614,-30.7579316,-130.6421814,30.587744000000004,21.210715599999997,-7.018420399999999,-0.9556328,0.0394814,-0.3128118,-164.82007140000002,80.4601716,142.847464,209.9001299733256,0.6587372417657892,37.87826242298814,1.0063021671451573,-200.6972328,111.2181032,273.48964540000003
5176.458,57.25722939999999,200.9726868,-74.681749,0.3828741999999999,0.3119008,0.4650655999999999,36.378824,-26.630523400000005,-129.3061386,11.993856200000002,35.2023224,-8.2743658,-0.9412348,0.0605628,-0.3163026,-164.85768420000002,79.72588820000001,142.5655822,221.91389048879776,0.6783515123957784,38.09883486790679,0.9948055771062202,-201.2365082,106.3564116,271.8717208
5196.444,51.4021344,202.984851,-78.9479416,0.2582621999999999,0.5367782,0.6642474,36.8708208,-22.431209000000003,-128.0239212,-1.6762853999999976,39.4748176,-10.0864212,-0.9998174,0.0183314,-0.275147,-165.0941282,78.90363479999999,142.3594116,223.78071105268407,0.8922190360840997,40.77753118960651,1.0371483718242631,-201.964949,101.3348438,270.3833328
5216.43,19.4967588,199.2996246,-85.85636299999999,0.2248223999999999,0.5175382,0.5653998,36.86437479999999,-18.2134654,-126.9263732,-9.641812399999996,36.21369119999999,-12.3176478,-1.0296204000000002,-0.0448437999999999,-0.217332,-165.1515348,78.1358246,142.4979096,217.8801942283742,0.7987914833303119,39.44769225202655,1.0532627083109891,-202.0159096,96.34929,269.4242828
5236.417,19.2676014,199.86951900000005,-87.8183518,0.1940631999999999,0.415668,0.4865462000000001,36.942782,-13.9621326,-125.8833724,-12.338837799999997,30.001228399999995,-12.644348,-1.0072506,-0.0660771999999999,-0.1965046,-165.09233060000005,77.4838272,142.8124908,219.16005110847465,0.66870592681139,34.8166649768294,1.0283647336336268,-202.0351126,91.4459598,268.6958632
5256.403,28.327752000000004,196.4164306,-89.4540268,-0.0056196000000001,0.6379504,0.7427374,37.281685800000005,-9.750176800000002,-124.9081406,-8.525403599999997,24.487664599999995,-9.7938222,-0.9912296000000002,-0.0666189999999999,-0.1978496,-165.05822419999998,76.95764919999999,143.023941,217.6784294636316,0.9791175302909656,27.717272185231337,1.012975160256815,-202.33991,86.707826,267.9320816
5276.389,-2.022889799999997,184.4524138,-98.184172,-0.1133456000000001,0.7260044,0.7419126,37.1203736,-5.626528,-124.2258422,-3.759886399999997,17.551505799999994,-7.4131918,-0.9836808,-0.0928191999999999,-0.2202982,-164.9187102,76.5671768,143.24389960000002,208.96630510949595,1.0442049223679613,19.420286152678734,1.012311521766161,-202.0390838,82.1937048,267.4697418
5296.376,-10.419497799999998,175.7265472,-103.172467,-0.1164382000000001,0.5317955999999999,0.5962848000000001,36.8602318,-1.5778351999999998,-123.7581268,0.7676998000000024,11.508088999999996,-3.9604458,-0.9701206,-0.0673291999999999,-0.2526236,-164.869107,76.3043166,143.280185,204.0415234017432,0.8074156162161096,12.194695828497672,1.0047317467831698,-201.7293388,77.8821518,267.0383118
5316.362,12.8962104,176.1674286,-104.2830046,-0.1962848000000001,0.6015255999999999,0.739355,37.0998436,2.4992848,-123.3043702,1.4952960000000024,8.051179799999995,-0.5671641999999999,-0.9683394,-0.0280909999999999,-0.2904386,-165.0519866,76.12086640000001,143.0652862,205.12488925194032,0.9731426340426156,8.208476200203396,1.0113480500022334,-202.1518302,73.6215816,266.3696564
5336.348,-2.729945399999997,166.86286639999997,-107.42295680000002,-0.3231822000000001,0.8077396,0.9850926,37.0556016,6.465957,-123.0013902,-2.417565799999997,4.547892599999995,1.8431612,-0.990966,-0.0363223999999999,-0.2964973999999999,-165.41062019999998,76.018538,142.74914859999998,198.47004920835255,1.314266877913219,5.470392555169124,1.0350090038760629,-202.4662218,69.552581,265.7505388
5356.334,-24.9375924,155.6102754,-110.6853058,-0.2634768000000001,0.6297658,0.8313202000000001,36.556459,10.288879,-122.9100952,-7.350817999999997,-1.0348750000000055,2.3982886,-1.009057,-0.0704785999999999,-0.284819,-165.734488,76.02897959999999,142.5671052,192.58161450359663,1.0756943162050825,7.801107597235083,1.05084971573863,-202.290947,65.7401006,265.4772004
5376.321,-6.6492812,156.93725899999998,-107.5527374,-0.2371772000000001,0.4853346,0.6036134000000001,36.4456092,14.0972368,-122.7732698,-9.8062722,-6.806653800000007,2.9849914,-1.0128322,-0.0697707999999999,-0.2680682,-166.026825,76.1634478,142.4678376,190.3709734312012,0.8100319961683984,12.30462043590217,1.0500274233279434,-202.4724342,62.066211,265.24110740000003
5396.307,10.586847,164.9734864,-103.305545,-0.3310212000000001,0.5739470000000001,0.7644878,36.759755600000005,17.9817372,-122.444858,-11.517700999999995,-11.375337200000006,2.9606934000000003,-0.9944402,-0.0729372,-0.2696504,-166.2527344,76.3805026,142.47196359999998,194.93683123545287,1.0116480563947523,16.456653309464485,1.0329290802083364,-203.01249,58.3987654,264.9168216
5416.293,-10.1606522,158.42738960000003,-103.120102,-0.4075662000000001,0.7433346000000001,0.9096408,36.6556396,21.747004,-122.1825868,-13.483093999999998,-13.977189400000006,3.1877936,-0.9731132,-0.0715557999999999,-0.2651636,-166.490854,76.6459764,142.5043062,189.30460127817804,1.243423869790282,19.680388089987183,1.0111287095582049,-203.1464936,54.898972400000005,264.686893
5436.28,-17.704197,152.4804382,-106.1500534,-0.4346152000000001,0.5380704,0.6132194,36.3315254,25.4508234,-122.0752884,-15.720980199999996,-13.064115800000009,2.890423,-0.9563732,-0.0826673999999999,-0.2493469999999999,-166.7323852,76.8941238,142.5771028,186.63214209214252,0.9243636513643102,20.644003613725967,0.9917951013742708,-203.0639106,51.4433004,264.6523912
5456.266,10.238719800000002,157.0537964,-103.6862426,-0.5221784000000002,0.4518508,0.469786,36.6062112,29.203172,-121.8690172,-18.722097,-10.596473800000007,2.6221754,-0.9570246,-0.0621143999999999,-0.2359979999999999,-167.10101020000002,77.10014040000002,142.5828858,188.4716510547452,0.8351875913129937,21.67205520710624,0.9876483886973746,-203.7072214,47.8969684,264.451903
5476.253,22.4026586,158.26866460000002,-104.70205839999998,-0.6794648000000001,0.5924853999999999,0.7945436,37.1691462,32.983594800000006,-121.6126664,-23.0679284,-6.219374200000007,2.0931698,-0.9412988,-0.0561465999999999,-0.232748,-167.60567020000002,77.2166548,142.53826299999997,191.08472032010425,1.201670044543493,23.98314608050379,0.9712710760014424,-204.7748164,44.23306,264.1509294
5496.239,2.4591000000000003,146.4801728,-110.6574936,-0.8064248,0.6886066000000001,0.7861326000000001,37.236024,36.6481728,-121.5889314,-31.0434518,0.8538691999999941,1.866576,-0.9469262,-0.0393923999999999,-0.21561,-168.4011628,77.2045012,142.3595428,183.5962120692088,1.3200395722861344,31.11123749119292,0.9719612448674072,-205.6371868,40.5563284,263.9484742
5516.225,7.737490199999999,139.5376404,-111.206758,-0.8952484,0.388822,0.4438566,37.3288362,40.214598,-121.6905046,-39.87427339999999,7.133155599999995,2.112709,-0.977177,-0.0339219999999999,-0.1922634,-169.4825928,77.08505099999999,142.06751400000002,178.5988938035882,1.072222424103376,40.562336314744485,0.9964892404800766,-206.811429,36.870453,263.7580186
5536.211,37.79647,139.12549900000002,-105.2525558,-0.9840116,0.3907612,0.4345464,38.0913498,43.7034376,-121.6449296,-46.173885,10.489410399999992,3.6229928,-1.0129368,-0.0216619999999999,-0.1742756,-170.87121280000002,76.9170626,141.5896362,178.50091909817166,1.14446656487333,47.48875091389228,1.0280477555997094,-208.9625626,33.21362499999999,263.23456580000004
5556.198,39.9653178,133.85960240000003,-103.4724442,-1.0579842000000002,0.5004337999999999,0.5996576000000001,38.926851600000006,47.0873052,-121.5678024,-31.811656199999994,3.706705399999996,11.1407072,-1.029056,-0.0163309999999999,-0.1609413999999999,-101.9430114,77.0847138,139.13598940000003,173.84523718026676,1.3150489697611418,33.90923903636764,1.0416933747178003,-140.86986299999998,29.9974086,260.7037918
5576.184,30.4347712,122.9259506,-99.5639604,-1.1038286,0.5346842,0.5869128,39.5830252,50.24921859999999,-121.4972824,-17.1004488,-7.368844600000004,19.1534042,-1.0623182,-0.0031457999999999,-0.1365799999999999,-33.6061248,77.47287299999999,135.7803604,161.0901823186092,1.3597026905582852,26.712882891012494,1.0710667348530996,-73.18915,27.2236544,257.2776428
5596.17,38.5911938,112.8853926,-94.6631364,-1.0671082,0.3851282,0.3688635999999999,40.3531926,53.1971564,-121.4757338,2.146811600000004,-22.681146800000004,28.1054222,-1.076494,0.0163424,-0.0841258,34.003415,78.133168,131.294902,152.29412823365942,1.1929392257560485,36.17952428168864,1.079899789933955,-6.349777599999999,24.9360116,252.7706358
5616.157,59.742926800000006,106.7957426,-90.39529439999998,-1.0520892000000002,0.4213964,0.3683964,41.555283200000005,56.001561,-121.4115142,22.466334600000003,-39.26872540000001,38.375623,-1.0759292,0.0385346,-0.0567905999999999,100.40183419999998,79.04430520000001,125.172139,152.1376258187904,1.1917141092655403,59.325015175201536,1.0781158245096674,58.846551,23.042744200000005,246.5836532
5636.143,64.864512,99.0902098,-88.843059,-1.0682818,0.5216904,0.4954911999999999,42.8230246,58.670585800000005,-121.3947952,37.1975232,-54.2338386,46.413504,-1.0639904000000002,0.059223,-0.0540296,165.3641296,80.13436700000001,117.3024186,148.0518953870015,1.2879823007094624,80.49334342082831,1.067006154010988,122.541105,21.463781200000003,238.6972138
5656.129,60.5945062,84.2259732,-85.06402299999999,-1.0948706,0.5739650000000001,0.5403857999999999,43.8440002,61.068114,-121.5563812,31.7864944,-60.516475,46.38862160000001,-1.060302,0.0729088,-0.0325704,158.1188048,81.01876960000001,109.3179962,134.17002926158094,1.3491457537312268,82.61070866791329,1.0633046860037814,114.2748046,19.9506556,230.8743774
5676.116,61.8178622,68.620307,-79.8846666,-1.0874006,0.5001526,0.3628132,44.7076104,63.16643939999999,-121.92622219999998,26.762505000000004,-63.9090624,46.4615266,-1.0523262,0.0772646,-0.0282225999999999,149.2719572,81.78053580000001,99.8268082,122.11369529068226,1.2506902519254557,83.42225952780605,1.0555362451239465,104.5643468,18.6140964,221.7530304
5696.102,69.0434238,58.3204506,-70.87067420000001,-1.1074056000000003,0.5399482000000001,0.4187597999999999,45.7175828,64.9940044,-122.28237,20.6104942,-64.1030298,45.4094056,-1.0337822,0.0696036,-0.053907,139.2434644,82.33717200000001,89.27468280000001,114.85173829671014,1.3012497806688157,81.21579290786511,1.0375241022833157,93.5258816,17.3431676,211.5570528
5716.088,62.09740939999999,47.361720000000005,-60.1390138,-1.1189392,0.6208888,0.540256,46.6183976,66.5167972,-122.606459,12.942627600000003,-59.7646342,40.4795862,-1.0117484,0.0690378,-0.0792288,129.28617680000002,82.65174579999999,78.95453499999999,98.56937534744856,1.3890300143618497,73.33430308645008,1.0171913514579445,82.66777920000001,16.1349486,201.560994
5736.075,49.7402114,32.4157414,-47.10086,-1.1121484,0.6127990000000001,0.524973,47.210042,67.645946,-122.9947494,6.877028600000003,-54.25227920000001,35.6475172,-0.995158,0.073206,-0.0818092,119.9662474,82.761806,69.4027154,75.78495849024372,1.374042695389252,65.27900737054958,1.0011949403610867,72.7562054,15.115860000000003,192.3974648
5756.061,41.7920924,18.7129228,-32.300800800000005,-1.1086568,0.6007832000000001,0.4858989999999999,47.6406174,68.3734178,-123.3824996,-1.8950877999999969,-43.1614312,30.085159999999995,-0.971199,0.06159,-0.108312,112.1922118,82.6976518,61.5880868,56.03654342667987,1.3513542066347668,52.6461523117088,0.9791589835389348,64.5515944,14.324234000000004,184.9705864
5776.047,30.4795792,5.803368000000001,-17.088605,-1.0776418,0.6212880000000001,0.5276112,47.87332,68.704982,-123.737561,-9.844359199999996,-28.92163660000001,22.8847226,-0.952482,0.0612134,-0.1339074,106.7625884,82.5333634,56.3003328,35.42180471402497,1.3511788210361646,38.17175657682046,0.9637947045083408,58.889268400000006,13.828381400000003,180.03789379999998
5796.034,14.9857002,-8.7759824,-1.6024334000000011,-1.0572504000000005,0.5949338,0.5591674,47.78748399999999,68.6109726,-124.0987548,-18.2999618,-10.743150000000004,13.093665600000003,-0.942164,0.0528888,-0.1550072,104.372731,82.3782914,54.253595,17.440093760379426,1.3358116693251936,24.934874225641934,0.9562936056009576,56.585247,13.767318800000002,178.3523498
5816.02,1.0864683999999998,-25.1001596,13.887730199999998,-1.040154,0.5730526,0.5661682000000001,47.3625954,68.0667144,-124.5182432,-23.7328192,9.609862199999997,3.744726200000001,-0.936682,0.0335158,-0.1670684,105.1990142,82.25613860000001,55.5669952,28.70657547736516,1.3156200275056626,25.8770000772084,0.9520547926732998,57.8364188,14.1894242,180.08523839999998
5836.006,-12.5631352,-40.566823,28.478552200000003,-1.0244452000000002,0.5530666,0.566993,46.6420372,67.0952102,-124.9734526,-27.4874938,35.06311839999999,-6.0114236,-0.9158954,0.0246962,-0.1809692,109.6868728,82.08179779999999,60.6591772,51.132449870653886,1.2949330847142644,44.95688824903358,0.933929407066851,63.0448356,14.986587599999998,185.6326298
5855.993,-26.2033738,-55.47264680000001,41.8527378,-1.0056038000000005,0.5275483999999999,0.578084,45.6531976,65.717685,-125.4348922,-29.8584616,66.3434542,-13.9128246,-0.8991239999999999,0.021387,-0.1884543999999999,117.5891494,81.61568159999999,69.2598028,74.26629789383355,1.2742556368221412,74.07123822818501,0.9189104591984792,71.9359518,15.8979966,194.694695
5875.979,-37.5514778,-70.5715234,53.9843058,-1.0091856,0.5152648,0.612523,44.4369226,63.951172,-125.91271499999998,-36.624927,103.9533118,-20.3508314,-0.8935476000000001,0.0182846,-0.1857193999999999,127.8121262,80.58487099999999,80.36579420000001,96.46117702303115,1.2880752365042192,112.07958177391,0.9128271115601684,83.37520359999999,16.633698999999996,206.2785092
5895.967,-48.5663994,-86.3405496,65.13798240000001,-1.0173960000000002,0.518233,0.6533708,42.9957056,61.792128000000005,-126.4141494,-45.11877079999999,159.97960819999997,-12.0037746,-0.916418,0.0060656,-0.2091056,138.3449692,78.3548858,91.991249,118.55944672211106,1.315505022946564,166.65314015336176,0.9399914330347484,95.3492636,16.562757799999996,218.4053984
5915.952,-58.35903019999999,-101.7911912,75.2490808,-1.0256198,0.508204,0.6646208,41.3872712,59.2560348,-126.9070892,-51.12196,188.6723222,-8.4080168,-0.8886403999999999,0.0521758,-0.2330076,147.68102119999998,75.3818344,102.5725128,139.3902692910965,1.3235890931707923,195.6563178256488,0.9201611903767511,106.29375,16.125799599999997,229.47960200000003
5935.938,-65.1446192,-115.81338660000002,83.920665,-1.0269662,0.4878829999999999,0.660093,39.7196146,56.392832,-127.3233246,-52.1873124,191.003798,-6.5326718,-0.8903793999999999,0.0853176,-0.2544736,154.804715,72.1436386,110.973793,157.15991836507263,1.3146909014214865,198.11270082154377,0.929952354645699,115.08510040000002,15.7508066,238.2971176
5955.924,-66.9160242,-129.45605340000003,91.0460678,-1.0360786000000002,0.4902506,0.6941879999999999,38.0829638,53.22511340000001,-127.6746902,-49.881764,173.76056839999998,-4.0124976000000006,-0.8879436,0.1344108,-0.2923906,159.1539216,69.023503,116.5437256,171.83134323656105,1.3400378709284004,180.82318890958865,0.9444587671814796,121.0709578,15.798389599999997,244.2184158
5975.911,-67.2335062,-143.7222994,95.8508682,-1.0233458,0.4913534,0.7156396,36.4634722,49.7683286,-128.0132278,-40.648371,139.60082440000002,-2.6531538,-0.8740154,0.1887608,-0.3317688,161.337619,66.4328002,119.7382216,185.37484358850435,1.3419406943517884,145.4225548640916,0.953731668608755,124.87414680000002,16.664471600000002,247.7514494
5995.897,-64.5557778,-156.2906404,99.0988908,-0.9883904,0.4765582,0.7127222,34.930684,46.08010839999999,-128.3269728,-28.7503516,77.2680872,-12.3936278,-0.8656026000000001,0.2579044,-0.348614,162.43734439999997,65.05422659999999,121.5761686,195.99694610323755,1.3084327400261124,83.36991079949263,0.9681499169354508,127.50666040000002,18.9741182,249.9031414
6015.883,-60.33909980000001,-166.926343,101.3041474,-0.9516162,0.4837168,0.7463326,33.524087599999994,42.2046568,-128.60343319999998,-18.9099796,33.41137139999999,-16.444679799999996,-0.8908352,0.260006,-0.3700922,163.09051519999997,64.5172058,122.7331984,204.3715763810343,1.3025235830983792,41.765231485359706,0.9990789308637632,129.5664276,22.312549,251.3366316
6035.87,-57.32556519999999,-176.67637960000002,102.2336534,-0.907664,0.4753498,0.7921794,32.1947078,38.155772,-128.8677764,-10.550753799999995,7.84396799999999,-16.300782799999997,-0.8933638,0.2604336,-0.4007277999999999,163.5441072,64.4530974,123.489798,212.0200071256816,1.2951291715656783,20.941866192534366,1.0131669698782328,131.34939939999998,26.2973254,252.3575744
6055.856,-54.465097,-184.8757386,102.1754548,-0.8591744,0.463468,0.8033988000000001,30.9497092,33.9644288,-129.1124848,-1.1423777999999978,-8.94113980000001,-14.628384399999998,-0.8850614,0.2437798,-0.4144219999999999,163.9133088,64.688658,123.9443574,218.1405718285844,1.264291449184404,17.182509657068156,1.0072278127325516,132.9635996,30.724229200000003,253.05684220000003
6075.842,-50.4211914,-191.2726684,101.5318222,-0.801515,0.437467,0.8025752,29.8203478,29.6639634,-129.3285492,7.359015400000002,-23.37002040000001,-11.587914199999997,-0.8933934000000001,0.2122706,-0.4293763999999999,164.1688996,65.176802,124.0839464,222.3426210565671,1.2157016998297896,27.10337094644161,1.013693576809521,134.3485518,35.512838599999995,253.4124956
6095.829,-44.200087,-197.2014678,100.0871306,-0.7526268,0.4365756,0.8342868000000001,28.8402618,25.2619688,-129.53614199999998,17.0278904,-37.52458040000001,-8.641178599999998,-0.8851243999999999,0.1748904,-0.435179,164.34286500000002,65.91552879999999,123.9185244,225.52050972145184,1.2054376048754412,42.10360024116198,1.0017048554981252,135.5026032,40.653560000000006,253.4546664
6115.815,-38.604361,-202.6345518,96.9485214,-0.6721642,0.399857,0.8270126000000001,27.978484400000003,20.782080200000003,-129.775003,26.3275858,-50.69178140000001,-4.130484199999999,-0.8850874000000001,0.1287144,-0.431732,164.3730072,66.8873518,123.3875582,227.9255888948221,1.138261908687715,57.27005653295794,0.9931463246823804,136.3945228,46.1052716,253.1625612
6135.801,-30.1915574,-206.1815916,93.5523864,-0.5783038,0.3937462,0.8291696,27.297051,16.2677538,-130.040631,32.4565292,-60.535468000000016,0.6119528000000013,-0.8581094,0.1066076,-0.4300244,164.1520904,68.0220092,122.4545,228.417223199306,1.08489334990728,68.69020061055949,0.965731798866269,136.85503939999998,51.7542554,252.495131
6155.787,-24.612619,-208.8997312,89.43129880000001,-0.4763050000000001,0.3927294,0.8134722,26.736501000000004,11.742116,-130.35278920000002,35.5004906,-73.4381486,4.388810800000002,-0.8975074,0.094253,-0.4005516,163.5383454,69.3932906,121.041733,228.56691780423145,1.021195306893936,81.68664617227572,0.9873422635167198,136.8018444,57.6511746,251.3945222
6175.774,-17.6883224,-210.300949,84.6021484,-0.3617712,0.3671524,0.8079697999999998,26.3295502,7.237365800000001,-130.7222564,35.668628,-82.9554064,7.703031200000001,-0.9229664,0.080712,-0.3658878,162.4341096,70.92813240000001,119.1158602,227.36949974330892,0.9583811787004376,90.62663606280285,0.9961201155793412,136.1045594,63.6907666,249.8381166
6195.76,-10.6039964,-210.4279052,79.99747479999999,-0.2503084000000001,0.3832468,0.8128406,26.0924568,2.7788554,-131.1486022,30.913269000000003,-78.81252380000001,9.028105,-0.905428,0.0562532,-0.3504028,161.069153,72.37125540000001,117.0258166,225.3706813249852,0.9328677536656308,85.13842133774241,0.9724949398028144,134.97669620000002,69.59240000000001,248.1744188
6215.747,-6.9155818,-209.8162048,74.6871086,-0.1684162,0.380407,0.7834372000000001,25.9662814,-1.623082,-131.6498992,23.456366000000003,-70.77119080000001,8.130899800000002,-0.917734,0.0792566,-0.3072052,159.5508576,73.6587448,114.9446306,222.82017246949664,0.8870441637344108,74.99916056019295,0.9710264354313944,133.5845762,75.2818268,246.5945298
6235.733,-1.960375800000001,-209.091275,70.09650500000001,-0.0957756000000001,0.3698858,0.7655096,25.9824008,-5.9705442,-132.2253814,13.793342600000004,-72.9794138,8.933437600000001,-0.995195,0.1089706,-0.2422601999999999,157.3477326,74.9628738,112.370517,220.53690024034043,0.855566139050138,74.80680080063375,1.0300377100831797,131.36533179999998,80.933418,244.5958984
6255.719,3.645208999999999,-207.2721466,65.28956439999999,-0.0301556,0.3550738,0.7607676,26.1636062,-10.2414588,-132.8847808,4.506649800000004,-61.99817380000002,8.488649200000001,-0.9389128,0.0434058,-0.249621,154.9696746,76.0398606,109.8202712,217.34248899919987,0.8400917240799126,62.73866919369193,0.9724977908039072,128.80606840000002,86.2813194,242.705052
6275.706,6.867290399999999,-204.8643462,61.6021476,0.0286703999999999,0.3537732,0.7544058,26.4708602,-14.433198,-133.6177398,1.822972200000003,-40.68485700000001,4.3800626000000005,-0.933321,0.0276472,-0.2413812,153.3376708,76.751497,108.1007246,214.0359423328792,0.8337299202667732,40.96053912160265,0.9644259123552622,126.8668106,91.184695,241.7184644
6295.692,6.624636199999999,-202.2417876,57.542649,0.0679961999999999,0.335832,0.7330724,26.8449752,-18.5444048,-134.44189160000002,-0.117259999999997,-31.338077600000013,-1.1582587999999987,-1.0019535999999998,0.0719364,-0.157957,152.31760839999998,77.342836,107.0533934,210.37296145266168,0.8091982198943594,31.35969421118452,1.0168757426779929,125.4726332,95.8872408,241.495285
6315.678,6.303782599999998,-199.9417296,54.1511718,0.1150459999999999,0.3247552,0.7177892,27.307620199999995,-22.5773706,-135.3636324,-5.949655399999997,-34.83603740000001,-3.814879799999999,-1.0215074,0.064612,-0.1335995999999999,151.0895568,78.0137116,105.9170042,207.24087993883035,0.7961927264674553,35.54576218062283,1.0322310458026924,123.78193660000002,100.5910822,241.2806366
6335.665,4.166483199999999,-197.12791120000003,49.7951758,0.1714351999999999,0.281754,0.6723608,27.836796,-26.5209162,-136.4088016,-5.124847799999996,-16.18859600000001,-9.745675999999998,-0.9370528,-0.0051539999999999,-0.1732868,151.0838164,78.4003662,106.0162566,203.3625641293989,0.748895446435402,19.57837853657338,0.952954788412378,123.2470204,104.9212824,242.4250582
6355.651,2.467158799999999,-194.3633482,46.4302276,0.2274309999999999,0.2715506,0.6619379999999999,28.4553298,-30.3741788,-137.57526579999998,-2.3003173999999964,-4.014522800000011,-15.2763568,-1.0027719999999998,0.0721418,-0.1140035999999999,152.1531432,78.6253478,107.156549,199.8473518239525,0.7507506270162948,15.961670668616392,1.0118067721181745,123.6978134,108.9995266,244.7318148
6375.637,-2.9859780000000007,-191.2624204,41.941851,0.2609689999999999,0.2621442,0.6026933999999999,29.1143128,-34.1160226,-138.896735,-11.530325799999996,0.2513341999999902,-19.8504878,-1.0508158,0.1223062,-0.0692565999999999,153.60568840000002,78.80388639999998,108.8766282,195.8298965612478,0.7071518471715957,22.95764464905283,1.060174103028196,124.4913756,112.919909,247.7733632
6395.624,-4.994711000000001,-186.7046476,38.40482540000001,0.3313065999999999,0.2025837999999999,0.5045974,29.8723786,-37.7369682,-140.3474276,-18.414837,12.067596399999989,-16.692094,-0.9729108,0.0348606,-0.0989935999999999,155.09224239999998,78.7254792,110.7705322,190.6790580725062,0.6367281957890352,27.628954137185463,0.97855527132092,125.21986379999998,116.4624474,251.1179598
6415.61,-2.398162000000001,-178.9007048,35.882395,0.4105493999999999,0.192415,0.444475,30.8072666,-41.1871728,-141.8880982,-6.437667799999997,33.48854679999999,-21.0917264,-0.9277062,0.0362384,-0.1304814,157.9941436,78.2669358,113.8678742,182.47947728402505,0.6349270569839972,40.097222547346135,0.937537951711268,127.186877,119.4541086,255.7559724
6435.596,-3.5086064,-168.3594604,33.7271482,0.4773829999999999,0.2146306,0.399182,31.8152268,-44.418451000000005,-143.47873840000003,-2.649397799999995,40.44353999999999,-23.6430874,-1.0140332,0.0927866,-0.0878375999999999,161.2047668,77.670479,117.2092866,171.7403236015178,0.6582606567837394,46.9222209431553,1.0220509418886907,129.38954,122.08893,260.68802500000004
6455.583,-4.8589614,-154.2955232,31.688934,0.5445435999999999,0.1970908,0.2936641999999999,32.8405902,-47.3773522,-145.05540460000003,-4.751088599999996,39.2981678,-27.0192478,-1.0378752,0.0336506,-0.0886595999999999,164.4301514,77.079735,120.6152132,157.5909468323126,0.6493159308897632,47.92659582110763,1.0421985503384468,131.5895612,124.4570872,265.67061780000006
6475.569,1.7777333999999996,-135.30999939999998,31.08018,0.6277311999999999,0.1812929999999999,0.1874809999999999,33.9358256,-50.0015792,-146.4837066,8.420876000000003,36.992870199999984,-23.2178918,-0.9512932,-0.0115309999999999,-0.130514,167.3725738,76.47793140000002,123.465358,138.8449994148218,0.67975196701697,44.479816747351045,0.9602737216665048,133.4367482,126.4795106,269.94906460000004
6495.555,9.7076158,-111.4369144,29.9577702,0.7013534,0.2106758,0.1317656,35.0218062,-52.199166000000005,-147.6498108,22.810420600000004,30.62377779999999,-23.917568,-0.9755616,0.0608554,-0.1900046,170.2897338,75.98174,125.9983812,115.80108674304115,0.7440719439278436,45.05753115437308,0.9957537663121742,135.2679276,128.180906,273.648192
6515.542,15.7188178,-85.2881796,27.6701402,0.7385211999999999,0.2440361999999999,0.1106739999999999,35.98790820000001,-53.9252272,-148.48486640000002,19.8667326,21.357413999999988,-19.9896698,-1.013349,0.0820948,-0.1920241999999999,172.53689260000002,75.6327226,127.9073716,91.03181570857032,0.7856309337315327,35.361180631878376,1.0346444052782966,136.5489844,129.5579498,276.392238
6535.528,19.6231872,-58.0950028,24.470175,0.7690453999999999,0.2810363999999999,0.0694309999999999,36.7395082,-55.1630308,-148.9392854,23.115091000000003,3.086218799999989,-17.7017342,-1.0306592,0.026138,-0.1960158,174.453195,75.62293700000001,129.4100236,66.02187736461964,0.8217255923647016,29.277697520590724,1.049458801210548,137.7136868,130.78596779999998,278.349309
6555.514,25.4658032,-29.514025000000004,19.4154468,0.8017145999999998,0.285524,0.0315496,37.2812182,-55.873043,-148.98599860000002,34.35940300000001,-4.785756800000011,-12.2764746,-0.944844,0.01408,-0.2280596,176.0993314,75.7429214,130.402713,43.549332701723294,0.8516252883101345,36.799237373478284,0.9720800439717708,138.81811320000003,131.6159644,279.3887116
6575.501,35.1404686,-1.4678937999999988,11.932567799999998,0.8154838,0.3059558,0.0513736,37.717464,-56.0435798,-148.666565,40.29041360000001,-11.809899600000012,-11.7109868,-0.9743636,0.0154046,-0.2653916,105.78425280000002,75.99506059999999,131.31358960000003,37.140186051462656,0.8725033102476116,43.5882824673205,1.0099774393800487,68.0667888,132.0386404,279.9801546
6595.487,41.2730774,23.5001222,1.921263,0.7954885999999999,0.3207024,0.0896168,38.0857754,-55.7019058,-148.10703440000003,41.638693200000006,-22.714815600000016,-13.9604262,-1.022049,0.0276274,-0.2414322,35.693444800000016,76.45989979999999,132.4265594,47.533292679936366,0.8623707514392867,49.44327172458733,1.0505412599363246,-2.3923305999999966,132.16180559999998,280.5335938
6615.473,41.9997246,46.388242000000005,-9.939929,0.7930947999999999,0.3151346,0.1025876,38.3424746,-54.85766220000001,-147.3866548,38.3481346,-28.01130900000001,-16.370998800000002,-0.9991958,-0.0446427999999999,-0.2527186,-34.130099599999994,77.0102934,133.8768464,63.361250388951845,0.8595541830379048,50.23168781658447,1.0316258610152422,-72.4725742,131.86795560000002,281.2635012
6635.46,46.5943688,68.4404526,-22.3908708,0.7827277999999999,0.2831258,0.1318748,38.5984362,-53.5147812,-146.5423126,32.9288892,-17.89586740000001,-14.5758556,-0.9256506,0.0356282,-0.3106876,-104.1580902,77.34769739999999,135.2264648,85.76993559019122,0.8427419476883299,40.212303843678384,0.9770492243021126,-142.7565264,130.8624786,281.7687774
6655.446,52.26745459999999,88.78488999999999,-34.147984,0.7633077999999999,0.2825008,0.177818,38.9096368,-51.7098556,-145.60537119999998,20.826679200000004,-8.631597400000011,-16.102798800000002,-0.9372002,0.0609426,-0.3656442,-174.3355286,77.49007879999999,136.6695312,108.53906353907526,0.8331054799156467,27.704786037229763,1.0078461670158,-213.2451654,129.19993440000002,282.27490240000003
