Timestamp (ms),Wrist Gyroscope X (deg/s),Wrist Gyroscope Y (deg/s),Wrist Gyroscope Z (deg/s),Wrist Accelerometer X (g),Wrist Accelerometer Y (g),Wrist Accelerometer Z (g),Wrist Roll (deg),Wrist Pitch (deg),Wrist Yaw (deg),Arm Gyroscope X (deg/s),Arm Gyroscope Y (deg/s),Arm Gyroscope Z (deg/s),Arm Accelerometer X (g),Arm Accelerometer Y (g),Arm Accelerometer Z (g),Arm Roll (deg),Arm Pitch (deg),Arm Yaw (deg),Wrist Gyroscope Magnitude (deg/s),Wrist Accelerometer Magnitude (g),Arm Gyroscope Magnitude (deg/s),Arm Accelerometer Magnitude (g),Difference Roll (deg),Difference Pitch (deg),Difference Yaw (deg)
0.0,-0.52441,0.373516,0.387608,-0.958132,-0.2441,-0.090199,-111.306847,74.674973,89.354813,-0.549892,0.238379,0.460907,-0.971469,-0.211835,0.071563,-71.356285,76.822784,-163.621323,0.7515051643335527,0.9928431895445524,0.7560694557737405,0.9968687717824248,39.950562000000005,2.1478110000000044,-252.976136
19.983,-0.8520035,0.3076415,0.3710955,-0.960341,-0.246446,-0.092837,-111.33033,74.67692199999999,89.33970299999999,-0.5424825,0.203937,0.3736975,-0.97217,-0.2162224999999999,0.0698675,-71.372524,76.825523,-163.632027,0.9789101729243342,0.99579575002407,0.6895849362344714,0.998372749008355,39.957806000000005,2.1486009999999998,-252.97173
39.967,-0.4604176666666666,0.2290613333333333,0.425409,-0.960439,-0.247906,-0.0943063333333333,-111.342092,74.67981733333333,89.32565066666666,-0.3845846666666667,0.1881493333333333,0.442736,-0.973016,-0.2175196666666666,0.0697143333333333,-71.38143133333334,76.83015666666667,-163.638494,0.6674026816609461,0.9963905569924766,0.6158901713494777,0.9994673731117434,39.96066066666667,2.15033933333333,-252.96414466666667
59.95,-0.3505005,0.17230175,0.41532325,-0.9607445,-0.24752625,-0.09382925,-111.3488885,74.68321424999999,89.31475075,-0.25803875,0.174717,0.4524535,-0.97344975,-0.21673675,0.06967625,-71.38654700000001,76.83549675,-163.64291775,0.5701156861057894,0.996545617056678,0.5493852894397634,0.999716967141044,39.9623415,2.1522824999999983,-252.9576685
79.933,-0.6185548,0.0989532,0.3419788,-0.9615976,-0.2474268,-0.0938232,-111.3563814,74.68581400000001,89.30930939999999,-0.263224,0.1371553999999999,0.3599798,-0.973665,-0.2163072,0.070365,-71.3903686,76.8388624,-163.6451936,0.7136885007079208,0.9973428490455224,0.4665661092848472,0.999881778122714,39.9660128,2.153048399999997,-252.954503
99.917,-0.766369,-0.0463253999999999,0.2842734,-0.962205,-0.249488,-0.0957885999999999,-111.373427,74.6899064,89.2982376,-0.3531906,0.054142,0.3118456,-0.974446,-0.2173452,0.0707568,-71.4001998,76.84537499999999,-163.6476318,0.8187055959218308,0.9986281490419544,0.4742600914389909,1.0008948334491892,39.97322720000001,2.1554685999999945,-252.9458694
119.9,-0.4223326,-0.1625735999999999,0.1640086,-0.9637558,-0.2496858,-0.0950752,-111.3708666,74.6928422,89.2997848,-0.3516762,0.0434371999999999,0.301236,-0.9763232,-0.2167975999999999,0.070917,-71.4085082,76.852063,-163.648593,0.481345843768989,1.0001037618219022,0.4650871613862073,1.002615285696862,39.9623584,2.159220799999994,-252.9483778
139.883,-0.3694469999999999,-0.2844031999999999,0.0260704,-0.9653086,-0.2494597999999999,-0.0939667999999999,-111.3534106,74.6946336,89.315303,-0.2970506,-0.0650062,0.1419132,-0.9771448,-0.216687,0.0723767999999999,-71.40769800000001,76.85486919999998,-163.6415222,0.4669645936635881,1.0014392865033006,0.3355655246491212,1.0034956987024308,39.94571259999999,2.160235599999996,-252.9568252
159.867,-0.5223608000000001,-0.3703742,-0.1105373999999999,-0.9664522,-0.2502766,-0.094352,-111.3299136,74.6941606,89.34026939999998,-0.2318072,-0.1045724,0.0128002,-0.977066,-0.2184812,0.0734892,-71.4047118,76.853795,-163.6336304,0.6498125654379423,1.002781397562001,0.254624841548581,1.003888771540991,39.9252018,2.159634399999996,-252.97389980000003
179.85,-0.3184498,-0.3545004,-0.1619852,-0.9661004,-0.2507292,-0.0952712,-111.303795,74.69214339999999,89.3637818,-0.0426354,-0.112886,0.0137078,-0.9771378,-0.2198904,0.0738268,-71.3976318,76.85191979999999,-163.62539679999998,0.5033090638357708,1.002642367029361,0.1214451732676107,1.0042910258482052,39.9061632,2.1597763999999984,-252.9891786
199.833,0.0835254,-0.2343313999999999,-0.1802139999999999,-0.9663978,-0.2492904,-0.0939098,-111.275966,74.690004,89.38199,0.2120968,-0.1606858,-0.0219547999999999,-0.976641,-0.2185938,0.0743901999999999,-71.38026119999999,76.8495806,-163.6119722,0.3071885142174426,1.002441749885269,0.2669962399265577,1.0035660387515513,39.8957048,2.1595766,-252.9939622
219.817,-0.0109563999999999,-0.1340722,-0.1389048,-0.9638844,-0.2478196,-0.0941194,-111.2597048,74.6882554,89.3918502,0.2301923999999999,-0.1820734,-0.0978398,-0.9744982,-0.2165442,0.0752183999999999,-71.359456,76.84634880000002,-163.5955844,0.1933647873239592,0.999673022624838,0.3093733835826217,1.0010973679195443,39.9002488,2.158093400000001,-252.9874346
239.8,-0.3511082,0.00643,-0.1429712,-0.9624542,-0.2467018,-0.09514,-111.262639,74.6855866,89.3911422,0.0638103999999999,-0.1048349999999999,-0.0776806,-0.97327,-0.2154244,0.0728292,-71.35260939999999,76.844893,-163.5898288,0.3791557424551025,0.9981139638442496,0.1452460670363228,0.9994829950469392,39.91002960000001,2.159306400000003,-252.980971
259.783,-0.4105926,0.0427914,-0.1381066,-0.9609754,-0.2455918,-0.0955395999999999,-111.2709734,74.68304599999999,89.3891526,-0.1267168,-0.0827166,-0.0194358,-0.972467,-0.2142922,0.070852,-71.3535936,76.8455232,-163.5879946,0.4353054330608337,0.996452139744082,0.15256780013961,0.9983151901948802,39.917379800000006,2.162477200000004,-252.9771472
279.766,-0.3831226,-0.0317805999999999,-0.160836,-0.9598536,-0.244951,-0.0948601999999999,-111.2721926,74.6809464,89.3968598,-0.3007268,-0.0269311999999999,-0.0143922,-0.971673,-0.213422,0.0693714,-71.3652192,76.8472184,-163.59335040000002,0.4167267114826214,0.9951474179125422,0.3022731102703646,0.997251101854974,39.90697339999999,2.166272000000004,-252.9902102
299.75,-0.6267556,-0.1880147999999999,-0.1860338,-0.9602694,-0.2443678,-0.0948012,-111.26738,74.679892,89.41627659999999,-0.302484,0.0816234,-0.006955,-0.9727158,-0.2144579999999999,0.068867,-71.38731700000001,76.8494172,-163.609311,0.6802798849685621,0.9953995226915872,0.3133804743575452,0.998454267867407,39.88006299999999,2.169525200000004,-253.0255876
319.734,-0.6492452,-0.326695,-0.1703778,-0.961631,-0.2444524,-0.0948352,-111.2541246,74.68030100000001,89.44504859999999,-0.1161684,0.0197999999999999,0.0137605999999999,-0.9739534,-0.2168073999999999,0.0697702,-71.39969800000001,76.8503418,-163.6191558,0.7465102460655714,0.9967371123750736,0.1186443899681734,1.0002292511591329,39.8544266,2.170040800000004,-253.0642044
339.717,-0.3027281999999999,-0.3665386,-0.0726686,-0.9625574,-0.2437714,-0.0944922,-111.2338228,74.6833664,89.4746614,0.2106481999999999,-0.0551127999999999,0.0734783999999999,-0.9746114,-0.2175526,0.0720876,-71.3929062,76.8511932,-163.6163024,0.4809112535501326,0.997431711754524,0.2298024372230198,1.0011958533925718,39.84091659999999,2.1678268000000003,-253.0909638
359.7,0.0956658,-0.3376139999999999,0.0654185999999999,-0.9635248,-0.2437206,-0.0939212,-111.2102524,74.68905180000002,89.5005524,0.5754264000000001,-0.151314,0.0678656,-0.9765964,-0.2167386,0.0736606,-71.3669388,76.851721,-163.6014954,0.3569520297065139,0.9982990348031195,0.5988465647194781,1.003066315462383,39.8433136,2.1626691999999963,-253.1020478
379.683,0.3309850000000001,-0.1553292,0.2633368,-0.9654432,-0.2431013999999999,-0.0943012,-111.2009934,74.69758140000002,89.5081954,0.8335652,-0.287742,0.0747972,-0.977476,-0.2163196,0.0742027999999999,-71.3232788,76.8517286,-163.5739228,0.4505824018222195,1.0000357890743912,0.8849977527332372,1.0038722804460734,39.87771459999999,2.1541471999999944,-253.0821182
399.666,0.5799576,0.0193695999999999,0.4460281999999999,-0.9652098,-0.2424738,-0.0956944,-111.2067536,74.70818019999999,89.49702300000001,0.9012012,-0.3882768,0.1566422,-0.9766758,-0.2153383999999999,0.0737032,-71.2687928,76.8531522,-163.5365664,0.7318928571841372,0.9997904379888016,0.9937098445323566,1.0028451557994584,39.9379608,2.144971999999993,-253.0335894
419.65,0.7509680000000001,0.1404137999999999,0.5596954,-0.9651982,-0.2424406,-0.0969354,-111.2227418,74.7196792,89.4736298,0.8330782000000001,-0.4098756,0.2934371999999999,-0.9758838,-0.2127624,0.0721329999999999,-71.2123382,76.8585508,-163.4956638,0.9470627819926196,0.9998907348229406,0.9737159160322072,1.0014091070312874,40.0104036,2.138871599999993,-252.9692936
439.633,0.7358022000000001,0.1388534,0.5734404,-0.9642636,-0.2429544,-0.0981017999999999,-111.2411026,74.7306976,89.44890740000001,0.5555386,-0.4126464,0.3155924,-0.9751994,-0.2113567999999999,0.0710222,-71.16261899999999,76.865129,-163.4558688,0.9431431686486204,0.9992272483912557,0.7605910533661832,1.000364793242665,40.0784836,2.134431399999997,-252.9047762
459.618,0.6824312,0.1371404,0.5662374,-0.9637474,-0.243355,-0.099111,-111.2617646,74.7409928,89.4225632,0.3144958,-0.311249,0.3769247999999999,-0.9728308,-0.2126434,0.0704843999999999,-71.1269928,76.8725724,-163.4254244,0.897298515102059,0.9989262722307188,0.5812536908043509,0.9982910555722514,40.1347718,2.1315795999999976,-252.8479876
479.6,0.8348408,0.0751816,0.5441292,-0.96159,-0.2442,-0.0991442,-111.2738602,74.7504562,89.4014238,0.4105361999999999,-0.0874677999999999,0.514349,-0.971317,-0.2145057999999999,0.07071,-71.1050308,76.88277,-163.4108828,0.9993437950054226,0.9970549335385888,0.6638866479665636,0.9972308442996736,40.16882940000001,2.1323138,-252.8123066
499.583,1.0905848,0.0958082,0.4983721999999999,-0.960547,-0.245629,-0.0986718,-111.2789138,74.7580108,89.3796174,0.7884854,0.1451724,0.5734617999999999,-0.9707154,-0.2153474,0.0715742,-71.09147180000001,76.8948168,-163.41278400000002,1.2028837295894894,0.9963534859502626,0.9857193757830672,0.996888036135232,40.187442,2.1368060000000013,-252.7924014
519.567,1.364597,0.232314,0.4961372,-0.960281,-0.246331,-0.0982929999999999,-111.286383,74.76414020000001,89.3470414,1.0442528,0.4766606,0.6571094000000001,-0.9707684,-0.2140235999999999,0.072329,-71.0945084,76.9110446,-163.4370942,1.4704580538828167,0.9962329418218412,1.3226722955700554,0.9967090207460352,40.1918746,2.1469043999999995,-252.7841356
539.55,1.736296,0.334134,0.509982,-0.9607588,-0.2455511999999999,-0.0973438,-111.292366,74.7703842,89.3055422,1.1217478,0.815037,0.8035346000000001,-0.9719598000000002,-0.2123756,0.0724224,-71.1177614,76.933089,-163.4837892,1.8402312272907448,0.9964078878638608,1.6025826941443615,0.997524061019663,40.1746046,2.162704799999997,-252.7893314
559.533,1.7876134,0.4256436,0.4503062,-0.9613878,-0.2445924,-0.0976398,-111.3032822,74.7753296,89.2551348,1.0055786,1.0454584,0.8930988,-0.9737262,-0.2110496,0.0716214,-71.1602342,76.95918,-163.54776320000002,1.891959253218462,0.996807641759753,1.7034661879444395,0.9989065377524368,40.143048,2.1838504,-252.802898
579.517,1.8039052,0.4393172000000001,0.363795,-0.9636772,-0.2450346,-0.0976436,-111.3120454,74.7786272,89.2037172,0.7080848000000001,1.2613358,1.03031,-0.9753942,-0.2086777999999999,0.0695987999999999,-71.225139,76.99082960000001,-163.6284822,1.891935615930912,0.9991246036495948,1.7759196998886746,0.9998921254655024,40.0869064,2.212202399999998,-252.8321994
599.5,1.7717462000000002,0.3294504,0.2885354,-0.9651586,-0.2439454,-0.0979704,-111.3134462,74.7820224,89.1633012,0.5251058000000001,1.4609326,1.1884078,-0.9772328,-0.2084572,0.0680002,-71.3089052,77.0270448,-163.72460940000002,1.8250684481212645,1.000319289332801,1.9550890675458343,1.001530017936417,40.004541,2.2450223999999963,-252.8879106
619.483,1.696907,0.14019,0.1789213999999999,-0.965847,-0.242356,-0.0974556,-111.30078600000002,74.7857334,89.14158180000001,0.6152252,1.475141,1.2336052,-0.977631,-0.2100505999999999,0.0680632,-71.3914918,77.06301739999999,-163.8213502,1.7120629282029791,1.0005470764118798,2.018991036647533,1.0022555691616784,39.909294200000005,2.277283999999997,-252.962932
639.467,1.6219518000000002,0.0392946,0.0827223999999999,-0.9661488,-0.244251,-0.0970477999999999,-111.2780412,74.78750500000001,89.1337936,0.90227,1.5086398,1.3357788,-0.9766796,-0.211195,0.068502,-71.4677612,77.0999664,-163.9175324,1.624535226633809,1.001259372104591,2.207802120112552,1.001598169469753,39.81028,2.312461399999998,-253.051326
659.45,2.0260040000000004,-0.0339571999999999,0.0937541999999999,-0.965489,-0.2450352,-0.096079,-111.240213,74.78968080000001,89.1347654,1.1697704,1.450329,1.4578696,-0.9762288,-0.209414,0.0687451999999999,-71.528099,77.13930339999999,-164.00300299999998,2.0284563464530074,1.0007209564114463,2.3658403935095285,1.0008010770720024,39.71211400000001,2.349622599999995,-253.1377684
679.433,2.3263830000000003,-0.0984285999999999,0.099419,-0.964635,-0.2430864,-0.095313,-111.1925216,74.7934328,89.14152659999999,1.1718624,1.3189112,1.5323882000000002,-0.9755768,-0.2064753999999999,0.0697324,-71.5706192,77.1801268,-164.0705016,2.330585803944571,0.999347911920048,2.336878651859878,0.9996223242370892,39.6219024,2.386693999999994,-253.2120282
699.417,2.572969,-0.2149924,-0.0050206,-0.9643392,-0.2435572,-0.0941346,-111.126956,74.7959778,89.16047499999999,0.7239442,1.3965638,1.7461455999999995,-0.9728876,-0.2023422,0.0679224,-71.6239502,77.2272902,-164.1398102,2.581940435688461,0.999065325814904,2.3502149068932905,0.9960251505641612,39.5030058,2.4313123999999986,-253.3002852
719.4,2.9112584000000004,-0.4531043999999999,-0.1067568,-0.9629084,-0.2444706,-0.0941394,-111.03570220000002,74.79759659999999,89.1979918,0.2026764,1.654374,2.0463636000000003,-0.973306,-0.2019192,0.0653402,-71.70701900000002,77.2820234,-164.2285676,2.948241184709311,0.9979081559378498,2.639248953471029,0.996175323274312,39.3286832,2.4844268,-253.4265594
739.383,2.9031580000000003,-0.8189812,-0.349721,-0.9617396,-0.2419502,-0.0937794,-110.9155226,74.79843880000001,89.2649246,-0.3109964,1.7133292,2.1996788,-0.9738072,-0.203035,0.0638441999999999,-71.805458,77.3391828,-164.3223328,3.036669451349363,0.9961312831914072,2.805495059976945,0.9967947410929092,39.1100646,2.540744000000001,-253.5872574
759.367,2.445755000000001,-1.2229123999999998,-0.5576696,-0.9609642,-0.2430948,-0.0936978,-110.7716918,74.797502,89.36499180000001,-0.6483444,1.8448352,2.2218396,-0.9731004,-0.2054733999999999,0.06396,-71.9223464,77.3955732,-164.42803339999998,2.790739622548639,0.9956538320086556,2.9597869153536305,0.996611553308369,38.84934539999999,2.598071200000001,-253.7930252
779.35,2.8225348,-1.45624,-0.5808954,-0.960372,-0.2457512,-0.0940884,-110.6039978,74.79622040000001,89.48131860000001,-0.48486,2.0292274,2.4273686000000003,-0.9722162,-0.2084864,0.0627065999999999,-72.05115500000001,77.45493760000001,-164.5490388,3.228742340378402,0.9957713882714244,3.200776683990422,0.9962946533084276,38.55284280000001,2.658717200000004,-254.0303574
799.334,3.746418400000001,-1.5337789999999998,-0.5385922000000001,-0.9601666,-0.2437382,-0.091872,-110.4123536,74.79767,89.6043212,0.1938591999999999,2.210134,2.974079,-0.972903,-0.2083064,0.06231,-72.16789539999999,77.52542860000001,-164.6715332,4.083896473540974,0.9948711847665506,3.710447356535549,0.9969023722461292,38.2444582,2.7277586000000014,-254.2758544
819.317,4.6621842,-1.6510718,-0.6097699999999999,-0.9605258,-0.2430134,-0.091997,-110.1953524,74.7988724,89.7361494,0.8582297999999999,2.2867912,3.267626,-0.97264,-0.2054104,0.0636925999999999,-72.2645142,77.60249780000001,-164.7873016,4.983354197363949,0.9950521458969878,4.079626460582081,0.996131893537658,37.9308382,2.8036254000000014,-254.523451
839.3,5.5205934,-1.7425384000000002,-0.5624342,-0.9601892,-0.2463052,-0.092509,-109.9570176,74.79954219999999,89.87154059999999,1.1327056,2.4547698,3.3559958,-0.9733354,-0.2048299999999999,0.0642161999999999,-72.3661806,77.68178259999999,-164.9139252,5.816332503642459,0.9955839826075348,4.309480775787385,0.996725062459854,37.59083699999999,2.8822404000000006,-254.78546580000005
859.283,6.851155400000001,-1.7257726000000002,-0.5231756000000001,-0.9604652,-0.2480348,-0.0908992,-109.6922486,74.8000854,90.0049238,1.1724884,2.4029658,3.3559385999999995,-0.9768282,-0.2062968,0.0637194,-72.4648134,77.759694,-165.0381776,7.084513680577891,0.9961311796057386,4.2908387957454375,1.0004058496139654,37.2274352,2.959608600000001,-255.0431014
879.267,6.746253,-1.8464714,-0.5236628000000001,-0.9629488,-0.2468326,-0.0849094,-109.4123978,74.80335840000001,90.153955,0.976987,2.0302594,3.0248614,-0.982874,-0.2079148,0.0670646,-72.5364152,77.8275788,-165.1312042,7.013958147802908,0.9977005212249616,3.771769255756152,1.0068602308703032,36.8759826,3.0242203999999986,-255.2851592
899.25,5.3858326000000005,-1.9439804000000005,-0.4746328,-0.964613,-0.25159,-0.0837092,-109.1508408,74.806018,90.3098144,0.5192610000000001,1.1511648,1.9398402,-0.987972,-0.2121242,0.0728994,-72.5585588,77.8661286,-165.1649934,5.745566019605271,1.000391422411068,2.314690559106353,1.0131138492440026,36.592282,3.060110599999999,-255.4748078
919.234,4.039577599999999,-1.6054962,-0.1601296,-0.9669864,-0.2541868,-0.0814556,-108.94297939999998,74.81169440000001,90.4351792,0.2144332,0.3325188,1.0013914,-0.9877714,-0.2146102,0.0739915999999999,-72.5402924,77.8798904,-165.1513764,4.349878932043093,1.003149361685766,1.0767242384239522,1.0135209092429025,36.402687,3.0681959999999977,-255.58655560000005
939.217,3.729944600000001,-0.972328,0.3419323999999999,-0.9696714,-0.252281,-0.0789088,-108.7950638,74.8244768,90.505484,0.5025664000000001,-0.0670357999999999,0.6763494,-0.987288,-0.2078573999999999,0.0695994,-72.4962692,77.8892394,-165.1170654,3.869732061115204,1.0050546878933504,0.8452900660548189,1.0113290118250935,36.29879460000001,3.064762599999997,-255.62254940000005
959.2,3.2253372,-0.6799644,0.4249831999999999,-0.9751404,-0.247687,-0.0726059999999999,-108.671135,74.84104160000001,90.5636734,0.9595282,1.0398146,1.6958136,-0.9826828,-0.191161,0.0542321999999999,-72.5413208,77.9358,-165.1816588,3.323516565214237,1.0087216072421368,2.208549871502421,1.0025712667205655,36.1298142,3.0947583999999977,-255.74533220000004
979.184,4.1313756,-1.05496,0.1348228,-0.9770468,-0.248348,-0.076816,-108.505484,74.85336459999999,90.6492584,1.4634048,3.0023554000000003,3.6439016,-0.9777128000000002,-0.173944,0.0378584,-72.731726,78.04208200000001,-165.40332320000002,4.266073386297427,1.0110380192407404,4.943046674577811,0.9937867441611404,35.773758,3.188717399999999,-256.05258160000005
999.167,7.282399000000001,-2.4707306,-0.534883,-0.9775986,-0.2460351999999999,-0.0848487999999999,-108.1827286,74.8611268,90.8324036,1.1751204,5.4140146,5.762353399999999,-0.9737526,-0.1573342,0.021518,-73.12559639999999,78.212805,-165.825018,7.708692802068738,1.011647992743741,7.993571088693768,0.9866160351526828,35.0571322,3.3516781999999976,-256.6574216
1019.15,9.0287326,-5.0177348,-1.88902,-0.9760536,-0.2501634,-0.080918,-107.6106812,74.8554214,91.236052,-0.0918469999999999,7.727679599999999,7.5488756,-0.9782488,-0.1547574,0.0140584,-73.73433359999999,78.4317504,-166.438928,10.500670047470008,1.0108462195094363,10.803286106363217,0.9905141120482636,33.8763476,3.5763289999999985,-257.67498
1039.134,9.1378088,-8.099252,-3.5683912,-0.9717354,-0.258649,-0.0744605999999999,-106.7739412,74.8295088,91.909659,-1.7309127999999998,8.597020599999999,8.364681999999998,-0.9812746,-0.1729146,0.023599,-74.42367999999999,78.65798179999999,-167.10215440000002,12.72127542273568,1.0083220585539725,12.119105877875322,0.9966725702553072,32.3502612,3.828473,-259.01181340000005
1059.117,10.9546792,-10.3057674,-4.4011412000000005,-0.964655,-0.2674388,-0.0722879999999999,-105.7298722,74.7924942,92.7590776,-2.232259,7.4551232,7.723176,-0.9860344,-0.1996388,0.0494212,-74.986032,78.84502260000001,-167.6280364,15.671116167655477,1.0036475156719311,10.96399971257001,1.0072546567071503,30.7438402,4.0525284,-260.387114
1079.1,12.0229542,-10.9833318,-4.6780234,-0.9579324,-0.2685775999999999,-0.0595804,-104.5965822,74.7520492,93.6768098,-1.7471907999999998,4.9801064,5.5632058,-0.9931732,-0.2206621999999999,0.0740151999999999,-75.31148379999999,78.9605958,-167.9249268,16.943107980979654,0.9966535176558,7.668337122224038,1.020079928994841,29.285098400000003,4.208546600000003,-261.6017366
1099.084,10.18755,-10.0006676,-4.3920686,-0.9546946,-0.2747198,-0.0393606,-103.5429536,74.709056,94.5488588,-0.1949467999999999,1.6087044,2.607551,-0.9966682,-0.2384481999999999,0.0916614,-75.3246476,78.9877214,-167.9372926,14.936190747151556,0.9942142649416976,3.070058031863665,1.0288862217098838,28.218306000000005,4.278665400000006,-262.48615140000004
1119.067,9.245998,-7.696560600000001,-3.406514,-0.953894,-0.2767991999999999,-0.0345758,-102.6913956,74.6710998,95.2320328,2.0892924,-1.995017,-0.5656086,-0.992923,-0.243187,0.0978796,-75.015213,78.9300706,-167.6686828,12.503194060625964,0.9938445785444926,2.943662455408351,1.0269451869472683,27.676182600000004,4.2589708000000055,-262.9007156
1139.05,9.7679436,-4.7884378,-2.0734886,-0.9562218,-0.2745258,-0.039054,-102.0790344,74.6450974,95.660057,4.5969222,-4.343447599999999,-3.1162324000000003,-0.9900486,-0.2267064,0.086241,-74.52224880000001,78.82119300000001,-167.2635802,11.074349358385788,0.9956152673482264,7.050399643822211,1.0193279807029336,27.5567856,4.176095600000005,-262.9236372
1159.034,9.261680600000002,-2.5591586,-1.227115,-0.960171,-0.2695472,-0.0437574,-101.6670136,74.627748,95.8952988,5.9039372,-5.649414,-4.983207999999999,-0.9879074,-0.2019898,0.0693416,-73.9646484,78.6853624,-166.8180418,9.68678643821548,0.9982478411314498,9.571035209223911,1.0107270490935525,27.702365200000003,4.057614400000006,-262.7133406
1179.017,8.059394800000002,-1.4906906,-1.0699896,-0.964276,-0.2664054,-0.0520292,-101.3805266,74.609973,96.0293396,5.498606199999999,-6.1123952,-6.070509800000001,-0.9815134,-0.1827506,0.0556608,-73.4355376,78.53832560000001,-166.3920866,8.265644605915716,1.0017520047286157,10.21993808472231,0.9999322281217664,27.944989,3.9283526000000015,-262.4214262
1199.0,7.507155399999999,-1.5646356,-1.509934,-0.9694682,-0.2630301999999999,-0.0565052,-101.1085662,74.58565660000001,96.158313,3.8395426,-3.9925188,-5.329236,-0.972576,-0.1685314,0.0340206,-73.1758178,78.42918560000001,-166.2044126,7.815712855836793,1.0061045246644704,7.686549947100078,0.9876559673217794,27.9327484,3.843528999999998,-262.3627256
1218.983,8.5685032,-2.7666368,-2.1627236,-0.9761976,-0.2592894,-0.051683,-100.7177474,74.5561538,96.3856094,3.226152999999999,-0.4135739999999998,-2.4604016,-0.9685108,-0.1561464,0.0110506,-73.2442628,78.4064256,-166.3359466,9.260178164674882,1.01136733172825,4.0783186077313225,0.9810794991793276,27.4734846,3.850271799999999,-262.721556
1238.967,10.6708186,-5.6822444,-3.19263,-0.9791456,-0.2467202,-0.055357,-100.0844802,74.52266080000001,96.818515,3.5553219999999994,3.3095950000000003,1.3593996000000004,-0.9678508,-0.137615,0.0053622,-73.55873879999999,78.4889634,-166.724289,12.503885689350223,1.011267205310446,5.043976691083055,0.9776000268384204,26.525741400000005,3.9663026,-263.542804
1258.95,11.6592864,-9.494976,-4.856533799999999,-0.9779198,-0.2437707999999999,-0.0648912,-99.1751678,74.46713559999999,97.5151656,2.2523334,7.001644999999999,4.2713004,-0.9686152,-0.1309192,0.0055582,-74.1726122,78.65015860000001,-167.3907534,15.801248341455285,1.0099317828458116,8.505295148189786,0.9774385587784636,25.0025556,4.183023,-264.905919
1278.934,11.205222799999998,-13.189372600000002,-6.6456274,-0.978398,-0.2562529999999999,-0.053909,-97.9896592,74.3774674,98.502542,-0.2807582,10.112341,6.150358400000001,-0.9764394,-0.1502704,0.0113902,-75.0847476,78.8515944,-168.309192,18.538633474959838,1.0128348467020671,11.839137388999202,0.9880004208726634,22.9049116,4.474126999999998,-266.811734
1298.917,12.5439916,-16.0176838,-7.650786199999999,-0.9720316,-0.2666498,-0.0420151999999999,-96.5696794,74.26460879999999,99.7051618,-1.9009554,10.5428384,6.8271516000000005,-0.9810758,-0.1813068,0.0360286,-76.0095522,79.0447554,-169.2094332,21.73597131613316,1.0088175376497177,12.703348847083053,0.9983385904039972,20.5601272,4.7801466,-268.914595
1318.9,14.527145,-18.078504400000003,-8.092624,-0.9696104,-0.2719102,-0.0097048,-94.9558626,74.13845819999999,101.0672636,0.0588170000000001,11.730026,7.9887264,-0.9788984,-0.1854444,0.0425016,-77.0068178,79.2566846,-170.223218,24.56340421027225,1.0070618986910589,14.19213581157614,0.9972151668604324,17.949044799999996,5.1182264,-271.2904816
1338.883,18.179493,-19.3822192,-8.1312198,-0.96766,-0.2913954,0.0143845999999999,-93.1604386,73.99443959999999,102.537837,2.307188,12.258474199999998,7.8910806,-0.977406,-0.1848268,0.0528716,-78.0241136,79.4625212,-171.3035952,27.789946424738023,1.0106849516334555,14.760164606639927,0.99613193951444,15.136324999999994,5.468081599999996,-273.8414322
1358.867,21.8673694,-20.758863,-8.106240399999999,-0.9682726,-0.2878873999999999,0.0232273999999999,-91.225264,73.84232940000001,104.075691,3.666752,13.328787,7.8684058,-0.9746822,-0.1737063999999999,0.0269758,-79.21239620000001,79.66672359999998,-172.5831178,31.22216153554103,1.010430846273153,15.906396290623046,0.9904074909770422,12.012867799999997,5.824394199999995,-276.6588088
1378.85,23.0641614,-23.544723800000003,-8.845372600000001,-0.9800446,-0.2890216,0.0351935999999999,-89.124028,73.65943899999999,105.7599256,4.4761684,15.7525614,9.3794218,-0.9675768,-0.1403328,-0.0170999999999999,-80.69522839999999,79.90864880000001,-174.17598900000002,34.12550624293166,1.0223793291810432,18.872011750426708,0.977849972467188,8.428799599999996,6.249209799999997,-279.9359146
1398.834,25.4795672,-29.831320800000004,-10.817446,-1.007077,-0.314683,0.0630643999999999,-86.61268759999999,73.399202,107.81528,3.6896644,20.951033,13.5967592,-0.9707266,-0.083321,-0.0717252,-82.851718,80.2530076,-104.4323244,40.69561626680132,1.056979939717571,25.24740121070882,0.97693245687898,3.760969599999996,6.853805599999999,-212.2476044
1418.817,28.0549762,-40.1875464,-14.151602,-1.0302756,-0.3287042,0.074078,-83.5011702,73.0111116,110.4389694,-4.2724296,25.899617,17.6028662,-0.9712428,-0.0456954,-0.0998196,-85.93820020000001,80.660843,-35.465503,51.01361008986841,1.0839750057713509,31.60545386303996,0.9774275413948392,-2.4370300000000014,7.649731399999996,-145.9044724
1438.8,27.9883014,-54.180661,-19.7780784,-1.0547879999999998,-0.3494704,0.1005568,-79.7687622,72.4060166,113.712677,-15.9273666,30.6222378,21.9385014,-0.9787434000000002,-0.034814,-0.1366826,-90.2315138,81.1187912,32.5233826,64.10976077673905,1.11571454926715,40.89865888227077,0.988854281874898,-10.4627516,8.712774599999998,-81.18929440000002
1458.784,27.9048556,-70.1467834,-27.1025138,-1.0824089999999995,-0.395152,0.173529,-75.44451139999998,71.49323580000001,117.613533,-27.8888998,33.612045,25.5235978,-0.9888746,-0.0580638,-0.1315704,-95.5250732,81.58688500000001,99.7478516,80.21096210433184,1.1652753581132655,50.58670127407627,0.999277313638091,-20.0805618,10.093649199999998,-17.865681400000007
1478.767,34.075404000000006,-87.2214446,-34.0324766,-1.0977674,-0.4394356,0.2522158,-70.6183586,70.2551132,121.9433136,-38.16893,35.1684978,28.2677586,-1.00083,-0.0857021999999999,-0.1102095999999999,-101.646434,82.03893880000001,166.347818,99.63394511612812,1.209053233244823,59.09954848491974,1.0105205153370218,-31.0280754,11.7838256,44.40450439999999
1498.75,38.8421408,-103.859317,-41.1341544,-1.0957614,-0.4533355999999999,0.3177641999999999,-65.5925552,68.66238539999999,126.4311324,-47.3830524,34.3354976,27.4769276,-1.0036188,-0.126921,-0.0816914,-108.1919938,82.3943954,160.7072204,118.26871221010464,1.2276727164676098,64.64566188474207,1.0149054738193108,-42.5994386,13.73201,34.276088
1518.734,41.1728072,-119.3228212,-49.1083406,-1.0900412000000002,-0.4994341999999999,0.3938224,-60.7103394,66.66882460000001,130.7778318,-53.0877792,31.6354548,23.9008962,-1.0059816,-0.1672426,-0.0544049999999999,-114.6465164,82.60420380000001,155.272763,135.4428470918311,1.2620302771997352,66.25984560768286,1.021238939141237,-53.936177,15.9353792,24.494931200000003
1538.717,42.9275488,-133.3880662,-56.7866136,-1.0849174,-0.5332158,0.4807439999999999,-56.1698494,64.264669,134.7915526,-53.6992858,28.8549082,18.9109846,-0.9988908,-0.205474,-0.0421283999999999,-120.5347106,82.6532014,150.4174284,151.19480855739613,1.3009533610888595,63.82667437053215,1.0206748733495892,-64.3648612,18.388532400000003,15.625875800000006
1558.7,47.3952278,-147.7557634,-63.9283044,-1.08126,-0.569912,0.560065,-52.0022316,61.45693819999999,138.3818054,-49.6024992,27.2384176,14.5502474,-0.9826048,-0.213061,-0.0502791999999999,-125.747946,82.57042100000001,146.1552884,167.82401895911602,1.3444685491185728,58.42986410765643,1.0066951776266142,-73.7457144,21.113482800000003,7.773483000000004
1578.684,49.8305154,-163.4927004,-71.52221979999999,-1.0874916,-0.5862636,0.635746,-48.22473,58.2155518,141.5615052,-42.9970386,27.6135898,10.5015864,-0.9679964,-0.2080534,-0.0597531999999999,-130.37242880000002,82.35892959999998,142.34855620000002,185.27917118292956,1.3894300865000442,52.1683715188544,0.991904074280754,-82.1476988,24.143377800000003,0.7870510000000082
1598.667,49.3249102,-180.01409619999998,-79.67416519999999,-1.0964534,-0.6107659999999999,0.7047102,-44.8970758,54.53363360000001,144.32939779999998,-35.007075400000005,30.7368198,6.8556124,-0.9635438,-0.2041498,-0.0763156,-134.5394544,81.99973159999999,138.8362272,202.9433275504711,1.439396273133844,47.087650619435145,0.9878855531699208,-89.6423786,27.466098,-5.4931705999999965
1618.65,49.7786828,-196.5366212,-87.6660644,-1.0990432,-0.62732,0.7536936000000001,-41.9742922,50.4298402,146.7105594,-25.6466192,37.7507764,4.3207592,-0.956909,-0.195195,-0.1067859999999999,-138.5263854,81.44933639999999,135.30978520000002,220.8843579373611,1.4729156053716044,45.84254743420123,0.9824353271854592,-96.5520932,31.0194962,-11.400774199999995
1638.634,51.6715882,-212.6152254,-95.3720442,-1.091209,-0.6414327999999999,0.8073859999999999,-39.394138600000005,45.9445808,148.733768,-17.9457964,49.120364,3.017068,-0.9683016,-0.2107796,-0.1225345999999999,-142.5924468,80.66477979999999,131.5385832,238.68601532953275,1.5013478183261997,52.382864251961,0.998524289407063,-103.1983082,34.720198999999994,-17.1951848
1658.617,49.454171,-227.0034912,-101.846324,-1.0575708,-0.6356758,0.853567,-37.184377600000005,41.1321028,150.4464786,-10.1610372,62.22864080000001,3.3733922,-0.9936666,-0.214171,-0.1294451999999999,-146.7356352,79.63237159999998,127.51859880000002,253.6709951070455,1.500372068257497,63.14293458281957,1.024694388098032,-109.5512576,38.5002688,-22.927879799999992
1678.601,46.257225000000005,-238.4562562,-107.9469848,-0.9889054,-0.6312574,0.8674383999999999,-35.343906600000004,36.048027000000005,151.85651579999998,-3.8605886,71.6404884,3.3696672,-1.0210196,-0.2339814,-0.1433487999999999,-150.63316319999998,78.4016862,123.6071258,265.8075779827056,1.4590644855517798,71.8235224670006,1.0572498274256468,-115.2892566,42.3536592,-28.249389999999995
1698.584,47.5671294,-247.399704,-112.3183946,-0.8981496,-0.6150088,0.8733254,-33.724656,30.746975599999995,153.01893339999998,5.670783800000001,74.6649232,4.7768434,-1.0279395999999998,-0.2550488,-0.1586787999999999,-154.0822936,77.102008,119.94832900000002,275.8344922306949,1.395566473638128,75.03217162148756,1.0709288833526902,-120.3576376,46.3550324,-33.07060439999999
1718.567,47.4587806,-254.5776184,-114.97384200000002,-0.8009958000000001,-0.5763166,0.8841911999999998,-32.294596199999994,25.2696408,153.9916628,20.349577000000004,69.831417,8.5343634,-1.0489782,-0.283235,-0.1574557999999999,-156.80913379999998,75.8948852,116.7150542,283.33916776629366,1.3249638384539555,73.2350151426903,1.0978932818147125,-124.5145376,50.6252444,-37.2766086
1738.551,44.326883,-260.5439116,-115.9569124,-0.7034072,-0.5416284,0.8836652,-31.069558800000003,19.653080600000003,154.8275148,38.9445884,57.479707600000005,12.5900932,-1.0795328,-0.2601596,-0.1517006,-158.64469300000002,74.9300826,114.00446300000002,288.6070130153901,1.2526001749917808,70.5627961337389,1.1207529414587143,-127.5751342,55.277002,-40.8230518
1758.534,43.730062200000006,-265.40809320000005,-115.7450898,-0.6049656000000001,-0.506558,0.8559053999999999,-29.9709492,13.9279112,155.5664582,56.4471094,35.8030394,11.8852552,-1.1059078,-0.2413208,-0.1460124,-159.2554536,74.3587538,112.1941756,292.8322046648658,1.1641127257686517,67.89251122960948,1.1413095161117512,-129.2845044,60.430842600000005,-43.3722826
1778.517,46.95817580000001,-268.7697204,-114.3543564,-0.5060494,-0.4680092,0.8313286,-28.894756,8.1321672,156.2338776,70.5702986,14.344935800000002,11.1623808,-1.1072406,-0.202203,-0.1294152,-158.8996828,74.1816908,111.0942794,295.83635967543967,1.0799193709268111,72.87347235258859,1.1329678254427176,-130.0049268,66.0495236,-45.1395982
1798.501,47.872764,-271.1682008,-112.310678,-0.4251672,-0.4289994,0.8211700000000001,-27.8718546,2.2962706,156.84432980000005,79.7197494,-2.0128238,6.11874,-1.1405021999999998,-0.1530732,-0.1236926,-157.5591462,74.2804732,110.8269256,297.38473910227555,1.0193761827981858,79.97955290720401,1.1573575644794651,-129.6872916,71.9842026,-46.0174042
1818.484,49.930234,-271.7093446,-109.2265258,-0.3444006,-0.385884,0.7998008,-26.8689756,-3.5304114,157.4096314,79.65177299999999,-13.013769,-4.4154466,-1.1668916,-0.1011324,-0.1291562,-155.2329284,74.4942168,111.5848724,297.06805642578666,0.9524702380741352,80.82857968754827,1.1783654324863575,-128.3639528,78.02462820000001,-45.82475899999999
1838.467,55.5756884,-269.9159242,-105.3639176,-0.2582278,-0.3451054,0.764176,-25.8044576,-9.299776,157.9260468,71.043779,-19.0005876,-15.2943338,-1.1344562,-0.0721198,-0.1441132,-152.25594159999997,74.7190628,113.2003358,295.03358861304866,0.877350723928578,75.1142963099032,1.145844993742487,-126.451484,84.0188388,-44.725711
1858.451,60.21714039999999,-266.5013308,-100.7878556,-0.1725258,-0.2990182,0.709145,-24.6906138,-14.9775442,158.39305720000002,62.5356208,-17.757409000000003,-23.6426486,-1.1035194000000002,-0.042239,-0.1652286,-148.9941008,74.8166672,115.2905548,291.2168524528943,0.788710128388041,69.17372533019858,1.1166197605072734,-124.303487,89.79421140000001,-43.102502400000006
1878.434,58.8067178,-261.2089266,-95.8080736,-0.090838,-0.2472282,0.6567512,-23.6307082,-20.5250108,158.8079254,57.1798676,-14.197972399999998,-32.787442,-1.0719498,-0.0230918,-0.202718,-145.42530200000002,74.7242416,117.8118408,284.37215116968827,0.7075983774859013,67.42504009585798,1.0911939298178304,-121.7945938,95.2492524,-40.9960846
1898.417,56.52438440000001,-252.92927560000004,-90.844945,-0.0019755999999999,-0.2039672,0.5847072,-22.622735,-25.8826528,159.1548828,53.63968199999999,-9.0437508,-38.9456734,-1.0185374,-0.0160648,-0.2313378,-141.8729126,74.4268798,120.39250339999998,274.6288923609327,0.6192649121361875,66.9011987200012,1.0446021686300675,-119.2501776,100.3095326,-38.7623794
1918.401,53.53473280000001,-241.574643,-85.56345999999999,0.0875785999999999,-0.171251,0.5079226,-21.656026200000003,-30.9852362,159.419113,50.5542214,-0.9027023999999996,-39.4280334,-0.9498242,-0.0360274,-0.2563622,-138.845392,73.96221299999999,122.4947526,261.8117290033364,0.5431227152032219,64.11796932822108,0.9844722251263566,-117.1893658,104.9474492,-36.9243604
1938.403,49.4011062,-226.8351594,-79.40077679999999,0.1728354,-0.1417907999999999,0.4271562,-20.7586938,-35.7784456,159.613635,52.498211000000005,9.9955142,-39.273918,-0.9197738,-0.0693826,-0.2763878,-136.38933740000002,73.30429819999999,123.9619018,245.3551348357122,0.4821194101633329,66.32053299992127,0.9629060205118878,-115.6306436,109.0827438,-35.6517332
1958.368,44.1806616,-208.5714782,-71.8515718,0.2532718,-0.1159844,0.3751922,-19.9525928,-40.1838842,159.7542204,55.324467600000006,23.424852,-39.4236524,-0.8471408,-0.1038032,-0.3066254,-134.559366,72.42698659999999,124.7147828,224.9814231177262,0.4672988044703731,71.8592010462222,0.9068857564655208,-114.6067732,112.6108708,-35.0394376
1978.351,40.5783866,-186.9627012,-62.393157200000005,0.3334282,-0.1080498,0.3085148,-19.221081,-44.121205,159.8766294,56.9407242,35.0960716,-32.877939000000005,-0.8217206000000001,-0.1428686,-0.3281884,-133.55944219999998,71.4645874,124.56311959999998,201.23260959507397,0.466937368020937,74.53146440974116,0.896294486887474,-114.3383612,115.58579240000002,-35.313509800000006
1998.334,35.8511592,-162.0700254,-51.0579586,0.4148616,-0.1009965999999999,0.2447308,-18.6098632,-47.5196014,160.0211698,54.30901179999999,42.4816156,-25.21379,-0.7933201999999999,-0.1771766,-0.3414284,-133.271756,70.5014084,123.7158402,173.66321972582364,0.4921418747015539,73.41588133941322,0.8816585731688656,-114.6618928,118.0210098,-36.30532960000001
2018.318,30.9353152,-134.45339940000002,-38.8419442,0.493735,-0.0922594,0.1875306,-18.1470942,-50.3270996,160.2172178,48.2425278,44.3842974,-18.994588200000003,-0.777782,-0.1903442,-0.3492389999999999,-133.4081268,69.59879620000001,122.545633,143.32971417670234,0.5361471561518536,68.25028736286022,0.8735809253404289,-115.2610326,119.9258958,-37.6715848
2038.301,23.290248400000003,-104.2178586,-26.125802000000004,0.5729678,-0.0838342,0.148237,-17.8802394,-52.4745798,160.4681396,35.9393658,37.089908,-12.2639418,-0.767453,-0.184643,-0.3631446,-133.75817560000002,68.8950074,121.4121248,109.9379609227245,0.5977411489060127,53.08204553357435,0.8688792465971092,-115.8779362,121.3695872,-39.0560148
2058.284,14.667404199999998,-71.0084094,-14.166462,0.6474664,-0.09304,0.1028004,-17.8131054,-53.9131174,160.7489776,17.7662984,24.031393800000004,-4.6759614,-0.8011362,-0.198544,-0.3540898,-134.25124520000003,68.4766632,120.5167436,73.87838382830007,0.6621458321012977,30.249196052503795,0.89811943378956,-116.4381398,122.3897806,-40.232234
2078.268,6.3657418,-35.2792126,-3.0384146000000003,0.7036572,-0.0981618,0.0715416,-17.9019902,-54.603457000000006,161.015042,-3.078362600000001,9.9092406,-3.7970122,-0.8058688,-0.213844,-0.3433052,-134.655417,68.2595718,120.1634034,35.97745785379728,0.7140639989676275,11.049283561060236,0.901671913445506,-116.7534268,122.8630288,-40.8516386
2098.251,-1.6237304,0.5491151999999999,7.194798800000001,0.7374864,-0.0858422,0.0764126,-18.1142602,-54.5489946,161.23500959999998,-23.0223804,-4.330270999999999,-3.6976186,-0.8136322,-0.2269695999999999,-0.3323935999999999,-134.9403626,68.23525079999999,120.3675172,7.396158305988092,0.7463872714111354,23.716104855705357,0.9077433896878346,-116.8261024,122.7842454,-40.8674924
2118.235,-10.1354606,34.8201112,17.179474199999998,0.7509273999999999,-0.1020118,0.0845588,-18.457218,-53.7805772,161.4066772,-39.6804256,-19.256589400000003,-5.3299712,-0.8277044,-0.2478174,-0.3147738,-134.93209540000004,68.3929228,121.2416932,40.12856886736659,0.7625277424903568,44.42703010679599,0.919559994067032,-116.4748774,122.17350000000002,-40.164984
2138.218,-17.485133400000002,66.7154526,26.9515018,0.7524744,-0.1140632,0.0926771999999999,-18.907097,-52.3443946,161.53109120000002,-53.3457146,-29.712432,-7.0073312,-0.8401364000000001,-0.2771218,-0.2916198,-134.6847322,68.6706678,122.656543,74.04772079486341,0.7666923761518958,61.46296911218795,0.931486860021246,-115.7776352,121.0150624,-38.8745482
2158.201,-24.7931012,94.9511418,35.9369936,0.73448,-0.1137303999999999,0.1282428,-19.4603642,-50.3150878,161.604135,-61.6784776,-37.613714,-6.991491799999999,-0.8478260000000001,-0.2848458,-0.2688926,-134.2530458,69.0609602,124.4405548,104.50782126349964,0.7542159439020101,72.58034883849047,0.9339428710517578,-114.7926816,119.376048,-37.1635802
2178.185,-32.2721564,118.9895566,44.9190802,0.6917874,-0.1176649999999999,0.1860778,-20.1408616,-47.7723456,161.64935,-64.6967362,-43.4224638,-5.519925199999999,-0.860995,-0.2841323999999999,-0.2526322,-133.654358,69.5533246,126.461377,131.21634968472753,0.7259750730408036,78.11304379940842,0.941204886956926,-113.51349639999998,117.3256702,-35.18797299999999
2198.168,-38.4410662,140.0905408,53.5116362,0.6376394000000001,-0.1463829999999999,0.2194032,-20.9249664,-44.774516,161.666028,-65.72998279999999,-43.8511018,-2.4149328,-0.8888088,-0.2759716,-0.2254434,-133.1091614,70.1065184,128.4405,154.8114026841382,0.6900360507188013,79.05176575125172,0.9575834864739262,-112.184195,114.8810344,-33.225528
2218.151,-40.99599859999999,159.61998720000005,61.0104674,0.5745744,-0.1716102,0.2603186,-21.7262046,-41.3624684,161.6262758,-64.8489472,-37.9706904,1.911259,-0.9252288,-0.2696036,-0.2001526,-132.88969119999996,70.65280440000001,130.0483902,175.7312987128526,0.6537213285379023,75.17188432762691,0.9842740963619636,-111.16348659999998,112.0152728,-31.577885599999995
2238.135,-39.5516992,177.1817044,67.4926986,0.4907052,-0.1886131999999999,0.3299504,-22.4535594,-37.57209379999999,161.51443799999998,-58.639528,-30.659681,5.9433188,-0.92132,-0.2575048,-0.1894906,-132.9724914,71.1582626,131.20064399999998,193.68262092404345,0.6206720542939242,66.43743915476406,0.9752158488823895,-110.518932,108.73035639999998,-30.313794
2258.118,-35.9528176,192.0316678,72.5214218,0.3946063999999999,-0.2066629999999999,0.3826058,-23.07654,-33.4603202,161.3317354,-47.159506,-22.9348732,8.1399714,-0.9279088,-0.2156214,-0.1821164,-133.22991919999998,71.59733279999999,131.92387100000002,208.3941533520601,0.5872061006866328,53.0686965098723,0.9698833498954192,-110.1533792,105.057653,-29.4078644
2278.101,-35.2089698,204.9021574,76.0111848,0.3075282,-0.2237301999999999,0.4242483999999999,-23.65274,-29.0800842,161.0647432,-38.7078672,-12.820111400000002,6.9524154,-0.9773796,-0.2100468,-0.1422252,-133.68542159999998,71.886786,132.2564546,221.3645542453702,0.5697503848966141,41.36411874288394,1.0097616293964828,-110.0326816,100.9668702,-28.808288600000004
2298.085,-28.837369,216.74086900000003,78.16014580000001,0.209561,-0.2693758,0.468757,-24.0794974,-24.4686092,160.701944,-40.8241422,-8.4835052,6.2280218,-0.9879502,-0.2501916,-0.1180364,-134.35162659999995,72.103598,132.4110414,232.20078926910347,0.5798381320641477,42.15885081908095,1.025950303920984,-110.2721292,96.5722072,-28.290902600000003
2318.068,-21.2687442,226.46982420000003,80.7834306,0.1102958,-0.2679336,0.5344896,-24.3562788,-19.6568122,160.2848418,-36.7895742,-8.9253184,8.1193822,-0.9834516,-0.2535896,-0.1195721999999999,-135.0270416,72.3510666,132.4726716,241.38538359339196,0.6079742675597052,38.717676139824825,1.0226349523576634,-110.6707628,92.0078788,-27.812170200000004
2338.051,-21.7981174,234.9620118,80.8581346,0.0203051999999999,-0.272575,0.5587778,-24.6564322,-14.696839,159.7843322,-23.604982,-9.3593356,2.6499619999999995,-1.0347259999999998,-0.2176162,-0.109121,-135.1930114,72.54275659999999,132.7932862,249.4400586158511,0.6220466715165993,25.530660717952355,1.0629779387265943,-110.53657919999998,87.2395956,-26.991046
2358.035,-25.0201976,244.2597048,80.6827256,-0.0775566,-0.3042166,0.6038072,-25.0455378,-9.583229,159.1791748,-20.5758998,-10.0302084,-4.152689799999999,-1.1014516,-0.2552066,-0.0853374,-134.9354522,72.6437362,133.4911956,258.45408854798774,0.6805482353889105,23.26408316917077,1.1338467743327934,-109.8899144,82.2269652,-25.6879792
2378.018,-17.171485,253.6523866,81.3215806,-0.199286,-0.3510034,0.6395164,-25.3242694,-4.304761399999999,158.48106679999998,-25.5141108,-19.830141,-7.517856399999999,-1.0892256,-0.310623,-0.0698966,-134.1582916,72.8223082,134.8363768,266.9224467823255,0.7562403867002343,33.17713831609921,1.1348059704266276,-108.8340222,77.1270696,-23.64469
2398.002,-15.854117000000002,260.2066102,82.33993539999999,-0.3240568,-0.325889,0.6797262000000001,-25.6400398,1.0973472000000004,157.72301639999998,-11.005995600000004,-38.674829,-13.4054274,-1.0527472,-0.255631,-0.0942668,-131.8272354,73.1330414,137.5006314,273.38379245906407,0.8205145683738223,42.38608051121419,1.0874328047521282,-106.1871956,72.0356942,-20.222384999999992
2417.985,-25.4370072,265.3895906,80.8051484,-0.4439553999999999,-0.3410912,0.6705772000000001,-26.2231316,6.5735042,156.84588939999998,7.348224199999995,-58.424344,-25.0936698,-1.0512918,-0.2177125999999999,-0.0905109999999999,-127.43883660000002,73.436319,141.9230528,278.5823902224878,0.8735636124899205,64.00853563982879,1.0774068247727968,-101.215705,66.8628148,-14.922836599999991
2437.968,-29.2140396,270.92884540000006,80.5400024,-0.5882976,-0.3920912,0.699445,-26.993645000000004,12.1344948,155.83134460000002,3.348986199999996,-75.287398,-29.0875568,-1.0500215999999998,-0.2694232,-0.0791748,-121.8957856,73.7424272,147.62358079999998,284.15240869315096,0.9945113791748188,80.78052962670782,1.0869235806255375,-94.9021406,61.6079324,-8.207763799999992
2457.951,-26.5292996,274.8606386,83.54493099999999,-0.7169964,-0.3935042,0.7054134000000001,-27.829117000000004,17.7793916,154.7309418,1.2785497999999955,-89.2837692,-27.3298366,-0.9445872000000002,-0.3172756,-0.1115812,-115.5431536,74.096747,154.2057738,288.49944520685153,1.080063636055839,93.3817225196272,1.0026759940043646,-87.71403660000001,56.3173554,-0.5251679999999965
2477.935,-34.6566226,275.7676882,84.47602520000001,-0.8370584000000001,-0.3890112,0.6870814000000001,-28.9838716,23.4300644,153.4946136,19.8826064,-95.8655592,-23.767813,-0.8597037999999999,-0.2749354,-0.1222386,-108.299318,74.4107318,161.3189056,290.4911327025359,1.150685590837897,100.74935440383224,0.9108360847252154,-79.3154464,50.9806674,7.824291999999997
2497.918,-44.5837772,276.3071474,86.4356274,-0.9506852,-0.4225997999999999,0.6593678,-30.5226952,29.0829214,152.08417960000003,36.0335518,-82.031793,-16.8511538,-0.8760742,-0.2826392,-0.0945654,-101.531079,74.58651,167.5935364,292.9240013685738,1.2317300175508916,91.16794010237034,0.9253829132631746,-71.00838379999999,45.50358860000001,15.509356799999996
2517.902,-46.6494036,276.0202942,89.755174,-1.0737534,-0.4455368,0.6401516,-32.3379318,34.727655600000006,150.463806,37.62758939999999,-65.980113,-10.1993258,-0.8847536,-0.2949734,-0.0897468,-95.9192948,74.65141639999999,172.6324768,293.97170089357326,1.3271184857232454,76.63704745305829,0.9369379528713522,-63.581363,39.9237608,22.168670799999997
2537.885,-50.4835398,272.2618224,93.0032424,-1.1789758,-0.4302436,0.5886378000000001,-34.5300552,40.2931986,148.58929440000003,47.72150619999999,-53.1590302,-3.890937,-0.8491877999999999,-0.2353128,-0.0669434,-91.102829,74.6988162,104.6353484,292.1039041577851,1.386213530418543,71.5427427244659,0.8837270236426178,-56.57277380000001,34.4056176,-43.953946
2557.868,-58.2412702,265.9593108,92.9393188,-1.2869112,-0.4439251999999999,0.5509352,-37.2986874,45.6875154,146.309445,55.0892368,-35.970410400000006,3.5686588,-0.8893096,-0.1673703999999999,-0.058473,-87.3553086,74.8147952,35.37659,287.687534548733,1.4685842211053202,65.8895269461067,0.9068095208903136,-50.0566212,29.127279800000004,-110.932855
2577.852,-60.7692144,256.5206632,93.6108338,-1.3705494,-0.438194,0.4976634,-40.6173932,50.851311,143.5644928,51.359608,-18.4975982,10.747222,-0.9366368000000002,-0.1023502,-0.0963538,-84.8862826,75.0327456,-35.1292968,279.74762960942536,1.5225270109840154,55.63697739632871,0.9471262393834944,-44.2688894,24.1814346,-178.6937896
2597.835,-60.759838,242.069177,90.74561020000002,-1.4187252,-0.4294627999999999,0.4316348,-44.5423178,55.660274,140.2481322,37.6628152,-7.3517638,15.262491,-0.9583774,-0.0626815999999999,-0.117861,-83.4657626,75.348961,-106.4352752,265.5635708033275,1.54386789922905,41.29745405331208,0.9676298047964004,-38.923444800000006,19.688687,-246.6834074
2617.818,-61.5819802,223.5139952,86.316144,-1.4406396,-0.4247937999999999,0.3846406,-49.1513732,60.013003000000005,136.30923,20.3020222,4.160242800000001,22.257625,-0.9737346,-0.044928,-0.1192458,-83.219391,75.8149232,-106.5947082,247.38901158023884,1.550432398002235,30.41186604279437,0.9820372483968212,-34.0680178,15.801920199999998,-242.9039382
2637.802,-61.0117524,202.8329772,80.92180499999999,-1.420839,-0.4270045999999999,0.3532124,-54.4769508,63.8366182,131.6933578,1.8741725999999967,17.930615799999998,31.471081400000003,-1.0166922,-0.0818846,-0.1076186,-84.454332,76.4771058,-35.8959564,226.74212024939845,1.525082093480846,36.26911179484861,1.025646079465992,-29.977381200000004,12.640487599999998,-167.5893142
2657.785,-59.1074122,182.119116,74.7516664,-1.368712,-0.4313296,0.3239344,-60.6149666,67.09111580000001,126.2794678,-12.103392800000004,17.3808754,31.428261799999994,-1.0370954,-0.1284534,-0.0743993999999999,-85.9605162,77.1317902,34.8112,205.545299676687,1.4711734290298748,37.89884677283408,1.0476652210477737,-25.345549600000005,10.0406744,-91.4682678
2677.768,-53.61999099999999,162.9527556,68.37865760000001,-1.2977814,-0.4447044,0.3188722,-67.5646416,69.78324760000001,119.990657,-19.337984400000003,19.2351364,35.4879572,-1.0457338000000005,-0.2040172,-0.0448441999999999,-87.9229704,77.8582504,105.2029418,184.67361697776823,1.408431058127504,44.75872226963455,1.0663926109233506,-20.3583288,8.075002799999998,-14.787715200000005
2697.752,-49.2646878,146.8786118,62.70265439999999,-1.2367426,-0.4535554,0.3232334,-75.3256318,71.9357148,112.8306168,-21.37411340000001,18.775776200000003,36.5861048,-1.0449226,-0.2384457999999999,-0.0148447999999999,-90.0867202,78.59701379999998,175.43538819999998,167.12857008043957,1.3563644755004016,46.34571781713096,1.0718861915406133,-14.761088400000002,6.661299,62.6047714
2717.735,-42.2968982,132.1082078,57.0523048,-1.1816302,-0.4596892,0.3236666,-83.64414380000001,73.5781526,104.995282,-16.356770600000004,17.0152232,35.90611199999999,-1.0261641999999995,-0.2353729999999999,3.660000000000053e-05,-92.2321914,79.318344,173.59068000000002,149.98857172618602,1.3085580453706438,42.96871703883404,1.0528121465058236,-8.588047600000001,5.7401914000000005,68.595398
2737.719,-33.9582356,117.0402786,50.85233,-1.14536,-0.4572952,0.3234082,-92.094211,74.753174,96.8923752,-11.975876800000004,14.441259400000002,33.2222188,-0.9904224,-0.2015155999999999,-0.0462676,-94.3930832,79.968875,171.65023200000002,132.05130838526225,1.2749750167631837,38.15347192827856,1.0117735706544622,-2.2988722,5.215700999999998,74.7578568
2757.702,-25.757117,99.271672,43.773734000000005,-1.122052,-0.4581115999999999,0.3098455999999999,-100.0208986,75.5177432,89.1899934,-7.245669200000004,19.860107,35.1773046,-0.9951408,-0.1567604,-0.0679095999999999,-97.3934648,80.635771,168.76808160000002,111.50979206388124,1.2509481302587728,41.04103228634069,1.0096983453512045,2.6274338000000004,5.118027799999998,79.5780882
2777.685,-20.126441,78.340998,35.195071,-1.1094562,-0.4643864,0.3291988,-106.7839814,75.9532396,82.5879152,-10.298454000000005,20.7866496,29.891273,-1.0115858,-0.136548,-0.066831,-100.8218492,81.1700652,165.517044,88.2104223867992,1.246964168749383,37.83690206589098,1.022945536002108,5.962132199999999,5.216825599999998,82.92912880000002
2797.669,-9.7681778,55.3332428,26.4314282,-1.0926234,-0.482689,0.3524526,-111.7575164,76.1806398,77.6349154,-12.178216000000004,19.6784308,25.8680384,-1.0243524000000002,-0.1867796,-0.0544845999999999,-104.3578186,81.60485079999998,162.1979124,62.095132280943886,1.2454065200549258,34.708860458922,1.0426663080770762,7.399697800000001,5.424211,84.56299700000002
2817.652,1.829972,33.6880168,17.213370199999996,-1.0693646,-0.5131416,0.3667196,-114.7532104,76.284517,74.496326,-8.787057600000002,17.342519,22.5301448,-1.0409466,-0.2573502,-0.0506807999999999,-107.6006928,81.95448,159.1068662,37.87520807969396,1.2415064294669924,29.75874276981549,1.0734838112334253,7.152517600000001,5.669963000000001,84.61054020000002
2837.635,14.4696762,13.8767636,8.8804812,-1.0601326,-0.5273961999999999,0.3616122,-115.787416,76.342247,73.1241458,1.164088999999997,12.454992,16.766663200000004,-1.053844,-0.2837348,-0.0358966,-109.922435,82.1892548,156.74432059999998,21.927130311253336,1.2380594753670116,20.918960867648742,1.091962077619273,5.864981,5.847007800000003,83.6201748
2857.618,26.0840018,-4.4426264,1.497891,-1.0537816,-0.5178459999999999,0.3504554,-114.9778488,76.3979202,73.4149554,10.312853,9.1108944,10.7275092,-1.048056,-0.2620194,-0.0407525999999999,-111.51146839999998,82.3190904,154.93679200000005,26.50199533394158,1.2253322519234202,17.448288953466037,1.0810810883181334,3.4663804,5.921170200000001,81.5218366
2877.602,34.532442200000006,-21.4489534,-5.7782724000000005,-1.0631504,-0.492139,0.3223486,-112.4771958,76.43442539999998,75.2746066,17.789064199999995,6.642500799999999,5.9745686,-1.0484026,-0.2149558,-0.0532715999999999,-112.5252912,82.3865754,153.5598694,41.06014610519932,1.21507126879995,19.90650878345643,1.0715371533488516,-0.0480953999999997,5.952150000000003,78.28526280000001
2897.585,40.5016182,-38.5170422,-13.0447428,-1.076187,-0.4621427999999999,0.2980724,-108.3493776,76.3990312,78.6859606,20.896860799999995,4.6913104,1.6721718,-1.036282,-0.1480455999999999,-0.0745474,-112.9921798,82.39131320000001,152.6708466,57.39432839029745,1.2085535082083043,21.48216337086281,1.049454714625705,-4.642802200000003,5.992282000000003,73.984886
2917.569,43.4375726,-57.147567,-20.1696764,-1.0946456,-0.4167813999999999,0.2855569999999999,-102.6643556,76.22536319999999,83.636493,17.558067599999994,3.2821456,-1.4431578000000005,-1.0264736,-0.0920807999999999,-0.0691963999999999,-113.12424,82.35453340000001,152.18535160000002,74.56194051579182,1.205611266219058,17.920405185750397,1.032915808281856,-10.459884400000002,6.129170200000004,68.5488586
2937.552,43.6106186,-77.0371652,-27.8102516,-1.1092358,-0.3980826,0.2967153999999999,-95.6212648,75.813707,89.9781464,9.0530412,2.9055488,-3.3171542,-1.0197022,-0.073554,-0.082893,-113.346965,82.2916428,151.78088680000002,92.79019867842756,1.2152834422559866,10.069919601697746,1.0257065940364427,-17.7257002,6.477935800000006,61.802740400000005
2957.535,43.445466,-97.3253282,-35.292942,-1.130266,-0.3906632,0.3122322,-87.56919859999999,75.05539999999999,97.372116,0.5340987999999974,1.243744,-4.3533468,-1.00496,-0.0857869999999999,-0.080976,-113.4258682,82.2156494,151.6924864,112.27341528701366,1.2359643657108728,4.558924108467663,1.011860229253527,-25.8566696,7.160249400000007,54.3203704
2977.519,45.063363,-117.3202638,-42.05231,-1.1507148,-0.3966622,0.3415134,-79.014952,73.8493072,105.2813918,-5.327193000000003,1.0543802000000002,-5.1409332,-0.991142,-0.0796825999999999,-0.0851866,-113.5242538,82.1241104,151.701898,132.52602672421543,1.2641664661853045,7.477960753592073,0.9979822331716732,-34.5093018,8.274803200000004,46.4205062
2997.502,44.068322,-137.18226020000003,-48.6379158,-1.186072,-0.3948509999999999,0.3684842,-70.5725486,72.102333,113.14456479999998,-13.5975368,1.8399566,-6.276998000000001,-0.9839586,-0.0745324,-0.0893702,-113.8419462,82.007492,151.6569762,152.0744435164702,1.3032477535122169,15.089040765046724,0.9908161473309568,-43.269397600000005,9.905159000000005,38.5124114
3017.486,41.989553,-157.0739014,-55.276572400000006,-1.2206732,-0.4018761999999999,0.3962906,-62.74578620000001,69.7710342,120.484044,-23.744482800000004,3.2265696,-7.994878,-0.9770348,-0.086404,-0.0963929999999999,-114.439746,81.8415512,151.5338256,171.72895072890063,1.3448396859748897,25.261221052396184,0.985573062779234,-51.6939598,12.070517,31.0497816
3037.469,39.5975976,-176.1359008,-61.4318184,-1.243604,-0.40815,0.4268222,-55.82974299999999,66.8680916,127.0149538,-32.9179826,4.5082912,-10.6048376,-0.9855782000000002,-0.113442,-0.0690202,-115.0819502,81.61346739999999,151.547299,190.6979118874917,1.376704224490083,34.876651910988734,0.9944834154913196,-59.25220720000001,14.7453758,24.53234520000001
3057.452,38.4865922,-193.2430114,-66.9235482,-1.257142,-0.4282206,0.4801368,-49.939028,63.4443878,132.589342,-41.7054012,5.568842,-14.6585304,-1.001872,-0.142617,-0.0422322,-115.65104820000002,81.29835499999999,151.80824579999998,208.0933457316388,1.412200494668728,44.55586385608128,1.012852739439372,-65.71202020000001,17.8539672,19.21890380000001
3077.435,37.4926812,-208.1263184,-71.558043,-1.258194,-0.438054,0.534548,-45.0604698,59.573909,137.2060304,-49.6485594,7.153937999999999,-17.694721199999996,-0.9927442,-0.1728382,-0.0281594,-116.2953904,80.9081282,152.1510254,223.25505385610617,1.4355086251416256,53.190802191252025,1.0080709507873145,-71.2349206,21.3342192,14.94499500000001
3097.419,38.1561152,-220.8132996,-76.0292022,-1.24842,-0.4555856,0.587112,-41.103965,55.3292366,140.9155854,-50.781833600000006,11.2083154,-17.5344282,-0.9743554,-0.2035888,-0.0452316,-117.3293596,80.46186499999999,152.1204804,236.63229279741915,1.4528631167014188,54.8805715183882,0.9964249809359258,-76.2253946,25.1326284,11.204895000000011
3117.402,39.12427699999999,-232.0627412,-79.033345,-1.2238912,-0.4689788,0.6303656,-37.8723426,50.7676072,143.90921319999998,-45.097567000000005,18.4246972,-17.6983756,-0.945753,-0.2253795999999999,-0.0653358,-118.8747238,79.93139160000001,151.45405879999998,248.25409266700905,1.4543766960283158,51.83138542533715,0.974429816798932,-81.0023812,29.163784400000004,7.544845600000011
3137.386,39.029720600000005,-242.08912680000003,-81.64383540000001,-1.1866528,-0.4812766,0.6819164000000001,-35.218459,45.933918,146.3506988,-36.87326660000001,29.727112,-18.0797652,-0.9340548,-0.2401009999999999,-0.0832963999999999,-121.1095428,79.2643444,149.917099,258.4495700590791,1.450786686609841,50.697306509343775,0.9680109244512688,-85.8910838,33.3304264,3.5664002000000066
3157.369,38.0410876,-251.18612080000003,-84.0807982,-1.1397068,-0.4863724,0.733316,-33.026145199999995,40.867397,148.37046800000002,-27.478203600000008,43.5248822,-15.6148468,-0.9415122,-0.2343306,-0.0993153999999999,-124.1848694,78.4749692,147.32711780000002,267.6026387281938,1.439875708977688,53.78931570669402,0.9753048761912144,-91.1587242,37.60757220000001,-1.043350199999995
3177.352,36.767615,-259.1532898,-86.03075700000001,-1.074179,-0.486127,0.7704905999999999,-31.2086246,35.593529800000006,150.06296980000002,-17.9992442,55.7082404,-11.5943806,-0.9614774,-0.2609822,-0.1174436,-127.8332,77.5681364,143.9476134,275.5241845590765,1.408487042488627,59.68090567118668,1.0031667351983715,-96.6245754,41.9746066,-6.115356399999993
3197.336,37.5737986,-264.9022034,-87.177919,-0.975465,-0.4882194,0.7874437999999999,-29.6442546,30.1604194,151.4998656,-7.944390000000003,63.8287964,-7.4729376,-0.9822726,-0.2735842,-0.1117496,-131.63715059999998,76.58799880000001,140.1889952,281.3982183109532,1.3453467534133348,64.75394488923627,1.025765932511194,-101.992896,46.4275794,-11.310870399999995
3217.319,37.1020952,-268.4919434,-87.9050262,-0.8688012,-0.4858176,0.8203376,-28.3103298,24.6247504,152.7224854,3.5713365999999973,66.58411559999999,-2.2973062000000004,-1.0264574,-0.2781898,-0.113899,-135.2372376,75.61289959999999,136.38925160000002,284.94171819893506,1.289879080985873,66.71938632152742,1.069568764053906,-106.9269078,50.9881492,-16.3332338
3237.302,37.3207024,-270.9287598,-88.1685852,-0.7675403999999999,-0.4740976,0.8368414,-27.1461334,19.0192946,153.7756958,16.439337199999997,60.368478800000005,5.805565800000001,-1.0636244,-0.2585136,-0.118335,-138.3454958,74.81545559999999,132.82214960000002,287.3480940089304,1.230524412074738,62.83557618467013,1.1009674463331425,-111.1993624,55.796161,-20.953546199999995
3257.301,39.3472786,-272.294037,-87.8821656,-0.6574122,-0.4564102,0.8316372,-26.0819604,13.366683400000005,154.69312759999997,27.5595138,46.4237508,10.4236526,-1.0813294,-0.2538269999999999,-0.1193589999999999,-140.52523820000002,74.2664276,129.97841499999998,288.81746129610866,1.1541756815133128,54.98494314590475,1.1171159242058812,-114.4432778,60.89974420000001,-24.714712599999995
3277.269,42.0030144,-272.794971,-87.5855958,-0.5499556,-0.441193,0.8158733999999999,-25.0787698,7.6933952,155.491788,37.6629382,26.3765738,9.2386354,-1.0861758,-0.2504483999999999,-0.1136404,-141.3643954,73.9967346,128.31254280000002,289.5731099622657,1.0783097097067798,46.89960493797361,1.1204536626207977,-116.2856256,66.3033394,-27.17924519999999
3297.252,43.3510368,-272.8608768,-86.550789,-0.4488698,-0.409389,0.8109464,-24.135579,2.01521,156.19946,46.6471282,8.419214,4.718181800000002,-1.0938506,-0.2368926,-0.1204286,-140.8956514,73.9406434,127.8171326,289.52272718427866,1.013270701414977,47.63506033566959,1.125668817527198,-116.76007239999998,71.9254334,-28.3823274
3317.236,44.7801262,-272.2900638,-85.7939042,-0.3557548,-0.3784967999999999,0.7938924,-23.2328858,-3.656770400000001,156.8207246,49.8863012,-4.845064600000001,-2.4556481999999997,-1.0992,-0.213527,-0.1225766,-139.4207552,73.99708719999998,128.30320139999998,288.97704501322374,0.9487288591115168,50.18115090825894,1.1264366127734662,-116.1878694,77.65385760000001,-28.5175232
3337.219,49.948941000000005,-271.2136172,-84.2383424,-0.2652872,-0.3557008,0.7553257999999999,-22.2823292,-9.306222600000002,157.37308979999997,49.7583526,-13.132021,-14.3710378,-1.0754031999999998,-0.202806,-0.1273844,-137.0087464,74.01758279999999,129.7685792,288.35363911702115,0.8760236422323999,53.43098685649925,1.101748202435384,-114.7264172,83.3238054,-27.6045106
3357.202,52.79070959999999,-269.7235536,-81.62078260000001,-0.1757514,-0.3078038,0.7086165999999999,-21.3233612,-14.916802999999998,157.87633680000002,49.4387824,-19.1490168,-24.1013384,-1.044933,-0.1928418,-0.1376638,-133.89661859999998,73.9714584,131.9732148,286.70473755925286,0.7923188876279298,58.23875481389129,1.0714589381524051,-112.57325740000002,88.88826139999999,-25.903122000000007
3377.186,51.2145324,-266.80601199999995,-79.0278352,-0.0732036,-0.257106,0.648089,-20.426043,-20.4607984,158.3245972,51.2820242,-18.5349692,-32.8650718,-1.0365882,-0.155826,-0.1516446,-130.4498382,73.753241,134.492923,282.9377583580762,0.7010574970784922,63.667134643499466,1.0591472623598663,-110.0237952,94.2140394,-23.831674200000005
3397.169,47.0960334,-261.540039,-77.34143839999999,0.022719,-0.2236845999999999,0.5995058,-19.6149492,-25.8920442,158.69227,50.82148199999999,-15.614127200000002,-42.3876278,-1.0323374,-0.1412674,-0.1651341999999999,-126.9266982,73.3129974,137.109607,276.77233686898046,0.640279749384439,67.99511005510202,1.054962695905007,-107.311749,99.2050416,-21.582663000000004
3417.153,46.905447200000005,-253.753604,-74.48546000000002,0.1049653999999999,-0.1926892,0.5366492,-18.8002074,-31.1549828,158.98845839999998,49.9259818,-12.0711844,-46.1992058,-0.992042,-0.1469114,-0.1834982,-123.64390699999998,72.7330872,139.5012146,268.5872228372608,0.5797751519808693,69.08461310641819,1.0195106074078877,-104.8436996,103.88807,-19.48724380000001
3437.136,42.9532706,-242.7283142,-70.708635,0.1919972,-0.1381463999999999,0.4750126,-18.0349672,-36.188691600000006,159.20484620000002,51.91159799999999,-5.9940776,-43.016277,-0.9402248,-0.1522228,-0.2157115999999999,-120.90525340000002,72.10861200000001,141.2854828,256.4404980364333,0.5306451948331955,67.68414186594342,0.9765889359138982,-102.8702862,108.2973036,-17.919363400000012
3457.119,37.2282886,-228.2559326,-67.1070382,0.2753286,-0.1246938,0.4011584,-17.353589399999997,-40.9325248,159.3355712,57.91786019999999,4.3320802,-39.652332,-0.8965318,-0.171258,-0.2336018,-118.809268,71.40375359999999,142.2729218,240.8112763455169,0.5022772577242176,70.32462500464683,0.9421615423792674,-101.4556786,112.3362784,-17.062649400000005
3477.103,34.0947734,-210.6684112,-61.787219400000005,0.3418279999999999,-0.1147096,0.3455182,-16.7107318,-45.3128326,159.40818180000002,62.2891738,18.0192288,-32.5465794,-0.8767008000000001,-0.2151464,-0.2484873999999999,-117.6333234,70.6670668,142.20211799999998,222.17401632934792,0.4993871248314277,72.55283323119684,0.936289620850493,-100.9225916,115.9798994,-17.206063800000003
3497.086,32.2461464,-190.0074736,-53.9839876,0.4041013999999999,-0.0993226,0.2643116,-16.1003808,-49.2607842,159.46691579999998,65.33533159999999,30.733552600000003,-22.4296798,-0.8351586,-0.2339506,-0.2623186,-117.3307508,69.9738402,141.140683,200.1422616508115,0.4929741801020414,75.60652978830237,0.9061091646707256,-101.23037,119.2346244,-18.3262328
3517.069,25.84319,-165.6688078,-45.4358462,0.4830363999999999,-0.0753278,0.1855003999999999,-15.619981,-52.700708,159.5218138,66.10191560000001,38.0074612,-11.363017,-0.7991605999999999,-0.2217054,-0.2722141999999999,-117.6110762,69.40732399999999,139.437906,173.71943030979435,0.522885111260552,77.09181868526206,0.8728754319278094,-101.9910952,122.108032,-20.083907799999995
3537.053,17.6718246,-137.67733579999998,-37.0134796,0.5605274,-0.075603,0.1129289999999999,-15.306718800000002,-55.5562996,159.57012619999998,58.2072146,37.971333400000006,-6.2713768000000005,-0.7945932,-0.2196742,-0.2711664,-118.1415512,68.930876,137.63342899999998,143.65702158188697,0.5767666242084054,69.77988362437979,0.8678515565007878,-102.8348324,124.4871756,-21.93669719999999
3557.036,10.572055,-105.377036,-28.2714754,0.6285062,-0.0632578,0.0632558,-15.107727,-57.7381644,159.5867522,41.2448846,33.081988,0.1631801999999997,-0.799807,-0.2073046,-0.2867771999999999,-118.903836,68.615425,135.9396178,109.61461756700668,0.6348408374804821,52.873292534862365,0.8745899592780608,-103.796109,126.3535894,-23.64713439999999
3577.02,2.6506428,-69.1938732,-19.7805452,0.6832071999999999,-0.0553258,0.0220764,-15.0130886,-59.1772246,159.5404752,20.4142572,22.1810836,4.250762999999999,-0.7744758,-0.1910076,-0.2961919999999999,-119.6335448,68.4765074,134.72121579999998,72.01449829083109,0.6857990884467839,30.44357654383121,0.8508973903517392,-104.6204562,127.653732,-24.8192594
3597.003,-5.3187386000000005,-31.0500058,-10.9305816,0.7216062,-0.0528484,0.0135239999999999,-15.0281618,-59.8336868,159.4362058,-1.623213800000002,9.3313314,6.4699206,-0.7730632,-0.1988502,-0.3006149999999999,-120.2809326,68.49186080000001,134.0653472,33.34470654525875,0.7236652263560824,11.470328735805298,0.852958083061108,-105.2527708,128.3255476,-25.3708586
3616.986,-12.920318600000002,6.821228199999998,-1.7900434000000005,0.7375079999999999,-0.0566134,0.0279184,-15.159331599999998,-59.71128159999999,159.2897398,-22.553587200000003,-1.1371744,5.3383296,-0.7892007999999999,-0.232756,-0.2970504,-120.87223199999998,68.5765182,133.9217406,14.719648170247304,0.7402044070269509,23.204637987313127,0.8747869445738202,-105.7129004,128.2877998,-25.3679992
3636.97,-19.7003342,42.2512438,8.173701,0.7406294000000001,-0.0682592,0.0485478,-15.429280599999998,-58.852681800000006,159.14718,-38.5202798,-8.814063,6.151136800000001,-0.796774,-0.2615712,-0.2875964,-121.4805022,68.743341,134.10469959999998,47.32948508357268,0.7453510014844282,39.99170096870814,0.8865551246473059,-106.0512216,127.5960228,-25.0424804
3656.953,-27.4895078,73.7618722,18.563371,0.7356086,-0.0836658,0.0801698,-15.8890614,-57.3310938,159.044763,-48.3227522,-15.997798799999998,3.7707026,-0.8065464,-0.2831862,-0.2726442,-121.9188796,68.9409394,134.6813446,80.87697801240495,0.7446792432421089,51.0415139344978,0.8972437678897747,-106.0298182,126.2720332,-24.3634184
3676.937,-34.7859072,100.9576126,29.384745599999995,0.7135604000000001,-0.0926058,0.1416398,-16.555439999999997,-55.2268876,159.0139434,-56.9796202,-18.5936198,3.682972200000001,-0.8311038,-0.2979337999999999,-0.2599722,-122.43322600000002,69.16225,135.36401360000002,110.751804299503,0.7333526515843793,60.04968026250575,0.920371457798274,-105.877786,124.3891376,-23.649929799999992
3696.92,-40.2484576,124.584262,40.0509298,0.6854828000000001,-0.1144719999999999,0.1918444,-17.387121399999998,-52.6132652,159.05000919999998,-64.357112,-19.1184568,8.465633,-0.8560320000000001,-0.3061094,-0.2397036,-123.1869232,69.47418239999999,135.94450680000003,136.91330707826822,0.7209679477557932,67.66845792158041,0.9401869844054002,-105.7998018,122.0874476,-23.105502399999992
3716.903,-43.5819224,145.2093384,50.4160314,0.6601062000000001,-0.134408,0.2178618,-18.3237564,-49.5436234,159.13486319999998,-68.5892592,-17.779781,14.0864176,-0.8830624,-0.3090924,-0.2143488,-124.2278748,69.87251,136.30362540000002,159.77143718691124,0.7080038627307623,72.24288373822252,0.9598347368651337,-105.9041184,119.4161334,-22.831237799999997
3736.887,-46.1444666,164.4443724,58.9868738,0.6117544,-0.1539998,0.2585476,-19.3019268,-46.0556152,159.2037536,-69.0354202,-15.1908416,20.5592648,-0.9052324,-0.3158434,-0.2056651999999999,-125.596463,70.34690259999999,136.320108,180.6950876269898,0.6817670025640432,73.61612785133009,0.9805615359702624,-106.2945362,116.40251779999998,-22.88364559999999
3756.87,-47.5587786,181.054962,66.924576,0.5351234,-0.1600956,0.3393988,-20.2764328,-42.1928946,159.2369568,-63.5745824,-5.8423072,26.1140746,-0.923136,-0.2962586,-0.209257,-127.4982376,70.80399639999999,135.6557464,198.80049184930365,0.6535894734528396,68.97684374460698,0.9918355330491846,-107.2218048,112.996891,-23.5812104
3776.853,-45.0618288,195.273953,73.75492940000001,0.4613066,-0.2041191999999999,0.3647542,-21.1748336,-38.0128966,159.22674560000002,-57.868984,0.205338,26.9166052,-0.9448532,-0.276481,-0.1770434,-129.5807738,71.2141968,134.6753204,213.54689121091343,0.6225062677835782,63.8229199299058,1.0002668036053182,-108.4059402,109.2270934,-24.5514252
3796.837,-42.3688616,207.3937986,79.916481,0.3942414,-0.214691,0.4028269999999999,-21.992535600000004,-33.555057399999995,159.1712952,-56.2732382,5.3816848,26.5429342,-0.9548322,-0.2741646,-0.1635162,-131.8956632,71.5426406,133.4156464,226.26080541366565,0.6031484882547249,62.45131883912477,1.0067811607854211,-109.9031276,105.097698,-25.7556488
3816.82,-41.2267702,217.81434,83.1005706,0.300985,-0.2400264,0.4786882,-22.7499148,-28.8782254,159.0266084,-48.2551962,11.1556846,24.021838,-0.9568412,-0.2617625999999999,-0.1620001999999999,-134.2393888,71.740747,131.956781,236.74551342064493,0.6142857932112706,55.04599858385181,1.0051411868868174,-111.48947400000002,100.6189724,-27.0698274
3836.803,-37.931650000000005,225.3025054,86.5211226,0.2020954,-0.2667994,0.5505234,-23.428283200000003,-24.0387394,158.828177,-44.1394316,13.810862,17.4688018,-0.9821756,-0.2514496,-0.135892,-136.3964446,71.80905920000001,130.6099456,244.3070479278151,0.6442829227048316,49.43873347368241,1.022918592185869,-112.9681614,95.8477986,-28.2182314
3856.787,-33.2956342,231.4157166,89.0510238,0.1222238,-0.3027472,0.5587514,-24.0206558,-19.078190600000003,158.5824678,-49.54863,8.868895,13.56122,-1.0162432,-0.2806802,-0.1163856,-138.2624054,71.8865494,129.67873519999998,250.1837684305277,0.6471457729107407,52.13089987029118,1.0606965749476331,-114.2417496,90.96474,-28.9037326
3876.77,-33.0350774,237.5233522,90.3414368,0.0389434,-0.3040814,0.5970486,-24.6084232,-14.0024856,158.2622194,-47.4056826,6.125966399999999,12.931509200000002,-1.0243286,-0.2647074,-0.1153643999999999,-139.96005259999998,71.98371879999999,128.88006879999998,256.2620424140837,0.6711550618087299,49.518179866545545,1.0642499862250785,-115.3516294,85.9862044,-29.3821506
3896.754,-33.5872182,243.4716738,89.099965,-0.0698446,-0.336559,0.6452198,-25.2131714,-8.8364654,157.818213,-36.5387652,2.0275512000000004,7.869358600000003,-1.0662604,-0.2371935999999999,-0.0924694,-141.05780959999998,72.0728928,128.4847166,261.4294568949514,0.7310669045594939,37.43152589709303,1.0962311044781936,-115.8446382,80.9093582,-29.3334964
3916.737,-32.2486406,248.5376192,88.59463819999999,-0.1792948,-0.3549522,0.6729564,-25.825901800000004,-3.5929912,157.2695496,-31.9989786,-14.418784,-3.002955799999998,-1.1141166,-0.2528903999999999,-0.0853612,-140.8847352,72.2732682,129.3291716,265.8193614015749,0.781670010869574,35.225753462753175,1.1456421287964056,-115.0588334,75.8662594,-27.940378
3936.72,-33.591940400000006,254.0345186,86.5279374,-0.2817014,-0.3668269999999999,0.6820556,-26.5206452,1.7234174000000002,156.5755768,-27.8772252,-32.52853,-7.921395199999997,-1.1160149999999998,-0.2626456,-0.105654,-139.53302000000002,72.6657776,131.3169524,270.4607902282126,0.8240858985459707,43.56596665663461,1.15136221891304,-113.0123748,70.94236020000001,-25.2586244
3956.704,-33.993424000000005,260.4410738,84.53881080000001,-0.4095791999999999,-0.3984518,0.7078819999999999,-27.298963200000003,7.126887999999999,155.7122924,-16.041464,-52.05808939999999,-13.797698999999998,-1.0823638,-0.2534253999999999,-0.112683,-136.5923584,73.2121398,134.71119679999998,275.9201267193443,0.9097339632661188,56.19385853397405,1.1173331138942406,-109.2933952,66.08525180000001,-21.0010956
3976.687,-32.513725,264.49032,84.3941606,-0.5396862,-0.4137427999999999,0.7383611999999999,-28.13924,12.5903084,154.7202026,-4.532101599999999,-70.6188318,-16.765991999999997,-1.0186628,-0.2804788,-0.1526592,-132.0985688,73.90622859999999,139.4760498,279.52575199873195,1.0038035468595037,72.7231588797783,1.067542546551621,-103.9593288,61.31592020000001,-15.2441528
3996.67,-34.465984000000006,266.4788148,85.4829422,-0.6697038,-0.4327426,0.7184154,-29.136081,18.084196400000003,153.6151458,7.1229858,-85.6014528,-23.7025612,-0.9656866,-0.2952746,-0.171259,-126.0417054,74.5902724,145.6116332,281.9684312072355,1.0732613961875084,89.10755891403026,1.0242398859181965,-96.9056244,56.50607599999999,-8.003512600000002
4016.654,-39.8572074,267.3106812,88.59080960000001,-0.7923034,-0.4548576,0.6901436000000001,-30.372557800000003,23.6036494,152.40832519999998,12.714488800000002,-85.3463448,-21.4729202,-0.9164232,-0.2707346,-0.1725741999999999,-119.76236880000002,75.1682158,151.8503662,284.4150643178348,1.1449621402257282,88.91986897247082,0.971035817898104,-89.38981100000001,51.5645664,-0.5579590000000021
4036.637,-44.958319,266.2202148,93.7045578,-0.9213548,-0.4790321999999999,0.6890974,-31.8568932,29.1309288,151.1125764,21.5043268,-76.96697400000001,-19.0893422,-0.8625116,-0.242687,-0.1752012,-113.657338,75.57014,157.71758419999998,285.78837864398446,1.246283171196113,82.16297306857011,0.912972453354974,-81.80044480000001,46.4392112,6.605007800000001
4056.62,-51.16808,261.510095,97.7926392,-1.0384272,-0.4779208,0.669996,-33.645363,34.588311399999995,149.6979798,29.7042232,-59.5593804,-15.6910828,-0.8266895999999999,-0.1979714,-0.1555816,-108.4315902,75.76091,162.49852900000002,283.84697017846923,1.3250033889724508,68.38033890661684,0.8641840106277597,-74.7862272,41.1725986,12.8005492
4076.604,-57.3507492,254.7718136,98.309854,-1.146412,-0.499503,0.6165938,-35.817288,39.8947686,148.0521516,32.311594400000004,-43.0462714,-13.036293999999998,-0.9013622,-0.1695044,-0.1049152,-104.21815180000002,75.8052186,166.17702920000002,279.0387299862436,1.3942566603575683,55.38019118210956,0.9231428688990888,-68.40086380000001,35.910450000000004,18.12487760000001
4096.587,-60.2722352,246.292999,97.5149916,-1.2317118,-0.5017341999999999,0.5785454,-38.3871996,44.9989336,146.09208080000002,28.5383792,-31.0393054,-9.003909199999999,-0.9400466000000002,-0.1626286,-0.1053596,-101.0936034,75.78948679999999,168.80917960000002,271.6655246422817,1.4503675208615368,43.115518644211,0.9598105630913218,-62.7064038,30.7905532,22.71709880000001
4116.571,-61.1668626,235.8216124,94.424777,-1.3008804,-0.5065266,0.5521942,-41.4176798,49.8387224,143.704651,32.0933576,-18.321286,-0.8594229999999996,-0.9330978,-0.1421406,-0.1366274,-98.995198,75.85652619999999,170.31025060000002,261.2838618567225,1.501258620666459,36.96473631216923,0.9536993766192572,-57.57751820000001,26.017803800000003,26.605599600000016
4136.554,-59.1050492,222.1758208,89.1494048,-1.3487994,-0.50049,0.5004033999999999,-44.9205156,54.3229288,140.8196472,36.3713772,-4.5054058,12.5000154,-0.9491378,-0.0838662,-0.1667332,-98.060997,76.1332642,170.52579020000002,246.58288376382168,1.5232050499758465,38.722424328127886,0.9673138388721212,-53.1404814,21.8103354,29.706143000000008
4156.537,-55.3518052,204.532022,81.9208906,-1.359333,-0.5014484,0.443492,-48.8727036,58.3541788,137.440265,30.3826758,3.966479000000001,21.0338524,-1.028346,-0.0858572,-0.1523232,-98.066089,76.5519288,169.9003996,227.174388254936,1.5152299682937769,37.16534529922105,1.043105609114475,-49.1933854,18.197750000000003,32.4601346
4176.521,-52.891903,185.3861786,74.47175200000001,-1.3435434,-0.4960392,0.4112606,-53.2857422,61.8900834,133.5929184,15.261829999999998,7.931708,23.4476214,-1.0504296,-0.104766,-0.1280205999999999,-98.7072678,77.00439,168.9307556,206.6679231637605,1.4900667893529336,29.079656051334272,1.0633755373039762,-45.4215256,15.1143066,35.3378372
4196.504,-47.5772286,167.13253479999997,67.4718756,-1.3170318,-0.4941125999999999,0.3999772,-58.1497476,64.92562559999999,129.2323304,3.267457199999998,11.4539028,31.1738022,-1.0470482,-0.1408042,-0.1070886,-99.9722062,77.5965042,167.5664398,186.41172405970536,1.462430095495111,33.37175616461328,1.0618868697327604,-41.8224586,12.670878600000004,38.33410940000001
4216.487,-39.819470800000005,149.72240140000002,60.8575606,-1.2605398,-0.4891204,0.3856467999999999,-63.4430284,67.46835939999998,124.3317398,-3.2284614000000014,13.8665592,37.0675088,-1.0417496,-0.1571434,-0.0716398,-101.8545884,78.2855988,165.7092012,166.45128541996138,1.4060308700133293,39.70774024918155,1.055968057380411,-38.41156,10.817239400000004,41.3774614
4236.471,-34.5607104,134.1072128,54.1317336,-1.1910628,-0.4838324,0.371091,-69.201809,69.54014439999999,118.8951508,-9.9905096,9.4306272,31.3340062,-1.0619054,-0.2297775999999999,-0.0373878,-103.5903886,78.86323999999999,164.1453524,148.69240670215316,1.338070594219378,34.21354930425533,1.087124036897244,-34.3885796,9.323095600000002,45.25020160000001
4256.454,-28.688699799999995,121.0727798,48.5800338,-1.1377528,-0.4824828,0.3654782,-75.2900034,71.2138274,113.028624,-7.999627799999999,10.1496072,30.1203366,-1.0153338,-0.2160677999999999,-0.0700922,-105.60495,79.3919494,162.26413300000002,133.57274867548003,1.288737910080603,32.77565023230088,1.0404330522047636,-30.314946600000003,8.178121999999998,49.235509000000015
4276.438,-20.6165482,107.3865248,43.2753964,-1.1097742,-0.4745632000000001,0.3552178,-81.36631179999999,72.5337402,107.0346742,0.0953870000000003,13.8820976,32.182067800000006,-0.9728588,-0.1773237999999999,-0.0992062,-108.1683792,79.934317,159.6671816,117.5996075753702,1.2581687848681988,35.048640777346726,0.9938510174580092,-26.80206740000001,7.400576799999999,52.63250740000001
4296.421,-13.566000399999998,89.9620802,36.93266799999999,-1.082453,-0.4657078,0.3496788,-86.9802186,73.51767579999999,101.3997986,4.915062800000001,20.0030642,32.240982,-0.9659048,-0.1224613999999999,-0.1257206,-111.55686959999998,80.42354900000001,156.1398684,98.18978667031648,1.229171881942993,38.25913407333718,0.9817201976211756,-24.576651,6.905873199999999,54.7400698
4316.404,-9.8607706,69.94122060000001,29.1801628,-1.0732052,-0.4562042,0.347225,-91.739708,74.1866882,96.5910324,0.8835606000000013,19.162134,26.793793,-1.0041258,-0.1355612,-0.1221776,-114.9437624,80.7721102,152.6970522,76.42310538625209,1.2167402656399926,32.95262359956605,1.020574753319344,-23.2040544,6.585421999999999,56.1060198
4336.388,-4.6409956,48.545406400000005,21.414604,-1.0653576,-0.4614482,0.3523642,-95.2312852,74.61147159999999,93.001767,-2.7191165999999987,20.4783752,24.2307232,-1.021684,-0.1362591999999999,-0.0979624,-118.502376,81.0334322,149.1516022,53.26143621023749,1.2132937758855602,31.84156705803577,1.0353750032014488,-23.271090800000003,6.4219606,56.149835200000005
4356.371,0.6016990000000003,27.90404,13.9682028,-1.0589888,-0.455582,0.3749235999999999,-97.2807572,74.8591234,90.8156998,-6.798550999999999,16.8419812,20.2243742,-1.0470596,-0.1774665999999999,-0.0633459999999999,-121.6172548,81.2256196,146.1373078,31.21070616743762,1.212262324369771,27.182677171727956,1.0638801228445431,-24.3364976,6.3664962,55.321608000000005
4376.354,6.533005800000001,9.3585818,7.0375332,-1.0514378,-0.4629413999999999,0.3993934,-97.8763062,74.98258519999999,90.0243194,-6.767815999999999,13.7981534,16.8484592,-1.0539332,-0.1999707999999999,-0.0831428,-124.3136156,81.34582520000001,143.5460542,13.408582759979788,1.2162858525307116,22.804888688039068,1.075953640314823,-26.437309400000004,6.363239999999999,53.5217348
4396.338,12.1233352,-8.271748200000001,0.8523734000000005,-1.047938,-0.4662406,0.4003987999999999,-97.0360916,75.011055,90.609317,-2.719103599999998,8.6392134,12.9252914,-1.0439088,-0.1964459999999999,-0.083808,-126.1370148,81.4381882,141.7556854,14.701143325224397,1.2148553609272998,15.782670570381503,1.0655329157268865,-29.1009232,6.4271332,51.14636840000001
4416.321,18.9440886,-26.8087652,-5.2859668,-1.0529144,-0.4679217999999999,0.3939764,-94.6861176,74.9287856,92.6175476,0.5279900000000015,4.4807952,8.5739908,-1.0384998,-0.1587299999999999,-0.081025,-127.1997238,81.5174514,140.67008360000003,33.249508709815295,1.2177015021751267,9.688633407396924,1.0536802637067089,-32.5136062,6.588665799999999,48.05253600000001
4436.304,24.0047026,-45.6343498,-12.1356786,-1.0705936,-0.460399,0.4005753999999999,-90.9433228,74.67499380000001,95.9620606,-1.4424711999999986,0.3084232,4.898276399999999,-1.0433434,-0.1291893999999999,-0.0882811999999999,-127.6528792,81.5947556,140.2422792,52.97163697362679,1.232314305137744,5.115560548358765,1.0550113372231409,-36.7095564,6.919761799999998,44.2802186
4456.288,28.8652896,-64.89686520000001,-19.5374586,-1.0884928,-0.466042,0.4037026,-85.9789474,74.1764112,100.4717744,-5.148305199999998,-3.6621148,1.5162278,-1.0278668,-0.1069639999999999,-0.1062718,-127.549388,81.66540699999999,140.4533204,73.66491936482082,1.2509946085665598,6.497313135613744,1.038867244316366,-41.5704406,7.488995799999998,39.981546
4476.271,33.2886174,-85.3092804,-26.790902,-1.1019376,-0.4685399999999999,0.4075312,-80.0212722,73.36086859999999,105.937346,-9.177797199999995,-6.483343400000001,-2.4868924,-1.0147362,-0.1053621999999999,-0.1098174,-126.9257842,81.70269499999999,141.2714234,95.41256626222255,1.2648627929017435,11.508707003648547,1.0260850891237236,-46.904512,8.341826399999999,35.3340774
4496.254,35.7179222,-105.7563948,-34.4956476,-1.1232938,-0.4686846,0.4216434,-73.48044660000001,72.1339918,111.9942796,-15.496452199999998,-7.499300000000001,-5.553548,-1.005092,-0.1123025999999999,-0.098438,-126.0353454,81.70106539999999,142.4852724,116.83379096272662,1.288113881673185,18.08926274520852,1.0161258988308288,-52.5548988,9.567073599999995,30.4909928
4516.238,37.1903388,-125.3414488,-42.1186854,-1.1478432,-0.4764532,0.4459376,-66.8473526,70.4230056,118.16865699999998,-20.9724354,-6.879661400000001,-8.1883654,-0.9949888,-0.1179781999999999,-0.1056854,-125.1442168,81.641286,143.8100466,137.3593234810291,1.3203832802145898,23.541922510911046,1.0075172314029377,-58.2968642,11.218280399999998,25.641389600000004
4536.221,39.596917,-144.75689079999998,-49.3773834,-1.174712,-0.4839014,0.4777148,-60.463675,68.185391,124.1014054,-25.080656999999995,-5.2847602,-11.1901348,-0.9780794,-0.1113299999999999,-0.1058906,-124.3240066,81.5128938,145.14596260000002,157.98923780251172,1.3573209929876573,27.96760917142049,0.9900739875245284,-63.8603316,13.3275028,21.044557200000003
4556.205,41.1737892,-164.2588104,-56.5074096,-1.199896,-0.4888852,0.5109536,-54.5873598,65.4090406,129.55419160000002,-30.7030988,-2.1480070000000007,-14.3165598,-0.9774244,-0.1228675999999999,-0.0969397999999999,-123.7173706,81.292543,146.3778778,178.51981696946518,1.3927787803337617,33.944927375111384,0.9898748555596106,-69.1300108,15.8835024,16.823686199999997
4576.188,41.279668400000006,-182.8346954,-63.3371856,-1.2147636,-0.4939264,0.5437748,-49.3976138,62.1147794,134.367244,-36.8861242,0.1403757999999996,-17.8070806,-0.979598,-0.1488361999999999,-0.0729324,-123.1611008,80.98423299999999,147.6808594,197.84877039029985,1.419614358062414,40.9597117098979,0.9935208055215552,-73.763487,18.8694536,13.313615400000003
4596.171,40.413009,-199.6083832,-69.78296519999999,-1.2139702,-0.5040766,0.5929048,-44.973165400000006,58.3505864,138.4680146,-41.142408,3.4774834,-20.9686202,-0.9877162,-0.1787863999999999,-0.0685614,-122.8093324,80.57612280000001,148.861258,215.2820944069816,1.4419961744119294,46.30846207689894,1.0061056277237297,-77.83616699999999,22.2255364,10.393243400000005
4616.155,40.415407,-214.28237,-75.5900224,-1.2017556,-0.5150076,0.649432,-41.2713678,54.1804776,141.8756746,-41.127867,8.0520788,-22.911011,-0.9831176,-0.2079823999999999,-0.0728958,-122.7660172,80.07357320000001,149.7272522,230.79036093872085,1.4598668681811775,47.76245221942881,1.0075170925583148,-81.4946494,25.8930956,7.851577599999999
4636.138,39.614631800000005,-227.046228,-80.3327028,-1.1765622,-0.5183215999999999,0.6938924,-38.2229112,49.67918060000001,144.673462,-37.959366,15.2007202,-24.5715808,-0.9636251999999998,-0.2366189999999999,-0.0767944,-123.160341,79.451294,150.0819856,244.0750946754516,1.4609731531664638,47.7046952063586,0.9952182962081232,-84.93742979999999,29.7721134,5.408523600000004
4656.121,38.381444,-237.9751098,-84.2527666,-1.1326164000000003,-0.524894,0.7333632,-35.7207734,44.9049612,146.9738984,-30.072166400000004,24.5422344,-25.8608654,-0.9597658,-0.2759285999999999,-0.0927298,-124.060898,78.696184,149.7592378,255.3503804727952,1.4478104861822214,46.64162111859696,1.0029385818461864,-88.34012460000001,33.7912228,2.785339400000012
4676.105,36.6792162,-247.31114500000004,-87.1614748,-1.073359,-0.5277712,0.7738088,-33.65901,39.8894348,148.89004219999998,-18.7946704,34.3009538,-25.7175816,-0.9647674,-0.2918476,-0.1006352,-125.4017518,77.82736220000001,148.7538698,264.7740357957487,1.424577846727893,46.8101385427028,1.01295537967255,-91.7427418,37.9379274,-0.1361723999999952
4696.088,34.030887,-255.0562958,-89.37068339999999,-0.9999938,-0.5211284,0.8045996000000001,-31.966313199999995,34.6755754,150.5091766,-6.1276688,41.8556732,-24.9097142,-0.982026,-0.3038853999999999,-0.1038566,-126.9404984,76.8849336,147.2829164,272.3948133658328,1.3852591546873676,49.091135304384366,1.0332025911566038,-94.9741852,42.2093582,-3.2262601999999987
4716.072,32.0650354,-260.8293366,-91.4198702,-0.9166666,-0.5171735999999999,0.8230944000000001,-30.565535,29.3056348,151.8861114,6.4585098,47.121328,-22.115456,-0.985664,-0.2943008,-0.0970091999999999,-128.5462892,75.9327606,145.4789186,278.24036729738583,1.3361252109753337,52.45212384077709,1.0332266288967198,-97.9807542,46.6271258,-6.407192799999999
4736.055,32.352334,-264.7447572,-92.8589738,-0.8257160000000001,-0.5066078,0.8349076,-29.3668202,23.815656,153.0640076,18.757404,47.74774240000001,-18.2258882,-1.0196504,-0.305295,-0.103058,-129.9549728,75.0343398,143.618268,282.4168001293896,1.278878053691829,54.44143743321693,1.069351638428239,-100.5881526,51.2186838,-9.4457396
4756.042,31.6099748,-267.3216126,-94.2458588,-0.7349114,-0.488073,0.834558,-28.3456784,18.2305294,154.07645259999998,31.662688000000003,41.7596694,-14.2227152,-1.0464508,-0.2815142,-0.1019023999999999,-130.80661,74.2792982,142.0619722,285.2057449822332,1.2144122341869583,54.301762655027616,1.0884363191055506,-102.4609316,56.04876879999999,-12.014480400000004
4776.022,30.512197200000003,-268.5175232,-95.136795,-0.6476706,-0.4677764,0.8355058,-27.4815216,12.5987766,154.95253280000003,42.5484426,31.659342,-11.2553948,-1.0701166,-0.2409259999999999,-0.106999,-130.99948120000002,73.7128096,140.96471559999998,286.50246806320234,1.1560112059729175,54.21593691583985,1.1021087337792763,-103.5179596,61.11403299999999,-13.987817200000004
4796.005,32.8944084,-268.99242560000005,-95.2717406,-0.5674562,-0.4519383999999999,0.8345354,-26.6775746,6.945287800000001,155.72501219999998,48.0536044,18.8610074,-11.1991582,-1.0822938,-0.2226725999999999,-0.105596,-130.41900479999998,73.32226699999998,140.5597564,287.25541194398977,1.1057595535043592,52.82336263778728,1.10999705924169,-103.7414302,66.3769792,-15.165255799999995
4815.988,35.5972586,-268.6605042,-94.065466,-0.483209,-0.4189636,0.8074144000000001,-25.9038874,1.2982792,156.4266418,47.3960084,0.2200078000000004,-14.7873208,-1.0926911999999998,-0.2269641999999999,-0.1158631999999999,-128.7587478,73.09924459999999,141.2972442,286.8692092759881,1.0300191498867,49.64972177290668,1.1220120711263848,-102.8548604,71.8009654,-15.129397599999995
4835.972,38.4239866,-267.2150146,-93.2128552,-0.3892528,-0.3942646,0.7772368000000001,-25.1410092,-4.3239706,157.0527404,48.7127494,-13.5545656,-18.4328792,-1.0867448,-0.2015965999999999,-0.1205918,-126.2863846,72.98620600000001,142.8601256,285.60270157764853,0.9544942956326352,53.81848416960195,1.111844337884508,-101.1453754,77.3101766,-14.192614799999992
4855.955,40.6758734,-264.6855468,-91.0877804,-0.2998344,-0.3642548,0.7531258000000001,-24.3862186,-9.8897398,157.62536,46.0960792,-24.8680742,-25.1047698,-1.0748344,-0.1844569999999999,-0.120817,-123.1105118,72.8776488,145.2173798,282.86029961779093,0.8886960658020492,58.082003225959504,1.097219266947751,-98.7242932,82.7673886,-12.407980199999994
4875.939,45.9321508,-261.01827080000004,-88.65751780000001,-0.2122288,-0.3357504,0.7104421999999999,-23.568954,-15.3761786,158.1433686,40.1555038,-30.3308174,-30.866819799999995,-1.0414447999999998,-0.2002169999999999,-0.1193419999999999,-119.634262,72.7056762,148.0148316,279.4645874363931,0.8139395027828787,59.03544303339841,1.067209741100614,-96.065308,88.0818548,-10.12853699999999
4895.922,49.1215338,-255.988104,-85.7573256,-0.118743,-0.2932304,0.6387772,-22.718445,-20.7542482,158.604425,39.0436926,-34.8660948,-36.1727058,-1.0036434,-0.1678331999999999,-0.1375088,-115.9134582,72.42828360000001,151.09765320000002,274.4032677765404,0.7128255598482703,63.62797453431341,1.026828480060443,-93.1950132,93.1825318,-7.506771799999993
4915.905,49.215158,-249.8357602,-83.418898,-0.0245236,-0.2580578,0.6062562,-21.8756784,-26.0065778,158.9902038,39.0506496,-30.2785112,-38.9843994,-0.9941964,-0.1557864,-0.1453502,-112.5249908,72.005075,153.8400176,267.9528902535132,0.6593495394221793,62.94064562148394,1.016770654984673,-90.6493124,98.0116528,-5.150186199999988
4935.889,48.9085228,-241.8802976,-80.24133,0.0451864,-0.2372713999999999,0.5556019999999999,-21.0338724,-31.0918772,159.3047118,35.8554348,-28.6639758,-39.95170639999999,-0.962205,-0.1550719999999999,-0.1595302,-109.3706406,71.5034622,156.4086456,259.4933390469042,0.6058325762179844,60.85535767401122,0.9875908423639012,-88.3367682,102.5953394,-2.896066199999993
4955.872,50.8751564,-231.1749418,-75.4348512,0.1284264,-0.2025261999999999,0.4811894,-20.1497508,-35.947947,159.5641204,36.3907916,-21.686897,-38.70417,-0.9125952,-0.1512365999999999,-0.1843372,-106.7464814,70.932016,158.4113586,248.4362132027535,0.5376369040307408,57.381390625813,0.9432299356712762,-86.5967306,106.879963,-1.1527617999999933
4975.855,46.2068436,-219.0103056,-70.87412579999999,0.2129538,-0.1686293999999999,0.4359780000000001,-19.328862,-40.542433200000005,159.749011,37.855199,-13.870272,-36.8509954,-0.8869488000000001,-0.1547297999999999,-0.2046274,-104.652582,70.3246826,159.82512820000002,234.7844289180917,0.5136750061690758,54.62047600171941,0.9233048562962506,-85.32372000000001,110.8671158,0.0761172000000072
4995.839,41.8586908,-204.1279662,-65.77547919999999,0.2762248,-0.1617289999999999,0.3962712,-18.5775842,-44.825019,159.87632739999998,37.442596,0.4414215999999996,-28.503069,-0.8565568000000001,-0.1972854,-0.2249314,-103.532718,69.7881486,160.216733,218.51038932835203,0.5093989335731671,47.05919453907944,0.9073065718848068,-84.9551338,114.6131676,0.3404056000000054
5015.822,41.48125159999999,-186.7477904,-58.00293359999999,0.3426694,-0.144638,0.3300147999999999,-17.8413124,-48.7376502,159.9970184,41.813601600000005,16.676067800000002,-17.4973894,-0.8225798000000001,-0.2187381999999999,-0.2385329999999999,-103.33734,69.37138519999999,159.5296572,199.8994041006397,0.4972446449781033,48.297278927999166,0.8839580983260915,-85.4960276,118.1090354,-0.4673611999999963
5035.806,38.105917,-167.0398528,-49.0458494,0.4294824,-0.121749,0.258744,-17.1936344,-52.221552200000005,160.1361572,47.0665206,35.3227964,-6.5359612,-0.8129782000000001,-0.2377883999999999,-0.2348248,-104.1669466,69.0605864,157.6388306,178.21298683660527,0.5159713252175552,59.20875016172849,0.8789878062549219,-86.97331220000001,121.2821386,-2.497326599999994
5055.789,30.8561268,-144.9584854,-40.431634,0.513514,-0.1106082,0.2004408,-16.712867199999998,-55.23344039999999,160.2937256,47.506633,48.3230696,1.3558928,-0.818282,-0.2697082,-0.2251446,-105.7552904,68.8146514,154.9303498,153.62219917209117,0.5622342184604918,67.77785537952808,0.8905156009753001,-89.0424232,124.0480918,-5.363375799999991
5075.772,25.1757862,-119.5596718,-31.3987208,0.6009658,-0.0982298,0.1243006,-16.365157000000004,-57.7121948,160.46988219999997,42.4936578,54.64136739999999,10.9181906,-0.8090916,-0.2871784,-0.2251532,-107.8892212,68.692839,151.7467254,126.15155567644888,0.6214978886030427,70.07565105329533,0.8875779481754603,-91.5240642,126.4050338,-8.723156799999995
5095.756,20.5921916,-91.5000676,-21.9724974,0.6962808,-0.0886014,0.0507262,-16.1085804,-59.599124200000006,160.6512756,34.5249134,51.2722546,16.580695,-0.8089574,-0.2843947999999999,-0.2072563999999999,-110.1150116,68.67795699999999,148.6373686,96.32804040199656,0.7037260176354432,63.99791546392542,0.8821834801348074,-94.0064312,128.2770812,-12.013906999999998
5115.739,13.342755399999998,-59.6910638,-13.4933774,0.7771178,-0.0865576,-0.0135554,-15.963853999999998,-60.8210732,160.7933014,21.5863522,38.7518672,15.8884918,-0.8166166,-0.2884841999999999,-0.196766,-111.9766784,68.709259,146.1951536,62.63484216391648,0.7820409465390926,47.11817042784607,0.8881456320903683,-96.0128244,129.53033219999998,-14.5981478
5135.723,3.998189599999999,-25.755661,-5.580909599999999,0.8375527999999999,-0.0689791999999999,-0.0424022,-15.9436006,-61.347055,160.862439,3.6246274,20.4927076,10.7697156,-0.8241648000000001,-0.3026276,-0.1972458,-113.2103834,68.7503114,144.80853259999998,26.65494598733678,0.8414575267863018,23.43236570798629,0.8998538700580446,-97.2667828,130.0973664,-16.053906400000002
5155.706,-5.1461548,9.162553399999998,1.9534574,0.8638971999999999,-0.0756848,-0.0432862,-16.0224432,-61.1601906,160.8346406,-16.847052400000003,2.7298502000000004,9.3587302,-0.831423,-0.3165395999999999,-0.196051,-113.9493466,68.88398,144.388455,10.688839499544809,0.8682858148267308,19.464354282615645,0.9109871118178128,-97.9269034,130.0441706,-16.4461856
5175.689,-11.3413364,43.3865716,10.463161,0.856114,-0.0841712,-0.0201586,-16.175724,-60.26851280000001,160.7494448,-32.1908398,-11.5679828,6.1949464,-0.843799,-0.329526,-0.1937156,-114.239012,69.06243459999999,144.77706899999998,46.0488680061933,0.8604779724428744,34.76270636744545,0.9263421996003204,-98.063288,129.3309474,-15.972375799999996
5195.673,-19.6056384,75.01382960000001,18.8830762,0.8361823999999999,-0.0865322,0.0195284,-16.458699,-58.722496,160.6225588,-44.2566108,-20.3858634,3.6877266,-0.8616162,-0.3410865999999999,-0.191657,-114.28445279999998,69.2627718,145.6836426,79.79991387905376,0.8408746554113519,48.865431068829054,0.9462848146572996,-97.8257538,127.9852678,-14.93891619999999
5215.656,-29.079854,102.3711648,26.7720868,0.7954766,-0.0962046,0.0720924,-16.908319799999997,-56.6074218,160.4670258,-53.24136120000001,-23.515941,4.5894766,-0.8706050000000001,-0.3453197999999999,-0.1869922,-114.3648072,69.50441900000001,146.7429628,109.73713101223674,0.8045095775355816,58.384118722528434,0.955073250153034,-97.4564874,126.1118408,-13.724062999999992
5235.639,-36.1116734,126.3009018,35.2559016,0.7348908,-0.1106766,0.1479242,-17.5035682,-53.995963200000006,160.3159546,-57.4691474,-21.6984362,8.6970002,-0.8744918,-0.3333515999999999,-0.1818184,-114.7069048,69.8115066,147.6125428,136.01084276215036,0.757756799149859,62.04162190729057,0.953371453352973,-97.2033366,123.8074698,-12.703411799999994
5255.623,-40.3202214,146.5952164,43.9308956,0.6732929999999999,-0.1262314,0.2110252,-18.21181,-50.9531812,160.19360659999998,-58.1723784,-17.4138558,14.7723154,-0.881303,-0.315813,-0.1712328,-115.41095,70.202864,148.1099092,158.25865320204753,0.7167910889722332,62.49391398218756,0.9517108282318952,-97.19914,121.1560452,-12.083697399999997
5275.606,-44.2610124,164.3508666,52.37558059999999,0.6195372000000001,-0.1459384,0.239203,-19.0160874,-47.521176,160.088269,-54.8514876,-13.319753,18.0811146,-0.8986492,-0.3097822,-0.1571124,-116.3121432,70.6261076,148.32313240000002,178.08269431371215,0.6799576707320832,59.270804086770205,0.9634415925894212,-97.2960558,118.1472836,-11.765136600000002
5295.59,-47.5764276,181.02854,59.3004716,0.5525956,-0.1611602,0.2873998,-19.872492,-43.7302436,159.9514648,-48.2137548,-7.246818799999998,20.271745400000004,-0.9263424,-0.3056886,-0.1403618,-117.4245012,71.04227599999999,148.16764519999998,196.34509082147187,0.6433763690433772,52.80176319212246,0.9855238186400976,-97.5520092,114.7725196,-11.7838196
5315.573,-46.7407938,195.7139252,65.97899720000001,0.4614464,-0.1822626,0.3590822,-20.7017068,-39.61870639999999,159.7840362,-42.2494814,-2.7911352,21.1212018,-0.9393992,-0.2937666,-0.1319229999999999,-118.6743714,71.4388658,147.7386688,211.7589912937888,0.6124479257770085,47.31716686098132,0.9930626114023224,-97.9726646,111.0575722,-12.0453674
5335.556,-40.6673284,208.6097778,71.94101880000001,0.3775364,-0.2134766,0.3917272,-21.4066748,-35.2107516,159.5875916,-38.3161272,0.1883908000000007,22.995895,-0.9611962,-0.2683812,-0.1105683999999999,-120.0820984,71.8449052,147.0595306,224.38222117391737,0.5844280890685868,44.68749580756489,1.0040677140942438,-98.6754236,107.0556568,-12.528061
5355.54,-36.9419774,220.701172,75.24701239999999,0.2986922,-0.2226621999999999,0.414234,-22.009487,-30.5457298,159.3110992,-35.1828356,2.528461600000001,21.5349478,-0.9910508,-0.2451925999999999,-0.0928427999999999,-121.540126,72.2016922,146.26188960000002,236.0843702821545,0.5571223316343369,41.327702763013896,1.0251443238818816,-99.530639,102.747422,-13.049209599999998
5375.523,-34.162165800000004,232.2669984,75.8214432,0.1820424,-0.2556471999999999,0.4994233999999999,-22.5236276,-25.6654146,158.909906,-35.5029354,5.766170400000001,22.506905600000003,-1.0010924,-0.2431073999999999,-0.0843917999999999,-123.2261122,72.53540339999999,145.2307252,246.7061072750797,0.5898463009404737,42.42956448970129,1.0336388040218691,-100.7024846,98.200818,-13.679180799999996
5395.507,-27.0414026,241.213565,77.5649354,0.057546,-0.2776404,0.5583152,-22.9018682,-20.610307,158.44263919999997,-32.636717,5.5734406000000005,21.4828132,-0.9962754,-0.2203272,-0.088265,-124.8577224,72.85305000000001,144.1991884,254.8166803766792,0.6261881477473045,39.46808583711543,1.0241579262643044,-101.9558542,93.463357,-14.243450800000002
5415.49,-25.694697,248.9901304,77.6678834,-0.0369643999999999,-0.279029,0.5838846,-23.269312,-15.4158178,157.8955782,-26.3341262,6.165780600000001,19.1203566,-1.0268598,-0.1935417999999999,-0.0805474,-126.3365204,73.1227932,143.1968782,262.0851056477014,0.6481857571911929,33.12236539916837,1.04803977064329,-103.0672084,88.538611,-14.6987
5435.473,-29.7080442,256.2039152,75.683475,-0.1500302,-0.3117026,0.6331548,-23.7331994,-10.1140178,157.221991,-28.1874672,2.337731400000001,11.5766342,-1.0727702,-0.2626833999999999,-0.0921714,-127.356955,73.3021298,142.71015640000002,268.7954658138294,0.7214932934697592,30.56168769309429,1.1083023223027009,-103.6237556,83.4161476,-14.511834599999997
5455.457,-26.192191,262.2193234,75.7789142,-0.2816754,-0.3467842,0.6996162,-24.17239,-4.710167,156.465149,-25.4753116,-9.994799,7.944165400000001,-1.0550648,-0.2764478,-0.1041422,-127.5221802,73.56289799999999,143.0592714,274.20329733806125,0.830098271072311,28.49556583172288,1.09564169149623,-103.3497902,78.273065,-13.405877599999991
5475.44,-23.910328,265.6722532,76.6938724,-0.390866,-0.3477302,0.7225146,-24.6389726,0.7581434000000001,155.66045839999998,-10.3612024,-28.450330599999997,1.554918000000001,-1.0481258,-0.2148943999999999,-0.1030285999999999,-126.0785294,73.9219664,144.7700256,277.5525174973918,0.8920313162446708,30.31820569245129,1.074877755000521,-101.4395568,73.16382300000001,-10.890432799999989
5495.424,-31.214057200000003,268.344464,76.0936174,-0.4947156,-0.3694681999999999,0.7322184,-25.3327194,6.2617298,154.76458119999998,-5.420970199999999,-46.2279602,-5.5528494,-1.0757892,-0.2173359999999999,-0.1204267999999999,-123.1086014,74.31213679999999,147.9596436,280.6658285850804,0.9578069017255828,46.874783824793816,1.1041104808355366,-97.775882,68.050407,-6.8049375999999855
5515.407,-33.667963400000005,271.05323480000004,77.1249558,-0.6252362,-0.4306027999999999,0.766045,-26.1739376,11.8108716,153.7753356,-13.4644466,-61.632428,-7.7680826,-1.020496,-0.2729756,-0.1525508,-119.137529,74.77531280000001,152.351303,283.8162198715916,1.0785008202051958,63.56249374198482,1.0673328959570203,-92.9635914,62.9644412,-1.424032599999984
5535.39,-29.2809682,271.0664368,81.21587980000001,-0.7499388,-0.4389039999999999,0.7806138,-27.0235072,17.383547,152.7583466,-4.722821,-67.36007079999999,-2.4984644000000005,-0.8676228,-0.2227893999999999,-0.1701184,-114.655693,75.3508454,157.08827820000002,284.48270138949727,1.1680765513064115,67.57163976652572,0.9117810646480656,-87.6321858,57.9672984,4.329931600000018
5555.374,-34.87543839999999,266.4932802,83.2023834,-0.8572040000000001,-0.4401596,0.75627,-28.088304,22.8783478,151.69863279999998,11.6504146,-61.8222184,-0.1069307999999999,-0.8572006,-0.1856968,-0.1521154,-110.0632034,75.8800064,161.595346,281.34960671518365,1.2249422370006515,62.91049421555341,0.8901770975978657,-81.9748994,53.0016586,9.896713200000011
5575.357,-44.3932966,260.7831026,84.27640219999999,-0.9544352,-0.4651496,0.7420046000000001,-29.4805938,28.2605626,150.54572760000002,7.189036799999999,-48.3558362,-0.4709689999999998,-0.9446368,-0.2247725999999999,-0.1367032,-106.339418,76.2381012,165.29038699999998,277.634838146213,1.295330663498846,48.88957922207907,0.9805861362038728,-76.8588242,47.9775386,14.744659400000009
5595.34,-44.0314176,255.6272706,86.4808366,-1.0397156,-0.4926636,0.7340745999999999,-31.0331062,33.5460824,149.2694368,2.640087199999999,-37.4526046,6.117324,-0.9145544,-0.2399201999999999,-0.1070342,-103.4987488,76.5845658,168.1616272,273.4282397802156,1.3647679180041856,38.040627027804376,0.9515396854031049,-72.4656426,43.0384834,18.892190400000008
5615.324,-44.4512234,249.0069918,87.8094988,-1.0960763999999998,-0.4753987999999999,0.7046508,-32.7996792,38.70938339999999,147.8287996,18.203502800000003,-25.710209599999995,11.068148400000002,-0.9093296,-0.2334279999999999,-0.0796132,-101.2335402,76.9332398,170.1158814,267.7515663942028,1.3870545207810108,33.38991316056336,0.9421821555487028,-68.43386100000001,38.2238564,22.287081800000003
5635.307,-51.919910400000006,242.1307772,85.9253176,-1.1288026,-0.4735018,0.6515245999999999,-35.0218542,43.7016762,146.0872774,28.5159872,-19.501930999999995,7.138598400000001,-1.0285992,-0.2611789999999999,-0.0263426,-99.0831892,77.15268699999999,171.7354034,262.11858111946384,1.3866807739256932,35.27671223109954,1.0615671042644452,-64.061335,33.4510108,25.64812599999999
5655.291,-54.865689800000006,237.5610474,84.0616854,-1.164254,-0.4902584,0.619954,-37.7465318,48.5469786,143.89512340000002,28.23509360000001,-18.964735399999995,5.664118600000001,-1.0836296,-0.2989813999999999,0.000429,-96.823419,77.31464839999998,173.4678344,257.8989377863031,1.40718997914374,34.48135639599521,1.1241188422863126,-59.0768872,28.7676698,29.57271099999999
5675.274,-52.4893386,233.7679442,83.51391620000001,-1.1976854,-0.487603,0.5590172000000001,-41.0097404,53.2487806,141.118918,39.0728202,-24.3037388,7.254873600000001,-1.0152496,-0.3329416,0.0214242,-93.85184,77.48936160000001,103.7045318,253.72653901635985,1.4087963773654446,46.58315348913307,1.0686631160737046,-52.842099600000005,24.240581,-37.41438620000001
5695.257,-53.5119498,229.351068,81.70480660000001,-1.2212388,-0.4658476,0.5120742,-45.117018,57.7390502,137.5184114,54.9784798,-22.1541166,1.2767474000000014,-0.9913126,-0.3302458,0.030949,-90.7460324,77.50997759999998,33.7521178,249.2811998239774,1.4038013318688796,59.288010654505946,1.0453328656162113,-45.6290144,19.7709274,-103.7662936
5715.241,-53.1566138,224.8514616,79.327301,-1.2632086,-0.4596954,0.457072,-50.3750982,61.939585,132.7581452,63.5276696,-17.546849199999997,1.1571626000000008,-1.0012962,-0.2427488,-0.0150875999999999,-87.7790282,77.526207,-36.5176728,244.28799818714637,1.419834723155875,65.91658172976769,1.0304119058462204,-37.40393,15.586622,-169.27581800000002
5735.224,-48.0936256,217.1798978,77.18740540000002,-1.290906,-0.4488928,0.3706156,-56.9401296,65.7596602,126.6005814,66.357547,-10.054457599999996,8.2009242,-0.9863232,-0.1234357999999999,-0.0360343999999999,-85.3991042,77.69559939999999,-107.44330739999998,235.4527561617306,1.4160857917835346,67.614135498589,0.9946699601190536,-28.458974600000005,11.9359392,-234.0438888
5755.207,-46.3616554,203.4548612,72.9387588,-1.3089394,-0.420987,0.3223353999999999,-64.8375082,69.04130540000001,119.092911,54.03952399999999,0.2015120000000024,8.9277186,-0.927752,-0.0309599999999999,-0.1114903999999999,-84.25222,77.8822266,-107.37383719999998,221.05055117014345,1.4122508690507225,54.77239195647297,0.9349397865082862,-19.414711800000003,8.8409212,-226.4667482
5775.191,-43.0631202,183.3245086,66.6681344,-1.3111402,-0.3994974,0.2849857999999999,-73.6790794,71.6739028,110.6108064,33.4348586,14.8925382,15.6377032,-0.9334876,0.0613564,-0.1773342,-84.93552700000001,78.2144104,-36.7484618,199.76723434829745,1.3999656077434333,39.80220125836941,0.952161291832618,-11.256447600000005,6.540507600000003,-147.3592682
5795.174,-40.3776488,156.9504746,58.3628992,-1.286314,-0.3870853999999999,0.2524154,-82.8860498,73.6119368,101.7697206,8.223971600000002,24.356191800000005,25.5501246,-0.9733408,0.0671142,-0.1867316,-87.07326359999999,78.7535416,32.910946800000005,172.24991727954688,1.3668036975536466,36.24453965705068,0.9933606189218698,-4.187213800000002,5.141604800000005,-68.8587738
5815.157,-37.2544224,127.13235020000002,48.7299678,-1.2288074,-0.389848,0.229092,-91.7629992,74.882672,93.2696244,-16.133531999999995,26.077479000000004,27.633311400000004,-1.0128652,-0.0398367999999999,-0.1051315999999999,-90.05955959999999,79.3221786,102.2060914,141.15642464132517,1.3093632933081485,41.27863448225772,1.0190856378753652,1.703439599999999,4.439506600000004,8.936467000000007
5835.141,-35.841584,100.044362,39.2125788,-1.1735365999999998,-0.4017298,0.2687292,-99.83487119999998,75.6018554,85.61507420000001,-30.5398924,24.767713400000005,26.1274444,-1.025865,-0.1669489999999999,-0.073033,-93.4743866,79.8360306,171.3626862,113.27453309443528,1.2691691639337286,47.20982954579701,1.041923598885734,6.360484599999998,4.234175200000005,85.747612
5855.124,-29.859244,78.68968600000001,31.878019199999997,-1.1225672000000002,-0.4233788,0.288318,-106.767232,75.94789279999999,79.04947960000001,-25.7006704,21.9882918,27.517316600000004,-1.0576694,-0.2573553999999999,-0.0215516,-96.6771714,80.3500976,168.63977060000002,89.99916245802348,1.2339100436941424,43.60289151141263,1.0887427763563255,10.090060599999996,4.402204800000004,89.59029100000001
5875.108,-21.9356686,61.2084306,25.177890400000003,-1.0840964,-0.4570076,0.3289664,-112.3997408,76.0659576,73.68636919999999,-14.4701452,18.4190764,24.32231,-1.0472078,-0.3024855999999999,0.0127129999999999,-99.4979904,80.778784,166.08032240000003,69.72497184250743,1.2216136227464394,33.76717698111911,1.0900932689257374,12.9017504,4.712826400000001,92.3939532
5895.091,-9.149527400000002,45.2231516,18.7283124,-1.0714404,-0.4851714,0.3500358,-116.4942094,76.0762328,69.65989520000001,-0.1870851999999999,15.420674200000002,19.8041586,-1.0328826,-0.289232,0.0039567999999999,-101.7990172,81.1063978,163.7600404,49.79555178559554,1.2271515307458,25.100535681705257,1.072621681429664,14.6951922,5.030164999999999,94.1001452
5915.075,3.531193599999999,28.4952894,11.923753,-1.0612142,-0.5007176,0.3566184,-118.9055452,76.05636899999999,67.1191192,10.036233200000002,13.077187400000003,14.209119800000002,-1.0306153999999998,-0.2453108,-0.0205832,-103.5766112,81.309973,161.76219799999998,31.090621284166104,1.2264054698385685,21.76322339705801,1.059608021598572,15.328934,5.253603999999998,94.6430788
5935.058,13.8010274,9.6744238,4.262309800000001,-1.0617845999999995,-0.4981102,0.3605128,-119.4809404,76.04478759999999,66.2688888,14.309444200000002,10.899910400000005,9.308505800000002,-1.0273688,-0.1928402,-0.0581932,-104.9679382,81.418048,160.06907959999998,17.38476683734163,1.226975870628693,20.25380261258551,1.0469290532198063,14.5130022,5.373260399999998,93.8001908
5955.041,23.1515822,-11.8235628,-3.9618106,-1.0682694,-0.4879988,0.3573425999999999,-118.0158494,76.06288900000001,67.33435060000001,14.6065068,10.209684800000002,6.935737800000001,-1.0284892,-0.1516693999999999,-0.0837661999999999,-106.336467,81.49153140000001,158.39530639999998,26.29616585890751,1.2276139757890343,19.123079340005525,1.0429815039948886,11.6793824,5.428642399999998,91.0609558
5975.025,30.8657142,-34.87662,-12.4661778,-1.0784724,-0.459065,0.3364015999999999,-114.4210404,76.088089,70.43442239999999,13.7971924,8.133230600000003,3.913178400000001,-1.0265586,-0.1295107999999999,-0.0865058,-107.400963,81.5226396,157.0452178,48.21282531279094,1.21942996037875,16.487113856149012,1.0383057642064015,7.0200774,5.4345506,86.6107954
5995.008,34.2818762,-58.4162328,-20.6654082,-1.0961098,-0.436241,0.3313685999999999,-108.8069734,76.03819440000001,75.5392288,10.0162882,5.980499000000004,2.5844888000000013,-1.0223622,-0.1035299999999999,-0.0895988,-108.25916,81.5506716,155.980661,70.81498701834626,1.2253848590557173,11.948722942297463,1.0314896382660756,0.5478133999999983,5.5124771999999975,80.44143220000001
6014.991,35.2977698,-82.1572762,-28.662715,-1.1262474,-0.4088764,0.337058,-101.4274902,75.7770538,82.4337586,3.3423610000000004,4.739571000000003,2.967729600000001,-1.017326,-0.0703611999999999,-0.08376,-109.1219484,81.60971839999999,155.0469238,93.90048890516016,1.244677151653279,6.514777762677572,1.0231904154855245,-7.6944582,5.832664600000001,72.6131652
6034.975,37.1644966,-105.717334,-36.7905936,-1.161341,-0.4016345999999999,0.3477313999999999,-92.7071044,75.15330639999999,90.6674088,-7.126033799999999,3.3446592000000037,2.562613600000001,-1.014986,-0.0594793999999999,-0.0808714,-109.9967896,81.6742692,154.3124482,117.94448818422728,1.277082768165055,8.278531955956446,1.0199385092045106,-17.2896852,6.520962800000001,63.6450394
6054.958,38.32323,-128.86851959999998,-44.925221,-1.1913098,-0.4076478,0.3639406,-83.2520988,74.0300994,99.6605668,-19.4475838,0.6800136000000029,0.4464934000000014,-1.0053118,-0.0795655999999999,-0.0613004,-110.60392,81.7091614,154.0949586,141.75345069319238,1.31066720747459,19.46459068437996,1.0103169002658323,-27.351821200000007,7.679061999999999,54.4343918
6074.941,37.8796692,-150.8963684,-53.0243422,-1.2161158,-0.4187686,0.3850892,-73.776976,72.2920012,108.7286302,-32.0682468,-1.4972265999999972,-2.2625303999999984,-1.001782,-0.1070311999999999,-0.052687,-110.98814380000002,81.694751,154.355301,164.36594598867688,1.3426088303419728,32.18280882906869,1.0088601356315157,-37.211167800000005,9.4027498,45.6266708
6094.925,35.609587999999995,-170.502072,-60.8972548,-1.2409466000000002,-0.4306283999999999,0.4086021999999999,-65.0588188,69.893221,117.129143,-41.9450594,-2.3417935999999973,-5.929141399999999,-1.0015548,-0.1360989999999999,-0.0466404,-111.2275756,81.60275419999999,154.95896599999998,184.5195787877239,1.3756253271814096,42.4267218044916,1.011835106188849,-46.1687568,11.709533199999996,37.82982299999999
6114.908,34.475174,-187.8044952,-68.0641006,-1.261693,-0.452044,0.4437669999999999,-57.5523514,66.85822040000001,124.3854952,-47.5331148,-2.132071599999997,-9.948137199999998,-0.9877456,-0.1547748,-0.0475179999999999,-111.3933256,81.42343,155.74835819999998,202.7110944919987,1.4117868658101336,48.60975381183831,1.0009268551489665,-53.840974200000005,14.565209599999998,31.362862999999987
6134.892,34.2919022,-203.60253,-74.5776566,-1.2720662,-0.4720142,0.4847683999999999,-51.34807120000001,63.25584779999999,130.3919116,-50.6289614,-0.8593063999999974,-14.2059138,-0.9843038,-0.1792563999999999,-0.0316482,-111.490724,81.14711919999999,156.6663544,219.5261980785956,1.440815818841062,52.59123621692878,1.000993724355273,-60.14265280000001,17.891271399999997,26.274442799999985
6154.881,33.0572438,-217.53334060000003,-80.90077679999999,-1.2719376,-0.4873877999999999,0.5367599999999999,-46.3804268,59.1687492,135.21557479999998,-51.69857499999999,2.5152632000000024,-17.306668199999997,-0.9870726,-0.1916669999999999,-0.034876,-111.8453154,80.7837494,157.344751,234.43223184342995,1.464064009352938,54.576459853867306,1.0061137569558225,-65.4648886,21.6150002,22.12917619999999
6174.858,32.4254552,-229.2692506,-86.4487306,-1.2597072,-0.5053532000000001,0.5826656,-42.4781532,54.7035972,139.0129578,-49.676703,7.476456600000003,-19.4534266,-0.980704,-0.2219805999999999,-0.0468072,-112.5965576,80.32984760000001,157.5798066,247.16225933172765,1.4770725398251232,53.87121708968046,1.006601528095502,-70.1184044,25.626250400000004,18.5668488
6194.842,34.745049,-239.098755,-90.7188158,-1.222614,-0.5188714,0.6317154,-39.3393744,49.944162,142.0228424,-43.5877484,14.921606200000005,-20.6612888,-0.9607726,-0.2429917999999999,-0.0498002,-113.84424140000002,79.7840636,157.18537,258.0800972812835,1.4707402453632388,50.49193001902964,0.9922746916545034,-74.504867,29.8399016,15.16252760000001
6214.825,37.4297498,-247.3111206,-93.8591234,-1.171888,-0.5270916000000001,0.6774622,-36.7664282,44.9424074,144.4316924,-35.016006,24.7055916,-21.3041236,-0.9571002,-0.2721666,-0.0641085999999999,-115.69805920000002,79.13112620000001,155.9974884,267.1578402142351,1.4526190387584077,47.85762859630744,0.99710850141274,-78.931631,34.188718800000004,11.56579600000001
6234.808,37.5573444,-254.29106740000003,-95.89093640000002,-1.1083146,-0.5233789999999999,0.7154178,-34.6546492,39.7399942,146.39497060000002,-21.6077144,35.556318,-19.5673134,-0.9621178,-0.2757227999999999,-0.0776583999999999,-118.1321992,78.3986708,153.94071960000002,274.3530075677692,1.4191932422228482,45.97852569409888,1.0038548453871403,-83.47755,38.6586766,7.545749000000003
6254.792,39.2112846,-259.3701384,-97.2729112,-1.0235064,-0.5236013999999999,0.7349424,-32.860998,34.3876762,148.0172942,-9.5607348,46.1402222,-16.871385399999998,-0.969304,-0.2836278,-0.0819938,-121.0173966,77.5885756,151.1690674,279.7720729217633,1.3645014137921148,50.04968930869239,1.0132709196395997,-88.15639859999999,43.2008994,3.1517732
6274.775,42.125444,-262.80178200000006,-97.701059,-0.9260506,-0.5199244000000001,0.7549857999999999,-31.273229800000003,28.9242996,149.38021240000003,2.4615262,54.08336800000001,-12.530101599999998,-0.983174,-0.2744575999999999,-0.0787726,-124.153888,76.7564132,147.8849762,283.5221800570357,1.3030328674585918,55.57043504925108,1.0237984230230677,-92.8806582,47.8321136,-1.495236200000002
6294.759,43.114135,-264.98135979999995,-97.7630034,-0.833427,-0.5080439999999999,0.7709962,-29.8720264,23.3788484,150.5332978,15.245614799999998,56.377259200000005,-6.561493199999998,-1.0109726,-0.2586777999999999,-0.0820193999999999,-127.1875504,75.9849686,144.4357148,285.71236324675147,1.243842598836139,58.76969728140184,1.0467602324027985,-97.315524,52.6061202,-6.0975830000000055
6314.742,42.290171,-265.6253418,-97.632965,-0.7382454,-0.4869902,0.7813726,-28.6548032,17.7954832,151.5074892,28.1868386,50.7349302,-2.5149333999999985,-1.0588754,-0.2341547999999999,-0.0871024,-129.54898079999998,75.3371094,141.4057252,286.14240619710193,1.1801308679752258,58.09350998749997,1.0879487171617788,-100.8941776,57.54162620000001,-10.101764
6334.725,43.7806878,-264.3453126,-97.6858672,-0.6378375999999999,-0.472783,0.7734540000000001,-27.5455782,12.216821800000002,152.3152132,36.1733324,39.65392440000001,-0.9673393999999986,-1.0735914000000002,-0.2026659999999999,-0.0959888,-131.03077860000002,74.8450134,139.1174562,285.1976885748705,1.1084185397126665,53.68313927814392,1.0967615289730948,-103.4852004,62.6281916,-13.197756999999992
6354.709,44.9546876,-262.4362428,-96.7972548,-0.5385478,-0.448929,0.7727654,-26.513053000000003,6.666683000000001,152.99465659999998,41.392231800000005,23.7396238,-2.917432999999998,-1.0917784,-0.2164236,-0.114319,-131.3127748,74.5112916,137.9609192,283.30798437214975,1.043425772809451,47.80583653551047,1.1188780465736738,-104.7997218,67.8446086,-15.033737399999993
6374.692,45.8882402,-260.10274059999995,-95.67016900000002,-0.4513572,-0.4307460000000001,0.7508112,-25.5373282,1.1574224000000002,153.56668100000002,44.0214554,3.915598000000003,-9.224283799999998,-1.0848748,-0.2227019999999999,-0.1284671999999999,-130.1455124,74.3172104,138.254016,280.912704399022,0.9762084288476924,45.147622914775205,1.1149230170531417,-104.6081842,73.159788,-15.312664999999996
6394.676,45.84013600000001,-256.7640442,-92.9903458,-0.3543809999999999,-0.3900656,0.7209784,-24.6216176,-4.2781596,154.0653016,47.4031082,-12.176966399999996,-18.620174799999997,-1.0904630000000002,-0.1999729999999999,-0.1378155999999999,-127.6812226,74.1679412,139.82751439999998,276.9048516628801,0.8930548240342918,52.36453081342552,1.1171803322209717,-103.059605,78.4461008,-14.237787199999994
6414.659,44.3508736,-251.6590668,-90.6868392,-0.247297,-0.3574566,0.698034,-23.773809,-9.6088074,154.48173839999998,43.4472396,-19.862332599999995,-25.424811,-1.0689346,-0.1857034,-0.1495044,-124.6939714,73.994258,142.03132,271.15196605559896,0.822303163224221,54.116503024110415,1.095197926161331,-100.9201624,83.6030654,-12.450418399999998
6434.642,45.4046096,-245.1126708,-87.5863296,-0.151388,-0.3375831999999999,0.6607833999999999,-22.9268992,-14.7999394,154.8284362,39.4355552,-23.4959416,-31.916427,-1.0321908,-0.2086967999999999,-0.1607922,-121.4225604,73.7299376,144.616815,264.2218104026188,0.757308025298689,55.9095751910993,1.0652822787954936,-98.4956612,88.529877,-10.211621200000003
6454.626,47.3316406,-237.8716582,-82.996614,-0.0653976,-0.3012574,0.6096064,-22.0619478,-19.8270318,155.133844,37.0694916,-24.4789234,-37.1018728,-0.982397,-0.1970559999999999,-0.158465,-118.1007068,73.35630160000001,147.3104002,256.3428327692627,0.6831199236308951,57.8784404037714,1.014419089415218,-96.038759,93.1833334,-7.823443800000004
6474.609,44.2592506,-229.7255858,-77.9186064,0.0273818,-0.2531384,0.5715091999999999,-21.281064,-24.6626648,155.41096199999998,37.164631,-19.699793999999997,-38.0844832,-0.9713412,-0.1761756,-0.1688306,-115.214481,72.88407260000001,149.5584502,246.5847425493818,0.6256609131234266,56.74257256786723,1.0015215126741712,-93.933417,97.5467374,-5.852511799999999
6494.592,40.8345466,-219.9635894,-73.4286002,0.1137894,-0.2293645999999999,0.5306698,-20.5770506,-29.2792466,155.6467744,33.7293892,-14.700526999999994,-36.422094,-0.9410366,-0.1836908,-0.183832,-112.85779,72.3579756,151.32963260000002,235.46379803505,0.5892084384303741,51.77205927165387,0.9762614387387224,-92.2807394,101.6372222,-4.317141799999999
6514.576,39.6518596,-208.6479582,-67.6503974,0.187962,-0.2083834,0.47465,-19.9080684,-33.6417848,155.866507,33.3502342,-8.214693999999994,-34.4122972,-0.9017466,-0.1934105999999999,-0.1924232,-111.0040316,71.80090620000001,152.5826934,222.8964259452021,0.5514036428421198,48.62021716621197,0.9421153213392508,-91.0959632,105.442691,-3.2838135999999936
6534.559,35.9057964,-196.1691772,-61.4210602,0.2558984,-0.1730444,0.4433493999999999,-19.3217404,-37.7241918,156.0785402,34.236368600000006,-1.6231245999999948,-29.8868722,-0.8776726,-0.1764329999999999,-0.212577,-109.6472368,71.2715026,153.2939116,208.6722763917988,0.5403582570612574,45.47514264168199,0.9201232402285904,-90.3254964,108.9956944,-2.784628599999988
6554.543,30.7987682,-181.2329802,-54.8036652,0.325258,-0.1481692,0.4048348,-18.8498044,-41.4945808,156.2894928,36.003112,8.441145400000005,-24.161648199999995,-0.8612360000000001,-0.165626,-0.2280234,-108.9755844,70.7762328,153.2467162,191.826481368357,0.5400352707774558,44.17309422135887,0.9061755296406764,-90.12578,112.2708136,-3.042776599999988
6574.526,26.8895744,-163.83975219999996,-47.7764764,0.3971814,-0.1350104,0.3667472,-18.4625524,-44.9006484,156.50061639999998,34.78438860000001,19.780297600000004,-17.187427399999997,-0.8426672,-0.1845655999999999,-0.23423,-109.06750940000002,70.3225708,152.4153716,172.7689361823192,0.5572112537646382,43.55021841564801,0.8938770405146336,-90.604957,115.2232192,-4.085244799999996
