Timestamp (ms),Wrist Gyroscope X (deg/s),Wrist Gyroscope Y (deg/s),Wrist Gyroscope Z (deg/s),Wrist Accelerometer X (g),Wrist Accelerometer Y (g),Wrist Accelerometer Z (g),Wrist Roll (deg),Wrist Pitch (deg),Wrist Yaw (deg),Arm Gyroscope X (deg/s),Arm Gyroscope Y (deg/s),Arm Gyroscope Z (deg/s),Arm Accelerometer X (g),Arm Accelerometer Y (g),Arm Accelerometer Z (g),Arm Roll (deg),Arm Pitch (deg),Arm Yaw (deg),Wrist Gyroscope Magnitude (deg/s),Wrist Accelerometer Magnitude (g),Arm Gyroscope Magnitude (deg/s),Arm Accelerometer Magnitude (g),Difference Roll (deg),Difference Pitch (deg),Difference Yaw (deg)
0.0,-14.802582740783691,7.130918502807617,7.1612935066223145,-0.8836660385131836,-0.2674237787723541,0.4064111709594726,-29.4609375,64.06761169433594,-133.4002685546875,2.5316600799560547,5.0283308029174805,2.024296283721924,-0.960573673248291,-0.2170693576335907,-0.0584337972104549,-109.27249145507812,80.1156234741211,136.49935913085938,17.923464485958682,1.0087374212128335,5.982573766223217,0.9865269364886124,-79.81155395507812,16.048011779785156,269.8996276855469
9.53,-13.518196105957031,4.821352481842041,8.5446138381958,-0.8809100389480591,-0.2489462792873382,0.4010594487190246,-29.547821044921875,64.21320343017578,-133.1370391845703,4.733442783355713,5.137180328369141,1.394891381263733,-0.9586420059204102,-0.20321686565876,-0.0640608221292495,-109.757080078125,80.08201599121094,135.93115234375,16.703217994062204,0.9994125414948966,7.123329577873608,0.9820363429808256,-80.20925903320312,15.868812561035156,269.0681915283203
35.716,-15.714317321777344,4.722079277038574,8.181232452392578,-0.8784396052360535,-0.221255674958229,0.3619050979614258,-29.682388305664062,64.37602233886719,-132.88616943359375,7.395740032196045,3.849021434783936,0.6445895433425903,-1.0031070709228516,-0.1677153408527374,-0.0319745689630508,-109.95814514160156,80.07258605957031,135.59495544433594,18.33494930530843,0.9754924467564904,8.362262391759778,1.017533588808323,-80.2757568359375,15.696563720703123,268.4811248779297
56.99,-17.788043975830078,7.477584362030029,6.097688674926758,-0.892776370048523,-0.2238107174634933,0.3992564976215362,-29.9669246673584,64.55089569091797,-132.75865173339844,5.196422576904297,1.1419254541397097,2.423102617263794,-1.0267678499221802,-0.1091689616441726,-0.0047777607105672,-109.96598815917967,80.1528091430664,135.50047302246094,20.23636784488933,1.0032679776916815,5.846214812540121,1.0325661755150084,-79.99906349182129,15.601913452148438,268.2591247558594
79.327,-14.404956817626951,8.744802474975586,5.116594314575195,-0.9108319878578186,-0.2316716015338897,0.3850101232528686,-30.26323127746582,64.74510192871094,-132.70516967773438,-3.2334022521972656,-2.511223554611206,3.760702848434448,-1.0018330812454224,-0.1167356520891189,-0.0388323217630386,-109.89684295654295,80.27049255371094,135.6571044921875,17.61118646269977,1.0156374530655572,5.559138402663804,1.0093585509420708,-79.63361167907715,15.525390625,268.3622741699219
89.48599999999999,-12.221580505371094,8.385784149169922,4.291815757751465,-0.8966169357299805,-0.2211911529302597,0.3446190059185028,-30.55319595336914,64.93997955322266,-132.7039031982422,-7.665649890899658,-4.755664348602295,4.150144100189209,-0.9682202935218812,-0.1683956235647201,-0.0754859670996666,-109.74192810058594,80.37164306640625,135.99176025390625,15.430751386248826,0.985702650302156,9.929865442127204,0.9856499145499484,-79.1887321472168,15.431663513183594,268.69566345214844
112.046,-14.14530086517334,7.342191219329834,3.17134976387024,-0.8909865021705627,-0.2248114943504333,0.3624405264854431,-30.891246795654297,65.09317779541016,-132.69723510742188,-6.503327369689941,-3.4128966331481934,3.734796285629273,-0.9287340641021729,-0.1959420889616012,-0.0984360352158546,-109.73917388916016,80.4304428100586,136.132568359375,16.249762084174574,0.987805795832994,8.239528724451585,0.9542693105614326,-78.84792709350586,15.337265014648438,268.8298034667969
139.383,-10.355877876281738,3.722569704055786,3.661883354187012,-0.9018965363502502,-0.2307272553443908,0.3420509994029999,-31.07550048828125,65.1981430053711,-132.60726928710938,-1.058692216873169,-0.3305775225162506,3.3408398628234863,-0.9368656873703004,-0.1717444360256195,-0.1090737208724021,-110.01663970947266,80.47268676757812,135.8745574951172,11.597892976299075,0.9917919715504482,3.5201309205044145,0.9587025315824164,-78.9411392211914,15.274543762207031,268.48182678222656
159.364,-11.234926223754885,1.2670023441314695,3.605949640274048,-0.9143536686897278,-0.2129413336515426,0.371457576751709,-31.181846618652344,65.25433349609375,-132.42291259765625,2.000177383422852,1.976334810256958,2.8420372009277344,-0.9540536403656006,-0.1355470418930053,-0.1100839748978614,-110.51375579833984,80.51050567626953,135.3406524658203,11.867254737362064,1.0096372488918552,3.9979725235232473,0.9699019696804992,-79.3319091796875,15.25617218017578,267.76356506347656
169.333,-13.217464447021484,-1.0244125127792358,3.882979393005371,-0.943490207195282,-0.1998758167028427,0.3374194502830505,-31.27389144897461,65.29889678955078,-132.1791534423828,0.9040738940238952,2.1306374073028564,1.3586418628692627,-1.0026251077651978,-0.147320806980133,-0.0821840986609458,-110.87452697753906,80.52217102050781,134.97560119628906,13.814062268975045,1.0217514368012115,2.6838168862265226,1.0167176367916335,-79.60063552856445,15.223274230957031,267.1547546386719
189.405,-13.545944213867188,-1.408273458480835,2.075594902038574,-0.931544542312622,-0.2129645645618438,0.3652228116989136,-31.425275802612305,65.29967498779297,-131.9999237060547,-0.8096136450767517,1.1902250051498413,1.4035346508026123,-1.017341136932373,-0.1533445566892624,-0.0638967379927635,-111.09960174560548,80.54301452636719,134.7808380126953,13.77620894790842,1.0229940577817196,2.010477389373483,1.0308153739090211,-79.67432594299316,15.24333953857422,266.78076171875
212.248,-8.29556655883789,-0.6054354906082153,2.4843058586120605,-0.9310617446899414,-0.225805178284645,0.3565733730792999,-31.494230270385746,65.31877136230469,-131.8593292236328,-2.4982011318206787,0.1357377171516418,2.0174264907836914,-1.0230175256729126,-0.1451058983802795,-0.050134290009737,-111.23370361328124,80.59017181396484,134.713134765625,8.680711506813928,1.0222565829352177,3.2139451253254867,1.0344728254591595,-79.73947334289551,15.271400451660156,266.5724639892578
229.614,-3.190211296081543,0.0597000531852245,2.7883028984069824,-0.908926248550415,-0.2018266767263412,0.3391571640968323,-31.449058532714844,65.36112213134766,-131.7111358642578,-1.5480728149414062,-0.8896199464797974,4.814846038818359,-1.0089900493621826,-0.1233814880251884,-0.0472715348005294,-111.37364959716795,80.70738220214844,134.62176513671875,4.237410207103081,0.9909129702958456,5.135240546173097,1.017604298979523,-79.92459106445312,15.34626007080078,266.33290100097656
252.194,-8.775870323181152,1.791523814201355,1.9209775924682613,-0.8919744491577148,-0.2018919289112091,0.3613539934158325,-31.57090187072754,65.40953826904297,-131.60791015625,-6.208019256591797,-3.878693103790283,2.78628921508789,-1.0100057125091553,-0.1272099316120147,-0.0351915061473846,-111.13470458984376,80.8075942993164,135.00938415527344,9.160546513003872,0.9833389433289352,7.832443480403798,1.018593318310493,-79.56380271911621,15.398056030273438,266.61729431152344
273.778,-8.098462104797363,2.2372066974639893,3.445493221282959,-0.9004936218261719,-0.2108398377895355,0.3657608330249786,-31.638946533203125,65.4786605834961,-131.44326782226562,-10.680009841918944,-5.253584861755371,1.0810017585754397,-0.9669405817985536,-0.1485702246427536,-0.0692294612526893,-110.83641052246094,80.86238098144531,135.5517578125,9.08083728562094,0.9945467244548446,11.951206170307412,0.9807343772320112,-79.19746398925781,15.38372039794922,266.9950256347656
289.404,-3.651709079742432,1.294792652130127,5.424761295318604,-0.8995262980461121,-0.1958181113004684,0.3168349862098694,-31.540245056152344,65.57776641845703,-131.19424438476562,-11.460169792175291,-5.403015613555908,0.3328029811382293,-0.9771380424499512,-0.1458519697189331,-0.0830064117908477,-110.55126190185548,80.90289306640625,136.09571838378906,6.66629599749893,0.9735895963271348,12.674337347966976,0.9914442069386492,-79.01101684570312,15.32512664794922,267.2899627685547
312.873,-5.900146961212158,1.6054424047470093,3.939488649368286,-0.8976302146911621,-0.200036808848381,0.3357135951519012,-31.540206909179688,65.65531158447266,-130.9994659423828,-10.032896041870115,-5.1208977699279785,0.8283632397651672,-0.957166850566864,-0.1343328803777694,-0.0878531038761138,-110.32506561279295,80.95338439941406,136.5503387451172,7.273840134163143,0.9790088585863564,11.294635125315942,0.9705317462274712,-78.78485870361328,15.298072814941406,267.5498046875
334.171,-3.1848206520080566,2.0191190242767334,4.639406681060791,-0.8989039063453674,-0.1729039847850799,0.3476960062980652,-31.426973342895508,65.74881744384766,-130.75225830078125,-4.909197807312012,-3.200988531112671,1.6811493635177612,-0.9687146544456482,-0.1302671581506729,-0.0677223056554794,-110.19059753417967,81.01339721679688,136.80589294433594,5.978630158483192,0.9791917756972556,6.096951194661812,0.9797774874499302,-78.76362419128418,15.26457977294922,267.5581512451172
356.728,-3.885100841522217,2.6706039905548096,3.559259414672852,-0.914997398853302,-0.1836099922657013,0.3849655091762543,-31.371078491210938,65.82524108886719,-130.56903076171875,-2.4374020099639893,-0.7360591888427734,1.3509334325790403,-0.9832767248153688,-0.1236126199364662,-0.0731811448931694,-110.30743408203124,81.05300903320312,136.75660705566406,5.907153443419364,1.0095203377958526,2.8823137974405504,0.993714585451512,-78.93635559082031,15.227767944335938,267.3256378173828
379.241,-1.8947093486785889,0.2425644993782043,5.869831085205078,-0.9429105520248412,-0.183907464146614,0.301336795091629,-31.191743850708008,65.92671966552734,-130.29713439941406,-2.54883074760437,-0.468102365732193,2.405316114425659,-0.9811016321182252,-0.0910826548933982,-0.0846516489982605,-110.58602142333984,81.12541961669922,136.54820251464844,6.172817672762453,1.0068297415972194,3.535704118708645,0.988950132335094,-79.39427757263184,15.198699951171877,266.8453369140625
389.825,-4.15450382232666,-0.6026484370231628,6.160285472869873,-0.9138056635856628,-0.1539391577243805,0.3181254267692566,-30.9780216217041,66.01002502441406,-129.94912719726562,-9.00707721710205,0.2430801689624786,1.1966516971588137,-0.9753407835960388,-0.1499058902263641,-0.0629584342241287,-110.87164306640624,81.14127349853516,136.45755004882812,7.454676670092733,0.9797662181557634,9.089472110507558,0.988799870808167,-79.89362144470215,15.131248474121094,266.4066772460937
412.729,-7.191795349121094,-0.1323519647121429,6.9300713539123535,-0.9080451726913452,-0.1880974173545837,0.3577533662319183,-30.81986427307129,66.07923889160156,-129.6295928955078,-11.865670204162598,3.188849687576294,1.4521795511245728,-0.9613529443740844,-0.1346286982297897,-0.082085020840168,-111.66014862060548,81.14309692382812,135.91009521484375,9.988259425771815,0.9939387028956004,12.372215532094962,0.9741982963904732,-80.84028434753418,15.063858032226562,265.5396881103516
432.325,0.3317786455154419,-4.371570110321045,7.267601013183594,-0.9936021566390992,-0.21265909075737,0.4397013485431671,-30.379314422607425,66.05644989013672,-129.16998291015625,-5.68797492980957,13.17824649810791,1.6376768350601196,-0.8965215086936951,-0.1458263397216797,-0.1815438121557235,-113.60064697265624,81.05764770507812,134.06915283203125,8.487563065208978,1.1071614202411046,14.446495249129738,0.9262690174237044,-83.22133255004883,15.001197814941406,263.2391357421875
454.869,20.27676010131836,-20.37248039245605,9.026278495788574,-1.0371787548065186,-0.2286009490489959,0.3644134104251861,-29.19277000427246,65.80856323242188,-128.28196716308594,5.273332595825195,26.03915786743164,-0.2067995369434356,-0.8587632775306702,-0.2183132618665695,-0.2969964146614074,-116.41595458984376,80.83200073242188,131.1215362548828,30.127373948470147,1.1228514136010237,26.568563099266388,0.9345276440340172,-87.22318458557129,15.0234375,259.40350341796875
478.044,17.717391967773438,-34.05223083496094,9.570805549621582,-0.9612104296684264,-0.2286761999130249,0.3073458075523376,-27.82768821716309,65.32949829101562,-127.08099365234376,8.042803764343262,28.51512336730957,-7.145059108734131,-0.9573437571525574,-0.2355808764696121,-0.1354738175868988,-118.92278289794922,80.3729476928711,128.4286346435547,39.56084834588175,1.034736555810232,30.477054035978,0.9951676109926076,-91.09509468078612,15.043449401855469,255.50962829589844
500.5079999999999,4.345022678375244,-37.25556564331055,5.322659015655518,-0.9181889891624452,-0.2098021209239959,0.5221511721611023,-26.7404727935791,64.65229797363281,-125.9567413330078,3.067405462265014,24.9253158569336,-3.7101004123687744,-1.068397045135498,-0.1233378499746322,-0.0546483434736728,-121.09011840820312,80.08348846435547,126.17481231689452,37.883863220051296,1.0769075152270844,25.38592507488544,1.0768801756625688,-94.34964561462402,15.431190490722656,252.1315536499024
509.167,10.306209564208984,-39.18535614013672,5.043943405151367,-0.9525612592697144,-0.2382640987634658,0.6237704157829285,-25.57725524902344,63.9252815246582,-124.8603286743164,-7.780262947082519,12.686212539672852,0.5680942535400391,-1.1353099346160889,-0.0223323330283164,0.0210783779621124,-122.44607543945312,80.01636505126953,124.97286224365234,40.83076605312608,1.1632851176848598,14.89279057827656,1.1357251774764832,-96.86882019042967,16.091083526611328,249.83319091796875
536.434,10.39281177520752,-42.23554992675781,1.3691802024841309,-0.9345435500144958,-0.2264336794614792,0.6634073853492737,-24.60086250305176,63.17139053344727,-124.00233459472656,-11.721614837646484,2.0858187675476074,7.119710922241211,-1.098089575767517,-0.0734353438019752,0.0086841247975826,-123.20630645751952,80.1580810546875,124.4535903930664,43.5169721905996,1.1682265264083505,13.872172791220155,1.100576612577289,-98.60544395446776,16.986690521240234,248.45592498779297
556.51,14.0718994140625,-47.86346435546875,-2.649651288986206,-0.9229781627655028,-0.2497735321521759,0.6005038022994995,-23.650484085083008,62.22346496582031,-123.25074005126952,-7.366561889648437,-4.404006004333496,11.552199363708496,-1.0094351768493652,-0.1793709397315979,-0.120044931769371,-123.67147064208984,80.37887573242188,124.16213989257812,49.959485837826094,1.1291059839013846,14.391484047835135,1.0322519537034642,-100.02098655700684,18.15541076660156,247.41287994384768
578.909,19.030391693115234,-55.97725677490234,-6.330144882202148,-0.9498070478439332,-0.2483378499746322,0.5867379307746887,-22.667911529541016,61.0884017944336,-122.56746673583984,4.3370680809021,-2.74350380897522,13.82500457763672,-0.9558168649673462,-0.1597163081169128,-0.1378337740898132,-124.32093811035156,80.6134262084961,123.45481872558594,59.461582709060224,1.1437073556088524,14.746786913084408,0.9788224188862577,-101.65302658081056,19.5250244140625,246.02228546142572
598.844,15.153687477111816,-66.49622344970703,-8.79207706451416,-0.95516699552536,-0.2650297880172729,0.589749813079834,-21.788787841796875,59.74479675292969,-121.89876556396484,3.79763126373291,0.0791238397359848,9.70378875732422,-0.9508559107780457,-0.1570120155811309,-0.1453693062067031,-125.02903747558594,80.74211120605469,122.68959045410156,68.76541715379686,1.1534251687496346,10.420737979820244,0.9746342756569842,-103.24024963378906,20.997314453125,244.5883560180664
608.998,10.830159187316896,-77.0634536743164,-12.228082656860352,-0.9716057181358336,-0.2526142597198486,0.6644331216812134,-21.01020240783692,58.16802597045898,-121.24470520019533,2.392601728439331,0.0168880149722099,6.947337627410889,-0.9680063724517822,-0.1432933509349823,-0.1573860198259353,-125.6374740600586,80.82807922363281,122.02413940429688,78.77559422625224,1.2038700132967424,7.347811126125911,0.9911305064249027,-104.62727165222168,22.660053253173828,243.2688446044922
629.1,8.320701599121094,-89.29914093017578,-14.740585327148438,-1.0118106603622437,-0.2538506388664245,0.6920461058616638,-20.28836250305176,56.358245849609375,-120.58621978759766,-2.322694778442383,3.660989761352539,2.254580020904541,-0.9692343473434448,-0.200159415602684,-0.1717085242271423,-126.28507995605467,80.76221466064453,121.40985870361328,90.88924854874726,1.2518501395589907,4.886807560892239,1.0044714177202578,-105.99671745300292,24.40396881103516,241.9960784912109
651.4250000000001,7.308993339538574,-100.6420440673828,-20.51569557189941,-1.007047414779663,-0.2846278548240661,0.7329790592193604,-19.717662811279297,54.29220962524414,-120.06480407714844,6.897064685821533,9.491209030151367,3.695203542709351,-0.9805710911750792,-0.1890835762023925,-0.1903180927038192,-127.4703140258789,80.64883422851562,120.08206939697266,102.9715309320848,1.277660288421868,12.300694263190394,1.0166086956386864,-107.7526512145996,26.356624603271484,240.1468734741211
668.968,14.057703971862791,-113.64459228515624,-21.80228614807129,-1.00911283493042,-0.2469592690467834,0.7565608024597168,-18.968372344970703,51.98797607421875,-119.48538208007812,16.16487693786621,14.570693016052246,3.0582845211029053,-0.9897775053977966,-0.1534767746925354,-0.1810886263847351,-128.90213012695312,80.47846984863281,118.32195281982422,116.56780034770452,1.2851777472427388,21.97638381527794,1.0178446449077672,-109.93375778198242,28.490493774414062,237.8073348999024
691.44,7.746477127075195,-125.03529357910156,-26.858875274658203,-0.9926837086677552,-0.230443075299263,0.7835190296173096,-18.43239974975586,49.44435119628906,-119.00471496582033,22.662681579589844,18.315797805786133,3.3122875690460205,-0.9974197149276732,-0.118877537548542,-0.1803717315196991,-130.55441284179688,80.27362060546875,116.20223236083984,128.12194085835597,1.2854676293785856,29.32638461488865,1.0205449123832917,-112.12201309204102,30.829269409179688,235.20694732666016
714.106,6.441920280456543,-136.4513397216797,-28.843873977661133,-0.9733000993728638,-0.2646929025650024,0.8322579860687256,-17.961088180541992,46.67115783691406,-118.54743194580078,18.56626510620117,21.167457580566406,-1.608944296836853,-1.0338231325149536,-0.1422111541032791,-0.1349319815635681,-131.90078735351562,79.9601058959961,114.46051788330078,139.61531260853943,1.3076806840672854,28.20205953772074,1.052245656357435,-113.93969917297365,33.28894805908203,233.0079498291016
729.176,4.22576379776001,-145.9437255859375,-30.994091033935547,-0.9266332983970642,-0.2761543989181518,0.8855559229850769,-17.568828582763672,43.69928741455078,-118.1164321899414,14.724206924438477,22.28643798828125,-4.723178863525391,-1.0036765336990356,-0.1587819755077362,-0.1275727748870849,-133.02366638183594,79.57499694824219,113.01837921142578,149.25837261808053,1.3111520943330792,27.125560018846443,1.0241353001125593,-115.45483779907228,35.875709533691406,231.1348114013672
752.502,6.453040599822998,-156.8668670654297,-32.01227569580078,-0.8723946213722229,-0.2711234390735626,0.8929986953735352,-17.142648696899414,40.52222442626953,-117.6770477294922,16.218210220336914,27.77376937866211,-5.63856840133667,-1.0077141523361206,-0.1333021521568298,-0.1226069331169128,-134.39686584472656,79.11158752441406,111.2948760986328,160.22996446086515,1.2775081074314545,32.65281093361951,1.0238602134258776,-117.25421714782716,38.58936309814453,228.971923828125
775.224,-1.7013607025146484,-163.59274291992188,-35.01483917236328,-0.8041346073150635,-0.2601745128631592,0.9377456307411194,-16.928678512573242,37.19504928588867,-117.296142578125,14.801276206970217,32.36883544921875,-6.421759605407715,-1.008522629737854,-0.1057444438338279,-0.0638323128223419,-135.86248779296875,78.6028060913086,109.49887084960938,167.3066619312279,1.2624143978105578,36.16708838327008,1.0160582395981697,-118.93380928039552,41.40775680541992,226.7950134277344
844.419,1.692859172821045,-171.1300811767578,-35.92081832885742,-0.7903878688812256,-0.2621955573558807,0.971881866455078,-16.664609909057617,33.73688888549805,-116.91788482666016,2.8315670490264893,37.704551696777344,-5.82869291305542,-0.7855415344238281,-0.0447481870651245,-0.1620775312185287,-137.93087768554688,77.96955871582031,107.34200286865234,174.86759461134446,1.2798491535786445,38.25734768227915,0.8033349417748806,-121.26626777648926,44.232669830322266,224.2598876953125
844.724,-4.866003036499023,-179.82342529296875,-39.13399124145508,-0.780500054359436,-0.2110921144485473,0.9946810007095336,-16.545734405517578,30.12240982055664,-116.56818389892578,0.5545805096626282,63.55363082885742,-0.2901195287704468,-1.2425440549850464,-0.1256220340728759,-0.1171772330999374,-141.55259704589844,77.0367431640625,103.63521575927734,184.0967450557815,1.2818465231102982,63.556712630636966,1.2543632360605304,-125.00686264038086,46.91433334350586,220.20339965820312
844.766,-4.798147678375244,-186.04425048828125,-44.78549957275391,-0.725017786026001,-0.2987397015094757,0.9259942173957824,-16.545818328857422,26.38381576538086,-116.34557342529295,-9.570542335510254,32.42931365966797,-11.894449234008787,-0.984971284866333,-0.0521815419197082,-0.124658390879631,-142.72454833984375,76.43247985839844,102.64187622070312,191.4189811196136,1.213409036542271,35.84318048964592,0.9941987023452868,-126.17873001098631,50.04866409301758,218.9874496459961
851.302,4.573119163513184,-190.2992553710937,-43.725830078125,-0.6200041770935059,-0.2615273296833038,0.963872253894806,-16.333972930908203,22.55967140197754,-116.07777404785156,-18.01087760925293,16.452302932739258,-11.017194747924805,-1.102568745613098,-0.1229740232229232,-0.0790319740772247,-143.08847045898438,76.08997344970703,102.68353271484376,195.3117206664708,1.1755217758990806,26.766556823017247,1.1122169312310508,-126.75449752807616,53.53030204772949,218.7613067626953
871.381,1.260115623474121,-194.99639892578125,-45.3350944519043,-0.5747625827789307,-0.2171599268913269,1.048058271408081,-16.1925106048584,18.61407470703125,-115.82991790771484,-16.3331298828125,-15.126276016235352,0.483993649482727,-1.1097911596298218,-0.139957457780838,-0.1307740807533264,-142.6357421875,76.38066864013672,103.53246307373048,200.20103464860023,1.2148813113539316,22.26678260865047,1.12619996811306,-126.4432315826416,57.76659393310547,219.3623809814453
893.725,2.0870702266693115,-199.528076171875,-47.882442474365234,-0.5570005774497986,-0.2647653222084045,1.0309336185455322,-16.08828353881836,14.551495552062988,-115.62954711914062,-14.4008150100708,-46.65700912475586,3.95113754272461,-1.0578678846359253,-0.1075528189539909,-0.0947766900062561,-140.6689910888672,77.22276306152344,105.91079711914062,205.20364845755424,1.2013219572499765,48.98848294551853,1.0675367399661613,-124.58070755004884,62.67126750946045,221.54034423828125
916.477,8.296784400939941,-204.02232360839844,-46.80034255981445,-0.4635983407497406,-0.2375311851501464,0.9166598320007324,-15.873045921325684,10.37297821044922,-115.4015884399414,-14.576468467712402,-63.725494384765625,7.662563800811768,-1.060037612915039,-0.1088828071951866,-0.0765754804015159,-137.5782012939453,78.34764099121094,109.4507293701172,209.4856014758096,1.054329044022006,65.81889509536391,1.068362771111031,-121.70515537261964,67.97466278076172,224.8523178100586
940.071,4.319470882415772,-206.4421539306641,-46.26679992675781,-0.3458346426486969,-0.2254004180431366,0.9491446018218994,-15.75322437286377,6.150228500366211,-115.16648864746094,-12.509172439575195,-70.90830993652344,9.486522674560549,-1.029448390007019,-0.1214879602193832,-0.0793051570653915,-133.36953735351562,79.53314208984375,114.08478546142578,211.60727190646983,1.035027740535308,72.6254908804894,1.0396213830541754,-117.61631298065186,73.38291358947754,229.25127410888672
949.857,-12.935235977172852,-207.7727203369141,-46.05343627929688,-0.2772378921508789,-0.2145170867443084,0.9477388858795166,-15.994142532348633,1.903292298316956,-114.91677856445312,-18.262264251708984,-62.63737487792969,3.38726544380188,-1.065458059310913,-0.0910180658102035,-0.027503689751029,-128.5388946533203,80.46769714355469,119.42341613769533,213.20821428621807,1.0104887061010008,65.33318141943127,1.0696923003389005,-112.54475212097168,78.56440484523773,234.34019470214844
973.623,-2.6299386024475098,-207.3650360107422,-46.69378662109375,-0.204483300447464,-0.2884684801101684,0.921570897102356,-16.047868728637695,-2.3384904861450195,-114.66710662841795,-29.964550018310547,-58.38274383544922,7.8268842697143555,-1.0499873161315918,-0.0859269574284553,-0.0069790836423635,-123.71746063232422,81.34284973144531,124.98469543457033,212.5734801093619,0.9870766953813668,66.08841920432823,1.053520533097776,-107.66959190368652,83.68134021759033,239.65180206298828
996.169,4.823543548583984,-208.2276763916016,-43.78849029541016,-0.1447247862815857,-0.2007906585931778,0.8391733169555664,-15.975356101989746,-6.581096172332764,-114.36189270019533,-31.10159111022949,-47.22379684448242,2.004199981689453,-1.0370310544967651,-0.0706190392374992,-0.0515210665762424,-119.08499908447266,81.91191101074219,130.34591674804688,212.8367065854992,0.8749137147357676,56.58102840673239,1.0407088339178512,-103.10964298248292,88.49300718307495,244.7078094482422
1019.89,-15.221041679382324,-206.30226135253903,-45.43529891967773,-0.0619286969304084,-0.1682986766099929,0.8332414031028748,-16.32082748413086,-10.795265197753906,-114.08740997314452,-40.12966537475586,-43.548431396484375,-14.83414077758789,-1.0837419033050537,-0.0797376781702041,-0.0657968297600746,-113.57950592041016,82.06069946289062,136.74411010742188,211.79393177543423,0.8523208573635992,61.04840417892577,1.0886614869213072,-97.2586784362793,92.85596466064452,250.8315200805664
1039.98,-4.660609245300293,-201.8697204589844,-43.716304779052734,-0.0151865426450967,-0.2974541485309601,0.8473508954048157,-16.48476219177246,-14.912972450256348,-113.77426147460938,-46.96343994140625,-29.128005981445312,-11.5400390625,-1.1104191541671753,-0.1347941756248474,-0.0524174980819225,-109.99337768554688,82.06986236572266,141.3341827392578,206.6015987843776,0.8981721112899981,56.45509653830389,1.1197980897594422,-93.5086154937744,96.982834815979,255.1084442138672
1050.056,12.084145545959473,-202.4209899902344,-35.65620422363281,0.0374310687184333,-0.1649478822946548,0.7711232900619507,-16.383485794067383,-18.996131896972656,-113.29493713378906,-36.13317489624024,-20.528600692749023,-25.643930435180664,-1.0221437215805054,-0.1495597064495086,-0.0983689352869987,-107.0569305419922,81.6951675415039,145.0514373779297,205.89232297936684,0.7894555194910368,48.83278553030747,1.0377005063067122,-90.6734447479248,100.69129943847656,258.34637451171875
1069.944,-5.201139450073242,-196.99610900878903,-35.68690872192383,0.1402255147695541,-0.1564365178346634,0.7520269751548767,-16.650524139404297,-22.945661544799805,-112.83157348632812,-32.164974212646484,-14.905067443847656,-14.43828010559082,-1.0206879377365112,-0.19330595433712,-0.0654001384973526,-105.29639434814452,81.4695053100586,147.4980010986328,200.27000342115323,0.7808201780597214,38.278068577363726,1.0408881958877572,-88.64587020874023,104.4151668548584,260.32957458496094
1091.596,-2.333917617797852,-191.4659881591797,-30.02361488342285,0.2113826870918274,-0.2290228605270385,0.6833094358444214,-16.96016502380371,-26.72703742980957,-112.2396469116211,-27.29791831970215,-3.955627679824829,-11.010793685913086,-0.9927985668182372,-0.1542452126741409,-0.1051955297589302,-105.21157836914062,81.26170349121094,148.14071655273438,193.81973388663468,0.7510298903240604,29.699510307819384,1.010201306369428,-88.25141334533691,107.98874092102052,260.38036346435547
1109.9779999999998,1.1431457996368408,-186.32391357421875,-25.95447158813477,0.2433461248874664,-0.1695498675107956,0.6982308030128479,-17.249677658081055,-30.399805068969727,-111.56478881835938,-29.363664627075195,4.935349941253662,-17.881601333618164,-0.9742857217788696,-0.1390199661254882,-0.0939366966485977,-106.01622772216795,80.88679504394531,147.9117889404297,188.12639938974928,0.7586110652677307,34.73232133947333,0.9886269881107614,-88.76655006408691,111.28660011291504,259.47657775878906
1131.364,1.3659064769744873,-179.9434356689453,-21.51749420166016,0.271821528673172,-0.1961587518453598,0.5920748710632324,-17.648155212402344,-33.90462875366211,-110.77450561523438,-33.2041130065918,8.3131685256958,-16.73594856262207,-0.9062614440917968,-0.1554552763700485,-0.0935545191168785,-107.24436950683594,80.50028991699219,147.32728576660156,181.23053908645247,0.6803806672152677,38.10136304362181,0.9242448788312692,-89.5962142944336,114.4049186706543,258.10179138183594
1153.505,-2.44054913520813,-170.87454223632812,-18.650390625,0.3498875796794891,-0.1787432432174682,0.5512815713882446,-18.196252822875977,-37.227787017822266,-109.91876983642578,-31.51743698120117,15.947540283203123,-20.03689765930176,-0.9412271976470948,-0.1475807726383209,-0.176914170384407,-109.1100616455078,80.00254821777344,146.0729522705078,171.90666809353596,0.676965166284176,40.60972965629919,0.9690135941904684,-90.91380882263184,117.2303352355957,255.9917221069336
1170.293,-6.607095718383789,-160.64141845703125,-15.69282341003418,0.4117337465286255,-0.1556704938411712,0.5292660593986511,-18.889619827270508,-40.355018615722656,-109.0052490234375,-24.46226501464844,31.72199249267578,-17.966106414794922,-0.9311315417289734,-0.1448998749256134,-0.1656170189380645,-112.340087890625,79.42500305175781,143.27455139160156,161.54127566754394,0.6883898185727539,43.90294064251285,0.9567815417941364,-93.45046806335448,119.78002166748048,252.27980041503903
1209.9489999999998,-9.734517097473145,-149.91650390625,-11.978510856628418,0.4582643806934356,-0.1400047093629837,0.4620163142681122,-19.74762725830078,-43.28553771972656,-107.99417114257812,-24.362869262695312,47.4705924987793,-18.1329345703125,-0.873335063457489,-0.1695396304130554,-0.1978135108947754,-116.62708282470705,78.67095947265625,139.4165496826172,150.70900334398084,0.6656325081499871,56.35432429749805,0.9113660101394,-96.87945556640624,121.9564971923828,247.4107208251953
1213.3970000000002,-13.873749732971191,-135.26608276367188,-9.32770824432373,0.4801319539546966,-0.2272719293832779,0.406040221452713,-20.86496925354004,-45.903541564941406,-106.86329650878906,-24.49863624572754,60.323219299316406,-24.386106491088867,-0.9070644378662108,-0.1669248044490814,-0.1921039819717407,-121.11531066894533,77.63672637939453,135.330078125,136.2952685127876,0.668616395649494,69.52521955613388,0.9420900830978468,-100.25034141540527,123.54026794433594,242.19337463378903
1235.991,-7.522965908050537,-120.13679504394533,-5.439903259277344,0.527765154838562,-0.2026792168617248,0.399970680475235,-21.899883270263672,-48.20930480957031,-105.69037628173828,-18.520427703857425,77.09247589111328,-15.402716636657717,-0.901880979537964,-0.1695578396320343,-0.2337554097175598,-126.5600357055664,76.47669219970703,130.129638671875,120.49496706068228,0.6925254283051822,80.76818532779392,0.9469850863689798,-104.66015243530272,124.68599700927734,235.82001495361328
1258.525,-16.171443939208984,-104.73497009277344,-5.14624547958374,0.6022010445594788,-0.1257940381765365,0.3160941004753113,-23.03773498535156,-50.19489288330078,-104.6154556274414,-8.346260070800781,81.338134765625,-12.52929973602295,-0.8261228799819946,-0.1415017247200012,-0.2568396329879761,-131.16671752929688,75.25140380859375,125.5562973022461,106.10095853454511,0.6916543345230936,82.71962026143207,0.8766232645794192,-108.12898254394533,125.44629669189452,230.1717529296875
1268.621,-22.432601928710938,-85.63967895507812,-5.863219261169434,0.6810312271118164,-0.1979361921548843,0.2914342284202575,-24.20160675048828,-51.81079864501953,-103.69681549072266,-9.289688110351562,83.28309631347656,-12.733776092529297,-0.8901882767677307,-0.1608047932386398,-0.2355769872665405,-135.1748046875,73.91252136230469,121.5816879272461,88.7229033616766,0.7667569223431325,84.76155667708146,0.9347672793550292,-110.97319793701172,125.72332000732422,225.27850341796875
1291.564,-11.94689655303955,-67.19745635986328,-1.125925898551941,0.6819204092025757,-0.2664297819137573,0.2247886657714843,-25.142454147338867,-53.04146194458008,-102.8123550415039,-4.436580657958984,76.5723876953125,-10.009368896484377,-0.8558490872383118,-0.1743563264608383,-0.2120113372802734,-138.315673828125,72.64506530761719,118.41134643554688,68.26048774813866,0.7658526081674885,77.35115558931055,0.8987917421955653,-113.17321968078612,125.68652725219728,221.2237014770508
1311.652,-1.8757295608520508,-50.18534851074219,-0.5488657355308533,0.7524557709693909,-0.2088333219289779,0.2204245030879974,-25.749080657958984,-53.95249938964844,-102.1053466796875,-1.9448829889297483,64.36515045166016,-3.544867992401123,-0.7760568261146545,-0.1911256611347198,-0.2665180563926697,-140.8266143798828,71.56433868408203,115.82008361816406,50.22338917402675,0.8114111197011187,64.4920247130529,0.8425111809861405,-115.07753372192384,125.51683807373048,217.9254302978516
1333.401,-1.0707619190216064,-30.06405258178711,2.652527570724488,0.819625973701477,-0.2585705816745758,0.1509489119052887,-26.2015323638916,-54.46985626220703,-101.5746612548828,0.772660493850708,44.99839019775391,6.008814334869385,-0.8258628249168396,-0.1974127143621444,-0.272615522146225,-142.75070190429688,70.8962631225586,113.7947769165039,30.19982932470216,0.8726001698825261,45.40438276575296,0.891818596064531,-116.54916954040527,125.36611938476562,215.36943817138672
1355.763,-2.072225570678711,-6.879849433898926,5.502617359161377,0.8643617630004883,-0.2430676817893982,0.1107719019055366,-26.466646194458008,-54.544464111328125,-101.30013275146484,7.740571975708008,28.17204475402832,4.58374547958374,-0.831225574016571,-0.1922388225793838,-0.2708017528057098,-143.77952575683594,70.47445678710938,112.58475494384766,9.050151647913871,0.9046952909789872,29.573489526190432,0.8951118975460726,-117.31287956237792,125.0189208984375,213.8848876953125
1378.548,-25.788145065307617,18.35561752319336,4.686123847961426,0.8774088025093079,-0.154849424958229,0.2004650831222534,-26.86927604675293,-54.17444610595703,-101.43887329101562,10.192421913146973,10.332352638244627,13.332056045532228,-0.9332453012466432,-0.1990599334239959,-0.207683727145195,-144.45663452148438,70.48861694335938,111.68508911132812,31.99870118122837,0.9132419179395588,19.70752886330125,0.9765777899965896,-117.58735847473145,124.6630630493164,213.1239624023437
1388.5400000000002,-20.97688102722168,39.93799209594727,8.159217834472656,0.8041695356369019,-0.2350878715515136,0.1733908206224441,-26.99287796020508,-53.38849639892578,-101.80465698242188,4.632675647735596,-17.356718063354492,16.537683486938477,-0.9894529581069946,-0.1847569942474365,-0.1783449351787567,-144.47650146484375,71.01477813720703,111.61280059814452,45.84370824831403,0.855581279641634,24.41745934166895,1.0222324682448432,-117.48362350463869,124.4032745361328,213.4174575805664
1416.033,-17.376258850097656,59.5718002319336,9.524346351623535,0.797429084777832,-0.2950721681118011,0.1304221153259277,-26.853668212890625,-52.2400016784668,-102.41461181640624,4.328122138977051,-36.81218719482422,18.81924819946289,-0.872990071773529,-0.1845224797725677,-0.2063297480344772,-143.9610595703125,71.8462142944336,112.12344360351562,62.7809439872059,0.8602154717336229,41.5696267737596,0.915823223051556,-117.10739135742188,124.0862159729004,214.53805541992188
1435.998,-30.50508499145508,81.43199920654297,9.47661018371582,0.8238954544067383,-0.1737068444490432,0.1479934900999069,-26.755300521850582,-50.70069122314453,-103.31869506835938,14.02963638305664,-55.99093627929688,23.3659896850586,-0.8585191369056702,-0.1742018461227417,-0.2101437747478485,-142.72496032714844,73.02796173095703,113.19319152832033,87.4730635434956,0.8549151190103501,62.27186456527004,0.900867247540448,-115.96965980529784,123.72865295410156,216.5118865966797
1479.014,-43.14353942871094,101.62124633789062,12.255471229553224,0.7509217262268066,-0.2092143893241882,0.2878235578536987,-26.79444694519043,-48.77615737915039,-104.39582824707033,17.74933624267578,-69.90213775634766,24.21554183959961,-1.0146126747131348,-0.1835566163063049,-0.1315996646881103,-140.5764617919922,74.47218322753906,115.13567352294922,111.07852752337595,0.8309611904748029,76.07719938686208,1.0394471524923163,-113.78201484680176,123.24834060668944,219.5315017700196
1499.255,-21.75012969970703,113.61418914794922,19.600391387939453,0.668085515499115,-0.2896923422813415,0.2970304191112518,-26.494468688964844,-46.56988906860352,-105.38774871826172,0.934593915939331,-75.536865234375,5.52719259262085,-0.9116668105125428,-0.1532698571681976,-0.1662379503250122,-137.13217163085938,75.697998046875,118.77214813232422,117.3261584654525,0.7864394312809945,75.74457956302724,0.9392886024192636,-110.63770294189452,122.26788711547852,224.159896850586
1499.327,-21.553787231445312,124.99081420898438,23.88860893249512,0.6938720345497131,-0.2213185429573059,0.2476124018430709,-26.235679626464844,-44.118255615234375,-106.3553695678711,-1.5645636320114136,-78.86155700683594,-7.180912494659424,-0.8734896183013916,-0.149073913693428,-0.1655560433864593,-132.2376251220703,76.70613861083984,123.89246368408205,129.06562291087798,0.769254313821767,79.20327352551158,0.9014521332416744,-106.00194549560548,120.82439422607422,230.24783325195312
1513.161,-41.94329071044922,141.0585174560547,29.095001220703125,0.6291780471801758,-0.2281577736139297,0.3488019406795501,-26.40782356262207,-41.34117126464844,-107.34027099609376,3.8571677207946777,-73.74645233154297,-17.309993743896484,-0.955612063407898,-0.1638345569372177,-0.1216324344277381,-126.24109649658205,77.38378143310547,130.02247619628906,150.01087986727515,0.7547077437894387,75.84888171706037,0.9771543516161266,-99.83327293395996,118.7249526977539,237.3627471923828
1530.859,-41.26729202270508,152.8040313720703,34.947174072265625,0.5087672472000122,-0.2703462243080139,0.4714470505714416,-26.6466064453125,-38.32938766479492,-108.28282928466795,4.3446855545043945,-66.41824340820312,-14.644296646118164,-1.0486197471618652,-0.1505479365587234,-0.0570608898997306,-120.2887191772461,77.90911865234375,136.0595703125,162.09061160376038,0.7444417467563119,68.15214431152071,1.0609071592255623,-93.6421127319336,116.23850631713869,244.342399597168
1549.115,-16.061494827270508,157.97555541992188,40.01020812988281,0.4323939085006714,-0.3258532881736755,0.4797207117080688,-26.49277305603028,-35.13785552978516,-109.12525939941406,-3.499485969543457,-55.54872131347656,-19.32187271118164,-0.922787606716156,-0.1677421331405639,-0.1287857741117477,-115.02275848388672,78.075927734375,141.55206298828125,163.75305945513136,0.7233787519438067,58.917243712519536,0.9467101805479012,-88.52998542785645,113.21378326416016,250.6773223876953
1570.916,-12.52181911468506,164.8660125732422,40.65025329589844,0.4530442953109741,-0.2605253756046295,0.4150504767894745,-26.25716590881348,-31.82340431213379,-110.00460052490234,2.9749879837036133,-46.93699645996094,-13.60549545288086,-0.9221702218055724,-0.1519948244094848,-0.0959640070796012,-110.45435333251952,78.1983642578125,146.19317626953125,170.26462095444856,0.667375084289877,48.95959248915302,0.9395261759456108,-84.19718742370605,110.02176856994627,256.1977767944336
1593.4140000000002,-35.37482070922852,180.2527313232422,43.6329231262207,0.3907428383827209,-0.2800934910774231,0.54647296667099,-26.48973846435547,-28.19519805908203,-110.94735717773438,9.452577590942385,-33.667945861816406,-5.984177589416504,-1.0783970355987549,-0.1696167141199112,0.0352760329842567,-106.8037338256836,78.33853149414062,149.72869873046875,188.8021638388652,0.7278495948982294,35.47805213210924,1.092224516571627,-80.31399536132812,106.53372955322266,260.6760559082031
1609.235,-32.78022766113281,185.17266845703125,49.37538909912109,0.1879862248897552,-0.3386896252632141,0.7411316633224487,-26.74786949157715,-24.42530059814453,-111.82080841064452,2.0732421875,-22.09267234802246,-10.29258918762207,-1.0548580884933472,-0.1519054174423217,0.0064141172915697,-104.34552764892578,78.29547119140625,152.207275390625,194.4257943733365,0.8362569135070499,24.46061930594278,1.0657588768613633,-77.59765815734863,102.72077178955078,264.0280838012696
1630.8780000000002,9.128822326660156,181.0261383056641,55.28598403930664,0.0711387172341346,-0.409706562757492,0.5942398905754089,-26.30344581604004,-20.69418907165528,-112.50279998779295,-16.766916275024414,-2.6576037406921387,-6.200034141540527,-0.8716427087783813,-0.0811599120497703,-0.1216831803321838,-104.50879669189452,78.1996841430664,152.39251708984375,189.5002326598245,0.7252869998885619,18.07298432391529,0.8838295873448655,-78.20535087585449,98.89387321472168,264.8953170776367
1653.097,0.8211722373962402,187.0808258056641,52.85837936401367,0.2019496113061905,-0.2610106766223907,0.58050137758255,-26.034643173217773,-16.85695457458496,-113.24243927001952,-10.92303466796875,3.4140257835388184,18.51634407043457,-1.0607831478118896,-0.2966846525669098,-0.0980229079723358,-105.56133270263672,78.49542999267578,151.53810119628906,194.4065790475278,0.6677515018274672,21.767481621515905,1.1058440940014114,-79.52668952941895,95.35238456726074,264.7805404663086
1675.729,-38.34666442871094,199.26022338867188,57.29507446289063,0.0575176551938056,-0.3156713545322418,0.8310174345970154,-26.585498809814453,-12.76895236968994,-114.00894927978516,13.64271640777588,4.346117496490479,-5.55130672454834,-1.0544297695159912,-0.3080065250396728,0.0209274422377347,-105.28768157958984,78.326416015625,151.51837158203125,210.85025220620383,0.8908123603405032,15.356739713438966,1.0986938227491656,-78.70218276977539,91.09536838531494,265.5273208618164
1697.883,-11.69245719909668,194.1703643798828,70.21489715576172,-0.1698377132415771,-0.4567357003688812,0.7547696232795715,-26.72404289245605,-8.67082691192627,-114.51025390625,-2.899165630340576,21.29481315612793,-6.88646411895752,-0.8941041827201843,-0.2063109427690506,-0.0877675265073776,-107.19508361816406,78.05297088623047,149.62265014648438,206.80661435593245,0.8984038808109451,22.567623197143217,0.92178611042541,-80.47104072570801,86.72379779815674,264.1329040527344
1709.295,18.78345489501953,191.2442321777344,71.45130920410156,-0.1331766545772552,-0.4091716706752777,0.6788899302482605,-26.29957389831543,-4.611937522888184,-114.93893432617188,-3.5849852561950684,27.42279624938965,-6.9232611656188965,-1.0373883247375488,-0.2134207487106323,-0.0927346721291542,-109.5326690673828,77.74202728271484,147.29051208496094,205.01820432835845,0.8037717429718934,28.509532065434566,1.0631663424398303,-83.23309516906738,82.35396480560303,262.2294464111328
1729.482,-19.7152042388916,199.5090484619141,74.02959442138672,-0.1009588316082954,-0.230334386229515,0.825476884841919,-26.66961479187012,-0.3581978976726532,-115.3869400024414,31.50261688232422,24.50246238708496,-14.597192764282228,-1.1340657472610474,-0.2496331334114074,-0.0254692863672971,-110.38673400878906,77.30204772949219,145.756103515625,213.7122611048664,0.8629360941389335,42.495453522260775,1.1614949440077709,-83.71711921691895,77.66024562716484,261.1430435180664
1750.672,-38.951541900634766,203.81787109375,76.43941497802734,-0.3472342193126678,-0.4929596185684204,0.955611526966095,-27.463529586791992,3.9651498794555664,-115.88218688964844,10.067152976989746,52.788841247558594,-7.231712341308594,-0.8853868246078491,-0.2528732717037201,0.0013577304780483,-114.05357360839844,76.74271392822266,141.77308654785156,221.1378107782757,1.1299443256511676,54.22459767217727,0.9207912706815616,-86.59004402160645,72.77756404876709,257.6552734375
1770.744,32.064903259277344,192.31411743164065,82.37216186523438,-0.5680340528488159,-0.5357741713523865,0.6844887137413025,-26.85339736938477,8.136594772338867,-116.1824951171875,11.870122909545898,81.81156158447266,13.725628852844238,-0.880859375,-0.2200677543878555,-0.1322520673274994,-120.3988265991211,76.20330810546875,135.00155639648438,211.6555003653108,1.0383840556958732,83.79990640915847,0.9175149395836024,-93.54542922973631,68.06671333312988,251.18405151367188
1793.094,22.28171730041504,193.2298889160156,72.42216491699219,-0.3906613290309906,-0.2064316272735595,0.6515577435493469,-26.48765563964844,12.239449501037598,-116.61962890625,64.70941925048828,49.81346893310547,13.741671562194824,-1.144390344619751,-0.1659741252660751,-0.1750123500823974,-123.21287536621094,75.93412780761719,130.78770446777344,207.55537783352028,0.7872469650104637,82.81016944921778,1.169532382535052,-96.7252197265625,63.69467830657959,247.40733337402344
1813.247,-46.70124053955078,207.7562561035156,66.04353332519531,-0.4029039144515991,-0.382925808429718,1.1618858575820925,-27.540651321411133,16.568675994873047,-117.3345718383789,39.34370422363281,37.45024871826172,-5.477949142456055,-1.107277750968933,-0.1400479972362518,-0.010657675564289,-124.5506820678711,75.46906280517578,128.60696411132812,222.9471150568196,1.2879994119141704,54.59355381273233,1.1161500998383405,-97.01003074645996,58.900386810302734,245.94153594970703
1855.41,22.15677070617676,192.3194732666016,83.36479187011719,-0.7735296487808228,-0.6312003135681152,0.7866211533546448,-27.19709205627441,20.74827766418457,-117.64982604980467,-5.014026165008545,46.83330154418945,10.144189834594728,-0.7660441398620605,-0.1498988419771194,-0.0992536172270774,-127.95404052734376,75.0931167602539,125.22069549560548,210.7780605499944,1.2710368965126313,48.18094207581109,0.7868573997718676,-100.75694847106934,54.344839096069336,242.87052154541016
1858.031,50.63011169433594,183.546630859375,72.07662200927734,-0.6921751499176025,-0.3232336342334747,0.6531999111175537,-26.33832550048828,24.67389488220215,-118.04364013671876,19.256811141967773,12.720870971679688,13.79195499420166,-1.1278742551803589,-0.2272723913192749,-0.1539222449064254,-128.9181671142578,75.1624526977539,123.84927368164062,203.5873604875235,1.00511518959133,26.886118280585265,1.1607950434213892,-102.57984161376952,50.48855781555176,241.89291381835932
1868.302,-4.992300033569336,195.7174224853516,63.88441467285156,-0.5356159210205078,-0.3053720593452453,0.7826858758926392,-26.72097587585449,28.754432678222656,-118.7032699584961,38.57777786254883,-53.79745101928711,8.391729354858398,-1.2818377017974854,-0.198902815580368,-0.0111237969249486,-125.1116180419922,75.9825439453125,127.01544952392578,205.94040633646333,0.996360220904684,66.72954220246045,1.297225486433752,-98.3906421661377,47.22811126708984,245.71871948242188
1891.181,-15.246127128601074,198.4840850830078,69.91796112060547,-0.7085258364677429,-0.3661386966705322,1.1451404094696045,-27.35801696777344,32.9494743347168,-119.3620834350586,7.139358997344971,-65.64385223388672,9.095911979675291,-0.8780677318572998,-0.2506856620311737,-0.0742255300283432,-120.7118682861328,76.84512329101562,131.439697265625,210.99027871189384,1.3954973892996447,66.65449270483818,0.9161635619173136,-93.35385131835938,43.89564895629883,250.8017807006836
1919.984,46.33112335205078,178.7464141845703,69.83048248291016,-1.069666624069214,-0.5408551692962646,0.7380556464195251,-26.7008113861084,36.76664352416992,-119.83271026611328,14.36166000366211,-5.372786998748779,32.85082244873047,-0.7098399996757507,-0.0895352885127067,-0.2778826057910919,-121.50575256347656,77.46647644042969,130.3853759765625,197.41618438897285,1.4076353000738022,36.253284730527874,0.7675338009690328,-94.80494117736816,40.699832916259766,250.21808624267572
1928.271,52.16243743896485,167.91751098632812,59.9083366394043,-0.9177835583686828,-0.2068552076816558,0.5090672969818115,-25.98556137084961,40.30841445922852,-120.35456848144533,32.963260650634766,-47.43238067626953,25.84798622131348,-1.068546175956726,-0.0619903206825256,-0.1055298149585723,-118.36457824707033,78.45691680908203,132.97918701171875,185.75849691014875,1.0697033466402124,63.28132173902063,1.07553255267112,-92.3790168762207,38.14850234985352,253.3337554931641
1948.024,-15.756131172180176,179.94271850585938,40.14219665527344,-0.8700430989265442,-0.3473288714885711,0.7044333219528198,-27.109289169311523,43.9373664855957,-121.55573272705078,-2.6887359619140625,-65.42588806152344,21.280000686645508,-1.2180942296981812,-0.0041318391449749,-0.0281798839569091,-113.4285125732422,79.45700073242188,138.1318359375,185.0379246670924,1.172108631499962,68.85212094725564,1.2184271543176268,-86.31922340393066,35.51963424682617,259.6875686645508
1969.73,11.633363723754885,180.25543212890625,53.0281982421875,-1.0480635166168213,-0.3497064113616943,0.9283850193023682,-27.54826736450196,47.63818359375,-122.5399398803711,-44.10649871826172,-71.26966857910156,14.051145553588867,-1.0252050161361694,-0.2249705493450164,-0.0350480526685714,-107.2751693725586,80.2214584350586,145.30880737304688,188.2534083949628,1.443132167570161,84.9834312082487,1.050183526427272,-79.72690200805664,32.583274841308594,267.848747253418
1991.803,51.61144256591797,166.05250549316406,48.26524353027344,-1.0664023160934448,-0.3078866004943847,0.6918121576309204,-27.269790649414062,51.08737564086914,-123.5469970703125,-34.30825424194336,-56.12989807128906,28.27353477478028,-0.9175171852111816,-0.2948008477687835,-0.1571283936500549,-102.43450927734376,81.04264831542969,150.9292755126953,180.46248728566536,1.3079037120443544,71.60317405872335,0.9764397867221972,-75.16471862792969,29.955272674560547,274.4762725830078
2013.435,24.838809967041016,164.20892333984375,40.64402389526367,-0.8871864676475525,-0.3122293949127197,0.5416831374168396,-27.842226028442383,54.3994369506836,-124.8782958984375,18.875919342041016,-60.37231063842773,32.390743255615234,-1.0483425855636597,-0.2148556560277938,0.0441352203488349,-94.5577163696289,81.847412109375,158.52127075195312,170.97799175159423,1.0853606058754186,71.06529723769005,1.0710429717376764,-66.71549034118652,27.447975158691406,283.3995666503906
2038.069,7.821381092071533,169.89561462402344,42.43658065795898,-0.9732834696769714,-0.3546197712421417,0.4979158937931061,-29.051733016967773,57.813743591308594,-126.47296905517578,26.75010299682617,-62.527130126953125,18.455963134765625,-1.0718649625778198,-0.1797484159469604,0.1415506601333618,-84.74614715576172,82.19670867919922,167.87620544433594,175.28992340862482,1.1493285569383809,70.46866386902454,1.096011213638612,-55.694414138793945,24.382965087890625,294.3491744995117
2047.915,5.0533952713012695,171.17665100097656,45.53581619262695,-1.0808920860290527,-0.226630613207817,0.6739903092384338,-30.39240455627441,61.22282791137695,-128.1619110107422,35.733211517333984,-64.63990020751953,12.110661506652832,-1.037488341331482,-0.2509008646011352,0.0892883613705635,-74.40737915039062,82.13512420654297,177.5926971435547,177.2018431281313,1.2938129978596242,74.84548901777138,1.071123575378951,-44.01497459411621,20.912296295166016,305.7546081542969
2070.626,2.001627445220948,169.31381225585938,44.0161018371582,-1.1263670921325684,-0.2578018307685852,0.4443789422512054,-32.3140983581543,64.60336303710938,-130.3596649169922,63.435020446777344,-56.68096160888672,17.803756713867188,-0.9300787448883056,-0.2005674391984939,0.0686889588832855,-64.71363830566406,82.02385711669922,-173.94192504882812,174.9531101580676,1.2379972756444628,86.91206464650188,0.9539349780944806,-32.399539947509766,17.420494079589844,-43.58226013183594
2093.002,4.030807495117188,164.60301208496094,41.06696701049805,-1.1983850002288818,-0.2506982386112213,0.3622779250144958,-34.823368072509766,67.84129333496094,-133.18373107910156,71.10101318359375,-32.11444091796875,17.243024826049805,-0.8695634603500366,-0.1331071853637695,-0.1205802410840988,-58.41523742675781,82.02680206298828,-169.04347229003906,169.69647838404256,1.2768012807673537,79.90002062802643,0.8879176363330633,-23.591869354248047,14.185508728027344,-35.8597412109375
2115.398,7.914983749389648,144.42372131347656,39.92427444458008,-1.2826552391052246,-0.2318380773067474,0.2751038670539856,-37.490020751953125,70.7024917602539,-136.2387237548828,55.122440338134766,-4.4925217628479,5.157237529754639,-0.8438595533370972,-0.12198306620121,-0.3446354568004608,-56.38027191162109,82.06599426269531,-168.11962890625,150.04934500260904,1.33215445582013,55.54514631864064,0.919647982807659,-18.89025115966797,11.363502502441406,-31.880905151367188
2137.239,-3.906404972076416,114.89287567138672,33.208946228027344,-1.2619545459747314,-0.2020966112613678,0.2974467575550079,-40.342735290527344,72.93742370605469,-139.16831970214844,25.465389251708984,16.977481842041016,-3.241382122039795,-0.845641553401947,-0.1375810354948043,-0.3927721679210663,-58.16129684448242,82.19796752929688,-170.47776794433594,119.65979688024964,1.3121916361452723,30.777061222588603,0.9425010101115516,-17.818561553955078,9.260543823242188,-31.3094482421875
2147.873,-4.838356971740723,79.9391098022461,27.43968772888184,-1.2231789827346802,-0.1872048377990722,0.3417665958404541,-42.510704040527344,74.49491119384766,-141.36654663085938,4.999423980712891,51.79539489746094,-6.690250396728516,-0.8559584617614746,-0.1156899034976959,-0.4810492396354675,-65.27486419677734,82.578857421875,-177.7880401611328,84.6558175013395,1.2837510978112523,52.46443198104575,0.9886644592510836,-22.76416015625,8.083946228027344,-36.42149353027344
2170.4,-8.445831298828125,44.14546585083008,21.13039779663086,-1.1722657680511477,-0.2478991001844406,0.268330305814743,-43.76897048950195,75.40924072265625,-142.49325561523438,-16.802133560180664,64.51570129394531,-7.865583896636963,-0.9921363592147828,-0.1091379299759864,-0.2694331705570221,-75.50930786132812,82.87359619140625,172.21484375,49.66535948283201,1.227868945708554,67.13013343989985,1.0338471243040803,-31.74033737182617,7.46435546875,314.7080993652344
2191.083,-18.755136489868164,21.686880111694336,13.492887496948242,-1.1163238286972046,-0.3349801301956177,0.4343527853488922,-44.55167770385742,75.88275146484375,-142.98118591308594,-32.53544235229492,61.69071578979492,-9.486310005187988,-1.1242530345916748,-0.2698725163936615,0.0193419829010963,-86.08953094482422,82.82369232177734,162.1653289794922,31.6880723102225,1.2438058209718266,70.38671395392235,1.156352097414876,-41.5378532409668,6.940940856933594,305.1465148925781
2212.908,-12.60529327392578,12.837018013000488,8.548439979553223,-1.1303789615631104,-0.4128869473934173,0.6929569244384766,-45.04269790649414,76.18643188476562,-143.25137329101562,-4.713472366333008,50.9183464050293,2.741446018218994,-1.2060061693191528,-0.2795557379722595,0.2039986401796341,-94.0621566772461,82.86077880859375,154.18325805664062,19.91879203344925,1.3886761779477543,51.20947518420349,1.2546783397605188,-49.01945877075195,6.674346923828125,297.43463134765625
2235.397,15.783685684204102,-0.8764533400535583,7.046083450317383,-0.9808720946311952,-0.4704447984695434,0.7672961354255676,-44.27035140991211,76.27326202392578,-142.78179931640625,23.42293930053711,32.52338409423828,12.4302396774292,-1.1005682945251465,-0.1902929246425628,0.2205281853675842,-98.96271514892578,83.03812408447266,148.7689208984375,17.30722959412849,1.3312294069288917,41.96326318169659,1.1384615270726233,-54.69236373901367,6.764862060546875,291.5507202148437
2257.769,31.24268913269043,-13.10418701171875,-2.658696174621582,-1.007732391357422,-0.472309410572052,0.6771361827850342,-43.07038497924805,76.04598999023438,-142.2600555419922,14.6603364944458,16.93265724182129,10.782002449035645,-0.9999396204948424,-0.0037287147715687,0.0248676910996437,-101.61286163330078,83.26441955566406,145.79844665527344,33.98373150242596,1.3027333426079777,24.857431971352007,1.0002557423028595,-58.542476654052734,7.218429565429687,288.0585021972656
2267.88,26.041893005371094,-39.15642929077149,-11.110308647155762,-1.12584388256073,-0.3861614763736725,0.5873426795005798,-41.14593505859375,75.31304168701172,-140.8821258544922,-3.3932700157165527,20.90088653564453,0.0034356415271759,-0.9480522274971008,-0.0705843791365623,-0.2162951529026031,-105.04151916503906,83.16743469238281,142.39913940429688,48.32023493673688,1.3272590391093346,21.174544887177163,0.9749711656297684,-63.89558410644531,7.854393005371094,283.28126525878906
2290.949,27.12664794921875,-70.07769775390625,-20.191539764404297,-1.1816139221191406,-0.3214761316776275,0.5694371461868286,-38.473388671875,73.97331237792969,-138.73182678222656,-3.62080717086792,26.048227310180664,-4.97169303894043,-0.9943780303001404,-0.2471956014633178,-0.2135474979877472,-108.92356872558594,82.90620422363281,138.536376953125,77.81026300884872,1.3504876999223612,26.76449368556968,1.0466593841471183,-70.45018005371094,8.932891845703125,277.2682037353516
2315.174,19.73099136352539,-96.82776641845705,-26.02774429321289,-1.1721012592315674,-0.3241684436798095,0.658536970615387,-35.6246452331543,72.10883331298828,-136.169189453125,2.6318519115448,24.16585350036621,-4.473735332489014,-1.074981689453125,-0.213258758187294,-0.0932243317365646,-112.18516540527344,82.59998321533203,135.17567443847656,102.1879241533346,1.382959682506076,24.71698662277877,1.0998889519541557,-76.56052017211914,10.49114990234375,271.3448638916016
2335.262,16.20374298095703,-116.21965026855467,-29.333393096923828,-1.1670516729354858,-0.3388735651969909,0.685275137424469,-32.91525650024414,69.85308837890625,-133.60812377929688,9.13751983642578,17.217256546020508,-2.6419310569763184,-1.074720859527588,-0.1351043879985809,-0.046764850616455,-114.18030548095705,82.4142837524414,132.9687042236328,120.95460448332148,1.3951512156260912,19.669976904978224,1.084188670302991,-81.26504898071289,12.561195373535156,266.5768280029297
2357.769,24.66366004943848,-133.06053161621094,-35.78883361816406,-1.159034252166748,-0.2580723464488983,0.726760983467102,-30.420379638671875,67.20881652832031,-131.4220733642578,25.232521057128903,13.22907257080078,4.115147590637207,-1.0443283319473269,-0.0727372020483017,-0.0738931819796562,-115.8556137084961,82.4011001586914,130.76690673828125,139.97943353497172,1.3921721376279022,28.78581108245336,1.0494629902063148,-85.43523406982422,15.192283630371094,262.18898010253906
2377.624,28.07525634765625,-150.0170135498047,-41.60307312011719,-1.1596355438232422,-0.2754554748535156,0.6959996223449707,-28.163311004638672,64.13312530517578,-129.57276916503906,30.42938995361328,12.16532039642334,1.9983811378479004,-0.9821614027023317,-0.1134440973401069,-0.0816578939557075,-117.08055877685548,82.3248519897461,128.92237854003906,158.1902021821412,1.3802339611201226,32.83194055289454,0.992057758310878,-88.9172477722168,18.191726684570312,258.4951477050781
2388.348,28.914640426635746,-166.60504150390625,-43.65803909301758,-1.1577229499816897,-0.2661616504192352,0.699350118637085,-26.09163284301757,60.71419143676758,-127.90624237060548,31.862537384033203,15.79552936553955,2.0719571113586426,-0.9605887532234192,-0.0918078124523162,-0.0972487106919288,-118.80165100097656,82.21565246582031,126.55225372314452,174.64054701863313,1.3784973853823232,35.62320932703629,0.9698539781729232,-92.71001815795898,21.50146102905273,254.45849609375
2410.3430000000003,25.66147994995117,-182.6906280517578,-47.14814376831055,-1.162758469581604,-0.2600868940353393,0.745718777179718,-24.35063362121582,56.97470474243164,-126.49274444580078,26.97648048400879,21.95851707458496,2.7088522911071777,-0.9569452404975892,-0.0289940759539604,-0.0752737075090408,-121.3976058959961,82.08303833007812,123.3946304321289,190.41356199589552,1.4056133699104878,34.889036274365374,0.9603389926445606,-97.04697227478027,25.108333587646484,249.8873748779297
2435.307,30.39215850830078,-197.09423828125,-48.77333831787109,-1.1353998184204102,-0.2613286077976227,0.7709822058677673,-22.72317886352539,52.96343231201172,-125.26725006103516,14.645535469055176,27.050994873046875,-2.1278326511383057,-0.977320909500122,-0.0605816654860973,-0.039613589644432,-124.122314453125,81.79052734375,120.3432846069336,205.30138965221192,1.39708229918186,30.834651037237503,0.9799977218461952,-101.3991355895996,28.82709503173828,245.61053466796875
2457.69,31.22482681274414,-207.67166137695312,-49.69186401367188,-1.0933423042297363,-0.2497243136167526,0.7830089330673218,-21.279016494750977,48.7606315612793,-124.23233795166016,5.849165916442871,35.80330276489258,-1.2466198205947876,-0.9687050580978394,-0.0711286440491676,-0.0494598075747489,-127.77873229980467,81.37940979003906,116.52220153808594,215.8049816331936,1.3677948005066305,36.29935663024541,0.9725713578724918,-106.49971580505373,32.618778228759766,240.7545394897461
2469.281,25.77243423461914,-216.366943359375,-51.10205078125,-1.0646380186080933,-0.2478380501270294,0.8113435506820679,-20.12502098083496,44.39875030517578,-123.37510681152344,4.724993705749512,43.08344268798828,-1.5415245294570925,-0.9666269421577454,-0.0662283971905708,-0.0927708148956298,-131.8556365966797,80.8230209350586,112.31043243408205,223.8086060434366,1.361306786506965,43.36916989341001,0.9733243395682984,-111.73061561584473,36.42427062988281,235.68553924560547
2491.16,22.41539001464844,-225.0763702392578,-51.041805267333984,-1.062942624092102,-0.2728046774864197,0.8625501394271851,-19.15857696533203,39.8891487121582,-122.61779022216795,4.8242597579956055,61.25880813598633,-6.748636245727539,-0.9184471368789672,-0.1792090684175491,-0.1059058830142021,-136.1710662841797,79.83756256103516,107.8237075805664,231.8773124618636,1.3958016181378103,61.817951661563065,0.9417415194740412,-117.01248931884766,39.94841384887695,230.4414978027344
2512.66,32.153419494628906,-236.509033203125,-46.75445938110352,-1.0595715045928955,-0.264218121767044,0.8355529308319092,-18.037086486816406,35.121665954589844,-121.83229064941406,12.758914947509766,74.91710662841797,-7.674032688140869,-0.9511154890060424,-0.1872388422489166,-0.1666896641254425,-140.42013549804688,78.56794738769531,103.25655364990234,243.22077346290493,1.3750097052156214,76.38228560281625,0.9835977336290334,-122.38304901123048,43.44628143310547,225.0888442993164
2535.644,24.539566040039062,-244.2190093994141,-45.78097152709961,-0.9481974840164183,-0.1979667544364929,0.8559243679046631,-17.160493850708008,30.19063377380371,-121.11831665039062,17.90010643005371,76.9160385131836,-3.8857927322387695,-1.0521589517593384,-0.0646324828267097,-0.1248873621225357,-144.22262573242188,77.34049224853516,99.03063201904295,249.681821940304,1.2926236219914062,79.06699802020253,1.061514329070305,-127.06213188171388,47.149858474731445,220.1489486694336
2547.544,15.09637451171875,-245.6401214599609,-48.31829071044922,-0.8259466886520386,-0.2364982366561889,0.9113933444023132,-16.594911575317383,25.211015701293945,-120.55113983154295,4.637270927429199,60.92230987548828,-5.905542373657227,-1.1081080436706543,-0.0452602952718734,-0.0565948411822319,-146.65809631347656,76.33438110351562,96.46617126464844,250.80196771844092,1.252500369923134,61.38328398633017,1.1104750815863198,-130.06318473815918,51.12336540222168,217.0173110961914
2570.941,29.38628387451172,-248.90219116210932,-46.08294677734375,-0.7522748708724976,-0.2523794770240783,0.8994153738021851,-15.79615879058838,20.175750732421875,-120.00529479980467,-8.00218391418457,8.460634231567383,4.109713077545166,-1.1131930351257324,-0.0852847248315811,-0.1060083657503128,-147.4470672607422,76.30559539794922,95.89013671875,254.832282941028,1.199400223612162,12.349373286792728,1.1214767012074265,-131.6509084701538,56.129844665527344,215.8954315185547
2592.625,29.7869930267334,-251.01661682128903,-44.58037567138672,-0.6621605157852173,-0.2281680405139923,0.8936992287635803,-15.049979209899902,15.101320266723633,-119.50748443603516,-8.283456802368164,-35.908546447753906,7.086549758911133,-1.0968681573867798,-0.0912818536162376,-0.0678542405366897,-146.4076690673828,77.04319763183594,97.20679473876952,256.6788202578905,1.1354362663177349,37.52677113838496,1.1027494409191494,-131.3576898574829,61.94187736511231,216.7142791748047
2614.964,27.35118103027344,-253.0633544921875,-41.952335357666016,-0.5680243372917175,-0.2097523808479309,0.8629432916641235,-14.39743709564209,9.995396614074709,-119.02142333984376,-8.88626480102539,-69.01017761230469,19.73523330688477,-1.0756727457046509,-0.0929000303149223,-0.0705905631184578,-144.39085388183594,78.47696685791016,99.54750061035156,257.9712133796161,1.054191080238864,72.3246137208693,1.0819821158807,-129.99341678619385,68.48157024383545,218.5689239501953
2637.545,25.81296157836914,-251.8933563232422,-39.80070877075195,-0.4266798794269562,-0.1948857307434082,0.850070595741272,-13.821715354919434,4.9177350997924805,-118.56431579589844,-14.680337905883787,-75.32939147949219,18.299222946166992,-1.107182502746582,-0.0901797488331794,-0.0807803496718406,-141.39613342285156,79.95771789550781,102.9463882446289,256.3214161241476,0.9709048281366794,78.89797907510079,1.113782270635022,-127.57441806793211,75.03998279571533,221.5107040405273
2647.454,18.267841339111328,-247.1418609619141,-38.184818267822266,-0.308577686548233,-0.227041557431221,0.8955399990081787,-13.438484191894531,-0.063472956418991,-118.14188385009766,-35.852874755859375,-54.3974838256836,6.042777061462402,-1.1065146923065186,-0.0378990881145,-0.020398948341608,-138.47689819335938,80.95307922363281,106.67403411865234,250.74069038162835,0.97404309312259,65.42958069130034,1.1073514447832469,-125.03841400146484,81.0165521800518,224.81591796875
2672.297,24.55332946777344,-244.6241607666016,-32.8405647277832,-0.2575317919254303,-0.2254383265972137,0.7758321166038513,-12.969141960144045,-4.974217414855957,-117.66349792480467,-51.11831665039063,-44.582969665527344,5.02457332611084,-1.0080852508544922,-0.0700376853346824,-0.0453532524406909,-135.9615020751953,81.72511291503906,110.33421325683594,248.0369906089753,0.8479743723163378,68.01448241717641,1.0115325342589596,-122.99236011505128,86.69933032989502,227.99771118164065
2692.401,20.3259391784668,-242.0764312744141,-30.01475524902344,-0.1559256762266159,-0.1594949662685394,0.801924467086792,-12.625271797180176,-9.826355934143066,-117.1760711669922,-40.86295700073242,-43.17928314208984,0.6878645420074463,-1.0341132879257202,-0.0398829206824302,-0.0307165794074535,-132.43910217285156,82.39910888671875,114.79901123046876,244.7754642824759,0.8323666930410931,59.45338430347445,1.0353378423863386,-119.8138303756714,92.22546482086182,231.9750823974609
2715.002,11.97472095489502,-238.455078125,-28.549549102783203,-0.097080647945404,-0.1806806474924087,0.6928731799125671,-12.491504669189451,-14.603020668029783,-116.6834487915039,-50.8759994506836,-30.956844329833984,-1.6481482982635498,-1.121937870979309,-0.1499526649713516,-0.1850117444992065,-129.9211883544922,82.74341583251953,118.41307067871094,240.45643052228752,0.722594901743659,59.5769244236441,1.1469349300079037,-117.42968368530272,97.34643650054932,235.09651947021484
2735.105,16.029823303222656,-233.4956970214844,-26.249099731445312,0.0165648628026247,-0.1555508077144622,0.7051337957382202,-12.319047927856444,-19.2746810913086,-116.17357635498048,-45.30977630615234,-8.93228530883789,-13.561590194702148,-1.0735297203063965,-0.0859037563204765,-0.1311495155096054,-128.6406707763672,82.63877868652344,120.64390563964844,235.5126557096088,0.7222770371211323,48.13188421785591,1.0849173752638963,-116.32162284851074,101.91345977783205,236.8174819946289
2757.387,2.8527400493621826,-225.2051696777344,-23.39111328125,0.1071346849203109,-0.1311618089675903,0.6993293762207031,-12.463541984558104,-23.77240562438965,-115.62826538085938,-41.764591217041016,11.446162223815918,-26.58113670349121,-1.0847707986831665,-0.0914590209722518,-0.1061728447675705,-128.45205688476562,82.07711791992188,121.6897430419922,226.4346500779036,0.7195434922851174,50.81193302394761,1.0937847645487464,-115.98851490020752,105.84952354431152,237.3180084228516
2767.464,0.4618088901042938,-216.32069396972656,-19.449975967407227,0.1297342777252197,-0.1857238113880157,0.6372151374816895,-12.728644371032717,-28.0776481628418,-115.00204467773438,-50.94122314453125,20.741920471191406,-13.873512268066406,-0.9806963801383972,-0.164249911904335,-0.1091731041669845,-130.39007568359375,81.56266021728516,120.76612854003906,217.1938246638881,0.6762894708401012,56.72486071332696,1.0003310403314458,-117.66143131256104,109.64030838012695,235.76817321777344
2790.515,11.677680015563965,-209.8787078857422,-13.907207489013672,0.1986887753009796,-0.1348925530910492,0.5654293298721313,-12.904254913330078,-32.22431564331055,-114.22786712646484,-35.17812728881836,44.41315078735352,-4.719670295715332,-0.918904423713684,-0.2074581086635589,-0.2692855596542358,-134.82366943359375,80.8677749633789,116.97755432128906,210.6628839033518,0.6143155194113789,56.85335425556495,0.97976472655895,-121.91941452026369,113.09209060668944,231.2054214477539
2817.298,-4.325782775878906,-199.4794158935547,-10.088046073913574,0.3152394890785217,-0.1022909805178642,0.4535529911518097,-13.47382354736328,-36.15387344360352,-113.3704071044922,-20.880172729492188,57.10079956054688,-3.388911247253418,-0.8721872568130493,-0.1477492153644561,-0.2284689396619796,-139.6306610107422,79.9109115600586,112.54603576660156,199.78117637917555,0.5617381026355138,60.89308370503944,0.9136402453800696,-126.1568374633789,116.06478500366212,225.9164428710937
2827.567,-15.630242347717283,-186.00616455078125,-9.937870025634766,0.4436713457107544,-0.1327261179685592,0.501862108707428,-14.335790634155272,-39.83237075805664,-112.48260498046876,-24.16591453552246,81.1396484375,-8.593235969543457,-0.9476208686828612,-0.0908274352550506,-0.193567469716072,-144.73826599121094,78.49617004394531,107.83839416503906,186.92607893867324,0.682880708141665,85.09687231812651,0.9714439248307406,-130.40247535705566,118.32854080200195,220.3209991455078
2849.786,-7.315476417541504,-175.2151336669922,-2.2344937324523926,0.4308188557624817,-0.1721363961696624,0.3827943503856659,-15.2797269821167,-43.24939727783203,-111.3171157836914,-36.28481674194336,91.08425903320312,-8.286895751953125,-0.9524044990539552,-0.1636038422584533,-0.1706560999155044,-149.23468017578125,76.85469818115234,103.96957397460938,175.38201795907673,0.6014709802259431,98.39513611367076,0.9813073175403894,-133.95495319366455,120.10409545898438,215.2866897583008
2867.632,-0.4261000752449035,-163.9401397705078,-0.3861734569072723,0.526643693447113,-0.1254801750183105,0.3289209902286529,-16.16461944580078,-46.4300537109375,-110.0778579711914,-32.138710021972656,109.36328125,-12.09652614593506,-0.8155208826065063,-0.1281978338956833,-0.3247725963592529,-153.22161865234375,74.76014709472656,100.51427459716795,163.9411483404535,0.6334728660197216,114.62787580882032,0.8871224458488076,-137.05699920654297,121.19020080566406,210.59213256835932
2889.873,-19.089448928833008,-144.60153198242188,2.4894468784332275,0.6255213022232056,-0.148894190788269,0.2387381941080093,-17.52120590209961,-49.18365859985352,-108.76390075683594,-16.632282257080078,98.28704833984376,-21.75783348083496,-0.8851374983787537,-0.1034345403313636,-0.309601753950119,-155.18661499023438,72.75896453857422,98.801025390625,145.877371301482,0.6858879681926647,102.03126972755804,0.9434088939684364,-137.66540908813477,121.94262313842772,207.5649261474609
2913.448,-19.45399475097656,-124.08431243896484,2.152437925338745,0.6653334498405457,-0.161677673459053,0.2180813401937484,-18.89573097229004,-51.52732849121094,-107.48675537109376,-9.881953239440918,88.92443084716797,-19.195186614990234,-0.8559386730194092,-0.1141794472932815,-0.288812905550003,-156.56158447265625,70.95582580566406,97.614990234375,125.61849980892188,0.7185873228164796,91.5077187482212,0.91053877049067,-137.6658535003662,122.483154296875,205.10174560546875
2932.852,-11.30447006225586,-105.23348236083984,4.677541255950928,0.6952412128448486,-0.1864218860864639,0.1736719459295272,-20.152273178100582,-53.47982406616211,-106.1896514892578,-6.313852787017822,56.56834030151367,-24.15224838256836,-0.7956426739692688,-0.1010304540395736,-0.3327654004096985,-156.7318115234375,69.7032699584961,97.60497283935548,105.9422306985215,0.7404562164321125,61.83181190469243,0.868324380052891,-136.5795383453369,123.1830940246582,203.79462432861328
2947.421,-11.150727272033691,-80.07559204101562,4.77224588394165,0.7754843235015869,-0.1849666535854339,0.1066003516316413,-21.28396987915039,-54.94418716430664,-105.07109832763672,4.760010719299316,35.437400817871094,-12.196117401123049,-0.8438777327537537,-0.0929042845964431,-0.3306695818901062,-156.86489868164062,68.9408950805664,97.43624114990234,80.98897141087322,0.804333409664983,37.77846421489724,0.9110999979812152,-135.58092880249023,123.88508224487305,202.50733947753903
2968.676,-15.723262786865234,-50.967506408691406,3.0941646099090576,0.8262096047401428,-0.1699734479188919,0.0860270708799362,-22.22831916809082,-55.86826705932617,-104.3068618774414,6.606363296508789,20.439842224121094,-11.255430221557615,-0.8275822401046753,-0.0835839062929153,-0.3557372689247131,-156.72560119628906,68.45365142822266,97.54369354248048,53.42734839778252,0.847887929437895,24.251100915727,0.904669905562172,-134.49728202819824,124.32191848754884,201.85055541992188
2990.92,-24.502891540527344,-20.85293769836425,1.6244090795516968,0.8377058506011963,-0.1530110538005828,0.1164746731519699,-22.999895095825195,-56.2411003112793,-103.96773529052734,6.064079284667969,10.143046379089355,-7.468977928161621,-0.8436993956565857,-0.1019246578216552,-0.3363981544971466,-156.53025817871094,68.19985961914062,97.7144775390625,32.2160737731406,0.8594939349422408,13.979988508953156,0.9139918076506132,-133.53036308288574,124.44095993041992,201.68221282958984
3013.395,-27.005640029907227,7.746648788452148,2.175760269165039,0.798934817314148,-0.176733449101448,0.1070428788661956,-23.507707595825195,-56.08167266845703,-104.00628662109376,4.828147888183594,0.9083406925201416,-0.6020069718360901,-0.7879623770713806,-0.1250589489936828,-0.3361576199531555,-156.4597930908203,68.15204620361328,97.77308654785156,28.178876727531776,0.8252210202509678,4.949596674275483,0.8657519239689596,-132.95208549499512,124.23371887207033,201.7793731689453
3035.806,-26.077884674072266,34.506675720214844,2.29896879196167,0.7738742828369141,-0.214512825012207,0.1010949611663818,-23.68473625183105,-55.43102645874024,-104.42221069335938,5.555437088012695,-7.131034851074219,7.993916988372803,-0.8090491890907288,-0.1397066712379455,-0.3249821066856384,-156.57672119140625,68.32884216308594,97.61038970947266,43.31341588746714,0.8093931979602362,12.067197193345992,0.8830016500678743,-132.8919849395752,123.75986862182616,202.03260040283203
3057.204,-22.13372802734375,59.74837493896485,4.587011337280273,0.7677670121192932,-0.1848915815353393,0.1459104716777801,-23.5666618347168,-54.29935836791992,-105.10650634765624,1.7201905250549316,-19.58224105834961,13.06862449645996,-0.8207188844680786,-0.1446282416582107,-0.3223287761211395,-156.7498779296875,68.77513885498047,97.46817016601562,63.88122491972021,0.803082154929655,23.60534190684972,0.8935282063390192,-133.1832160949707,123.0744972229004,202.57467651367188
3067.34,-36.48594284057617,84.42599487304688,7.836104393005371,0.7534199953079224,-0.1653704345226287,0.2232497185468673,-23.57885932922364,-52.68889999389648,-105.99718475341795,-0.3520215153694153,-30.77443504333496,14.911876678466797,-0.8285825252532959,-0.1391191333532333,-0.3450489640235901,-156.85379028320312,69.42801666259766,97.4523696899414,92.30588912592523,0.8030127687498178,34.19874029050672,0.9082741447348572,-133.2749309539795,122.11691665649414,203.44955444335932
3089.953,-42.203731536865234,104.55702209472656,12.46886920928955,0.6828597784042358,-0.1839913725852966,0.2274838536977768,-23.651355743408203,-50.67320251464844,-106.9782485961914,4.680994033813477,-31.558712005615234,9.685158729553224,-0.8185543417930603,-0.1311046630144119,-0.3526161313056946,-156.60118103027344,70.04273223876953,97.7077178955078,113.44072692076378,0.7428991895548783,33.34166024982262,0.9008650171859198,-132.94982528686523,120.71593475341795,204.6859664916992
3113.753,-29.1662826538086,121.69113159179688,17.994876861572266,0.6772081255912781,-0.2270643562078476,0.2408317029476165,-23.4804801940918,-48.299049377441406,-107.9678955078125,6.817243099212647,-58.47442626953125,0.17371267080307,-0.9223586320877076,-0.1831570565700531,-0.2815832495689392,-155.02581787109375,71.111083984375,99.22669982910156,126.42475685243387,0.7537698431030427,58.87073557478797,0.9816216582756904,-131.54533767700195,119.4101333618164,207.1945953369141
3133.016,-24.62312698364257,136.65701293945312,24.448617935180664,0.6547393202781677,-0.1857272386550903,0.2929295003414154,-23.29241752624512,-45.59658432006836,-108.89644622802734,5.558224201202393,-71.65623474121094,-4.658200740814209,-0.8906886577606201,-0.1727143377065658,-0.2540014386177063,-152.66978454589844,72.35464477539062,101.58790588378906,140.9935193082536,0.7409358115700936,72.0222789676922,0.9421641355585008,-129.37736701965332,117.95122909545898,210.4843521118164
3154.788,-35.93790054321289,151.28054809570312,31.982383728027344,0.6016751527786255,-0.2180216014385223,0.3135511875152588,-23.43318748474121,-42.58210754394531,-109.73529815673828,9.338249206542969,-71.88456726074219,-5.67917537689209,-0.9012449979782104,-0.1271090805530548,-0.2670294940471649,-149.94683837890625,73.55494689941406,104.32017517089844,158.74573945941663,0.7126434980810736,72.71070719962202,0.9485272876574888,-126.51365089416504,116.13705444335938,214.05547332763672
3174.871,-35.73735046386719,162.01194763183594,38.317665100097656,0.5297158360481262,-0.2111086696386337,0.411159485578537,-23.644990921020508,-39.35636901855469,-110.51152801513672,9.666006088256836,-65.07508850097656,-18.84334182739257,-0.9400363564491272,-0.1367891877889633,-0.2388405054807663,-146.26583862304688,74.46160125732422,107.95565032958984,170.27411092811866,0.7030063014923595,68.43442370862863,0.979502128839148,-122.62084770202635,113.8179702758789,218.46717834472656
3198.702,-26.223201751708984,170.95608520507812,45.87347412109375,0.4614691138267517,-0.2816910147666931,0.3882898092269897,-23.77890014648437,-35.87493896484375,-111.17101287841795,-2.25443172454834,-74.68885803222656,-23.114316940307617,-0.9486778378486632,-0.1362403929233551,-0.1236424520611763,-141.57760620117188,75.44412231445312,112.88229370117188,178.93578458959914,0.6656369481675946,78.21623632070093,0.9663532173283356,-117.7987060546875,111.31906127929688,224.05330657958984
3217.154,-21.62632369995117,179.75022888183594,49.8878173828125,0.4255443513393402,-0.2615970075130462,0.4824095666408539,-23.89081382751465,-32.22175598144531,-111.79556274414062,-3.5944390296936035,-63.49959945678711,-19.14337921142578,-0.9477367997169496,-0.1491294801235199,-0.1757077276706695,-137.2537078857422,76.16814422607422,117.49186706542967,187.7941345811107,0.6944350072420147,66.41978689173152,0.9753552424336616,-113.36289405822754,108.38990020751952,229.2874298095703
3227.333,-28.92740631103516,186.0357818603516,53.657264709472656,0.3277908265590668,-0.2505034804344177,0.5733388662338257,-24.153919219970703,-28.360206604003903,-112.41384887695312,-4.968730926513672,-50.63605880737305,-32.93257522583008,-1.0556612014770508,-0.1358150243759155,-0.1562463939189911,-132.552978515625,76.44413757324219,122.514404296875,195.768253361924,0.7063400563611847,60.6073695978368,1.075769133579733,-108.3990592956543,104.8043441772461,234.92825317382807
3257.167,-34.26325607299805,190.19435119628903,56.43364334106445,0.2289931327104568,-0.2921157777309418,0.6562901735305786,-24.56700325012207,-24.34198570251465,-113.0190887451172,-8.856169700622559,-37.2286376953125,-22.978979110717773,-1.0046606063842771,-0.0898076668381691,-0.117266334593296,-129.20858764648438,76.63699340820312,126.1970672607422,201.32714184741124,0.7539802877401364,44.63671904817682,1.0154603607587478,-104.6415843963623,100.97897911071776,239.21615600585932
3277.318,-15.116077423095703,193.02545166015625,57.37769317626953,0.1621461063623428,-0.3690904378890991,0.636361837387085,-24.641002655029297,-20.34408187866211,-113.62639617919922,-15.75674819946289,-16.990894317626953,-1.7605853080749512,-0.93981271982193,-0.1483569741249084,-0.1258054822683334,-128.32861328125,76.8395004272461,127.48025512695312,201.9393979873627,0.7533096967597734,23.23930429597785,0.9597316080443324,-103.6876106262207,97.1835823059082,241.1066513061524
3288.068,-17.294095993041992,196.33892822265625,57.47529983520508,0.1084035485982894,-0.2932651340961456,0.7669134736061096,-24.788707733154297,-16.298141479492188,-114.25377655029295,-10.956584930419922,-10.076451301574709,12.747817039489746,-1.0109065771102903,-0.1479696482419967,-0.139468252658844,-128.59620666503906,77.18354034423828,127.48820495605467,205.3082331105712,0.8281980706471859,19.5981750028623,1.031153973926986,-103.80749893188477,93.48168182373048,241.74198150634768
3309.61,-35.64177703857422,196.62088012695312,59.177005767822266,0.0119497003033757,-0.3500247895717621,0.7863579988479614,-25.351099014282227,-12.236299514770508,-114.86355590820312,-9.63315773010254,-1.085150122642517,-2.144650459289551,-1.0416367053985596,-0.2002808451652526,-0.1489666551351547,-128.5774383544922,77.15725708007812,127.75721740722656,208.403514327398,0.8608246342921811,9.928484488291064,1.0711258130191008,-103.22633934020996,89.39355659484863,242.6207733154297
3332.238,-23.91311264038086,195.97265625,63.76437377929688,-0.1146877706050872,-0.4775845408439636,0.8976200819015503,-25.730079650878903,-8.152386665344238,-115.4151611328125,-21.116893768310547,20.00789260864257,6.495499134063721,-1.0437016487121582,-0.2091964185237884,-0.1506352722644806,-130.65858459472656,76.9931640625,126.09931182861328,207.4681043372645,1.0232116544549572,29.806550925286704,1.0750661646139978,-104.92850494384766,85.14555072784424,241.51447296142572
3346.954,10.321757316589355,191.06822204589844,69.13893127441406,-0.1629714220762252,-0.4648488163948059,0.7646467089653015,-25.481046676635746,-4.110540866851807,-115.82078552246094,-0.3166229724884033,35.040069580078125,6.201010704040527,-1.0132449865341189,-0.2588087022304535,-0.1819174736738205,-133.13778686523438,76.57520294189453,123.55718994140624,203.45465334479687,0.9095761078923884,35.58594188770404,1.0614807178251535,-107.65674018859865,80.68574380874634,239.3779754638672
3369.403,-14.560928344726562,194.22528076171875,66.58302307128906,-0.0949262455105781,-0.2990057170391083,0.781703531742096,-25.74933433532715,-0.0101172169670462,-116.29341888427734,32.528865814208984,28.84721946716309,-8.128641128540039,-1.0988023281097412,-0.2337692528963089,-0.1826552748680114,-133.68309020996094,76.04463195800781,122.32223510742188,205.83677825534616,0.8423038777346759,44.23080361854258,1.1381465500084753,-107.9337558746338,76.05474917497486,238.6156539916992
3391.904,-56.104713439941406,196.7044677734375,67.34081268310547,-0.2349511981010437,-0.4094479978084564,1.0420526266098022,-26.89016914367676,4.111463069915772,-116.8289031982422,10.0339994430542,43.06380844116211,-8.052200317382812,-1.0343955755233765,-0.2298700362443924,-0.0610333271324634,-135.19468688964844,75.3540267944336,120.54332733154295,215.3489530158676,1.1439944951890535,44.94452883534966,1.0613856543435067,-108.30451774597168,71.24256372451782,237.3722305297852
3414.948,1.2292914390563965,189.9794464111328,77.19690704345703,-0.4866805374622345,-0.6325340867042542,0.7687835097312927,-26.902475357055664,8.195647239685059,-117.18331146240234,-18.108755111694336,56.72201156616211,3.854350090026856,-0.911142647266388,-0.1988650262355804,-0.188139796257019,-138.598388671875,74.55806732177734,117.38726043701172,205.06843656008783,1.108145027161192,59.66715698291342,0.9513804734505076,-111.69591331481934,66.36242008209229,234.5705718994141
3435.25,22.26295280456543,189.97543334960932,70.40774536132812,-0.3286888897418976,-0.3148732781410217,0.5984984636306763,-26.53154182434082,12.229937553405762,-117.6330337524414,29.87106704711914,29.170642852783203,8.856183052062988,-1.1608235836029053,-0.1315204501152038,-0.1721515655517578,-139.86253356933594,74.28045654296875,115.45355224609376,203.8223612629777,0.7519188643033997,42.6806634113127,1.1808662847965126,-113.33099174499512,62.05051898956299,233.0865859985352
3456.861,-46.675201416015625,201.51795959472656,65.6120834350586,-0.2698833048343658,-0.2672021687030792,1.0228766202926636,-27.61127471923828,16.421083450317383,-118.30582427978516,35.55318832397461,12.113713264465332,-5.164001941680908,-1.148329257965088,-0.1590011119842529,-0.107304073870182,-139.38845825195312,74.0730972290039,115.24356079101562,217.0092347323877,1.0911052091935451,37.91356175707279,1.1642403542997537,-111.77718353271484,57.65201377868652,233.5493850708008
3466.994,-37.6391487121582,198.3259735107422,79.01995849609375,-0.6745463609695435,-0.5842127799987793,0.9014502763748168,-28.510194778442383,20.68140411376953,-118.81040954589844,-8.99592113494873,28.99795150756836,-4.601707458496094,-0.7141467928886414,-0.2617195844650268,-0.102887786924839,-140.6005096435547,73.55728149414062,114.20541381835938,216.78111339663323,1.2684360315709222,30.708036411256938,0.7675211263437439,-112.0903148651123,52.87587738037109,233.0158233642578
3489.477,38.56324005126953,185.8516082763672,79.49507141113281,-0.7803677320480347,-0.4643636643886566,0.5383697748184204,-27.889135360717773,24.706586837768555,-119.19773864746094,25.9710693359375,15.844221115112305,18.91608047485352,-1.0263848304748535,-0.1092745512723922,-0.2608527839183807,-141.8792266845703,73.55972290039062,112.3851089477539,205.78486377968903,1.055674866833672,35.8239289543704,1.0646365213830709,-113.99009132385254,48.85313606262207,231.58284759521484
3512.0260000000003,-4.255669593811035,192.1215667724609,67.8884048461914,-0.5962985157966614,-0.2353906631469726,0.6702255606651306,-28.275209426879883,28.746915817260746,-119.86803436279295,50.6762580871582,-58.42717361450195,10.254968643188477,-1.2862073183059692,-0.1154689788818359,-0.1556548476219177,-138.80618286132812,74.6530990600586,114.59996795654295,203.80785719730545,0.92746050396066,78.01911388991931,1.300727020683452,-110.53097343444824,45.90618324279785,234.468002319336
3534.531,-48.43502426147461,203.45664978027344,67.95270538330078,-0.666042149066925,-0.3180926144123077,1.0779008865356443,-29.6916732788086,32.98388671875,-120.7697296142578,10.209129333496094,-105.72494506835938,11.403287887573242,-1.0985465049743652,-0.0533298105001449,-0.0603782311081886,-133.6016845703125,76.35475158691406,119.85833740234376,219.90482051090228,1.306394035837455,106.82708133288362,1.101496265572938,-103.9100112915039,43.37086486816406,240.6280670166016
3556.698,5.795207977294922,193.5125732421875,75.99739074707031,-1.042616844177246,-0.566437304019928,0.7763608694076538,-30.001258850097656,37.10225677490234,-121.52008056640624,-20.41826820373535,-41.05458450317383,25.710832595825195,-0.5954220294952393,-0.1772254109382629,-0.2587503492832184,-132.9813690185547,77.28739166259766,120.98387145996094,207.98149878937784,1.4179694293936285,52.56835072492248,0.6729695258662559,-102.98011016845705,40.18513488769531,242.5039520263672
3566.777,60.02115249633789,178.41162109375,69.19894409179688,-1.0137921571731567,-0.3474106788635254,0.4150205850601196,-29.256267547607425,40.88669967651367,-122.24330139160156,10.45444679260254,-43.983924865722656,29.9904842376709,-0.9339571595191956,-0.0607266947627067,-0.2471429705619812,-132.04898071289062,78.32453155517578,121.81556701660156,200.55358174739263,1.1492218253052202,54.252283354185934,0.9680099974546582,-102.7927131652832,37.43783187866211,244.05886840820312
3595.072,3.9486727714538574,177.97607421875,54.283958435058594,-0.9168030619621276,-0.2340017110109329,0.6658405661582947,-29.9077377319336,44.53554534912109,-123.32682037353516,6.457589149475098,-62.96476745605469,16.763376235961914,-1.0899736881256104,-0.1191343367099762,-0.1866127997636795,-128.3280792236328,79.40180206298828,125.53253173828124,186.11239387626284,1.1569910607784208,65.47727224958959,1.1122319758148973,-98.42034149169922,34.86625671386719,248.8593521118164
3614.866,-19.994274139404297,177.73423767089844,61.25291061401367,-1.054366946220398,-0.355237752199173,0.7833478450775146,-31.03670883178711,48.26785659790039,-124.37358856201172,-17.45883560180664,-79.38330078125,12.602158546447754,-1.1701544523239136,-0.2022243589162826,-0.0595917105674743,-122.00981903076172,80.53585052490234,132.34954833984375,189.0532975049772,1.3607047307396394,82.25164912344995,1.1889942411975498,-90.9731101989746,32.26799392700195,256.72313690185547
3638.115,22.41929817199707,173.1811981201172,62.85040664672852,-1.1381577253341677,-0.4687111377716064,0.6756371259689331,-31.47390556335449,51.90159606933594,-125.51951599121094,-26.07502555847168,-46.703731536865234,11.385499954223633,-0.8579663038253784,-0.2854144275188446,-0.1680598855018615,-118.30255889892578,81.18991088867188,136.66310119628906,185.59236495207264,1.4041291480474865,54.68797954349893,0.9196802156459548,-86.82865333557129,29.288314819335938,262.1826171875
3646.683,49.316444396972656,165.11973571777344,59.503204345703125,-1.0063786506652832,-0.3259720504283905,0.4569350481033325,-31.46691131591797,55.40390396118164,-126.72437286376952,15.937145233154297,-52.6031494140625,41.52240753173828,-1.010544776916504,-0.0658712387084961,-0.0910857543349266,-114.24429321289062,82.44432830810547,140.4517059326172,182.3109161264721,1.1523217451565166,68.88537038945637,1.0167774490442738,-82.77738189697266,27.040424346923828,267.1760787963867
3674.271,12.84425926208496,163.55873107910156,55.03158187866211,-0.9831624627113342,-0.2603896260261535,0.5563086867332458,-32.36676788330078,58.77690124511719,-128.09661865234375,24.9197998046875,-48.89655685424805,10.121211051940918,-0.9362914562225342,-0.216832086443901,-0.0931144580245018,-107.3228759765625,82.91944122314453,146.93634033203125,173.0459722509178,1.159262929779748,55.80599078651275,0.9655714095809412,-74.95610809326172,24.142539978027344,275.032958984375
3698.277,-4.132755279541016,155.99234008789062,56.342063903808594,-1.1730483770370483,-0.2906563878059387,0.5400724411010742,-33.737266540527344,62.03070831298828,-129.5670623779297,26.93257141113281,-45.24274444580078,16.883342742919922,-1.0037293434143066,-0.212361142039299,-0.0700268894433975,-100.30844116210938,83.41667175292969,153.43299865722656,165.9069558434412,1.3237076234118026,55.29300670047445,1.0283353610200654,-66.57117462158203,21.385963439941406,283.00006103515625
3706.831,6.014139652252197,147.17831420898438,50.771446228027344,-1.1775002479553225,-0.3092152178287506,0.5030776262283325,-35.25750732421875,65.03443908691406,-131.44281005859375,33.3342399597168,-28.04591941833496,13.96294116973877,-0.9013742804527284,-0.0869646444916725,-0.0996253788471221,-95.60494232177734,83.78062438964844,157.48208618164062,155.80553841645295,1.3172729340889309,45.74613509162609,0.9110234129613076,-60.347434997558594,18.74618530273437,288.9248962402344
3729.396,16.411714553833008,135.4573516845703,46.8427848815918,-1.164068341255188,-0.2829343676567077,0.3580822646617889,-36.86793899536133,67.80255126953125,-133.52139282226562,23.87674903869629,-12.176410675048828,18.249731063842773,-0.8652565479278564,-0.0815504416823387,-0.1905820220708847,-93.48161315917967,84.17730712890625,159.12338256835938,144.26463529034737,1.2503319030478353,32.4255579055614,0.8897420274479804,-56.61367416381836,16.374755859375,292.644775390625
3746.672,9.04763889312744,116.24649047851562,39.82828903198242,-1.187516689300537,-0.2574753165245056,0.3719111680984497,-38.721134185791016,70.13494110107422,-135.7242431640625,9.648992538452148,9.88007354736328,5.779235363006592,-0.8865805864334106,-0.1708900332450866,-0.3354528546333313,-95.2782745361328,84.28056335449219,157.08631896972656,123.21281964685,1.2707507005479304,14.970586885270691,0.9632015144219656,-56.5571403503418,14.145622253417969,292.81056213378906
3769.445,-1.7134356498718262,91.32945251464844,35.22283172607422,-1.2059454917907717,-0.2523129880428314,0.4035310447216034,-40.47672653198242,71.971923828125,-137.5987091064453,16.506561279296875,24.433780670166016,2.754894733428955,-0.9743067026138306,-0.1979091763496399,-0.2763416767120361,-99.73942565917967,84.27254486083984,152.2350311279297,97.90123918089606,1.2964581278081049,29.61529415854645,1.0318945271342643,-59.26269912719727,12.300621032714844,289.833740234375
3791.755,-4.981010437011719,69.53833770751953,31.05778312683105,-1.182777762413025,-0.2946768999099731,0.402906060218811,-41.94713592529297,73.37690734863281,-139.0943603515625,14.582435607910156,32.44672393798828,5.450299739837647,-1.0701736211776731,-0.1159147024154663,-0.1359413564205169,-106.24801635742188,84.22181701660156,145.3488006591797,76.32153541990573,1.2837955460120425,35.98809650177322,1.0849828800889212,-64.3008804321289,10.84490966796875,284.4431610107422
3806.816,-4.088603496551514,55.803104400634766,25.63919448852539,-1.1080331802368164,-0.3134606778621673,0.4600396156311035,-43.302127838134766,74.51903533935547,-140.465087890625,14.433838844299316,35.90261459350586,6.765769958496094,-1.0155051946640017,-0.1772715598344802,-0.0738443285226821,-112.8993148803711,84.05847930908203,138.308349609375,61.54731052873543,1.240012730991717,39.28242713433466,1.0335032613256172,-69.59718704223633,9.539443969726562,278.7734375
3829.133,3.515270709991455,42.99879837036133,21.80072593688965,-1.0643479824066162,-0.3925788700580597,0.5316492915153503,-44.27309799194336,75.4443359375,-141.58773803710938,26.84545516967773,35.647926330566406,9.554790496826172,-1.0584418773651123,-0.2046029567718505,-0.0270569361746311,-118.7528076171875,83.87310791015625,131.82154846191406,48.337619312859054,1.2528390822599171,45.6371245410456,1.078375470545916,-74.47970962524414,8.42877197265625,273.40928649902344
3851.743,7.386175155639648,24.94394874572754,12.978487968444824,-1.0188754796981812,-0.4928442537784576,0.6658118963241577,-44.771522521972656,75.98367309570312,-142.25357055664062,34.89680862426758,27.16820907592773,9.570737838745115,-1.064548134803772,-0.1184961572289466,0.0850505605340004,-122.5262680053711,83.79053497314453,127.27696228027344,29.07227738596235,1.3131291569755863,45.249285732816446,1.0744941453723071,-77.75474548339844,7.806861877441406,269.53053283691406
3874.631,19.07595634460449,7.053156852722168,4.435199737548828,-1.0121848583221436,-0.4906765222549438,0.699067234992981,-44.53579711914063,76.14695739746094,-142.43875122070312,19.6479434967041,13.711918830871582,8.426248550415039,-1.0215721130371094,0.0325196124613285,0.0287040397524833,-125.0243911743164,83.8670654296875,124.34131622314452,20.816102631432024,1.3243778297561295,25.39803272514348,1.022492557052545,-80.48859405517578,7.720108032226562,266.78006744384766
3897.572,28.31393051147461,-14.455839157104492,-3.7562975883483887,-1.079845666885376,-0.4005516469478607,0.5645978450775146,-43.38447189331055,75.88558959960938,-141.92039489746094,-5.3172478675842285,13.661096572875977,1.0971962213516235,-0.9800010323524476,-0.024936843663454,-0.1577344983816146,-127.81391143798828,83.71714782714844,121.63810729980467,32.0118683977821,1.2826842997518677,14.70042598045788,0.9929270071679276,-84.42943954467773,7.8315582275390625,263.5585021972656
3907.646,30.30586051940918,-37.94174957275391,-14.188272476196287,-1.1251816749572754,-0.3127274215221405,0.4397459626197815,-41.5872802734375,75.10775756835938,-140.75128173828125,-13.093953132629396,15.668889999389648,-5.600948333740234,-0.9914693236351012,-0.2005700469017028,-0.2502411007881164,-129.593017578125,83.42865753173828,120.0906982421875,50.58980745488408,1.247881706521874,21.17395439424803,1.0420462427105837,-88.0057373046875,8.320899963378906,260.84197998046875
3929.632,20.20341110229492,-59.765380859375,-19.859100341796875,-1.1604973077774048,-0.2743592262268066,0.5054113268852234,-39.4636344909668,73.92544555664062,-139.0268096923828,-2.383185386657715,18.852508544921875,-4.897263526916504,-1.0574153661727903,-0.1921687722206115,-0.1856083869934082,-131.51303100585938,83.05612182617188,118.1768798828125,66.13971904854176,1.2951708751042308,19.62345130387613,1.090645023349673,-92.04939651489258,9.13067626953125,257.2036895751953
3951.457,17.357614517211914,-77.90618896484375,-23.49836540222168,-1.1171388626098633,-0.2706624567508697,0.5695691704750061,-37.14810562133789,72.40754699707031,-136.9796600341797,6.824521064758301,16.57135009765625,-3.680227756500244,-1.080269694328308,-0.1284436881542205,-0.0918679386377334,-132.85345458984375,82.76366424560547,116.65769958496094,83.20357106116538,1.2828353143733071,18.295567992334547,1.0917509384746968,-95.70534896850586,10.356117248535156,253.63735961914065
3974.754,19.88443374633789,-91.0375518798828,-24.95246124267578,-1.09533429145813,-0.2521993517875671,0.5952881574630737,-34.76568603515625,70.63679504394531,-134.8655548095703,12.43099880218506,11.875405311584473,-0.0584713965654373,-1.0619491338729858,-0.076017826795578,-0.0824714377522468,-133.9557342529297,82.61182403564453,115.27386474609376,96.46684342177934,1.2719000406879204,17.191812046394393,1.0678558942896883,-99.19004821777344,11.97502899169922,250.1394195556641
3996.563,18.110280990600582,-103.59917449951172,-28.34043502807617,-1.1002354621887207,-0.2554511427879333,0.5839643478393555,-32.58442306518555,68.5949935913086,-132.88552856445312,7.851411819458008,7.369285106658935,2.5117318630218506,-0.9864272475242616,-0.0772644281387329,-0.1349058151245117,-135.04660034179688,82.53223419189453,114.02668762207033,108.9217677607162,1.271529676475045,11.05711659944261,0.9986030670232816,-102.46217727661131,13.937240600585938,246.91221618652344
4006.847,22.75017166137696,-119.36244201660156,-33.370697021484375,-1.1165281534194946,-0.2441928833723068,0.6228170394897461,-30.407270431518555,66.15017700195312,-131.02423095703125,12.69100284576416,11.423473358154297,6.510439395904541,-0.9390654563903807,-0.0197171308100223,-0.1854344457387924,-137.1970672607422,82.44383239746094,111.61739349365234,126.0101832967812,1.3016014544962675,18.27411059185648,0.9574020212530924,-106.78979682922365,16.293655395507812,242.6416244506836
4029.061,16.389753341674805,-137.91949462890625,-37.5604133605957,-1.1259210109710691,-0.2502501308917999,0.6051851511001587,-28.511831283569336,63.32770156860352,-129.30819702148438,12.358243942260742,16.05821990966797,1.6349966526031494,-0.9342938661575316,-0.0836482644081115,-0.1476288735866546,-138.8643798828125,82.20086669921875,109.66768646240234,143.87910086288647,1.3025253617759616,20.328940800191845,0.9495769293714658,-110.35254859924316,18.873165130615234,238.97588348388672
4054.857,10.199917793273926,-153.67127990722656,-40.03108215332031,-1.0897527933120728,-0.2720171809196472,0.6995564699172974,-26.892433166503903,60.169769287109375,-127.72135925292967,6.770682334899902,20.76091384887696,-3.1398415565490723,-0.9814421534538268,-0.1347305178642273,-0.1226291805505752,-140.195556640625,81.8157730102539,108.1514663696289,159.12695601211192,1.3232285334930198,22.06164744802276,0.9982078585858526,-113.3031234741211,21.64600372314453,235.8728256225586
4073.778,10.956791877746582,-166.2970428466797,-40.21665191650391,-1.0957096815109253,-0.2942703366279602,0.7058372497558594,-25.42281150817871,56.79358673095703,-126.26746368408205,5.6627726554870605,21.415115356445312,-1.043508768081665,-1.017439603805542,-0.0520278252661228,-0.1055875718593597,-141.88711547851562,81.48580169677734,106.3014907836914,171.4413510188715,1.336181484798686,22.175731564632883,1.0242260381991155,-116.46430397033691,24.692214965820312,232.56895446777344
4096.435,11.02155876159668,-176.9926300048828,-42.34170913696289,-1.108248233795166,-0.2871361076831817,0.7590291500091553,-24.13956642150879,53.2109489440918,-124.98715209960938,0.716870903968811,24.814836502075195,-4.202871799468994,-1.0160512924194336,-0.0802926272153854,-0.1190940216183662,-143.41238403320312,81.04326629638672,104.73326110839844,182.3202845714646,1.3736034881322825,25.17844605769888,1.0261532637952218,-119.27281761169434,27.83231735229492,229.7204132080078
4117.453,14.29769515991211,-187.68414306640625,-43.78438568115234,-1.12811541557312,-0.3078995943069458,0.7583635449409485,-22.968578338623047,49.4451904296875,-123.86083221435548,3.0785837173461914,38.18831253051758,-4.631668567657471,-0.9577364921569824,-0.1448197662830352,-0.182686761021614,-145.5331573486328,80.31781005859375,102.49872589111328,193.25328994594872,1.3937581631414746,38.59115501450846,0.9857009717799832,-122.56457901000977,30.87261962890625,226.35955810546875
4127.691000000001,12.62736988067627,-199.71104431152344,-46.02290344238281,-1.11268150806427,-0.2810161709785461,0.8188140988349915,-21.95006561279297,45.44744491577149,-122.84143829345705,17.054838180541992,47.03034591674805,-1.9062249660491943,-0.958861768245697,-0.1254849731922149,-0.1881096512079239,-147.8822479248047,79.47210693359375,99.74885559082033,205.33401893346743,1.4097825205295251,50.06350603018772,0.9851637477992592,-125.93218231201172,34.024662017822266,222.5902938842773
4146.374,13.003130912780762,-210.9773406982422,-48.65625,-1.0872931480407717,-0.3334642350673675,0.8387107849121094,-21.0847110748291,41.23307037353516,-121.95881652832033,15.519553184509276,62.04043197631836,-7.771001815795898,-0.927637815475464,-0.1414680480957031,-0.2134277820587158,-150.09408569335938,78.27730560302734,97.15203094482422,216.9053949667909,1.413096092476857,64.4225131462294,0.9623287086472072,-129.00937461853027,37.04423522949219,219.11084747314453
4168.952,13.409133911132812,-223.45040893554688,-47.362491607666016,-1.0271135568618774,-0.2771109938621521,0.8541222810745239,-20.24861717224121,36.7650146484375,-121.0652847290039,18.004070281982422,68.89935302734375,-10.254225730895996,-0.98987877368927,-0.0881992354989051,-0.1778842210769653,-151.97158813476562,76.97515106201172,94.85662841796876,228.8079887962745,1.3642864921403697,71.9473178071655,1.0095949127503183,-131.7229709625244,40.21013641357422,215.92191314697263
4186.884,6.624688148498535,-229.82302856445312,-52.01934814453125,-0.923905074596405,-0.3137219548225403,0.8786744475364685,-19.70444869995117,32.149513244628906,-120.34415435791016,4.064680576324463,66.3487548828125,-13.451451301574709,-1.0600271224975586,-0.0880109891295433,-0.1390918940305709,-153.37733459472656,75.71544647216797,93.35455322265624,235.72976802471132,1.313046395431701,67.82050165551506,1.0727301569467629,-133.6728858947754,43.56593322753906,213.6987075805664
4209.501,15.922067642211914,-233.69076538085932,-51.83894348144531,-0.827013373374939,-0.3342866897583008,0.8962475061416626,-19.05758476257324,27.3984375,-119.6842803955078,2.958614110946656,46.45535659790039,-9.444701194763184,-1.1102629899978638,-0.0472062081098556,-0.143162652850151,-154.27093505859375,74.8656234741211,92.39212036132812,239.90031705599625,1.2644992301127385,47.49795716400802,1.1204498552876878,-135.2133502960205,47.46718597412109,212.076400756836
4231.21,21.811412811279297,-236.8238067626953,-51.7580680847168,-0.7497130632400513,-0.2903181314468384,0.9396987557411194,-18.37002754211425,22.582319259643555,-119.08958435058594,-4.432651996612549,9.435023307800291,-1.8656705617904663,-1.0858243703842163,-0.1484580039978027,-0.1268624067306518,-154.38136291503906,74.73851013183594,92.43351745605467,243.39299659246703,1.2366842952754646,10.590032822750812,1.1032444935338606,-136.0113353729248,52.15619087219238,211.52310180664065
4246.312,16.763486862182617,-239.6916046142578,-53.64783477783203,-0.6766573190689087,-0.2724250257015228,0.861799955368042,-17.8627872467041,17.69456672668457,-118.59002685546876,7.0162858963012695,-42.17072296142578,4.989500045776367,-1.109806776046753,-0.0774751156568527,-0.1221396252512931,-153.1532440185547,75.60525512695312,93.6501235961914,246.19335894919223,1.1290614177937166,43.04060006057957,1.1191923703107776,-135.2904567718506,57.91068840026856,212.24015045166016
4268.853,15.726543426513672,-241.5926055908203,-54.55257415771485,-0.5633217692375183,-0.312248021364212,0.9187278747558594,-17.431758880615234,12.761768341064451,-118.14852142333984,-4.438464164733887,-66.47673034667969,8.497934341430664,-1.0622421503067017,-0.0324643552303314,-0.0449568703770637,-151.35496520996094,76.88798522949219,95.66497802734376,248.1739200470925,1.122003186446532,67.16450349550763,1.063688601256414,-133.9232063293457,64.12621688842773,213.8134994506836
4291.326,26.33244514465332,-244.0419311523437,-49.73321533203125,-0.4924935698509216,-0.3046556413173675,0.900432288646698,-16.817787170410156,7.806738376617432,-117.65401458740234,-30.78399658203125,-86.30170440673828,12.026151657104492,-1.0358023643493652,-0.0345901846885681,-0.0787363499402999,-149.01560974121094,78.59156036376953,98.7669677734375,250.44611104012705,1.070580815524233,92.41356476594882,1.0393663606594383,-132.19782257080078,70.7848219871521,216.42098236083984
4313.747,19.19463539123535,-246.37310791015625,-48.837162017822266,-0.436456561088562,-0.2241668999195099,0.8736501336097717,-16.390121459960938,2.807915687561035,-117.18215942382812,-48.37346267700195,-66.53577423095703,2.945542573928833,-1.0347206592559814,-0.0642338544130325,-0.0975901931524276,-146.5299530029297,79.80170440673828,102.36768341064452,251.89920746812004,1.0020028366692129,82.31450276185245,1.0412956720083957,-130.13983154296875,76.99378871917725,219.54984283447263
4336.167,13.467716217041016,-246.424057006836,-49.74448013305664,-0.3194753229618072,-0.2661783099174499,0.8301305770874023,-16.118244171142578,-2.1995937824249268,-116.7582778930664,-52.18074035644531,-63.552921295166016,-2.0830237865448,-1.0593328475952148,0.0052902540192008,-0.0669929012656211,-143.21029663085938,80.8716049194336,106.82864379882812,251.7552552689201,0.9284568647317574,82.256564828539,1.0614622544404295,-127.0920524597168,83.07119870185852,223.58692169189453
4346.185,22.977657318115234,-245.57460021972656,-47.79710006713867,-0.2124207019805908,-0.2315943837165832,0.7837852835655212,-15.69433307647705,-7.182531833648682,-116.32988739013672,-49.389190673828125,-49.43294906616211,1.0281784534454346,-1.0541541576385498,-0.0792650505900383,-0.1218852549791336,-140.40367126464844,81.68033599853516,110.69929504394533,251.23578523716583,0.8444393903252474,69.88537586452303,1.06413342757993,-124.7093381881714,88.86286783218384,227.02918243408203
4368.744000000001,12.80174732208252,-242.6916961669922,-47.33259582519531,-0.1027797162532806,-0.1893915086984634,0.8338696956634521,-15.504055976867676,-12.11003875732422,-115.93529510498048,-47.17196273803711,-41.88294219970703,-14.44168186187744,-1.1544193029403689,-0.0492281354963779,-0.0631416067481041,-135.9806365966797,82.1595230102539,116.14299011230467,247.595474010454,0.8612615647908848,64.71427269824208,1.1571923776228863,-120.476580619812,94.26956176757812,232.0782852172852
4391.8,8.663532257080078,-237.13592529296875,-45.21194076538086,-0.0478667020797729,-0.2746797502040863,0.7492679357528687,-15.433175086975098,-16.91985321044922,-115.52928161621094,-57.32902526855469,-20.923385620117188,-26.05923080444336,-1.1839449405670166,-0.1202975884079933,-0.1141111478209495,-132.3942413330078,82.07349395751953,120.92342376708984,241.5628767908973,0.7994639615939783,66.35878776899077,1.1954992622866942,-116.96106624603271,98.99334716796876,236.4527053833008
4414.313,23.86808013916016,-234.00180053710932,-40.317169189453125,-0.0126920323818922,-0.2048770785331726,0.6376415491104126,-15.116495132446287,-21.64471244812012,-115.0462417602539,-47.70030212402344,-5.409824848175049,-29.89810943603516,-0.9116529822349548,-0.1199650540947914,-0.1587311625480651,-130.2296600341797,81.65130615234375,124.0631103515625,238.6461858810852,0.6698674870048534,56.5551233352044,0.9331121884241536,-115.1131649017334,103.29601860046388,239.1093521118164
4436.458,7.150407314300537,-229.046615600586,-39.80515670776367,0.1252559125423431,-0.0930856093764305,0.6411489844322205,-15.156238555908203,-26.25537109375,-114.58529663085938,-33.53274917602539,2.782959222793579,-18.53238105773925,-0.9809904098510742,-0.1393147706985473,-0.1597612798213958,-129.73902893066406,81.2928695678711,125.23220825195312,232.58961916511365,0.6598681645133854,38.41405051549779,1.0036306372788435,-114.58279037475586,107.5482406616211,239.8175048828125
4446.362,-4.359231948852539,-218.69488525390625,-37.84265899658203,0.2262133955955505,-0.2083941400051117,0.6004468202590942,-15.499662399291992,-30.62236213684082,-114.08880615234376,-33.973880767822266,12.50918674468994,-4.761734008789063,-1.018227219581604,-0.2014971226453781,-0.1532248705625534,-131.18630981445312,81.0047378540039,124.4371337890625,221.98766312418064,0.6746384230790566,36.51545478575049,1.04922143615643,-115.68664741516112,111.62709999084473,238.52593994140625
4468.6810000000005,12.497469902038574,-211.9131774902344,-31.71847152709961,0.2486648857593536,-0.2263991236686706,0.5504610538482666,-15.599099159240724,-34.85318374633789,-113.46031188964844,-30.11591148376465,34.219966888427734,-7.93051815032959,-0.9491900205612184,-0.1245374307036399,-0.1597596108913421,-134.29847717285156,80.39215087890625,121.8743896484375,214.63793463406083,0.645056711004078,46.26950806390473,0.9705639597942132,-118.69937801361084,115.24533462524414,235.334701538086
4494.141,10.932507514953612,-205.4147186279297,-25.17853164672852,0.2940249443054199,-0.1313129663467407,0.526154100894928,-15.832066535949709,-38.862831115722656,-112.68980407714844,-31.64495277404785,57.730072021484375,-14.998332023620604,-0.8972302079200745,-0.1591378003358841,-0.2196062207221985,-138.2686004638672,79.27568817138672,118.44869995117188,207.24064467531784,0.616872678024514,67.52121307536066,0.9373226646571235,-122.43653392791748,118.13851928710938,231.1385040283203
4513.793,-3.124573945999145,-194.72010803222656,-22.070518493652344,0.3939471244812011,-0.1564830541610717,0.3812780082225799,-16.511276245117188,-42.74771881103516,-111.79058837890624,-19.466773986816406,69.10010528564453,-5.519398212432861,-0.8897997140884399,-0.1869889795780182,-0.2411305904388427,-142.6295928955078,78.08006286621094,114.36356353759766,195.9918141683592,0.57013524946346,72.00169162296368,0.9406659190812022,-126.11831665039062,120.8277816772461,226.1541519165039
4535.948,-4.287436008453369,-181.765380859375,-19.193565368652344,0.5094678997993469,-0.158229261636734,0.3755392432212829,-17.32015037536621,-46.39942932128906,-110.79358673095705,-13.297386169433594,91.18858337402344,0.6112098097801208,-0.9104719161987304,-0.1497654914855957,-0.2952892780303955,-147.62222290039062,76.53305053710938,109.52758026123048,182.82622552041312,0.6523984697738625,92.15504215251512,0.9688057443813092,-130.3020725250244,122.93247985839844,220.3211669921875
4556.495,-3.0589439868927,-168.27537536621094,-14.849609375,0.5610317587852478,-0.1635946035385131,0.3732529878616333,-18.25254821777344,-49.742713928222656,-109.65071105957033,-11.15691375732422,101.08439636230467,2.213434934616089,-0.8522327542304993,-0.1343382894992828,-0.313375174999237,-152.0067596435547,74.74962615966797,105.2210693359375,168.95700634050138,0.6934245608717854,101.72232403327044,0.9179060102835682,-133.75421142578125,124.49234008789062,214.8717803955078
4566.515,2.8216710090637207,-154.95916748046875,-9.77216911315918,0.5867608189582825,-0.1837136149406433,0.2429740577936172,-19.205286026000977,-52.7403678894043,-108.3597412109375,-8.82110595703125,92.1821746826172,-5.602333068847656,-0.8738916516304016,-0.1286582946777343,-0.2592035830020904,-154.69667053222656,73.02188110351562,102.61315155029295,155.29262926069458,0.6611167398726562,92.77257878994216,0.9205574794763308,-135.4913845062256,125.76224899291992,210.97289276123047
4586.029,7.237968444824219,-137.67385864257812,-6.315835475921631,0.6736862063407898,-0.1993230432271957,0.1234252601861953,-20.175989151000977,-55.37545394897461,-106.9850616455078,-5.443197250366211,70.47514343261719,-9.73190212249756,-0.8822399973869324,-0.151350051164627,-0.2711537480354309,-156.04412841796875,71.6372299194336,101.31451416015624,138.00858422034395,0.7133137984276106,71.35183359295144,0.9352959991630948,-135.86813926696777,127.0126838684082,208.2995758056641
4608.776,13.325618743896484,-117.52041625976562,-4.150993824005127,0.7477540969848633,-0.1629842966794967,0.1597444415092468,-21.04135704040528,-57.604957580566406,-105.63043212890624,-4.207264423370361,46.69721603393555,-19.396562576293945,-0.8167690634727478,-0.1086278185248375,-0.327653169631958,-156.25892639160156,70.5829086303711,101.20147705078124,118.34631849999896,0.7818045517358285,50.740099517288016,0.8867177147060293,-135.2175693511963,128.1878662109375,206.8319091796875
4626.102000000001,3.7312283515930176,-92.75731658935548,-0.2531346976757049,0.8047186732292175,-0.111857458949089,0.0594347342848777,-22.06683349609375,-59.333126068115234,-104.34219360351562,3.006720542907715,24.477846145629883,-26.19295883178711,-0.8552772998809814,-0.0807447880506515,-0.3231752514839172,-155.50057983398438,69.9124526977539,102.00251770019533,92.83267702185915,0.81462673771848,35.97605332323107,0.9178568644732904,-133.43374633789062,129.24557876586914,206.3447113037109
4648.3910000000005,-16.802223205566406,-64.55662536621094,-1.849063873291016,0.8473612070083618,-0.1108046025037765,0.0429838560521602,-23.20027732849121,-60.53970718383789,-103.42264556884766,9.458331108093262,12.269824028015137,-14.83358669281006,-0.8336915969848633,-0.1016599088907241,-0.2925528585910797,-154.91705322265625,69.56413269042969,102.4752426147461,66.7329874989161,0.8556554721146827,21.44863406377884,0.8893613388430229,-131.71677589416504,130.10383987426758,205.8978881835937
4670.926,-15.907939910888672,-34.51163482666016,0.516122043132782,0.8358092308044434,-0.1839288473129272,0.004166339058429,-24.030385971069336,-61.16825485229492,-102.83729553222656,10.354744911193848,-0.0291095376014709,-8.79609489440918,-0.7885612845420837,-0.1122518107295036,-0.3099395334720611,-154.34518432617188,69.46808624267578,102.93975067138672,38.00502430706491,0.8558178834033133,13.586496050583664,0.8546881787526912,-130.31479835510254,130.6363410949707,205.77704620361328
4686.13,-9.216053009033203,-6.902205944061279,0.2110392153263092,0.8460525274276733,-0.1684686690568924,0.0418273508548736,-24.32423973083496,-61.29255676269531,-102.71249389648438,12.305362701416016,1.256636619567871,0.4500933587551117,-0.7903377413749695,-0.1001265570521354,-0.326147973537445,-154.2471160888672,69.42408752441406,102.86530303955078,11.516102531236442,0.8636759223806644,12.377547044492898,0.8608319078144029,-129.92287635803223,130.71664428710938,205.5777969360352
4708.684,-18.3715934753418,22.297758102416992,-0.640178918838501,0.8390400409698486,-0.1373310387134552,0.0478397794067859,-24.33810043334961,-60.891414642333984,-103.11573791503906,12.805737495422363,0.9521100521087646,8.269627571105957,-0.7940213084220886,-0.1082129329442977,-0.3015493154525757,-154.4727020263672,69.46610260009766,102.42555236816406,28.89836141142347,0.8515495575939733,15.27351192482556,0.8562195201784701,-130.13460159301758,130.35751724243164,205.54129028320312
4736.25,-29.94148063659668,50.80550765991211,-0.0714650601148605,0.8397582173347473,-0.1129098162055015,0.0396366715431213,-24.1984977722168,-59.9654426574707,-103.96292877197266,8.227437019348145,-7.259809494018555,13.105598449707031,-0.8122252225875854,-0.1241184473037719,-0.2883918285369873,-154.7979736328125,69.70391845703125,101.96490478515624,58.9720016494938,0.8482414490625945,17.092462213553247,0.8707956407421084,-130.5994758605957,129.66936111450195,205.9278335571289
4753.79,-32.4267463684082,76.22528076171875,4.086278438568115,0.7827248573303223,-0.1814910918474197,0.110469751060009,-23.92743682861328,-58.53982162475586,-105.03060150146484,2.443328380584717,-24.954870223999023,11.162315368652344,-0.8285129070281982,-0.1572228223085403,-0.2936036586761474,-154.6864776611328,70.23428344726562,102.09254455566406,82.93663230877796,0.8110491875355047,27.4465423297955,0.8929477931855806,-130.75904083251953,128.77410507202148,207.1231460571289
4775.828,-29.828107833862305,95.96630096435548,9.215654373168944,0.7308633327484131,-0.1621117293834686,0.1900796443223953,-23.57136344909668,-56.70838165283203,-106.15579223632812,0.7675225734710693,-32.16759490966797,6.793595790863037,-0.8190352916717529,-0.1768785566091537,-0.3263719081878662,-154.19744873046875,70.82665252685547,102.63156127929688,100.9166746541694,0.7723805377827336,32.88610948322888,0.8992349277280993,-130.62608528137207,127.5350341796875,208.787353515625
4786.494000000001,-36.759368896484375,115.53811645507812,14.72942066192627,0.7415409088134766,-0.1545556932687759,0.1578982323408126,-23.359027862548828,-54.47092819213867,-107.30126190185548,6.619147300720215,-43.29521179199219,6.281952381134033,-0.844944953918457,-0.187502235174179,-0.3204513788223266,-153.21990966796875,71.61296844482422,103.56832122802734,122.13624928206612,0.7737585111273814,44.2464846154011,0.9229182789048588,-129.86088180541992,126.08389663696288,210.8695831298828
4808.516,-44.29263305664063,136.3362274169922,22.22154426574707,0.7347853779792786,-0.2080421298742294,0.1291534006595611,-23.34743309020996,-51.79130172729492,-108.41976928710938,10.433660507202148,-60.62827682495117,10.177875518798828,-0.97275972366333,-0.1749105751514434,-0.2261762917041778,-151.73550415039062,72.80271911621094,104.96315002441406,145.06274945327138,0.7745138348646111,62.35574049290591,1.013908725778815,-128.38807106018066,124.59402084350586,213.38291931152344
4828.866,-45.496429443359375,154.3605499267578,29.586048126220703,0.6457329392433167,-0.2046281397342682,0.2770462930202484,-23.446746826171875,-48.73251724243164,-109.47664642333984,7.334309101104736,-72.5396728515625,7.800347805023193,-1.0030620098114014,-0.1406178474426269,-0.2374536246061325,-149.6436767578125,74.16007232666016,107.07415771484376,163.62285509522414,0.7318458532171794,73.32558662078054,1.040332157719291,-126.19692993164062,122.8925895690918,216.5508041381836
4850.925,-34.52460479736328,165.45733642578125,36.98242950439453,0.6130584478378296,-0.1836747676134109,0.2951152324676513,-23.45130729675293,-45.4028205871582,-110.41064453125,6.455755233764648,-73.82705688476562,-9.10322093963623,-0.8698313236236572,-0.1031019836664199,-0.2248014658689499,-146.15968322753906,75.31513214111328,110.64917755126952,173.01959023641163,0.7047482395562299,74.665786913288,0.90430760786895,-122.70837593078612,120.71795272827148,221.0598220825196
4873.3,-46.98518753051758,178.7305450439453,38.94413375854492,0.6155916452407837,-0.1949666291475296,0.2715990543365478,-23.709606170654297,-41.815895080566406,-111.39617919921876,-2.6493115425109863,-92.0332489013672,-19.022497177124023,-1.0485759973526,-0.1085529252886772,-0.0597467422485351,-140.5357666015625,76.62610626220703,116.55852508544922,188.8620161207306,0.7005220242704095,94.01591968301952,1.055871693446719,-116.8261604309082,118.44200134277344,227.954704284668
4897.198,-50.14495849609375,192.6431884765625,46.56734085083008,0.5156327486038208,-0.2734311521053314,0.2876772284507751,-24.11827850341797,-37.91709518432617,-112.3193359375,-8.098073959350586,-80.31892395019531,-22.95816802978516,-0.8933659195899963,-0.1206998825073242,-0.1067269593477249,-134.46957397460938,77.53276824951172,123.02202606201172,204.4368659584389,0.6506918734266622,83.92726509098351,0.9077784816648676,-110.3512954711914,115.44986343383788,235.3413619995117
4906.629,-49.863372802734375,199.1148376464844,50.62489318847656,0.363886147737503,-0.266488641500473,0.5605288147926331,-24.607196807861328,-33.84840774536133,-113.19860076904295,-15.697288513183594,-68.22039031982422,-22.070470809936523,-1.0272670984268188,-0.1776201277971267,-0.1093395799398422,-128.627197265625,78.11929321289062,129.35951232910156,211.41417721760044,0.7194594337256559,73.39981065253201,1.0482279070175269,-104.02000045776369,111.96770095825195,242.55811309814453
