Timestamp (ms),Wrist Gyroscope X (deg/s),Wrist Gyroscope Y (deg/s),Wrist Gyroscope Z (deg/s),Wrist Accelerometer X (g),Wrist Accelerometer Y (g),Wrist Accelerometer Z (g),Wrist Roll (deg),Wrist Pitch (deg),Wrist Yaw (deg),Arm Gyroscope X (deg/s),Arm Gyroscope Y (deg/s),Arm Gyroscope Z (deg/s),Arm Accelerometer X (g),Arm Accelerometer Y (g),Arm Accelerometer Z (g),Arm Roll (deg),Arm Pitch (deg),Arm Yaw (deg),Wrist Gyroscope Magnitude (deg/s),Wrist Accelerometer Magnitude (g),Arm Gyroscope Magnitude (deg/s),Arm Accelerometer Magnitude (g),Difference Roll (deg),Difference Pitch (deg),Difference Yaw (deg)
0.0,-5.52037,-1.578514,-7.829118,-1.006891,0.117935,0.14494,39.500202,76.824272,-91.34478,1.683583,-4.143581,-9.260196,-1.038135,0.028977,-0.018543,67.486015,90.0,-168.709488,9.708824853864654,1.024082884197368,10.283722340663717,1.0387048606813198,27.985813,13.175728000000008,-77.364708
19.983,-5.2600005,-1.246685,-8.184026,-1.0111025,0.1195809999999999,0.144589,39.14645,76.88462799999999,-91.629921,0.272947,-3.3476745,-9.7194155,-1.0388005,0.023718,-0.0338295,63.5875965,90.0,-172.608269,9.808165491971536,1.0283646532180353,10.283407134038772,1.03962178574446,24.4411465,13.115372000000002,-80.97834799999998
39.965,-6.109084,-1.192854,-8.558354,-1.0159613333333333,0.1159859999999999,0.1432443333333333,38.74569433333334,76.94851933333332,-91.94996133333332,-0.6789116666666666,-3.337273,-10.383836,-1.035771,0.0135153333333333,-0.0420086666666666,56.86966666666666,90.0,-59.19683866666666,10.58249645280772,1.0325449733820584,10.92805390737807,1.0367106427307584,18.12397233333333,13.051480666666668,32.753122666666684
59.946,-7.129602,-1.383176,-8.782524,-1.01254425,0.1095754999999999,0.134208,38.30908775,77.014017,-92.29479975,-0.83141975,-2.95979125,-10.6702275,-1.024202,0.0113464999999999,-0.04354625,47.43229875,90.0,-8.271129749999993,11.396364698269185,1.027260646414683,11.1042954727449,1.0251901071290694,9.123211,12.985983,84.02367000000001
79.929,-7.6398548,-1.580848,-8.959944799999999,-1.0081492,0.1098068,0.128298,37.8604598,77.0771606,-92.650264,-1.3789678,-1.8055868,-10.6310032,-1.0162584,0.0137118,-0.0432546,35.686942,90.0,16.654775800000003,11.88053334590809,1.022195049680285,10.871059052556992,1.017270912515914,-2.1735178000000004,12.9228394,109.3050398
99.91,-7.4326476,-1.8075362,-9.359292,-1.0005320000000002,0.109593,0.1232512,36.999107200000005,77.1983872,-93.3508454,-2.3860692,0.0489243999999999,-10.7835594,-1.0059818,0.0100217999999999,-0.0457334,11.3428694,90.0,65.4413756,12.08750529271281,1.0140344012776097,11.044495151768247,1.007070683855925,-25.6562378,12.8016128,158.79222099999998
119.893,-6.720604399999999,-1.9882216,-9.6592084,-0.9893244,0.1131142,0.1203096,36.1287924,77.3157746,-94.081247,-2.2122486,1.5940966,-10.6270282,-0.994883,0.0041218,-0.0387412,-16.810450799999998,90.0,110.1435592,11.933979032436604,1.0030114608164555,10.97127687199301,0.9956455461165284,-52.9392432,12.684225400000004,204.2248062
139.875,-5.297028999999999,-1.8525744,-9.8587714,-0.9746456,0.1147958,0.1220912,35.2742148,77.4311736,-94.8270142,-0.7833216000000001,3.2646082,-10.0242136,-0.9852258,-0.00056,-0.0323424,-44.3250534,90.0,83.171157,11.343981737107756,0.9889481191723052,10.57147661052886,0.985756674551788,-79.5992682,12.568826400000004,177.9981712
159.857,-2.6237652,-1.3789044,-9.9087194,-0.9650976,0.1187942,0.133863,34.477968399999995,77.5436736,-95.5674012,0.9543904,4.201202,-9.2924154,-0.986057,-0.0051266,-0.027782,-67.80083959999999,90.0,59.8725908,10.34254520497768,0.981552210658404,10.242555503709672,0.9864616205410934,-102.278808,12.456326400000004,155.43999200000002
179.839,-0.5148447999999999,-0.809412,-9.7171328,-0.9593646,0.119269,0.146297,33.7442268,77.6536742,-96.2866822,2.6891642,3.909712,-8.9320736,-0.9861772,-0.0101876,-0.0248574,-85.384452,90.0,41.9374126,9.764368018805255,0.9777567909777768,10.114316131767024,0.9865430286248846,-119.1286788,12.346325800000002,138.2240948
199.821,0.3248336,-0.1939188,-9.4684158,-0.9575274,0.11685,0.1527236,33.056728,77.765637,-96.980095,3.2044914,3.1569972,-8.636858799999999,-0.9853768,-0.0103382,-0.024751,-94.5675048,90.0,32.0086108,9.475970616795518,0.9766458632727218,9.73810691996238,0.9857418162777108,-127.6242328,12.234363000000002,128.9887058
219.803,0.6082286,0.1151912,-9.055996,-0.9621264,0.111998,0.1570994,32.3995742,77.8753768,-97.652289,2.3383520000000004,2.3338834000000004,-8.2323252,-0.9913436,-0.0068812,-0.0280818,-98.5150252,89.9832138,27.585868400000003,9.07712920445839,0.9812802775259064,8.87051745949776,0.9917651292849736,-130.9145994,12.107837,125.2381574
239.785,0.5048587999999999,0.1883574,-8.678191,-0.9693326,0.1102218,0.1561422,31.7648598,77.9813034,-98.3053758,0.6095216000000001,1.28328,-8.2312222,-0.9972978,-0.0032945999999999,-0.0295216,-99.7125274,89.8477646,26.146041200000003,8.694904251948563,0.9879954054745598,8.352924221195796,0.9977400869668211,-131.47738719999998,11.8664612,124.451417
259.767,-0.1382918,0.1361778,-8.411497200000001,-0.9754642,0.1066651999999999,0.1520872,31.127740800000005,78.0845536,-98.9542146,-1.0264482,0.7528256,-8.3707384,-0.9968716,-0.0064316,-0.0334742,-100.063426,89.647734,25.6650668,8.413736040592665,0.9929946559657408,8.466971338827902,0.997454196658052,-131.1911668,11.563180400000002,124.6192814
279.749,-0.1486362,0.0859187999999999,-8.368874600000002,-0.9787828,0.1030268,0.1461712,30.4861938,78.1882904,-99.612384,-1.6325536,0.5284896,-8.2334054,-0.9985056,-0.0151582,-0.0372338,-100.2074812,89.3960022,25.444581,8.37063538990136,0.9949855832139076,8.41032086159204,0.9993145451363348,-130.693675,11.207711800000002,125.056965
299.731,-0.2306684,0.2182772,-8.264095200000002,-0.982482,0.0998636,0.1403709999999999,29.8531136,78.2949356,-100.2604522,-0.8537112,0.42975,-8.041632000000002,-0.9988368,-0.0249004,-0.0394414,-100.2175766,89.1005538,25.3678132,8.2701948176244,0.9974706194018748,8.098231479707744,0.9999253007041876,-130.0706902,10.8056182,125.6282654
319.713,-0.7718342,0.6034808,-8.1401164,-0.9818408,0.0950124,0.1356902,29.228159,78.4083388,-100.8894712,-0.0115562,0.6416726,-7.8550594,-0.9961742,-0.0293958,-0.0395264,-100.2896836,88.7892516,25.226788,8.19886651396443,0.9957160956188466,7.881233117277877,0.9973913404979212,-129.5178426,10.380912800000004,126.1162592
339.695,-1.1824522,1.0137230000000002,-7.8080096,-0.9828475999999998,0.0881441999999999,0.135562,28.620444400000004,78.5253142,-101.4928222,0.0750953999999999,1.2998324,-7.4861026,-0.995628,-0.0360804,-0.038397,-100.7415924,88.558438,24.7139972,7.961836561981538,0.996060169198327,7.598482461973422,0.9970211829530804,-129.3620368,10.033123800000002,126.2068194
359.677,-0.9408912,1.4627518,-7.4729264,-0.9839232,0.0837164,0.1360712,28.0497216,78.6456358,-102.0641266,-0.1135912,1.8850252,-6.946220199999999,-0.999265,-0.041707,-0.036316,-101.453354,88.3578278,23.954698,7.672649350677877,0.9968092448390716,7.198346895797709,1.0007941176535762,-129.50307560000002,9.712192000000002,126.01882460000002
379.659,-0.7112862,1.9956062000000003,-7.0576682,-0.986462,0.0835559999999999,0.137629,27.5363728,78.7687392,-102.584395,-0.1200628,2.1621868,-6.4171184,-1.0021234,-0.0386232,-0.0334194,-102.266141,88.183519,23.1033606,7.368789085397961,0.9995151945923584,6.77265645029014,1.0034240961339127,-129.8025138,9.414779800000002,125.68775560000002
399.641,-1.0374586,2.5720624,-6.832624,-0.9889518,0.0839352,0.1400186,27.0542552,78.8968612,-103.0741532,-0.592296,3.1175122,-6.014888399999999,-1.0021974,-0.0312808,-0.0394346,-103.562195,88.0243044,21.7813094,7.374047468085876,1.0023352676965127,6.80063080406659,1.0034606144201974,-130.6164502,9.127443200000002,124.8554626
419.623,-1.1589337999999998,2.9633958,-6.5873142,-0.9923008,0.0792102,0.1447548,26.5848568,79.02682960000001,-103.5558488,-0.5538074000000001,5.9744162,-5.271135,-0.9995885999999998,-0.0286314,-0.0471872,-106.062752,87.863318,19.2478178,7.315569054404565,1.0059269782582232,7.986564703008559,1.001111261628676,-132.6476088,8.836488400000002,122.8036666
439.605,-1.9850694,2.9791466,-6.314983000000001,-0.9926272,0.0796494,0.1449084,26.120377,79.1524888,-104.020488,-2.7492796,8.382281,-4.621053000000001,-0.9998264,-0.0318351999999999,-0.0520408,-109.38026,87.69280560000001,15.9378118,7.259120144852056,1.0063057336072174,9.958679827705389,1.0016858564243782,-135.500637,8.540316800000005,119.9582998
459.587,-4.1149182,2.6861344,-5.719237000000001,-0.9927438,0.0765624,0.1424538,25.6461204,79.267746,-104.4552704,-5.197850000000001,10.1510738,-4.3788536,-0.99969,-0.0392358,-0.0576394,-113.1127536,87.50473020000001,12.2605588,7.5403939996344755,1.0058305715510143,12.216231119530256,1.0021186778690434,-138.758874,8.236984200000004,116.7158292
479.569,-5.7432896,2.3506596,-5.120785,-0.9912804,0.0716688,0.1450633999999999,25.1610648,79.3697968,-104.8704452,-7.0837716,11.1153596,-3.867312000000001,-0.999529,-0.0604578,-0.0578548,-116.9715914,87.30767820000001,8.4952872,8.045707862007253,1.004398645129094,13.736343808438354,1.0030256952366077,-142.1326562,7.9378814,113.3657324
499.551,-6.3401182,2.0933446,-4.5220744,-0.9893492,0.065588,0.151528,24.6807526,79.4584686,-105.2686616,-7.0234886,11.241657,-3.1030618,-1.0019448,-0.0788092,-0.0503946,-120.5276292,87.1132842,5.035909999999999,8.064015580556362,1.0030325817582595,13.613715023996876,1.0063020858374685,-145.2083818,7.654815600000001,110.3045716
519.533,-6.273945400000001,2.0574444,-4.113347200000001,-0.9877066,0.0654768,0.160344,24.2251102,79.53700239999999,-105.6434846,-6.1859116,10.0303944,-2.5655146,-1.0054508000000002,-0.0849982,-0.0420548,-123.2156114,86.92956840000001,2.437032,7.779144781338137,1.0027770127789126,12.060521518797565,1.0099131702413433,-147.44072160000002,7.392566000000002,108.0805166
539.515,-6.4553026,2.2293466000000004,-3.7473742,-0.986322,0.0705119999999999,0.1678752,23.812833,79.60932299999999,-105.9715516,-3.9425928,8.756511,-2.267649,-1.0088202000000002,-0.0696478,-0.0364692,-125.2576126,86.7708648,0.447941,7.789976335992554,1.0029880919547551,9.867256704217938,1.0118789525044585,-149.0704456,7.1615418,106.4194926
559.497,-7.2381354,2.5986184000000003,-3.5050198000000004,-0.9854804,0.0714922,0.1734901999999999,23.4203212,79.6822052,-106.2645142,-3.962879000000001,7.550003600000001,-2.344758,-1.0073186,-0.0613468,-0.034032,-126.7913116,86.6302642,-1.0257359999999998,8.451543377155664,1.0031857270421265,8.843350858538747,1.0097585695601696,-150.21163280000002,6.948059000000001,105.2387782
579.479,-7.895997599999999,2.7979508,-3.0327956000000005,-0.9854896,0.0719264,0.1766216,23.0687626,79.75236199999999,-106.5029572,-5.305723400000001,7.068369199999999,-2.377591,-1.0055758,-0.0597162,-0.0404842,-128.1853194,86.4949584,-2.3303804,8.909161348286704,1.0037720599377529,9.15234849140357,1.0081605450213376,-151.25408199999998,6.742596400000002,104.1725768
599.461,-8.708931000000002,2.6222532000000003,-2.343404,-0.9845148,0.0759528,0.1769928,22.7749592,79.81183779999999,-106.6651764,-6.9025536,5.986441,-2.1599294,-1.0055864,-0.0589222,-0.0460355999999999,-129.3690308,86.3764906,-3.3896254,9.39219001697087,1.0031772876708882,9.388717540768724,1.0083625885489604,-152.14399,6.564652800000002,103.275551
619.443,-9.9362786,2.2580308,-1.4143122000000004,-0.9877156,0.0730016,0.1763037999999999,22.5285332,79.8579926,-106.7525514,-8.1277816,4.8299402,-1.7218832,-1.006304,-0.0681838,-0.0559424,-130.3128814,86.2711638,-4.1815992,10.28730355873858,1.005979308922584,9.610100822952736,1.0101615331798175,-152.8414146,6.413171199999999,102.5709522
639.426,-9.3335382,1.5787804,-0.3470586000000003,-0.9934902,0.0613752,0.187061,22.3295246,79.8805374,-106.7999178,-7.610333199999999,5.556378,-0.6747690000000002,-1.0044406,-0.085178,-0.0688182,-131.48377380000002,86.1579298,-5.2128682,9.472482913899468,1.0128087234972256,9.447000640270288,1.0103920799687611,-153.8132984,6.277392399999999,101.5870496
659.407,-7.874853999999999,0.3494646000000002,0.6944589999999996,-1.0019644,0.061041,0.2000962,22.2001976,79.86647640000001,-106.801703,-4.9069498000000005,7.5529872,0.818496,-1.0068584,-0.0864692,-0.0814462,-133.2247802,86.0311782,-6.8728984,7.913136188051495,1.0235707849498246,9.04409794756226,1.0138413306300151,-155.4249778,6.164701799999998,99.9288046
679.389,-7.7816144,-1.4087506,1.5209737999999997,-1.0103074,0.0550454,0.2043877999999999,22.063882,79.81356960000001,-106.8073564,-2.4695202000000007,10.6168692,2.0031432,-1.0063428,-0.0746136,-0.099999,-135.68992,85.8691116,-9.3115544,8.053040557675974,1.0322429032668423,11.082825646369384,1.0140477406995194,-157.753802,6.055541999999997,97.495802
699.372,-7.028682999999999,-4.2857508,2.4533276,-1.025184,0.0446922,0.2202302,21.877817,79.6964828,-106.8734254,-0.8208000000000004,16.4125506,3.2729748,-0.9949678,-0.0731696,-0.141949,-139.13179,85.6263474,-12.768951,8.590044292499975,1.049524162460722,16.75583163794013,1.007702452116695,-161.00960700000002,5.929864599999997,94.1044744
719.354,-4.5065104,-9.630368,3.5614998,-1.0345496,0.0325943999999999,0.24799,21.5952678,79.4625824,-107.0803802,0.7600877999999998,23.5670342,4.383318399999999,-0.9724978,-0.084066,-0.2029557999999999,-143.36184680000002,85.2658464,-17.053888800000003,11.213246836939431,1.0643562889707188,23.983250710515808,0.9970005617423092,-164.9571146,5.803263999999999,90.02649140000001
739.336,-1.5239633999999995,-18.0029536,4.9529058,-1.0415446,0.013763,0.2462884,21.1772774,79.0693512,-107.4818084,3.7592604,28.646501,4.8517278,-0.9631754,-0.1054062,-0.232032,-147.6613096,84.80190139999999,-21.4696406,18.733928542405785,1.0703562724311564,29.296643509851123,0.9963213172403772,-168.83858700000002,5.7325502,86.0121678
759.318,-0.8130603999999995,-28.3484504,6.24223,-1.0431082,0.0213343999999999,0.2380364,20.6042122,78.4795684,-108.05339039999998,8.535237599999999,33.5201892,3.7595476,-0.9573682,-0.0970942,-0.2376674,-151.60558759999998,84.2265916,-25.6229526,29.03895904932214,1.070136066701595,34.79349886184078,0.9911947069408916,-172.2097998,5.747023200000001,82.4304378
779.3,-4.7607062,-39.3285424,7.2971238,-1.0421586,0.034391,0.272443,19.779224,77.6638442,-108.7978102,10.3103934,37.0480178,2.0738056,-0.9673814,-0.0705876,-0.2191046,-155.038861,83.5786712,-29.295712200000004,40.28208766416957,1.0777302430033036,38.51182292022117,0.9943923813469612,-174.818085,5.914827,79.502098
799.282,-8.248193999999998,-50.667994,7.001252199999999,-1.0296368,0.0126128,0.3244666,18.6820166,76.63681779999999,-109.7493116,9.021354399999998,36.1173648,-1.2658842,-0.987566,-0.0760852,-0.1707428,-157.37899480000002,82.91838520000002,-31.8398426,51.8101906251432,1.0796247483054655,37.24850786426871,1.005101321144729,-176.0610114,6.2815674,77.90946899999999
819.264,-9.543887799999998,-61.366294,5.2537796,-1.0179360000000002,0.0015862,0.3678346,17.3884534,75.42182,-110.8763488,8.770624999999999,31.8213938,-4.848458599999999,-1.0093962,-0.0929606,-0.1146522,-158.4768556,82.2987134,-33.1256804,62.325837609444136,1.0823578470559545,33.36214197351869,1.0201311134808309,-175.86530899999997,6.8768934,77.7506684
839.246,-11.9300556,-70.281263,2.2790338,-1.0054456,0.0260196,0.4294164,15.920323200000002,74.0434356,-112.1362976,11.4792894,26.6160052,-7.68697,-1.0203656,-0.0840688,-0.083961,-158.59760459999998,81.75995600000002,-33.4801526,71.3230408111979,1.0936161660895838,29.98791966302897,1.0272599331804002,-174.5179278,7.7165203999999985,78.65614500000001
859.228,-16.7440432,-78.0655822,-1.1651361999999998,-0.9992536,0.005541,0.504767,14.2203534,72.5211654,-113.5333482,10.261518999999998,19.96806,-10.2071116,-1.0195599999999998,-0.0931414,-0.0778442,-157.9976596,81.3318264,-33.0811976,79.84958139698024,1.1195214084969345,24.661859612888392,1.0267607479192022,-172.21801299999998,8.810661,80.45215060000001
879.21,-14.380698,-86.755426,-5.3550586,-0.9895356,-0.0330298,0.5504035999999999,12.4526698,70.8493118,-115.051912,11.1611848,13.711099,-11.956482,-0.9980206,-0.12069,-0.0949886,-156.81769119999998,80.9938794,-32.1138832,88.10212862364969,1.13279115208778,21.343002219553743,1.0097692945689725,-169.270361,10.144567599999998,82.93802880000001
899.192,-11.8756432,-96.6816132,-9.4564832,-1.0000266,-0.0192421999999999,0.5755526,10.666248,68.9730866,-116.6468568,15.0047544,10.0120252,-11.5223686,-0.9847192,-0.1163246,-0.1150662,-155.54532479999995,80.7191144,-31.129473,97.86618571743767,1.153986247030336,21.404398645232256,0.9982201890345838,-166.2115728,11.746027800000002,85.51738380000002
919.174,-12.5372008,-106.9236834,-13.9594998,-1.0067054,-0.0115677999999999,0.60792,8.849307999999999,66.88359,-118.2874374,19.5703726,7.1906718,-9.4336636,-0.9900872,-0.0863216,-0.1168596,-154.3743958,80.520764,-30.3393536,108.55746455398244,1.176076656849374,22.88447625697628,1.0006898861997957,-163.2237038,13.637173999999998,87.9480838
939.156,-12.571858799999998,-117.505179,-18.7887186,-1.0132096000000002,-0.0192038,0.6599314000000001,7.0539468,64.56594480000001,-119.9374908,21.7149248,5.3105942,-7.6614902,-0.9900528,-0.085628,-0.1272514,-153.3119782,80.36745599999999,-29.702394200000004,119.66007969301694,1.2093270575706807,23.63130977985403,1.0018630744636714,-160.365925,15.801511200000002,90.2350966
959.138,-9.354723599999998,-129.1881304,-24.1224622,-1.0250016,-0.0374974,0.6999776,5.3282978,62.0013872,-121.6206604,25.3413476,5.4602964,-5.6133674,-0.9881668,-0.0991426,-0.142256,-152.42831719999998,80.21767580000001,-29.3209058,131.75347081754708,1.241774124191304,26.523737076951683,1.0032644961788493,-157.756615,18.2162886,92.2997546
979.12,-7.7542697999999985,-141.0862246,-28.906622400000003,-1.0382366,-0.028502,0.7409458000000001,3.6974802,59.183491,-123.2801546,29.169282599999995,7.233378,-3.2860287999999995,-0.9982288,-0.1124865999999999,-0.1412252,-151.7924622,80.05645139999999,-29.270284600000004,144.22567139933523,1.2758323871579684,30.231883665494216,1.01442522121842,-155.4899424,20.8729604,94.00987
999.102,-9.5377468,-152.1255312,-33.198372,-1.034771,-0.0329885999999999,0.7901882,2.1556352,56.1383646,-124.8537402,31.8227464,10.7505606,-2.4000904,-1.0014822,-0.1226183999999999,-0.1504428,-151.3811248,79.83610999999999,-29.5027084,155.9976851121627,1.3023965070554355,33.67524573898693,1.0201151430143758,-153.53676000000002,23.6977454,95.3510318
1019.084,-12.1859578,-162.92467359999998,-36.62869,-1.0266704,-0.0441722,0.8222936000000001,0.7118594,52.8702134,-126.29824399999998,31.649448399999997,15.900610600000002,-2.6708176,-0.9995456,-0.1305596,-0.1558936,-151.1860168,79.5202226,-29.9531066,167.43538385384974,1.3161193175734334,35.5197166110537,1.0200196224350198,-151.8978762,26.6500092,96.34513739999998
1039.066,-14.969710799999998,-173.07778939999997,-39.4809066,-1.0069288,-0.0627446,0.8528674,-0.6319041999999999,49.393969000000006,-127.6059312,30.2711572,21.8036324,-2.8461128,-1.0015666,-0.1262774,-0.1561586,-151.2828766,79.10270560000001,-30.673791800000004,178.15374094018992,1.3210697540559166,37.41445846369776,1.021502395660568,-150.6509724,29.7087366,96.9321394
1059.048,-16.4134092,-181.9820954,-42.616731,-0.969672,-0.0561952,0.8870404000000001,-1.8420552,45.7341836,-128.7770478,30.611085600000003,25.4806138,-1.2609967999999998,-1.0106768,-0.1137915999999999,-0.1476526,-151.68020640000003,78.6472688,-31.7085176,187.62480861780435,1.3153943740639915,39.84834192491437,1.027724385511777,-149.8381512,32.9130852,97.0685302
1079.03,-17.288133,-189.8947236,-46.1347394,-0.9332391999999998,-0.0631395999999999,0.9259486,-2.9429776,41.9122146,-129.849739,33.915720799999995,26.3842432,0.8842076000000002,-1.0212252,-0.1093205999999999,-0.146177,-152.2014496,78.20220499999999,-32.938748000000004,196.18180285962305,1.316169754760669,42.97890447301089,1.0374100529821368,-149.258472,36.28999040000001,96.910991
1099.012,-15.1228476,-197.051822,-49.3922986,-0.8875120000000001,-0.0705606,0.9491624,-3.8891608,37.94816540000001,-130.83923320000002,39.502948,19.8261382,2.9414900000000004,-1.0404494,-0.1190224,-0.1303774,-152.4265566,77.903392,-33.982741,203.7098923323167,1.3013706658712267,44.29685113003297,1.0553196445119744,-148.53739579999998,39.9552266,96.8564922
1118.994,-13.9706186,-203.3341798,-51.9253652,-0.8380326,-0.0693682,0.976745,-4.7045088,33.8602928,-131.746057,47.8020508,4.2200392,3.556908,-1.0706072,-0.1309878,-0.1174664,-151.756595,77.8907516,-34.282349999999994,210.3240604642245,1.2888527382362192,48.119605007271005,1.0849681726067544,-147.05208620000002,44.0304588,97.463707
1138.976,-13.809483600000002,-208.9336214,-53.68966819999999,-0.7805238,-0.0774108,0.9881468,-5.4229644,29.6642544,-132.575479,58.551917200000005,-17.493768799999998,4.241225399999999,-1.0925702000000002,-0.1510322,-0.1085418,-149.6802796,78.250366,-33.36698439999999,216.1632264286488,1.2616037145923913,61.256403318486754,1.1082877287564454,-144.2573152,48.5861116,99.2084946
1158.958,-12.8614094,-213.7261844,-54.117485,-0.718085,-0.0827826,1.005536,-6.0270828000000005,25.368298,-133.3139616,70.644696,-38.8092932,4.0300178,-1.10187,-0.1719028,-0.081927,-145.7568542,78.9420286,-30.8190494,220.8461001074332,1.238386722063734,80.7036266538518,1.118203963003548,-139.72977139999998,53.5737306,102.4949122
1178.94,-12.8197918,-217.6043642,-54.117102,-0.6446104,-0.0878542,1.0096854,-6.545723000000001,20.9878062,-133.96949439999997,83.8444518,-58.7805178,5.5048508,-1.1195768,-0.1792258,-0.0619474,-139.7910172,79.9365278,-26.4639654,224.59890273454135,1.2011267773299203,102.54435505091882,1.135522601646766,-133.2452942,58.9487216,107.505529
1198.922,-13.7249554,-220.4788392,-54.0869506,-0.5706126,-0.0965169999999999,1.0107024,-7.0111534,16.5323534,-134.5568632,98.5296096,-71.6633406,10.0050384,-1.1096814,-0.1644504,-0.0411984,-131.8673462,81.1279448,-20.4226052,227.4306293376472,1.1646602989427948,122.24491460697044,1.122556925829902,-124.8561928,64.5955914,114.134258
1218.904,-13.397835,-222.2239746,-54.60300199999999,-0.4916763999999999,-0.1032414,1.00668,-7.4129488,12.0201384,-135.1008604,110.5208358,-75.2675642,17.3379008,-1.0901793999999998,-0.1472442,-0.020625,-122.0957382,82.370654,-12.760391599999998,229.22583776075652,1.1250818154209583,134.83569323692566,1.1002714979690238,-114.6827894,70.3505156,122.3404688
1238.886,-13.0755694,-223.07556459999995,-55.7030904,-0.4173238,-0.1088422,0.9981502,-7.7616368,7.469952399999999,-135.6256774,116.7558852,-71.7888762,25.7567592,-1.0645026,-0.1146269999999999,0.0057703999999999,-110.333165,83.5479016,-3.2233876,230.29657469631096,1.0873406091502884,139.459636165384,1.0706719535188731,-102.5715282,76.0779492,132.4022898
1258.868,-12.5597514,-223.4909576,-56.9207662,-0.3431776,-0.1199155999999999,0.9801582,-8.059300400000001,2.8962278,-136.14292899999998,119.170671,-66.6712622,34.6667638,-1.0540189999999998,-0.1027291999999999,0.0228919999999999,-96.1432434,84.58516820000001,8.6946388,230.96737672015476,1.045399786346047,140.8846710692699,1.059260772688973,-88.083943,81.6889404,144.83756780000002
1278.85,-12.977573800000002,-222.935614,-57.6389822,-0.2670278,-0.1241423999999999,0.950704,-8.325322799999999,-1.6782598,-136.65167839999998,116.2773132,-61.66717140000001,39.112797,-1.0293092,-0.0858948,0.0427883999999999,-79.601709,85.341757,23.0080744,230.63164934662237,0.9952654304589303,137.30646191148864,1.0337727956597813,-71.2763862,87.02001680000001,159.6597528
1298.832,-14.2432392,-221.5862396,-58.1381918,-0.185518,-0.1304976,0.9159849999999998,-8.5776668,-6.2297096000000005,-137.1545348,107.6230148,-57.8785714,38.4030706,-1.0245314,-0.0592342,0.0623581999999999,-62.1591094,85.7188506,38.3698376,229.52860560015304,0.9436498673526954,128.0915226447656,1.0281351200804494,-53.5814426,91.9485602,175.5243724
1318.815,-15.1210704,-219.5066254,-57.8949394,-0.1070007999999999,-0.1342054,0.8762082,-8.8108694,-10.7413568,-137.64371020000002,94.397387,-54.65872900000001,35.15434019999999,-0.9989216,-0.0500298,0.0808598,-45.3195914,85.6993332,53.367087600000005,227.5162178234056,0.8928611708082281,114.60484703196695,1.003436919338052,-36.50872199999999,96.44069,191.0107978
1338.797,-15.718165,-216.6895996,-56.9888114,-0.0300222,-0.1374651999999999,0.8282684,-9.023422,-15.196419400000002,-138.1124418,79.9369058,-52.2210946,30.237395600000003,-1.0019222,-0.0465709999999999,0.0974748,-30.419557000000005,85.3080262,66.687056,224.6089221526169,0.8401348440235293,100.1561367204782,1.0077292739267227,-21.396135,100.5044456,204.7994978
1358.779,-16.8614948,-212.8291382,-55.78759759999999,0.0449674,-0.1306602,0.79161,-9.230101200000002,-19.5731354,-138.56174900000002,67.6489198,-47.9215844,24.033255,-0.986648,-0.0363194,0.0977345999999999,-18.8945672,84.682335,76.8554986,220.66446954556287,0.8035798323917792,86.31600052949732,0.992141838023939,-9.664466,104.2554704,215.4172476
1378.761,-17.7988582,-208.2321748,-54.5381438,0.1098888,-0.1299161999999999,0.7475098,-9.4302644,-23.8545802,-138.99512620000002,56.9196832,-43.5806276,18.6886932,-0.9791286,-0.031795,0.0994683999999999,-11.1374442,83.95284899999999,83.4642518,215.9903866016053,0.7666320293882326,74.08366008184241,0.9846815220981452,-1.7071798,107.8074292,222.459378
1398.743,-17.4159652,-202.7653078,-53.12877960000001,0.1739644,-0.1218921999999999,0.703764,-9.5969522,-28.009630200000004,-139.417221,51.34200080000001,-39.079234,10.8692522,-0.9685338,-0.0221151999999999,0.0874693999999999,-6.5836614,83.23901079999999,86.9809816,210.33248230566224,0.7351224990327802,65.43185936194357,0.9727269399733104,3.0132908,111.248641,226.3982026
1418.725,-17.781863,-196.4864168,-52.0890228,0.2353312,-0.1107958,0.6597558,-9.7333924,-32.0271372,-139.848416,49.1023156,-34.0944256,3.5099841999999994,-0.9695086,-0.0047247999999999,0.0776646,-4.1275728,82.59765039999999,88.443535,204.04992755429487,0.7091785379047507,59.88144323043816,0.9726258475396178,5.6058196,114.6247876,228.291951
1438.707,-17.683873799999997,-189.1357392,-51.683957,0.2936982,-0.0968523999999999,0.621305,-9.8175686,-35.8919482,-140.3147674,51.1727952,-27.4230254,-1.5218894000000005,-0.963342,0.0055112,0.0668424,-2.86968,82.083974,88.66565580000001,196.86614398235815,0.694016515000904,58.07747788959176,0.9656739039278216,6.947888600000001,117.9759222,228.9804232
1458.689,-17.5229584,-180.3851868,-51.5146692,0.3485094,-0.0813458,0.5714748000000001,-9.8268582,-39.5794318,-140.843335,54.76227200000001,-20.651867,-5.2344492,-0.9557226,0.021185,0.0561125999999999,-2.2118536000000004,81.7089832,88.21392540000001,188.41345713813664,0.674284352555389,58.76057780191626,0.9576027967035812,7.615004600000001,121.288415,229.0572604
1478.671,-16.441405,-170.340979,-51.0807482,0.406784,-0.0645076,0.5305344,-9.7354978,-43.0714544,-141.4447326,57.683349,-12.2048032,-6.977975400000001,-0.9460916,0.0418306,0.0442913999999999,-1.7720721999999998,81.508214,87.4855196,178.5934258636758,0.6716406797515468,59.37186297977802,0.9480510760506948,7.963425599999999,124.5796684,228.9302522
1498.653,-15.1942922,-158.98419199999998,-50.219452,0.4582564,-0.039393,0.492468,-9.5210196,-46.3569432,-142.1371612,57.1259552,-3.1912440000000006,-3.5966758,-0.9358686,0.0478266,0.0358221999999999,-0.9114134,81.4872376,87.1953416,167.41813874408035,0.6738512206815093,57.32795890828705,0.9377743066145288,8.609606199999998,127.8441808,229.3325028
1518.635,-13.8083184,-146.51015479999998,-49.164954400000006,0.5087849999999999,-0.0219377999999999,0.4589017999999999,-9.1733736,-49.409160400000005,-142.9324402,56.6569618,5.285323799999999,0.7287441999999997,-0.935789,0.0655458,0.0169051999999999,0.4853084000000001,81.63049,87.458258,155.15504457706112,0.6855175456084839,56.90761843713493,0.938234027418362,9.658682,131.0396504,230.3906982
1538.617,-12.4056892,-132.6526444,-47.8655686,0.5617134,0.0055786,0.4312895999999999,-8.673319000000001,-52.192410800000005,-143.8489868,54.6677772,12.165614199999998,4.1329492000000005,-0.9363028,0.086212,-0.0020818,2.3715498,81.9026168,88.25618879999999,141.5688449067843,0.7082116799274635,56.15736195675383,0.9402658007835232,11.0448688,134.0950276,232.1051756
1558.599,-11.265351,-117.67475140000002,-46.441433800000006,0.6155362,0.027229,0.4065134,-8.019540600000001,-54.6799948,-144.896289,49.0340216,16.903097199999998,8.1635678,-0.9570748,0.1105978,-0.0146472,4.8617744,82.24749139999999,89.7768446,127.00811794371567,0.7381594518334098,52.50422657698246,0.9635551808940264,12.881315,136.9274862,234.6731336
1578.581,-9.3817072,-101.5532684,-44.9222764,0.6641138,0.055108,0.3861576,-7.2089392,-56.8345298,-146.0654052,43.5735822,20.4322412,12.526066,-0.9618172,0.1284327999999999,-0.0222248,8.1674546,82.62923119999999,92.2273116,111.44098738645027,0.7701958991400824,49.729627744750815,0.97060870182928,15.3763938,139.463761,238.2927168
1598.563,-7.4226376,-84.58132459999999,-43.2072954,0.709069,0.0731882,0.3684762,-6.2610516,-58.6330788,-147.337326,37.15639600000001,23.201205,16.2677342,-0.9746626,0.1416918,-0.0219672,12.362476,83.0296188,95.6989104,95.2678665438371,0.8024400721217005,46.72828750513645,0.985152936300674,18.6235276,141.66269759999997,243.03623639999995
1618.545,-4.4973916,-67.093399,-40.6866418,0.7472786,0.0964746,0.3501398,-5.1921532,-60.0610718,-148.67070619999998,30.9141162,25.3034404,18.9523436,-0.9755688,0.1443208,-0.0138058,17.4853588,83.4278352,100.2238418,78.59486968968433,0.8308613205626797,44.21694250438304,0.986282706408117,22.677512,143.48890699999998,248.894548
1638.527,-1.2944082,-50.1198056,-37.110542,0.7758291999999999,0.1136533999999999,0.3291658,-4.0579302,-61.127813,-149.9968872,24.6030724,26.7834544,20.2802424,-0.9664114,0.1508858,-0.0048426,23.4089256,83.7977418,105.6740188,62.37678040347853,0.8503988280764737,41.64075927404877,0.9781313661601696,27.4668558,144.9255548,255.670906
1658.51,2.1526334,-34.2230304,-32.7379562,0.799101,0.1237881999999999,0.3124828,-2.9183686,-61.8538444,-151.2453522,18.196475,26.9727412,19.9839384,-0.9546856,0.1498345999999999,0.0076671999999999,29.8135588,84.11996160000001,111.7298186,47.40910689379455,0.8669091226628544,38.183743455072566,0.9664024980102028,32.731927400000004,145.973806,262.9751708
1678.492,5.5459626,-19.5764232,-27.757304,0.8193168,0.1289598,0.2962376,-1.819018,-62.2716362,-152.364621,11.6152436,25.967005,17.7540628,-0.952323,0.1450184,0.0244803999999999,36.131917,84.3777848,117.8264158,34.41601330506648,0.8807197990462347,33.532163343030966,0.963612330064181,37.950935,146.649421,270.1910368
1698.474,8.5065594,-6.185438799999999,-21.7871642,0.8343564000000001,0.135746,0.2828226,-0.8435518,-62.4095024,-153.2736054,5.478543999999999,23.537620800000003,14.726745799999998,-0.9440042,0.1310112,0.0360943999999999,41.884360400000006,84.57406160000001,123.4764326,24.19300993783195,0.8913844298661046,28.30037242055917,0.953735115141746,42.727912200000006,146.983564,276.750038
1718.456,10.4201192,6.2629348,-15.0286306,0.8452073999999999,0.137773,0.2687336,-0.0701149999999999,-62.2905586,-153.910086,-1.1209532000000002,20.0075444,10.761899799999998,-0.9369102,0.1201554,0.0458219999999999,46.62134880000001,84.7218536,128.2403456,19.330364046300733,0.8975381308405342,22.7459195527418,0.9456942945250332,46.6914638,147.0124122,282.15043160000005
1738.438,12.3792054,17.9244846,-7.735094199999999,0.8494786000000001,0.1318109999999999,0.2637316,0.468084,-61.9345742,-154.2360688,-7.8560576,14.3247562,5.797742599999999,-0.9318234,0.1160076,0.0531227999999999,49.733027,84.82760920000001,131.51154619999997,23.11630499872114,0.8991898511535371,17.335804003847382,0.9405182847372826,49.264943,146.7621834,285.74761500000005
1758.42,13.8318176,29.119707,-0.436888,0.844997,0.1313344,0.2632084,0.7593318,-61.353679,-154.2487976,-14.320241,7.9737296,1.0870037999999995,-0.9278526,0.1197852,0.0549083999999999,51.1029764,84.897975,133.1684996,32.24077209078688,0.8947330978917233,16.426540819454704,0.9371626720353088,50.3436446,146.251654,287.4172972
1778.402,14.693295799999998,40.3126276,6.5926748,0.8329603999999999,0.1328654,0.2676873999999999,0.8109592000000001,-60.54947059999999,-153.9674684,-21.6331478,1.4496375999999995,-3.0290254,-0.937106,0.1240786,0.0439537999999999,50.7691698,84.9398788,133.26623220000002,43.41041633641785,0.8849479005026679,21.892225281634204,0.9463060238360528,49.9582106,145.48934939999998,287.2337006
1798.384,16.5113334,51.8415146,12.773874799999998,0.8123048,0.1240896,0.2808434,0.697864,-59.51971519999999,-153.4494966,-29.679607600000004,-3.88793,-3.1588614,-0.9576852,0.132241,0.0348755999999999,49.4984698,84.91338820000001,132.58685300000002,55.88683784285925,0.8683952626855815,30.099393886244417,0.967401122521263,48.80060580000001,144.4331034,286.0363496
1818.366,18.6252856,63.386969,17.824195,0.7818634,0.107706,0.3180922,0.4945194,-58.2642792,-152.7661012,-34.7643968,-7.2195806,0.5825477999999997,-0.9737788,0.138698,0.0208945999999999,48.210679,84.7931642,131.9917206,68.42887570380324,0.8509368991860677,35.51091368645746,0.983828679619882,47.716159600000005,143.0574434,284.75782180000004
1838.348,19.383948,75.51741100000001,21.524813400000003,0.7508144,0.1049163999999999,0.3581941999999999,0.2489532,-56.7686234,-151.9956056,-34.6389368,-7.667199000000001,3.946223,-0.9665974,0.1266516,-0.001542,47.373285,84.6312394,131.8444458,80.88222546464982,0.8384705117951137,35.69614207594043,0.9748607794107425,47.1243318,141.3998628,283.8400514
1858.33,18.6285806,88.49626,25.7201134,0.7189482,0.100872,0.384056,-0.064929,-55.0182472,-151.1371736,-34.8526752,-4.717874800000001,5.042644999999999,-0.9594302,0.1055514,-0.001452,47.0669662,84.5023104,132.23371899999998,94.02199892826762,0.8213164346360299,35.53020658286685,0.9652199309059049,47.1318952,139.5205576,283.37089260000005
1878.312,17.3085586,101.5867386,30.697823400000004,0.6833178,0.0816128,0.4255524,-0.4582834,-53.0052054,-150.18427739999998,-36.4173184,-0.2006634000000001,3.3892233999999988,-0.948622,0.0941858,0.0072689999999999,47.1427696,84.4624482,133.03722839999998,107.52584815611525,0.8091221848808993,36.575239992407234,0.9533139578159128,47.601053,137.4676536,283.22150580000005
1898.294,15.0270178,113.4535752,35.4913094,0.6392778000000001,0.0625334,0.4772856,-0.9340998,-50.7353628,-149.1544372,-36.1189342,5.3739212,-3.6166276,-0.914708,0.0843952,0.0007269999999999,47.0257422,84.6115814,133.6420288,119.82135883284792,0.8002425105277525,36.6951826811752,0.918593383154941,47.959842,135.3469442,282.79646599999995
1918.276,12.5082294,124.4937226,40.0430574,0.5958680000000001,0.0576326,0.5102228,-1.472791,-48.2224952,-148.07065419999998,-37.8204372,11.2912772,-12.1942002,-0.899461,0.076622,0.0033427999999999,46.4787292,84.9735336,133.85075379999998,131.37194988074307,0.786579618123048,41.31073624766404,0.9027248726587964,47.9515202,133.1960288,281.921408
1938.258,9.8393422,134.4243898,44.5910584,0.5520994,0.0419558,0.5341406,-2.0754256,-45.4939962,-146.9356382,-46.0226196,19.8373446,-17.9004566,-0.9130028,0.0545082,0.0117655999999999,46.4638328,85.5492356,134.7530366,141.96862934206013,0.7693375183899197,53.21680281747426,0.9147041521816984,48.5392584,131.0432318,281.6886748
1958.24,7.696074,143.1913118,48.9353294,0.5062394,0.0131672,0.5762912,-2.7117048,-42.5639602,-145.76991859999998,-53.2669546,25.427447,-23.8999798,-0.943631,0.0445324,0.0064209999999999,46.5569642,86.3167144,135.9039032,151.51781345275808,0.7671787617404695,63.67992264235784,0.9447030369654582,49.268669,128.8806746,281.6738218
1978.222,5.554187,150.3696138,52.009339,0.4627862,-0.0114009999999999,0.6093591999999999,-3.3428702,-39.467794,-144.620056,-57.722785,31.106341800000003,-28.4781452,-0.9482822,0.0393486,0.0013219999999999,47.4647674,87.36689759999999,137.93850099999997,159.20691282356125,0.7652579201393997,71.48796515754897,0.9490991470035152,50.80763760000001,126.8346916,282.558557
1998.205,4.5922814,157.24052139999998,54.4517302,0.4203574,-0.015305,0.6308909999999999,-3.915885,-36.2196862,-143.5116302,-65.7148398,35.4052146,-35.0058868,-0.9712416,0.0415904,0.0149973999999999,19.2960692,88.27838899999999,111.57780619999998,166.4651961833891,0.7582598767182396,82.44623400414436,0.9722473599601492,23.2119542,124.4980752,255.0894364
2018.187,2.3290758,163.8195648,55.9098928,0.3812841999999999,-0.0315788,0.6572663999999999,-4.461295600000001,-32.828107,-142.45401,-75.1340606,37.843183,-43.09044419999999,-0.9924309999999998,0.0370208,0.0145111999999999,-12.879859399999996,88.8168976,80.9575534,173.1132303385591,0.7605090284461058,94.51994468454409,0.9932272672047822,-8.418563799999998,121.6450046,223.41156340000003
2038.169,0.1513617999999997,170.091986,56.677322200000006,0.3408868,-0.0543223999999999,0.6865867999999999,-4.980428999999999,-29.2995964,-141.4552888,-85.9351318,37.6779662,-52.0391082,-1.0131068,0.0292164,0.0309413999999999,-46.4996766,88.82025759999999,49.0858462,179.2864341314794,0.76847652370794,107.29652742145488,1.014000175773732,-41.51924759999999,118.119854,190.541135
2058.151,0.2158827999999997,176.2584472,56.6113548,0.3015801999999999,-0.0696576,0.7052462,-5.412672000000001,-25.6445342,-140.5364168,-99.6958314,37.9332914,-59.46608200000001,-1.0154109999999998,1.660000000001105e-05,0.0364785999999999,-80.45657659999999,88.254802,17.148652999999996,185.12680061792784,0.7701785513010863,122.12456060680532,1.0160660349871555,-75.04390459999999,113.89933620000002,157.6850698
2078.133,3.9701641999999993,182.913037,56.80505459999999,0.2605959999999999,-0.088361,0.7310688000000001,-5.6848656,-21.8571736,-139.684076,-111.2147858,34.661973,-65.4951072,-1.0297996,-0.0130765999999999,0.0556267999999999,-114.80786600000002,87.0422898,-14.931911800000004,191.5718025609388,0.7811398926379577,133.64052536537,1.0313838056252194,-109.1230004,108.8994634,124.7521642
2098.115,8.3119936,189.4393218,56.2162294,0.2228188,-0.1143513999999999,0.8034542,-5.8028598,-17.946579399999997,-138.8910462,-116.253389,34.86464479999999,-62.7480324,-1.0593488,-0.0789308,0.0567309999999999,-120.2359864,85.5758668,-18.515398000000005,197.7791958968481,0.8415836926967157,136.6298264695046,1.0637990212493524,-114.4331266,103.5224462,120.3756482
2118.097,8.769738999999998,195.0813172,54.4579476,0.1728242,-0.114368,0.8084498,-5.8464842,-13.9327888,-138.1668764,-115.6034516,37.785052,-58.911457,-1.016709,-0.158028,0.0546103999999999,-122.3442962,84.0756868,-18.358785800000007,202.72961475674805,0.8345893137643687,135.13855091105236,1.0303651465636636,-116.497812,98.0084756,119.8080906
2138.079,10.4855452,198.5671754,53.7661134,0.0905512,-0.1316776,0.833043,-5.798563199999999,-9.859488199999998,-137.4772768,-103.1983224,38.3234112,-49.4512546,-0.9889486000000002,-0.1677353999999999,0.0290185999999999,-124.5396484,82.7742036,-18.5205508,205.98462261687703,0.8482329573956673,120.68141602455886,1.0034921908022405,-118.7410852,92.6336918,118.956726
2158.061,12.2299604,200.9207032,51.05722060000001,0.012362,-0.1290888,0.8604711999999999,-5.6574048,-5.7491946,-136.8509188,-82.918226,36.7991944,-40.7164122,-1.0189254,-0.1594736,0.0143137999999999,-126.7713638,81.6628344,-19.11946320000001,207.6668983761377,0.8701881539982487,99.4356029494284,1.0314289528283371,-121.113959,87.41202899999999,117.7314556
2178.043,10.5423874,202.9186646,47.2941178,-0.0527369999999999,-0.1217834,0.919372,-5.4980574,-1.605782,-136.2992038,-63.72389080000001,41.814118,-30.0362814,-1.0299413999999998,-0.201777,-0.0188302,-129.7354536,80.6610048,-20.846650200000006,208.6237281653725,0.9289011045684894,81.92272531567926,1.0496893929134463,-124.2373962,82.2667868,115.45255360000002
2198.025,3.784067799999999,203.5066224,43.1347138,-0.135533,-0.1124892,0.8923472,-5.432556,2.5400938,-135.82583340000002,-40.0405254,44.2719602,-20.7402532,-0.9756236,-0.212091,-0.050265,-132.6856062,79.7536408,-23.043278400000005,208.0621735548754,0.9095639282389556,63.19341925436967,0.9996752329546632,-127.2530502,77.213547,112.782555
2218.007,3.757806599999999,202.886731,40.4318918,-0.2265753999999999,-0.1293038,0.9073546,-5.3394348,6.6627864,-135.3994936,-13.3727848,44.95668379999999,-14.247556800000002,-1.003041,-0.177209,-0.059835,-135.11750779999997,78.92430420000001,-25.260622800000004,206.91032985531743,0.944112416357692,49.01966611850308,1.0203305859313443,-129.778073,72.26151780000001,110.1388708
2237.989,5.4596094,203.31505120000003,36.6523756,-0.2991626,-0.1009279999999999,0.9134842,-5.189112400000001,10.790555,-135.038263,4.662494400000002,43.8210072,-13.0960364,-1.0475316,-0.1828724,-0.0561592,-136.9050476,78.119191,-27.19288700000001,206.66449626479795,0.9665082027962308,45.97309751846844,1.0648561515176402,-131.71593520000002,67.328636,107.845376
2257.971,5.421137,204.0038788,34.181194,-0.3528694,-0.1107278,0.960214,-5.0246732000000005,14.9266324,-134.7153228,21.5607694,43.1772046,-9.993501,-1.0352836,-0.2054066,-0.0616424,-138.3608978,77.36240219999999,-29.134634800000004,206.9186441940008,1.0289744335721855,49.28496562266468,1.0572624032047486,-133.33622459999998,62.4357698,105.580688
2277.953,6.9851676,203.454486,31.0732758,-0.4343435999999999,-0.0925928,0.9236586,-4.8168968,19.0465622,-134.4369902,40.6463246,35.6428566,-9.025978,-1.0000402000000002,-0.2040153999999999,-0.0714714,-138.91267399999998,76.7248794,-30.54305340000001,205.9321949304361,1.0248770652262444,54.80880594350887,1.023137745404381,-134.0957772,57.6783172,103.8939368
2297.935,11.7509452,201.9132902,29.0412158,-0.5250125999999999,-0.0800668,0.9031642,-4.4990506,23.132265,-134.17320239999998,52.78611599999999,24.8277548,-11.851084,-0.9955902,-0.1747152,-0.0790896,-138.3690186,76.21308739999999,-31.075893000000008,204.32927760755436,1.0477377986799177,59.525117746623856,1.01389368884279,-133.869968,53.0808224,103.0973094
2317.918,15.9832506,200.4992186,27.9352508,-0.606179,-0.0654978,0.9200308,-4.0688636,27.189422200000003,-133.8927062,59.5443642,10.832812,-10.626047,-1.0270328000000002,-0.1874412,-0.0895608,-136.9750244,75.92383559999999,-30.87267760000001,203.06594789922775,1.1037208047302904,61.447489766920455,1.0478319104846543,-132.9061608,48.7344134,103.02002859999996
2337.899,17.093429199999996,199.1650726,26.05063,-0.6527138,-0.0692431999999999,0.9380062,-3.5935354000000004,31.2123836,-133.60553880000003,69.6398978,-3.666047399999999,-8.4949158,-1.0356964000000002,-0.2052698,-0.0992492,-134.6564148,75.866641,-29.92504200000001,201.58756605747183,1.144851761886717,70.25182462813747,1.060496641892675,-131.0628794,44.6542574,103.6804968
2357.882,18.9309944,196.3498016,24.2495658,-0.7512376,-0.0541996,0.9119756,-3.0521226,35.1772294,-133.3022704,74.4426726,-16.9722582,-4.987239799999999,-0.9822046,-0.18273,-0.1110728,-131.6876908,76.02885260000001,-28.40290940000001,198.74523536130556,1.182791200207915,76.51562986123137,1.005213060033046,-128.63556820000002,40.85162319999999,104.899361
2377.864,19.4486474,191.7192718,22.8636994,-0.8398192,-0.0404546,0.90187,-2.4577506,39.0506848,-132.9582488,59.7496662,-26.4750326,-0.5440403999999998,-0.952908,-0.0902451999999999,-0.10694,-128.6455002,76.36999180000001,-26.50056380000001,194.05483198175037,1.233005417769849,65.35476984994528,0.9631272066487584,-126.1877496,37.319307,106.457685
2397.846,19.487277,185.939151,20.6128152,-0.9063306,-0.0362324,0.8924384,-1.8358804,42.81160580000001,-132.59865399999998,23.7898058,-31.733865400000003,10.9037958,-0.9757280000000002,-0.0362715999999999,-0.1214214,-126.517868,76.947621,-24.799503800000004,188.09043035185195,1.2724756347768231,41.13253986900309,0.9839227181687188,-124.6819876,34.1360152,107.7991502
2417.828,18.247368,178.2021728,17.275675,-0.9646173999999998,-0.0249736,0.8801756000000001,-1.2260712,46.412503,-132.23615999999998,-15.273295400000004,-32.1143768,16.6474942,-0.9944,-0.0613467999999999,-0.1603,-125.4331238,77.60340120000001,-23.36697580000001,179.9650793245015,1.3060702492266945,39.26507115448886,1.009103998540408,-124.2070526,31.1908982,108.8691842
2437.81,16.9899216,167.8840728,14.819401,-1.0322314,-0.0123112,0.8307396,-0.6203339999999999,49.805690000000006,-131.8547698,-47.3476788,-32.019178,15.8515388,-0.977213,-0.0727507999999999,-0.1866564,-124.8240782,78.2199296,-21.768977800000005,169.39106818805013,1.3250590597401914,59.31527400148767,0.9975362338935866,-124.2037442,28.4142396,110.085792
2457.792,15.401114799999998,156.8746704,12.2489716,-1.0525956,0.0142389999999999,0.7767221999999999,-0.0177284,52.9688506,-131.4539002,-72.39140660000001,-30.2921244,13.9894294,-0.998396,-0.0598421999999999,-0.1869384,-124.6428802,78.78964260000001,-20.100286000000004,158.1040602117764,1.308226900133612,79.71093203023776,1.0175075562920406,-124.6251518,25.820792,111.3536142
2477.774,13.8927834,146.188559,9.7529314,-1.0514364,0.0112523999999999,0.7306784000000001,0.5557323999999999,55.9025184,-131.0577028,-83.3648286,-28.5228816,9.9479776,-1.0352701999999998,-0.1175077999999999,-0.2060888,-124.568213,79.27626360000001,-18.318160400000004,147.17073039157242,1.2804436902797718,88.66911345336152,1.0621040737867071,-125.1239454,23.3737452,112.7395424
2497.756,13.9958768,135.80099339999998,7.798050600000001,-1.0420007999999998,0.0222966,0.6890332,1.1479492,58.61256480000001,-130.6498598,-74.35760660000001,-27.0319716,-0.224144,-1.0198329999999998,-0.1696418,-0.2158832,-123.8511964,79.5708512,-16.065203000000004,136.7428388215916,1.2494116840635194,79.11909623091196,1.0561454654726683,-124.9991456,20.9582864,114.5846568
2517.738,14.1358292,125.301152,6.150775600000001,-1.0358224,0.0236565999999999,0.642038,1.7504985999999998,61.1011826,-130.25326560000002,-60.0309846,-22.939019,-4.9315348,-0.94644,-0.1502933999999999,-0.241264,-122.8981034,79.7461654,-13.864291800000007,126.24592033083776,1.2188931341628435,64.4533764841797,0.9882029636565354,-124.648602,18.6449828,116.3889738
2537.743,13.9310658,112.78057099999998,4.810968600000001,-1.0535152,0.0225039999999999,0.6130816,2.3529624,63.3304666,-129.8653292,-51.65588620000001,-12.192857,-3.9790828,-0.90814,-0.1267329999999999,-0.283657,-122.7593934,79.823706,-12.665015800000006,113.73951471797368,1.219126636123418,53.22433128616137,0.9598129018397284,-125.1123558,16.4932394,117.2003134
2557.702,12.46742,96.52781360000002,3.1195462000000003,-1.077062,0.0218649999999999,0.6008474,2.889242,65.2240922,-129.5305512,-46.2209528,-0.5060026000000001,-1.2523847999999995,-0.9212344,-0.1373751999999999,-0.3053962,-123.712178,79.7998946,-12.689283600000005,97.37960221908222,1.2335145836818306,46.24068537617393,0.9802099796945756,-126.60142,14.5758024,116.8412676
2577.684,7.7453664,77.6122596,1.7861074,-1.0887248,0.0197581999999999,0.6280634,3.2843468,66.7441918,-129.260257,-37.4972444,10.458792,1.4266096000000004,-0.9490812,-0.1753315999999999,-0.2983594,-125.510118,79.6785552,-13.756261400000003,78.0182268481691,1.2570504011462071,38.95465161753352,1.010205239404528,-128.7944648,12.9343634,115.5039956
2597.666,-0.7204104000000016,57.787389,1.0898938,-1.07619,0.0114083999999999,0.6766014,3.4600644,67.87113959999999,-129.05439159999997,-26.1886356,18.1681544,2.5557962000000005,-0.9825302,-0.2075866,-0.2710793999999999,-127.7136778,79.4790116,-15.470356200000008,57.80215555735813,1.2712609968737814,31.975905977904063,1.0401643290922642,-131.1737422,11.607872,113.5840354
2617.648,-11.079042200000002,37.9368558,0.9537837999999998,-1.0530776,0.0142569999999999,0.6896544,3.3942752,68.6091278,-128.89377759999996,-17.735305200000003,20.662689,1.4898120000000006,-1.0054922000000002,-0.1932708,-0.2312346,-129.8774336,79.21851360000001,-17.315565200000005,39.53302300098637,1.2588879557411454,27.270997543969894,1.049684527194071,-133.2717088,10.609385800000002,111.5782124
2637.63,-21.305830800000003,19.0561714,1.3658414,-1.0249888,0.0190702,0.689659,3.1075566,68.9628112,-128.7586762,-14.900427,19.8909288,1.1584514000000004,-1.0117294,-0.1669512,-0.1988636,-131.8767546,78.95011439999999,-19.050243,28.61715599486365,1.235554632112429,24.879987599578108,1.0445170239927926,-134.9843112,9.9873032,109.7084332
2657.612,-29.318591200000004,1.7188197999999992,2.0602488,-1.002833,0.0141395999999999,0.6811246,2.6508554,68.9664124,-128.6354432,-16.7416448,18.005028799999998,-0.6108839999999996,-1.0026912,-0.1551078,-0.203539,-133.5582214,78.66630239999999,-20.42467120000001,29.441106578651063,1.2123550119095974,24.59343229318861,1.034831482271041,-136.2090768,9.69989,108.210772
2677.594,-34.1834676,-14.706358,2.4200235999999995,-1.0009036,0.0098231999999999,0.657186,2.0738398,68.6226228,-128.5328278,-19.6086424,15.4396048,-1.2774909999999997,-0.9939318,-0.1520887999999999,-0.2178684,-135.0064972,78.3973342,-21.503257800000007,37.29132522462792,1.197413024126262,24.990242824077196,1.0288333518384989,-137.080337,9.7747114,107.02957
2697.576,-37.1907218,-30.6564614,2.3672928,-1.0075278,-0.001173,0.6207984000000001,1.4086276,67.94675,-128.4504792,-21.8028338,13.652903599999998,-1.3739437999999995,-0.9933980000000002,-0.1536423999999999,-0.2233814,-136.32238160000003,78.1510572,-22.402488000000005,48.25528456838294,1.1834290418712905,25.76146463202109,1.029730461503262,-137.73100920000002,10.204307200000002,106.0479912
2717.559,-36.9463188,-45.7598542,1.6839212000000003,-1.0070533999999998,-0.01116,0.6221222,0.7156389999999998,66.966704,-128.3908174,-22.241901,11.2659024,-1.1718845999999996,-0.9985726,-0.1505985999999999,-0.2137828,-137.4469728,77.9487944,-23.098141600000005,58.83732080817668,1.183772413846682,24.95988843115778,1.032245252528952,-138.16261179999998,10.982090400000004,105.2926758
2737.54,-34.565205000000006,-60.0866954,-0.4388906,-0.9982166,-0.027391,0.6529442,-0.0089894000000001,65.7098856,-128.40561540000002,-20.255109,9.170784,-1.5183019999999996,-0.9958446,-0.1594098,-0.2038002,-138.35152920000002,77.77109680000001,-23.609264200000005,69.32068223656758,1.1931147370266617,22.286272921683,1.028908389121811,-138.3425398,12.061211200000006,104.7963512
2757.522,-31.809609200000004,-74.352017,-3.2114162,-0.9985008,-0.0434842,0.6786331999999999,-0.7630422000000001,64.170559,-128.4984834,-20.2403526,7.1566604,-2.1663322,-0.9747800000000002,-0.167275,-0.1994728,-139.07117940000003,77.60908959999999,-23.931084200000008,80.93446029618433,1.2080719115154197,21.57736445106334,1.0089431956085737,-138.3081372,13.438530600000009,104.5673992
2777.514,-28.2246776,-88.9606976,-6.3600166,-1.0002284,-0.053636,0.7078635999999999,-1.5049942,62.342533200000005,-128.6506654,-22.484558,6.844596,-1.1481167999999995,-0.9626196,-0.1459482,-0.196485,-139.894803,77.470433,-24.31273060000001,93.54724984869873,1.2265417028652223,23.53129862640441,0.9932490758175414,-138.38980880000005,15.127899800000003,104.3379348
2797.486,-23.7234274,-104.013313,-10.2001928,-1.0046302,-0.056552,0.7544846,-2.2158556000000003,60.2090554,-128.87924800000002,-25.845270400000004,7.3451786,1.3472502000000002,-0.969289,-0.1207293999999999,-0.1983272,-141.01343100000005,77.3633362,-24.926577800000008,107.1709579223598,1.2576672767839672,26.9025042294656,0.9967098032051256,-138.7975754,17.154280800000002,103.9526702
2817.468,-20.1639068,-119.1121122,-14.3443604,-1.0012882,-0.0708986,0.7932189999999999,-2.9190762,57.7581918,-129.19189139999995,-27.6915346,7.592123599999999,3.143163,-0.9804934,-0.1407961999999999,-0.1899834,-142.2375948,77.274063,-25.614116200000005,121.65541124614867,1.279375258828386,28.884959804459537,1.0086052595805557,-139.3185186,19.515871200000003,103.5777752
2837.45,-17.5865876,-133.4993804,-18.0547492,-0.9867178,-0.077742,0.8265255999999999,-3.5966132,55.0057352,-129.5519866,-26.6977252,7.8649372,4.0042686000000005,-0.9913716,-0.1633788,-0.1748824,-143.42529,77.1910398,-26.288845400000003,135.8578175861488,1.2894961817920203,28.11867591184913,1.0198500553540997,-139.8286768,22.1853046,103.2631412
2857.433,-16.248251000000003,-146.0734268,-21.6262996,-0.9574718,-0.086711,0.8701000000000001,-4.247404,52.000632,-129.9378814,-18.7438284,7.298807600000001,5.981544599999999,-1.0069266,-0.1715276,-0.1525586,-144.4872438,77.148323,-27.00119100000001,148.55688645109294,1.2966669022213224,20.98529416692207,1.03276184175408,-140.2398398,25.147691000000005,102.9366904
2877.415,-15.815456400000002,-156.752414,-25.0842482,-0.9212428,-0.091861,0.9004405999999999,-4.8755888,48.7851496,-130.3354614,-6.5079252,5.8996868000000005,7.002292200000001,-1.0073718,-0.1800736,-0.142612,-145.2573122,77.1385056,-27.667138200000004,159.5326532836676,1.2914797768456152,11.23349860021668,1.033229223065337,-140.3817234,28.35335600000001,102.6683232
2897.397,-15.7162474,-166.0384004,-28.2418836,-0.8889468,-0.1007826,0.9264466,-5.479864000000001,45.3912546,-130.7246826,6.512221199999999,5.1130612,8.5020376,-0.9987074,-0.1818186,-0.1378366,-145.81787119999998,77.1564224,-28.386072200000008,169.15482502430925,1.287900170178015,11.867479224523152,1.0244380910627446,-140.3380072,31.765167800000008,102.33861040000002
2917.379,-15.5622756,-174.62961439999998,-31.433464200000003,-0.8570804000000001,-0.1041194,0.9502652,-6.054627000000001,41.8346016,-131.1031098,19.018895800000003,3.9807856,10.8247216,-1.0049652,-0.159115,-0.1310998,-146.2783874,77.22817380000001,-29.257458600000007,178.11723476114184,1.2839126184641851,22.242743741767374,1.025894631039699,-140.2237604,35.39357220000001,101.8456512
2937.361,-15.0740744,-182.7051148,-34.9150144,-0.8249169999999999,-0.1127564,0.976977,-6.6011246,38.124861800000005,-131.48230600000002,30.8849148,-1.73636,13.5413728,-1.0229506000000002,-0.1364156,-0.1140558,-146.45115660000002,77.4350464,-30.07520640000001,186.62112668090427,1.2836222657616063,33.76776103862142,1.0382898783467749,-139.850032,39.3101846,101.4070996
2957.343,-13.324732200000003,-190.4034058,-38.6728888,-0.7894548,-0.1161714,0.9908804,-7.0921014,34.2720384,-131.8673586,44.309554,-18.4122198,16.1501408,-1.0585372,-0.1253086,-0.0919996,-145.5952178,77.95125420000001,-30.114885000000005,194.74752310768517,1.2722337216585482,50.62779336987,1.0698911979346124,-138.5031164,43.6792158,101.7524736
2977.325,-11.663059,-196.7449464,-42.6305442,-0.7420526,-0.1193556,1.0036522,-7.5316776,30.2985284,-132.2691102,57.03169519999999,-37.9171402,18.3449944,-1.0866648,-0.1107502,-0.0629994,-143.1782134,78.80604079999999,-28.823198400000003,201.6481196985593,1.2538762135804953,70.90037092898872,1.094109189596468,-135.6465358,48.5075124,103.4459118
2997.307,-9.5259946,-201.521045,-47.1560302,-0.6794756,-0.1254864,1.0116770000000002,-7.917747800000001,26.229561,-132.70808419999997,67.9483132,-57.2576212,18.5854272,-1.1086186,-0.0880862,-0.0371486,-138.5501784,79.9402664,-25.50712960000001,207.1838973840259,1.225122148975081,90.7789984325366,1.1127328508579046,-130.6324306,53.71070540000001,107.2009546
3017.295,-7.176764800000001,-205.1204834,-51.731398,-0.6178816,-0.1335746,1.0152126,-8.247058599999999,22.086136000000003,-133.1933472,75.9906348,-72.959093,18.0943278,-1.1110906,-0.0916986,-0.0073252,-131.25082400000002,81.22518620000001,-19.649772800000008,211.6649621507504,1.1959416660449955,106.88784087642276,1.1148921980197726,-123.0037654,59.1390502,113.54357439999998
3037.271,-5.538547800000002,-207.60331420000003,-55.42436,-0.5508942,-0.1367476,0.999202,-8.525895199999999,17.8751174,-133.7133636,81.97392579999999,-83.2774536,17.39298,-1.0988038,-0.1159921999999999,0.0120085999999999,-121.030954,82.4954804,-10.966508400000006,214.9457402694141,1.1491688137534015,118.14133291293297,1.104974292836372,-112.5050588,64.620363,122.7468552
3057.253,-5.200084800000002,-208.8384278,-57.6842088,-0.4755964,-0.1487344,0.9917286,-8.7712924,13.618497,-134.2464416,87.2041076,-81.7633194,18.769399,-1.0747236,-0.1445666,0.0255669999999999,-108.2113266,83.53209380000001,0.2226265999999945,216.72101363916005,1.1098826395138723,121.00449214983712,1.0847045633358052,-99.4400342,69.91359680000001,134.46906819999998
3077.235,-5.529268000000001,-209.5019012,-58.849971,-0.4035312,-0.1638764,0.9790628,-8.9907916,9.3290038,-134.77591560000002,94.6820068,-76.40838020000001,22.5937444,-1.0525458,-0.1520092,0.0412091999999999,-92.8836906,84.2683488,13.771104199999993,217.68081793702277,1.0715674827999588,123.7473242639029,1.0642639034313433,-83.89289900000001,74.939345,148.5470198
3097.217,-5.893324000000002,-209.690872,-59.19244,-0.330491,-0.1668556,0.950664,-9.1776614,5.0191452,-135.2899752,103.0205078,-70.1526002,29.351124,-1.0310348,-0.1387794,0.0645353999999999,-75.49156719999999,84.699736,29.205118199999998,217.96499265029453,1.02020935754793,128.04726011225026,1.0423326237476018,-66.3139058,79.6805908,164.4950934
3117.199,-6.090448600000001,-209.1677306,-59.3817908,-0.2518242,-0.1706972,0.9338604,-9.3250142,0.7023724,-135.792792,109.9187608,-65.2046068,37.7945426,-1.0313085999999998,-0.1112556,0.0760897999999999,-57.0297118,84.8361176,45.5503478,217.5188041690152,0.9821650617292595,133.27491202058036,1.0400792732428426,-47.7046976,84.13374519999999,181.3431398
3137.182,-5.301281800000002,-207.6408722,-59.9956304,-0.1731304,-0.1770305999999999,0.9091584,-9.4142054,-3.5876938000000003,-136.3033236,115.4652328,-60.63841560000001,46.7830364,-1.0218332,-0.0779417999999999,0.0927541999999999,-38.7132026,84.6922242,61.6174382,216.199701812452,0.9422754188829716,138.55645032563532,1.0289904540019408,-29.2989972,88.27991800000001,197.9207618
3157.164,-3.633456400000001,-204.753305,-60.1825948,-0.0984303999999999,-0.169424,0.8609904,-9.4315982,-7.8137272,-136.8252322,118.6002854,-57.777437,53.76865840000001,-1.0202544,-0.0499316,0.1067119999999999,-21.5036348,84.2200914,76.4973924,213.44569011974616,0.883004815565759,142.46167396667187,1.0270343988114128,-12.0720366,92.0338186,213.3226246
3177.146,-0.5003522000000012,-200.2768676,-59.2730582,-0.0173228,-0.1581967999999999,0.8302346,-9.3542436,-11.9340282,-137.34955759999997,117.5881714,-56.344180400000006,56.3156708,-1.028221,-0.0162386,0.1285266,-6.66071,83.4131668,89.017466,208.8644763390189,0.8453495123126529,142.03203686421418,1.036349942769584,2.6935336000000007,95.347195,226.3670236
3197.128,1.0474673999999986,-194.5391968,-57.6284758,0.0576078,-0.1482376,0.8052042,-9.2115284,-15.9221486,-137.8750916,107.8570358,-53.653148,54.4276886,-1.0123426,0.0266117999999999,0.1463673999999999,4.947429399999999,82.387558,98.4915634,202.89809635029687,0.8207599212755458,132.18991545579777,1.0232151012650077,14.1589578,98.3097066,236.366655
3217.11,1.5448865999999986,-188.2913056,-55.5582282,0.1161109999999999,-0.1368094,0.7744918,-9.0238424,-19.7727676,-138.4007264,92.0959578,-49.7690704,51.12262199999999,-0.9895436,0.0638388,0.1492271999999999,13.5135412,81.267314,105.2402954,196.3229970224648,0.7950069965205336,116.4995634830209,1.0027665161473232,22.5373836,101.0400816,243.6410218
3237.092,1.8275625999999985,-181.518982,-53.843882,0.174429,-0.1190587999999999,0.7370958000000001,-8.784373200000001,-23.4701324,-138.9436556,75.0774326,-47.216830400000006,45.4068092,-0.9728754,0.0966344,0.1475689999999999,19.420957,80.1264524,109.66976,189.3453047746449,0.7667533451352398,99.63848794795668,0.9887372557709758,28.2053302,103.5965848,248.6134156
3257.074,1.4427307999999983,-174.72823799999998,-52.7219466,0.2310304,-0.1116446,0.7276746000000001,-8.5027536,-27.0220798,-139.520514,57.585575000000006,-44.3019606,37.1356904,-0.964566,0.1190976,0.1457767999999999,23.0641212,79.0478712,112.1787306,182.51477277206675,0.7715891950503715,81.59547574816406,0.982762780176376,31.566874800000004,106.06995100000002,251.6992446
3277.056,-0.5515372000000014,-167.8056032,-52.7680312,0.2832963999999999,-0.1039331999999999,0.698345,-8.1986816,-30.4437842,-140.16064160000002,41.4316948,-40.6075896,26.791237,-0.952731,0.1282294,0.1403627999999999,25.0073318,78.1101836,113.2974852,175.9076171611764,0.760752718917389,63.90095497809516,0.971514720943126,33.2060134,108.5539678,253.4581268
3297.038,-2.054226000000001,-160.7320772,-52.8800086,0.331463,-0.102446,0.6855324,-7.8601646,-33.7238714,-140.8689972,31.3413778,-36.8133654,18.7767426,-0.9611634,0.104696,0.1245503999999999,25.9929454,77.3154068,113.6498092,169.21972637674932,0.7683212705208415,51.86590303024622,0.9748380050324874,33.85311,111.03927819999998,254.5188064
3317.02,-3.498031400000001,-152.9669068,-53.115348,0.3836912,-0.0916858,0.647892,-7.470032600000001,-36.847644,-141.6610718,29.0883414,-34.6014186,12.2816646,-0.9534746,0.087211,0.1249015999999999,26.3254328,76.6241364,113.3859312,161.9640422834537,0.7585441757360477,46.84259877379001,0.9655671810126524,33.7954654,113.4717804,255.047003
3337.002,-5.312438200000001,-144.953711,-52.412384,0.4335066,-0.0868992,0.6270594,-7.041582199999999,-39.817656,-142.5213286,29.5418826,-30.576395,7.195143599999999,-0.9626186,0.084954,0.1301969999999999,26.379085,76.0555498,112.8287718,154.22988792339763,0.7672567590660639,43.12086328185961,0.9750912829017396,33.4206672,115.8732058,255.35010040000003
3356.984,-6.8491762000000005,-136.7429108,-51.56789260000001,0.482745,-0.078136,0.6074916,-6.5623294,-42.6263634,-143.45415020000002,29.9773772,-25.18868,4.4628306,-0.9624038,0.0955128,0.1375931999999999,26.4483466,75.6071046,112.2785232,146.30373343110742,0.7798679462521587,39.408496557186446,0.9768703383277232,33.010676,118.233468,255.7326734
3376.966,-7.915090400000001,-128.8990006,-50.5893632,0.5222406,-0.066828,0.5823820000000001,-6.017442,-45.2784798,-144.46257299999996,29.572661,-18.480629200000003,3.617178800000001,-0.9472466,0.0929728,0.1367312,26.702766399999994,75.2902604,111.9266418,138.69709687192622,0.7850923638632338,35.0593770155715,0.961569281853804,32.7202084,120.5687402,256.38921480000005
3396.948,-8.799831000000001,-121.4363922,-49.205063,0.5626106,-0.0489818,0.5401814,-5.4054828,-47.7880464,-145.541342,30.3012478,-13.7451726,1.8330286,-0.9344768,0.0925012,0.1452395999999999,27.0118896,75.0725296,111.6160796,131.3216379771999,0.7814895065639461,33.32349594339126,0.9502093996313864,32.4173724,122.860576,257.1574216
3416.93,-9.886902,-114.4245438,-47.0424676,0.6053592,-0.0402603999999999,0.5195116,-4.750770999999999,-50.1543816,-146.6659268,31.6089932,-8.4029114,0.3252636000000003,-0.9340884,0.0946066,0.155908,27.4171516,74.959932,111.3784058,124.11172713685347,0.7987320973689238,32.70845712538855,0.9517241471361962,32.1679226,125.1143136,258.0443326
3436.912,-10.8813836,-107.7729996,-44.503843,0.64477,-0.0285696,0.4997955999999999,-4.057610599999999,-52.3821884,-147.8273862,32.4385556,-3.187303,-1.9302071999999997,-0.9341222,0.095381,0.1617359999999999,27.8594776,74.95898580000001,111.1624726,117.1068571587531,0.8162966475023157,32.65186808841161,0.952806566617716,31.9170882,127.3411742,258.9898588
3456.895,-12.136933600000004,-101.3153566,-41.5417144,0.6782728,-0.0126527999999999,0.4689774,-3.3416976,-54.4783126,-149.01272260000002,32.7828266,2.0455564,-4.6817234,-0.9224776,0.0977026,0.1633599999999999,28.310022,75.07322980000001,110.9480454,110.17177803542585,0.8247144271070077,33.1785556476673,0.9419114661944188,31.6517196,129.55154240000002,259.96076800000003
3476.877,-13.646932,-94.9722368,-38.021477,0.710902,-0.0001756,0.4466835999999999,-2.6322706,-56.44066780000001,-150.1955566,31.8590396,6.429158200000001,-3.2542754,-0.9339178,0.1005492,0.1649282,29.002333799999995,75.2481444,111.0023912,103.20657551275222,0.8395879483105507,32.66378403942263,0.9536843869607596,31.6346044,131.6888122,261.1979478
3496.859,-14.312310200000002,-88.9553362,-34.5638248,0.7401344000000001,0.0045477999999999,0.4290433999999999,-1.9316504,-58.27359320000001,-151.35990299999995,30.2351432,11.5293798,-0.4267632,-0.9288396,0.1059892,0.1641475999999999,30.0650344,75.4785262,111.47209639999998,96.5015649951914,0.855510287274069,32.36159158209047,0.949168661319241,31.996684800000004,133.7521194,262.8319994
3516.841,-13.9669536,-83.4103868,-31.227113000000003,0.7648643999999999,0.0155472,0.4082058,-1.2174118000000005,-59.9886894,-152.5084718,27.1788824,16.5726182,0.5743730000000001,-0.9267464,0.117829,0.1587647999999999,31.3897758,75.7781158,112.27299659999998,90.15265390050888,0.8671166247794122,31.83823529750244,0.9476016171751714,32.6071876,135.7668052,264.7814684
3536.823,-14.0748828,-77.85340579999999,-28.0176074,0.7867198,0.0287267999999999,0.3889414,-0.5000282,-61.58552480000001,-153.6414308,24.159174,20.6946384,2.2578842000000003,-0.9258684,0.1252992,0.1567488,32.993558799999995,76.1216996,113.42249459999998,83.92997941685523,0.8780823909999789,31.890935827122416,0.9473660168808252,33.493587000000005,137.7072244,267.0639254
3556.805,-14.3183034,-72.4157302,-24.829593600000003,0.8078496,0.0378847999999999,0.371772,0.199288,-63.0671158,-154.7423768,20.4446232,25.484912200000004,4.1733298,-0.93883,0.1353182,0.1539761999999999,34.9578356,76.5119554,115.0169068,77.8817084493837,0.8900958680250122,32.937517351058126,0.9609482058454972,34.7585476,139.5790712,269.7592836
3576.787,-14.082068,-67.0435508,-21.7432104,0.8252430000000001,0.049621,0.3611946,0.8817716000000001,-64.4321242,-155.804062,17.9014258,32.0891618,5.9640156,-0.942976,0.1475514,0.1472149999999999,37.4776962,76.9622346,117.228711,71.87426202422863,0.9021916602137044,37.22559378675548,0.9657367179738792,36.5959246,141.39435880000002,273.032773
3596.769,-14.028712000000002,-61.6537086,-18.651064,0.8373377999999999,0.0639512,0.3396566,1.5304756,-65.6877662,-156.8137512,14.098352200000004,39.01816,8.008702199999998,-0.9331792,0.1463148,0.1357565999999999,40.6532296,77.4603562,120.1846406,65.92303643526104,0.9058647543722184,42.25304315039486,0.9542857509442546,39.122754,143.1481224,276.9983918
3616.751,-13.947619400000002,-56.2432648,-14.8955204,0.8526362000000001,0.0711096,0.3141614,2.0860662000000003,-66.8396546,-157.7107178,10.213325199999998,42.3999188,6.830270799999999,-0.92123,0.1494308,0.1231853999999999,44.1156098,77.9925156,123.508548,59.8307400111096,0.9114507392133488,44.144283039697015,0.9413654548908196,42.0295436,144.8321702,281.2192658
3636.733,-12.592411600000002,-50.8704926,-10.5395814,0.8659466,0.0792802,0.2900494,2.5249848,-67.890149,-158.4443726,6.752991799999999,43.4993248,2.0308092,-0.906552,0.1530998,0.1034347999999999,47.5134362,78.5895172,126.8333604,53.455202023354985,0.9166665252991189,44.06720256963864,0.9251890808451426,44.9884514,146.47966620000005,285.277733
3656.715,-10.723386400000004,-44.8421372,-5.867625,0.8806986,0.0834466,0.2654134,2.8047484000000003,-68.82951820000001,-158.9619722,3.7831934,41.9155056,-3.4764626,-0.9055008,0.1514828,0.0836385999999999,50.6258646,79.22708279999999,129.9238298,46.478353108602654,0.9236003637900324,42.22923103982162,0.9218861930338474,47.82111619999999,148.056601,288.885802
3676.698,-7.914870600000002,-37.8232136,-0.9440393999999998,0.8946656000000001,0.081102,0.2403912,2.8893386,-69.64060839999999,-159.209134,0.2536791999999998,37.1183716,-10.731119,-0.912937,0.1467176,0.0658523999999999,53.0877886,79.887442,132.41893620000002,38.65400204422204,0.9299419332758364,38.63929060379293,0.92699328946035,50.19845,149.52805039999998,291.6280702
3696.68,-4.122481000000001,-29.568174600000003,4.368131,0.9077568,0.0804832,0.2185248,2.7514094,-70.29886339999999,-159.1379334,-1.9800126,28.758894999999995,-17.555625,-0.9389112,0.1508302,0.0534793999999999,54.604136800000006,80.5283142,133.9930176,30.17204612227363,0.9371515574567008,33.75195491609054,0.952451592965144,51.852727400000006,150.8271776,293.130951
3716.662,0.7213561999999986,-19.7572828,9.7054914,0.9111402,0.0813199999999999,0.2005656,2.3897362,-70.770157,-158.72640080000002,-6.6970904,22.708127,-20.1227724,-0.9530376,0.1451966,0.0372107999999999,55.495540000000005,81.134349,135.0251008,22.024239867063024,0.9364913060778514,31.071466343513677,0.9647524881035344,53.1058038,151.90450600000003,293.7515016
3736.644,6.120292399999999,-8.5859956,14.7795336,0.9082594,0.0749392,0.1913028,1.8097802,-71.0213716,-157.9710022,-14.156237800000005,18.9390398,-18.266307,-0.9656324,0.139856,0.0226345999999999,56.138335600000005,81.6675582,135.9543488,18.15521723742919,0.9312077011455824,29.87882642632374,0.9759702648046814,54.328555400000006,152.6889298,293.925351
3756.626,12.158351,3.6198916,19.4980732,0.897635,0.0683386,0.1828951999999999,1.0556474,-71.0296358,-156.90437920000002,-22.994724,16.429554399999997,-16.540607,-0.967837,0.126746,0.0121651999999999,56.5528078,82.1472076,136.83045339999998,23.26164166062898,0.9186236507177464,32.74567558544462,0.9761767253812396,55.497160400000006,153.1768434,293.7348326
3776.608,17.422616599999998,16.422129,24.5310606,0.8867228,0.058464,0.1865013999999999,0.1204681999999999,-70.7742418,-155.5344634,-30.8806286,13.7436968,-16.9493358,-0.9602516,0.10742,-0.0001922,56.4886086,82.6120162,137.3830046,34.27837254369158,0.9080077838530902,37.81246366639749,0.9662412890388196,56.3681404,153.386258,292.917468
3796.59,22.3284564,29.8539994,29.7619078,0.8727302,0.0448956,0.1937372,-0.9666464,-70.23776260000001,-153.89703060000002,-38.7625686,12.5795534,-18.7104758,-0.9554028,0.0949858,-0.0107856,55.93999720000001,83.0984176,137.6071898,47.703169719397074,0.895102072143306,44.84265595251404,0.9601734955813142,56.9066436,153.3361802,291.5042204
3816.572,27.4531894,43.8393806,34.8125776,0.8537068,0.0352994,0.2028392,-2.1186606,-69.40553460000001,-152.07435300000003,-44.4462684,10.8459994,-20.377897,-0.9514348,0.0982658,-0.014634,54.849717,83.5872436,137.4018096,62.34969493734472,0.8781828335052103,50.08358177898469,0.956607808904297,56.9683776,152.9927782,289.4761626
3836.554,32.378044,58.22235980000001,39.084833200000006,0.8269527999999999,0.0327074,0.2164828,-3.2272162,-68.2663866,-150.17975760000002,-48.9966896,9.080841199999998,-20.3118954,-0.9652588,0.1095178,-0.0134942,53.3745636,84.0468704,136.9019714,77.23862440656498,0.8554446271608934,53.81180505612971,0.9715455691463576,56.6017798,152.31325700000002,287.081729
3856.536,37.0959292,73.09382860000001,42.123945,0.7921001999999999,0.0305864,0.2362944,-4.1938498,-66.80875040000001,-148.3198852,-52.08982999999999,10.3033758,-18.9153098,-0.95098,0.1275676,-0.0292868,52.1507744,84.49637,136.7154664,92.15878951559976,0.827159777900473,56.367533981316775,0.9599448784300064,56.3446242,151.3051204,285.0353516
3876.518,42.0672098,88.9268646,43.255845,0.7477138,0.0320742,0.259819,-4.8929056,-65.0143908,-146.62155460000002,-53.921138,15.0599598,-14.5315822,-0.9379068,0.1427912,-0.0496644,52.358246,84.92308519999999,137.9963838,107.4649036411794,0.792218778985376,57.83993770421971,0.9500131814406788,57.2511516,149.937476,284.6179384
3896.501,45.5678182,105.347313,42.8267114,0.7003448,0.029229,0.3015792,-5.2888102,-62.86595619999999,-145.1552522,-53.822637,22.320182600000003,-8.807514600000001,-0.9351574,0.1476568,-0.0679114,55.104364200000006,85.3172776,141.8100374,122.50963072822933,0.7630774450871156,58.9291024737381,0.9491753534573892,60.3931744,148.1832338,286.96528960000006
3916.483,47.7206916,121.8001986,41.4052766,0.6538923999999999,0.0235662,0.343156,-5.3924808,-60.369152,-143.93939519999998,-55.0208274,31.854353600000003,-1.0949944000000005,-0.9440836,0.1315424,-0.0800426,61.379783800000006,85.624582,149.17237859999997,137.2113323166285,0.7388414423245354,63.58608577189239,0.9565584480843188,66.7722646,145.993734,293.1117738
3936.465,48.5251082,138.333867,40.0611284,0.6176416,0.0113896,0.3841186,-5.2810106,-57.5309752,-142.9220216,-53.1415076,44.8024822,4.3102012,-0.9384888,0.089845,-0.0894204,71.6825846,85.8255234,88.5251526,151.97315188439268,0.7274324490319909,69.6409367805076,0.9470107495095292,76.9635952,143.35649859999998,231.4471742
3956.447,47.244458,154.4705964,40.2778374,0.5937721999999999,-0.0087672,0.431577,-5.0827008,-54.3616652,-142.0070984,-50.750798,57.140725800000006,7.1779618,-0.9546472,0.0342436,-0.08093,85.2845728,85.8093566,31.140341199999988,166.47975297166408,0.7340987646207285,76.76085707044867,0.9586832456597956,90.3672736,140.1710218,173.1474396
3976.429,45.0792824,168.51004959999997,42.193820200000005,0.578267,-0.0397424,0.4710924,-4.8923886,-50.9125334,-141.1068084,-46.1793868,63.9035584,10.0176568,-0.9630312,-0.0102135999999999,-0.0552168,99.6935014,85.5026046,-25.51216740000001,179.46614438652026,0.7469271925593016,79.47675124946169,0.9646669398298254,104.58589,136.415138,115.594641
3996.411,43.664595,179.94814780000002,44.9748122,0.5651882,-0.0582134,0.5088812,-4.7102976,-47.2407646,-140.19227899999998,-42.5039948,68.06520680000001,13.551246,-0.9762106,-0.0096909999999999,-0.0217834,113.0590088,84.87852480000001,-83.26153260000001,190.5535790416699,0.7627493540293824,81.38241959316343,0.976501698692286,117.7693064,132.1192894,56.9307464
4016.393,40.9281134,189.1591158,47.6356848,0.5483323999999999,-0.0675757999999999,0.5545316,-4.5588494,-43.3865768,-139.26135859999997,-41.7699432,71.4488738,13.3179766,-1.0039492,0.0116076,0.0030417999999999,124.2270142,84.0157012,-143.20122680000003,199.31241813566467,0.7827772384490749,83.82743120803417,1.0040209086994352,128.7858636,127.402278,-3.939868200000012
4036.375,35.048498800000004,195.676459,49.9401816,0.5245408,-0.0857431999999999,0.6218838,-4.5012558,-39.395441000000005,-138.3152832,-48.8293274,69.9593132,5.6484554000000005,-1.0345914,0.028071,0.0219681999999999,132.8557618,83.0855316,-133.5186386,204.96754770732184,0.8180674837159341,85.50154247823762,1.0352052684401294,137.3570176,122.4809726,4.796644599999991
4056.357,28.4135452,199.3201998,51.1783302,0.4934654,-0.097647,0.6707338,-4.5217662,-35.332339,-137.3903322,-60.8000184,62.9668006,-3.019653199999999,-1.0437254,0.0647234,0.0264433999999999,138.8835846,82.2266724,-126.18929300000002,207.73803956234065,0.8384073401805354,87.58183898896374,1.0460645689995811,143.4053508,117.5590114,11.201039199999991
4076.339,21.862497,200.79171760000003,52.14409400000001,0.4489024,-0.0975767999999999,0.7205123999999999,-4.596801999999999,-31.234139200000005,-136.5029298,-75.32326900000001,55.390016200000005,-14.4867338,-1.0659459999999998,0.0763114,0.0250621999999999,143.8802796,81.5491074,-119.5976456,208.60078899878116,0.8545014424667521,94.6124421187546,1.068967922135552,148.4770816,112.7832466,16.905284199999997
4096.321,15.0497018,200.515384,53.3630356,0.39436,-0.1059428,0.7777004,-4.7395116,-27.129846,-135.639212,-88.7979264,48.152094,-30.4302052,-1.076797,0.0538308,0.0133969999999999,149.0383668,81.09362639999999,-112.5665468,208.03972292180944,0.8783857914561232,105.49736147429827,1.078224936572439,153.77787840000002,108.2234724,23.072665200000003
4116.304,8.9989368,198.6595368,55.1413026,0.33967,-0.1207377999999999,0.8363151999999999,-4.9482822,-23.049818,-134.7783478,-95.113582,37.8564614,-46.6128264,-1.0522354,0.0234108,-0.0050802,154.6974916,80.896875,-104.89947980000002,206.36655658692789,0.9107010700553064,112.48315756413024,1.0525080574522174,159.6457738,103.946693,29.878868000000004
4136.286,6.215814799999999,194.9456452,56.821389,0.2767206,-0.1366706,0.8726955999999999,-5.163356,-19.0347998,-133.9164368,-96.7026048,28.926026200000003,-48.6551642,-1.027094,0.0047206,-0.0208772,159.7657838,80.797229,-97.7984118,203.152925610146,0.9256623324020912,112.0510319905936,1.027317003840684,164.9291398,99.8320288,36.118025
4156.268,6.499244999999999,190.3809418,57.93396,0.2045442,-0.1270942,0.9086686,-5.3106354,-15.0952308,-133.059204,-91.3276306,23.6259904,-47.5744788,-1.0422156,-0.0104985999999999,-0.037346,164.3815644,80.7109482,-91.26426260000002,199.10672240661944,0.9400371748251448,105.65157152869332,1.042937342893292,169.69219979999997,95.806179,41.794941400000006
4176.249,5.3347284,186.5009766,58.6896478,0.1295428,-0.1127278,0.9557182,-5.4136218,-11.2191282,-132.2071442,-84.71727440000001,21.6467446,-46.0322632,-1.0358788,0.0008964,-0.0588406,168.6929382,80.5811644,-85.16971920000002,195.59025629806703,0.9710232601415478,98.81582559922576,1.0375489906653852,174.10656,91.8002926,47.037425
4196.232,3.312717999999998,182.6230132,58.349727,0.0652606,-0.1242486,0.9889142,-5.501190199999999,-7.419305,-131.3752382,-76.3113814,18.9256214,-38.2792568,-1.0307656,-0.0096375999999999,-0.0784634,172.08103939999998,80.4087676,-80.18161640000002,191.74678534924496,0.998823285409366,87.44659843420298,1.0337925858781731,177.5822296,87.8280726,51.1936218
4216.214,3.284572399999999,178.1533172,56.6869188,0.001749,-0.1289088,1.0026412,-5.5318514,-3.7101175999999993,-130.581009,-67.52186880000001,18.690916,-28.589133000000004,-1.0480122,-0.0219363999999999,-0.085521,174.4015534,80.16258540000001,-76.453612,186.98342067748268,1.01089559978065,75.66962159846685,1.0517245924836027,179.9334048,83.872703,54.127397
4236.196,4.501093799999999,175.2376526,55.58130659999999,-0.0661966,-0.1081415999999999,1.00617,-5.4747306,-0.0606287999999999,-129.80814519999998,-56.7151366,18.6813178,-25.6798874,-1.0587344,-0.0257255999999999,-0.0971144,176.4612916,79.88377679999999,-73.20746620000001,183.8961021270377,1.0141275385286213,65.00042285383945,1.0634902646127422,181.9360222,79.9444056,56.60067899999999
4256.178,4.636898399999998,173.226529,54.7960328,-0.1155441999999999,-0.115263,1.0284118,-5.369276,3.5372336000000004,-129.0422608,-46.2838466,19.1365714,-22.5060906,-1.0334556,-0.0224357999999999,-0.0934074,106.207477,79.5777464,-70.48936460000002,181.745801565754,1.041281350885475,54.90835032246952,1.0379107787607564,111.576753,76.0405128,58.5528962
4276.16,7.279053799999998,170.2609682,52.3291832,-0.1635762,-0.1335934,1.039071,-5.1775982,7.0591052,-128.3100876,-36.2739346,19.502204,-16.3845384,-1.0060286,-0.0141175999999999,-0.094159,35.3317232,79.2482254,-68.60485820000001,178.26981048681202,1.060317364174991,44.32366626085626,1.0105240066068295,40.5093214,72.1891202,59.70522940000001
4296.142,11.3770736,166.8127626,48.2762152,-0.224829,-0.1118898,1.000671,-4.8623976,10.4958684,-127.6345932,-27.7461232,19.4118622,-11.7442466,-0.9950144,-0.0014043999999999,-0.1068514,-35.964739800000004,78.9098908,-67.32057940000001,174.03025174946018,1.031702407104898,35.84124823304817,1.0007361541528714,-31.1023422,68.4140224,60.3140138
4316.124,15.5768614,164.58584000000002,44.95280820000001,-0.2951017999999999,-0.092616,0.974528,-4.4257964,13.8796396,-126.9928162,-22.1996414,19.6780362,-8.8454238,-1.0109548,0.0108782,-0.1174908,-107.5362396,78.5613892,-66.42760000000001,171.32393967174116,1.0224322073385796,30.956270918486144,1.0178172876125262,-103.1104432,64.68174959999999,60.5652162
4336.106,19.6160408,163.8331178,41.8161956,-0.3336782,-0.0758766,0.9575942,-3.867086,17.2302224,-126.371315,-18.316494,21.1584664,-5.7426034,-1.0355382,0.0040816,-0.1209328,-179.37838440000002,78.1841996,-65.88947600000002,170.21948701365952,1.0168997253694387,28.568376689298542,1.042583696992064,-175.5112984,60.9539772,60.481839
4356.089,22.6378738,162.8185608,37.8054404,-0.385808,-0.108962,0.9926524,-3.2250526,20.5437622,-125.7845962,-17.477061,25.4510034,-5.7544942,-1.0168522,0.002094,-0.1259942,-179.2606904,77.7199144,-65.40733420000001,168.67604570598036,1.0705509411203935,31.405659342901338,1.0246303332980535,-176.0356378,57.1761522,60.377262
4376.07,26.2168904,161.2102356,33.7377876,-0.4485056,-0.0659287999999999,0.9332066,-2.4875652,23.8142962,-125.2289108,-19.5742094,29.2172632,-6.632886400000001,-0.9915264,-0.0045343999999999,-0.1531252,-179.1295776,77.1631318,-64.8675898,166.776208484891,1.0374865966287758,35.78817296996911,1.0032908299966463,-176.6420124,53.3488356,60.361321
4396.053,27.6182462,159.957245,31.311556399999997,-0.5340378,-0.0412929999999999,0.9141452,-1.6902366,27.0490606,-124.66472159999998,-20.8666926,30.0936208,-6.610164,-0.9904584,-0.0057079999999999,-0.1848924,-179.0198852,76.5766754,-64.32387340000001,165.31636735467006,1.0595107032781124,37.2120832663798,1.007584052559547,-177.32964859999998,49.5276148,60.3408482
4416.035,27.660616,158.7125122,29.555295,-0.5956256,-0.0147013999999999,0.9081058,-0.8416988,30.2548412,-124.0669844,-15.3286826,27.317792399999995,-4.7264942,-0.9991564,-0.0069565999999999,-0.20978,-178.95054,76.0409332,-63.93618260000001,163.79342681826896,1.0861133138540195,31.67917358902649,1.0209650113223865,-178.1088412,45.786092,60.13080179999999
4436.017,26.0406744,155.41607960000002,26.129297,-0.669009,-0.0334541999999999,0.9504736,-0.0064826,33.379742,-123.4767608,-4.1191344,18.336624,-3.5383728,-0.9651832,0.0181618,-0.2331904,-178.8106566,75.6757308,-63.70371040000001,159.7342001049073,1.1627950334756338,19.12378440566665,0.9931194405476312,-178.80417400000002,42.2959888,59.7730504
4455.999,25.9390786,150.2589752,21.4490084,-0.7274838,0.0258998,0.8734120000000001,0.831592,36.4001834,-122.926419,5.7141296,6.084371000000001,-2.9418622,-0.9608726,0.0146282,-0.2660608,-178.5153502,75.53785400000001,-63.51364760000001,153.98264638625506,1.1369925244461725,8.850163882947365,0.9971351397692492,-179.3469422,39.1376706,59.41277140000001
4475.981,25.2187932,144.7091124,18.9952062,-0.799722,0.0245624,0.8584644000000001,1.687211,39.3112884,-122.3630736,11.1667364,-5.745973,-2.4180384,-1.0030204,-0.0227857999999999,-0.2744942,-178.03648379999998,75.6386154,-63.252317800000014,148.11324248911953,1.1735074413249882,12.789023310936944,1.0401519991479322,-179.7236948,36.327327,59.11075580000001
4495.963,24.7159626,139.3461898,18.3121712,-0.8148755999999999,0.0331876,0.8496802000000001,2.6036316,42.113816,-121.7345594,13.716392,-14.6250044,-5.6786352,-1.0311536,-0.0398749999999999,-0.248392,-177.1698364,75.9272812,-62.64622180000001,142.70099871087214,1.1777436489071635,20.839315270237705,1.0613982985109596,-179.773468,33.8134652,59.0883376
4515.945,21.5245916,134.2581162,18.2742794,-0.8334564,0.0262064,0.859168,3.536382,44.780138400000006,-121.0222974,5.700888199999999,-22.8166244,-10.7700458,-1.0100802,-0.0328429999999999,-0.2333746,-175.995523,76.3732758,-61.55791460000002,137.19511323917027,1.1972911084301594,25.86681970814488,1.0372099001678494,-179.531905,31.5931374,59.4643828
4535.927,16.706182199999997,128.3541672,18.304218,-0.8496316,0.042698,0.8033469999999999,4.4491422,47.3111236,-120.2317396,-11.5421218,-24.3115672,-18.9143456,-0.9849546,-0.0215071999999999,-0.2429996,-174.3760376,76.8202912,-59.65955560000001,130.72464632920864,1.1700698172893615,32.89415365748738,1.0147151961576015,-178.8251798,29.5091676,60.57218400000001
4555.909,11.8576656,122.5968658,20.2521896,-0.8948744,0.0579282,0.7566876,5.3867324000000005,49.7237992,-119.289685,-27.929434800000003,-25.7521968,-21.690934,-0.9920182,-0.0218709999999999,-0.2515304,-172.7265472,77.2761688,-57.3967298,124.8228621729969,1.173342231458648,43.746149385582925,1.023643488669957,-178.1132796,27.5523696,61.8929552
4575.891,5.418263399999998,116.895691,21.350389,-0.9028436,0.0682958,0.739447,6.3073314,52.0058274,-118.21800679999998,-34.1212442,-27.5970962,-23.9254474,-1.0049794,-0.0211935999999999,-0.2413288,-170.8850188,77.7529434,-54.81107620000002,118.95292877054597,1.1690050248684134,49.982857638577,1.03376610159879,-177.19235020000002,25.747116000000005,63.4069306
4595.873,0.0015009999999985,111.353093,20.7426344,-0.9180186,0.0694586,0.7140814,7.1921448,54.1617676,-117.0735596,-33.3788578,-30.808092,-24.505896,-1.0073438,-0.0242857999999999,-0.2302862,-168.7525116,78.27647859999999,-51.94579980000001,113.2685667110329,1.1651158280985974,51.6122622975965,1.0336164982190057,-175.9446564,24.114711000000007,65.1277598
4615.855,-3.308350200000002,105.7927872,18.2067324,-0.924567,0.071377,0.6770446000000001,8.0325106,56.19807599999999,-115.9210756,-25.4258412,-33.3881328,-22.8428332,-1.0035886,-0.0231487999999999,-0.2016122,-166.2725038,78.8371156,-48.89333780000001,107.3989949174364,1.1481760335450135,47.78112431913962,1.0239010812477152,-174.3050144,22.639039600000004,67.0277378
4635.837,-3.8936582000000017,101.3200562,15.4689822,-0.9313266,0.084697,0.6324266,8.8763012,58.143924000000005,-114.77052,-20.3081332,-38.12816,-18.1028098,-1.0235122,-0.0235539999999999,-0.1598696,-163.6535584,79.4858964,-45.81218620000001,102.56804459895638,1.12894030934506,46.83896435351146,1.0361902834272283,-172.52985959999998,21.341972400000003,68.95833379999999
4655.82,-4.4197836000000015,98.3479402,12.6982584,-0.9237024,0.0856724,0.6036264,9.7172432,60.0234802,-113.644615,-19.870541600000003,-44.0709244,-16.481589399999997,-1.0372452,-0.0224777999999999,-0.1201018,-160.5929322,80.2383684,-42.297318200000014,99.26277043809915,1.106765880692245,51.075704499282615,1.0444172053251133,-170.3101754,20.214888200000004,71.34729680000001
4675.802,-3.9856762000000017,96.5598802,10.1421704,-0.9212724,0.0873752,0.5713752,10.5922606,61.8627654,-112.521118,-26.0596086,-48.71327660000001,-16.287781799999998,-1.022747,-0.0030003999999999,-0.1088284,-157.04079299999998,81.0424258,-38.16236680000001,97.17283416383528,1.0875876423313389,57.59668700070963,1.028525181537001,-167.63305359999998,19.179660400000003,74.3587512
4695.784,-3.577864000000001,94.5083222,7.7005642,-0.939811,0.0883143999999999,0.554254,11.5009162,63.6558562,-111.4028852,-34.730229800000004,-49.0094086,-14.3457966,-0.9778596,0.004016,-0.1497776,-153.351883,81.82394120000001,-33.71743880000001,94.88900233883707,1.0946422454319769,61.75688523048368,0.9892718812489922,-164.8527992,18.168085,77.6854464
4715.766,-2.535659800000001,89.84822240000001,5.4717522,-0.9799364,0.0884112,0.520967,12.4307832,65.3652754,-110.31384699999998,-42.5315874,-40.1067472,-12.782328,-0.92021,-0.0152953999999999,-0.2636904,-150.18925180000002,82.43094640000001,-29.65106240000001,90.05038984479414,1.113327671181939,59.84041282300892,0.957367756096538,-162.620035,17.065671000000002,80.6627846
4735.748,-1.3116066000000013,80.27267079999999,4.314671,-1.0402928,0.0810054,0.4810454,13.347348,66.9016432,-109.2861264,-39.8739404,-24.5794448,-8.155567,-0.8682402,-0.0406589999999999,-0.4103204,-148.4288454,82.7912934,-27.06002020000001,80.39924362254023,1.1489889735859784,47.54569909876695,0.9611748175192688,-161.7761934,15.889650200000002,82.2261062
4755.73,0.5597661999999985,63.627892,2.8875806,-1.100928,0.0575934,0.46236,14.1016758,68.1243376,-108.4813902,-28.287209600000004,-4.688320000000002,-0.6787748,-0.8279304,-0.0323567999999999,-0.5222832000000001,-148.6004458,82.8540084,-26.66094320000001,63.69584052576606,1.1954648595870814,28.68113154333084,0.9794362923399562,-162.7021216,14.729670800000005,81.820447
4775.712,3.0392347999999982,39.9756852,0.6981685999999998,-1.149005,0.0676898,0.4274188,14.5902054,68.90757119999999,-108.0256866,-12.989520800000005,18.0957246,8.7039068,-0.8461399999999999,-0.0212475999999999,-0.5415272,-151.0092592,82.58296800000001,-28.83745880000001,40.0971295078969,1.227795271876578,23.915285760278177,1.0048164351987878,-165.59946459999998,13.6753968,79.1882278
4795.694,1.6447789999999984,13.5257142,-1.4559460000000002,-1.165891,0.0610822,0.4422676,14.6586436,69.1903548,-107.986972,-1.8603316000000032,37.1843102,13.4206694,-0.9195184,-0.0363703999999999,-0.4882671999999999,-154.78497040000002,82.0083664,-32.62573780000001,13.702920175416576,1.248452437639336,39.57585281274276,1.0417493712647778,-169.443614,12.818011600000002,75.3612342
4815.676,-1.292573800000001,-11.5901038,-3.1982206000000004,-1.1404542000000002,0.05946,0.4807764,14.3112204,69.0007292,-108.3308212,4.721518599999998,45.1813452,13.0964014,-0.9986498,-0.0559747999999999,-0.3730626,-158.6477846,81.2972886,-36.63678360000001,12.09255424339644,1.2390791825765617,47.27750439269855,1.0675253181043716,-172.959005,12.2965594,71.6940376
4835.658,-6.412367600000001,-32.2302924,-4.9351814,-1.0918754,0.0623381999999999,0.5239944,13.5615892,68.4126556,-108.9941178,5.878994399999997,45.312014,9.5362884,-1.0591301999999998,-0.0568179999999999,-0.2353814,-161.767566,80.55141160000001,-39.91876300000001,33.23050137867218,1.2127027960451646,46.676353588722,1.0864573020335404,-175.3291552,12.138756000000004,69.0753548
4855.64,-11.3593848,-46.48997,-6.3424236,-1.0273506,0.0832188,0.5685636,12.5473876,67.5275086,-109.8308808,2.684380399999996,40.985109,5.0789474,-1.0915396,-0.0538261999999999,-0.1376406,-163.9125488,79.83641380000002,-42.148317800000015,48.27607348114807,1.1771317646035893,41.385755575629545,1.101499383995724,-176.4599364,12.308905200000009,67.682563
4875.622,-16.096308,-55.40819319999999,-7.697894,-0.9769596,0.0584184,0.6433082,11.3383154,66.4473756,-110.7691024,-4.923592200000003,32.6787556,-0.464223,-1.0640885999999998,-0.0585473999999999,-0.1241582,-164.9466156,79.2306734,-43.09920660000002,58.21010717181876,1.1711994747599404,33.0508446293005,1.0729061493550869,-176.284931,12.783297800000003,67.66989579999999
4895.604,-16.5306342,-63.4728736,-9.4958204,-0.9411874,0.0551114,0.6551340000000001,10.07445,65.195414,-111.7525756,-11.636931800000005,25.871310200000003,-2.969122,-1.0060628,-0.0530283999999999,-0.1506916,-165.525128,78.7288774,-43.45255140000002,66.27396287506009,1.148072970801386,28.522947930278168,1.0186669362755227,-175.599578,13.533463400000002,68.3000242
4915.587,-15.3922096,-72.4703048,-11.0689202,-0.9324074,0.059369,0.661711,8.8182216,63.760289,-112.754477,-15.1537428,21.8690448,-1.5106216,-0.981915,-0.0462853999999999,-0.179136,-166.2095976,78.3021058,-43.84241560000002,74.9091862762452,1.1448885034171494,26.64907163357376,0.999194231355526,-175.0278192,14.541816800000005,68.9120614
4935.569,-14.361206,-82.688314,-12.6897218,-0.9248610000000002,0.0619944,0.7007718,7.580093400000001,62.1186378,-113.7650224,-14.120497000000004,18.1937612,0.5620738000000003,-0.9890448,-0.0526959999999999,-0.186724,-166.9460052,77.95721739999999,-44.30739440000001,84.88009513012122,1.1620207789138712,23.03730255664237,1.007895002963622,-174.5260986,15.8385796,69.45762799999999
4955.55,-14.3532306,-93.8160338,-14.1769288,-0.9211806,0.0496774,0.7469784,6.364157400000001,60.258763,-114.77334899999998,-11.055159200000002,13.766305399999998,0.8556520000000003,-1.0044596,-0.0718179999999999,-0.1864572,-167.4678864,77.70207979999999,-44.61834180000001,95.9606624446694,1.1870207546431863,17.6765338697528,1.0241402250610023,-173.8320438,17.443316799999998,70.1550072
4975.533,-15.956242800000002,-104.7420288,-15.618674199999996,-0.9110482,0.0474122,0.7870208,5.1641798,58.1685714,-115.75486759999998,-5.400558000000003,8.7235422,0.9185838000000002,-1.0202353999999998,-0.0728601999999999,-0.1798866,-167.75149240000002,77.5529252,-44.80189280000001,107.09545865814444,1.2048479070259115,10.300971382552586,1.0385316889805334,-172.9156722,19.3843538,70.95297479999999
4995.515,-17.763291200000005,-114.8189468,-17.276301800000002,-0.907072,0.035264,0.8347062,3.9911392,55.8704392,-116.70063639999998,0.5937277999999969,4.1105646,1.1390864000000005,-1.0220346,-0.0642419999999999,-0.1829504,-167.8582796,77.49564219999999,-44.92639000000001,117.46231592473356,1.2331900109871308,4.30659631936068,1.0402656425266192,-171.8494188,21.625203,71.7742464
5015.497,-20.413959,-124.8733352,-19.3948332,-0.9042742,0.022653,0.8624064,2.8209896,53.3574082,-117.615625,4.868764399999997,0.3139559999999998,1.441449,-1.0124086,-0.0605937999999999,-0.1892684,-167.8438388,77.510428,-45.013839800000014,128.0087462671245,1.249787896387063,5.087357897007477,1.0317292809603498,-170.6648284,24.1530198,72.6017852
5035.479,-22.309474,-134.90091539999997,-21.6428876,-0.8969958,0.0038866,0.8780861999999999,1.6716244,50.6306176,-118.4957564,6.863477599999998,-1.6613458,1.7092684000000002,-1.0003678,-0.0618085999999999,-0.1951214,-167.775928,77.5604188,-45.08741520000002,138.43548746467022,1.255249754235244,7.26560342271156,1.0210917681818614,-169.4475524,26.929801200000004,73.4083412
5055.461,-24.3924814,-144.6307646,-24.076762,-0.8856314000000001,-0.0127025999999999,0.9024502,0.5426458,47.7016916,-119.3273758,10.283560799999998,-1.9230632,2.9075504000000003,-0.9968875999999998,-0.0619077999999999,-0.1974692,-167.74235240000002,77.6184784,-45.266263600000016,148.6362731167416,1.2644843598055138,10.858344446877297,1.018141221876042,-168.28499820000002,29.9167868,74.0611122
5075.443,-25.596398400000005,-153.97120639999997,-26.990414800000003,-0.8698078,-0.0262208,0.9210768,-0.5478924,44.5926332,-120.11463940000002,15.785439399999996,-2.8990332,3.503782,-0.9981196,-0.0620083999999999,-0.1940996,-167.63060000000002,77.69961699999999,-45.47782820000001,158.40072759428529,1.267136776670822,16.42744590157881,1.0187062541748138,-167.0827076,33.1069838,74.63681119999998
5095.425,-26.036101800000004,-162.8812956,-30.183155,-0.8464993999999999,-0.0350927999999999,0.9431933999999998,-1.5830588,41.31189500000001,-120.859108,22.4683176,-7.9305854,4.0670038,-1.0068138,-0.0538525999999999,-0.1813286,-167.3463258,77.889624,-45.64890680000001,167.6878585319419,1.2678353712591235,24.171470796589464,1.0244287147357596,-165.76326699999998,36.577729,75.2102012
5115.407,-25.035633800000003,-171.5676422,-33.8697354,-0.8248110000000001,-0.0477762,0.9582318,-2.5462622,37.8675176,-121.5774308,29.787202999999995,-21.1035284,5.208624,-1.0319708,-0.0481159999999999,-0.1647732,-166.6988068,78.3511382,-45.59877620000001,176.66181756650454,1.2652288067929374,36.87500694869346,1.046149649403411,-164.1525446,40.4836206,75.9786546
5135.389,-23.334144200000004,-179.6554108,-37.012658,-0.796167,-0.0593124,0.9755472,-3.4197722,34.2702756,-122.2606584,37.5304096,-37.2860126,5.2350108,-1.0618881999999998,-0.0621353999999999,-0.1562224,-165.27067259999998,79.123526,-44.914861400000014,184.9066947611365,1.2605920006531055,53.16186338370061,1.0751152475405414,-161.8509004,44.85325039999999,77.34579699999999
5155.371,-21.908572,-186.7974428,-39.4893862,-0.7624818,-0.0641825999999999,1.0003238,-4.2040274,30.538135200000006,-122.899936,43.4020852,-52.49095259999999,3.3030044000000003,-1.0747198,-0.0773231999999999,-0.137517,-162.612195,80.16759640000001,-43.10473780000002,192.17877558708503,1.2594227274114278,68.19054877789095,1.086237750706207,-158.40816759999998,49.6294612,79.7951982
5175.354,-21.7482268,-193.2696504,-41.1681528,-0.7232738,-0.0739819999999999,1.0108852,-4.9263574000000006,26.671567200000005,-123.4872376,48.93709559999999,-66.00221239999999,0.8918050000000004,-1.0899422,-0.0791073999999999,-0.1208724,-158.24305139999998,81.4245146,-39.677565000000016,198.79879260107845,1.245185614143321,82.17010821227069,1.0994735636464206,-153.316694,54.7529474,83.8096726
5195.336,-22.8465328,-198.9372194,-42.7932864,-0.6708756,-0.0759763999999999,1.0140683999999998,-5.6128432,22.679664,-124.0254518,55.0496452,-74.5939924,-1.8499106,-1.0853044,-0.0623995999999999,-0.0960198,-151.6639344,82.7771544,-34.14102540000001,204.7663221442863,1.2182697582682087,92.72620615578496,1.0913290762788097,-146.05109120000003,60.097490400000005,89.8844264
5215.318,-25.1169276,-202.935257,-44.9645366,-0.6016258,-0.0829481999999999,1.0246336,-6.2934758,18.5847408,-124.5320008,60.60165179999999,-73.5637632,0.5183344000000005,-1.0887790000000002,-0.0628821999999999,-0.0751978,-143.1350052,84.07641140000001,-26.74609660000001,209.36902382485437,1.1910953032221394,95.31241329220629,1.0931827802534582,-136.8415294,65.49167059999999,97.7859042
5235.3,-27.1808082,-205.47742,-48.175732,-0.5276836,-0.0969826,1.013653,-6.9727716,14.4113498,-125.03369440000002,69.135064,-68.27288580000001,4.281653,-1.0634746,-0.0606333999999999,-0.0479636,-132.05522620000002,85.2268326,-16.945289000000013,212.7925459643674,1.1468862240086066,97.25829816605032,1.066280985934608,-125.0824546,70.8154828,108.08840539999998
5255.282,-28.3086068,-206.942868,-51.765797,-0.4486936,-0.1115029999999999,0.9926536,-7.6416872,10.180306599999998,-125.5461288,81.2819786,-63.43533920000001,13.0296178,-1.0554926,-0.0625877999999999,-0.0166482,-117.2309006,86.283519,-3.6003302000000112,215.18927848307789,1.0950433942465112,103.92580644173032,1.0574776706516502,-109.58921340000002,76.1032124,121.9457986
5275.264,-28.328990600000004,-207.213852,-55.857426,-0.3587178,-0.1346324,0.97172,-8.2789392,5.922685400000001,-126.085382,93.1704698,-57.1262648,23.947336,-1.0293784,-0.0598883999999999,0.0090231999999999,-96.5298774,87.1870134,15.402846599999986,216.47208644173568,1.0445305651662855,111.88217674969204,1.0311585372673595,-88.2509382,81.264328,141.4882286
5295.246,-27.4053296,-206.506128,-59.4080302,-0.2747849999999999,-0.1510216,0.9435492,-8.8622966,1.6636705999999997,-126.6485992,101.056766,-52.41333,34.780338400000005,-1.0284544,-0.0643599999999999,0.0313241999999999,-70.53279599999999,87.7339814,39.45846639999999,216.62212962733315,0.9942833664062776,119.03486487280176,1.0309422233980912,-61.6704994,86.07031079999999,166.1070656
5315.228,-26.7575932,-204.8825258,-61.7105418,-0.1911383999999999,-0.1678839999999999,0.9088324,-9.3921456,-2.5755118,-127.2203034,104.310779,-47.9878708,37.9432424,-1.0092295999999998,-0.0406149999999999,0.0579123999999999,-43.6750362,87.8333328,64.25288679999998,215.6409264061298,0.9437665265839428,120.92668854859744,1.0117053967509118,-34.2828906,90.4088446,191.4731902
5335.21,-26.5076298,-202.6092378,-63.45587859999999,-0.1062905999999999,-0.1757854,0.8874783999999998,-9.8799368,-6.7642938,-127.7972154,100.0545702,-45.4505478,41.8222688,-1.0024674,-0.0161049999999999,0.0833285999999999,-18.4414108,87.5341826,87.46278179999999,213.96216069298032,0.9109424290085952,117.5830407873783,1.006053634090012,-8.561474,94.2984764,215.2599972
5355.193,-26.3548538,-199.9293152,-64.9682344,-0.0250674,-0.1852175999999999,0.8529662,-10.3277302,-10.8949412,-128.38249380000002,90.6794894,-44.3128662,41.7179384,-1.01191,0.008892,0.0950125999999999,2.7907025999999995,86.818785,106.8008712,211.8659502520725,0.873204026694197,109.20982690696844,1.016399680205951,13.1184328,97.7137262,235.183365
5375.175,-26.5009568,-196.5506408,-65.9348268,0.0497454,-0.1788854,0.8214758,-10.737426,-14.954195,-128.9756822,80.94282700000001,-45.72366340000001,38.4961884,-1.0021467999999998,0.025963,0.1107419999999999,16.7595468,85.756224,119.03313139999996,209.00204902189856,0.8421977684249465,100.61983481797576,1.0085812196760555,27.4969728,100.710419,248.0088136
5395.156,-26.152484800000003,-191.9226226,-66.827675,0.1284856,-0.1833672,0.7651294,-11.1038036,-18.9294648,-129.5836732,71.31595480000001,-47.65943600000001,30.445834800000007,-0.9895789999999998,0.0401254,0.1250083999999999,22.7526074,84.60462179999999,123.54196779999998,204.90042379844385,0.7972170834769912,91.01832840446276,0.9982503418665678,33.856410999999994,103.5340866,253.125641
5415.139,-24.701408,-186.196472,-67.11725779999999,0.2087462,-0.1738278,0.7329654,-11.3918768,-22.7952486,-130.21307380000002,62.05166120000001,-51.276538,22.8776058,-0.9902736,0.04613,0.1304817999999999,25.0237926,83.44366,124.54106299999998,199.45929919916225,0.7816836685414632,83.68438835341527,0.9998976347047732,36.4156694,106.2389086,254.75413680000003
5435.121,-23.4456864,-179.6633514,-67.13479480000001,0.2714414,-0.1573979999999999,0.6948412,-11.593364,-26.54961,-130.8744874,54.9736124,-53.7871024,17.514098800000003,-0.9931524,0.0475778,0.1324287999999999,25.4120262,82.2910066,123.80771639999998,193.2244827134624,0.7624033428936419,78.87898390363355,1.0030716443744383,37.0053902,108.8406166,254.6822038
5455.103,-22.266436400000003,-172.04397279999998,-66.7636246,0.3287596,-0.1464085999999999,0.6625152,-11.7108056,-30.1657148,-131.573407,50.6519648,-53.8752114,12.4946194,-0.9660328,0.0595046,0.1338738,24.8667484,81.1892962,122.2282624,185.882501426283,0.7539527458515951,74.99516954741809,0.9770784832465814,36.577554000000006,111.355011,253.8016694
5475.085,-21.0656604,-163.5177186,-65.98579420000002,0.3791521999999999,-0.1256459999999999,0.629372,-11.7307528,-33.623263800000004,-132.322989,44.7598788,-52.3581544,4.786649200000002,-0.9780464,0.070392,0.1331369999999999,23.6146962,80.1909684,120.0516434,177.58358983994458,0.7454209699658576,69.0487877730579,0.9895732691347112,35.345449,113.8142322,252.3746324
5495.067,-22.101263,-154.8035584,-64.6854218,0.415075,-0.107015,0.640286,-11.694869,-36.897446,-133.1228578,38.14802340000001,-47.1026408,-2.4979579999999983,-0.9682806,0.0768496,0.1195347999999999,22.147574,79.3528306,117.78136279999998,169.2241451830716,0.7705229572478682,60.664406811824485,0.9786530282830376,33.842443,116.2502766,250.9042206
5515.049,-25.0171104,-146.57611400000002,-63.8238784,0.4388385999999999,-0.0959963999999999,0.6022682,-11.642772399999998,-40.0077766,-133.9834626,34.1086404,-41.590134,-7.186487999999999,-0.9533108,0.0565702,0.1154125999999999,20.6616046,78.65133360000002,115.567488,161.8144012816065,0.7513465314980564,54.26586593659602,0.9619364517282002,32.304377,118.6591102,249.5509506
5535.031,-24.3988178,-138.3597076,-61.7503286,0.4687176,-0.1007938,0.5793421999999999,-11.534555999999998,-42.9453528,-134.8692994,32.4396158,-34.8208,-11.9270682,-0.9502998,0.0496046,0.1066807999999999,19.0981686,78.11534420000001,113.3065306,153.46600300849394,0.751992661778717,49.0619174282769,0.957554760475786,30.6327246,121.060697,248.17583
5555.013,-23.4680848,-130.60030360000002,-59.2611174,0.5050834,-0.1015185999999999,0.567419,-11.3657844,-45.7164428,-135.77491759999998,32.1381982,-28.7813292,-12.0241698,-0.9542268,0.0249474,0.1027409999999999,17.7815754,77.69374680000001,111.30460019999998,145.32401845561782,0.766406934116935,44.78626299927789,0.9600660767290968,29.1473598,123.4101896,247.0795178
5574.995,-22.6864232,-123.4987624,-56.0934584,0.5392056000000001,-0.100585,0.5553700000000001,-11.1528504,-48.3314856,-136.6847138,34.6777344,-20.0285952,-8.267323199999998,-0.9446742,0.0104762,0.0994535999999999,17.1479702,77.41701800000001,109.9491972,137.52488570151107,0.7805740568302025,40.89056763723957,0.9499526901193764,28.3008206,125.7485036,246.633911
5594.978,-22.1196004,-116.8922806,-52.227610000000006,0.5778142,-0.100326,0.511496,-10.9249844,-50.8114912,-137.570111,38.7460388,-13.466517199999998,-1.478148599999999,-0.9484192,0.0023974,0.1094127999999999,17.377002600000004,77.2159132,109.3927612,129.92615299483364,0.7781791015014731,41.04616341965084,0.9547124631318268,28.301987,128.0274044,246.9628722
5614.96,-19.1969224,-110.5164216,-47.8895608,0.6230020000000001,-0.1067098,0.4934371999999999,-10.6557036,-53.1532728,-138.4103394,41.1046714,-6.299024999999999,3.5893010000000003,-0.944895,0.0194188,0.1110823999999999,18.3407748,77.11822959999999,109.53735199999998,121.96643516360336,0.801872024554966,41.73912802780149,0.9516002051324916,28.9964784,130.2715024,247.9476914
5634.942,-18.432752800000003,-104.2736498,-44.321132,0.6638662,-0.0881632,0.4785438,-10.3446396,-55.361922400000005,-139.250235,42.2258658,0.2508312,6.348086800000001,-0.9447668,0.037534,0.1149167999999999,19.7787306,77.12509299999999,110.1426622,114.79165109083662,0.8231009961451389,42.70111081542069,0.9524699357252596,30.1233702,132.48701540000002,249.3928972
5654.924,-20.3688882,-97.9839968,-41.0099412,0.6959222,-0.0717962,0.4492515999999999,-10.0493054,-57.440748600000006,-140.090796,41.8248052,7.571781400000001,3.4306858000000013,-0.9347102,0.0679214,0.1229473999999999,21.2124998,77.28860320000001,110.75091419999998,108.15530737154774,0.831438153376329,42.64288696424827,0.9452050241766384,31.2618052,134.7293518,250.8417102
5674.906,-23.2083688,-91.9070804,-38.6101678,0.7311804000000001,-0.0734607999999999,0.4212738,-9.7877722,-59.3976716,-140.9422638,38.1617774,12.1767482,1.1104312000000012,-0.9377288,0.0795154,0.1271045999999999,22.5794996,77.54402780000001,111.364612,102.35372424857356,0.8470495151095007,40.072777648963736,0.9496386578734882,32.367271800000005,136.9416994,252.3068758
5694.888,-22.707174,-86.13970359999999,-37.188741400000005,0.7654446,-0.0671953999999999,0.4040564,-9.453666,-61.23681799999999,-141.8481782,34.763385,16.0506604,0.7277062000000011,-0.9448532,0.0775928,0.1248681999999999,24.0143416,77.86903240000001,112.1169968,96.53324180963882,0.8681487383111722,38.2968169989083,0.9562218777738356,33.4680076,139.10585039999998,253.965175
5714.87,-23.4218296,-80.245363,-35.66681680000001,0.7960656,-0.0470144,0.3843035999999999,-9.0537382,-62.9562052,-142.8247254,33.3376366,19.7194354,0.293280200000001,-0.9452742,0.0783908,0.1255006,25.5587088,78.2581344,113.0102692,90.8846643029393,0.8852231641138183,38.73422465784161,0.956785676790074,34.612447,141.2143396,255.8349946
5734.852,-24.8801108,-74.6985414,-33.3828192,0.8270754,-0.0434901999999999,0.3585301999999999,-8.662272999999999,-64.562893,-143.8124696,31.6887268,21.4460708,-1.172327999999999,-0.9465908,0.0813648,0.1290604,27.0665822,78.6814498,113.8994736,85.51786140010564,0.9024904537407806,38.28163674535397,0.9588070505434554,35.7288552,143.2443428,257.71194320000006
5754.834,-22.97905,-69.6210748,-30.579915399999997,0.854287,-0.0319933999999999,0.3346146,-8.2342604,-66.0643928,-144.7864534,28.3496732,21.463425,-2.485829799999999,-0.9616038,0.0787572,0.1252422,28.4500604,79.11454599999999,114.7299454,79.43715768505852,0.9180396432320992,35.644942601608875,0.972918379612144,36.6843208,145.17893879999997,259.51639880000005
5774.816,-19.137181400000003,-64.7400734,-26.8005124,0.8782776,-0.0221739999999999,0.3166498,-7.7872794,-67.4582992,-145.6872468,25.7163994,20.1004978,-5.3395636,-0.9743384,0.071991,0.1216355999999999,29.484589,79.549661,115.25987079999996,72.6345391716396,0.9338791810388536,33.0737682967419,0.984537069379777,37.2718684,147.0079602,260.94711760000007
5794.798,-15.200124400000002,-60.04904260000001,-21.4727934,0.8983026000000001,-0.0135847999999999,0.300898,-7.415943400000001,-68.7432434,-146.41364140000002,23.1685982,19.6692944,-9.760568199999998,-0.977724,0.0708112,0.1201331999999999,30.06132,80.01566899999999,115.37682639999998,65.55922631751518,0.9474553891143372,31.92074210186483,0.9876185660282416,37.477263400000005,148.7589124,261.79046780000004
5814.781,-10.8676192,-55.6009186,-15.2047622,0.9104894,-0.0065895999999999,0.2819346,-7.195393200000001,-69.9236312,-146.8808654,20.3971068,18.9912628,-11.967011599999998,-0.9793186,0.0794578,0.1167805999999999,30.392272,80.4858046,115.299591,58.65792435637817,0.953163936066446,30.33017301605457,0.9894524601127432,37.5876652,150.4094358,262.1804564
5834.763,-6.631763200000002,-50.9679642,-9.5819878,0.9191854,0.010344,0.2579616,-7.1082858,-71.00221260000001,-147.1106048,16.243389200000003,18.1320958,-13.0262678,-0.9746482,0.085531,0.1086431999999999,30.540451,80.94892560000001,115.1203032,52.28315357773194,0.9547528397358764,27.60985772510194,0.9844074413729714,37.6487368,151.9511382,262.23090800000006
5854.745,-2.570410800000001,-45.8152046,-4.4941696,0.9297056,0.016579,0.2343546,-7.173894799999999,-71.9707384,-147.0912566,11.7310508,16.143738399999997,-13.129991,-0.9755792,0.0899328,0.1005815999999999,30.497346400000005,81.377101,114.8381942,46.10680583833782,0.9589314075852976,23.8879573438144,0.9848651391165392,37.6712412,153.34783940000003,261.9294508
5874.727,1.5434775999999988,-39.8492714,0.1730545999999998,0.938015,0.0260494,0.2116748,-7.3834586,-72.8146136,-146.8327576,6.686233400000001,14.5204762,-12.5695038,-0.9650118,0.0955852,0.0879369999999999,30.318901800000003,81.7713316,114.52128759999998,39.879527355613696,0.961954745515817,20.335741243737747,0.9737131099904528,37.7023604,154.58594520000003,261.35404520000003
5894.709,4.972816399999999,-32.8674716,4.0045622,0.9424278,0.0271136,0.1924662,-7.7334092,-73.5132464,-146.3569458,1.1361768,11.3435414,-11.399819,-0.9631446,0.1051494,0.0760429999999999,29.962883400000003,82.09723340000001,114.13703019999998,33.481877347881564,0.9622622010971024,16.122118423058836,0.9718469296543156,37.6962926,155.61047979999998,260.49397600000003
5914.692,8.051492199999998,-25.0533512,6.6560842,0.941748,0.02664,0.1794202,-8.156564800000002,-74.0498506,-145.742453,-5.4125382,8.4505722,-10.7855572,-0.9595612,0.1073604,0.0633257999999999,29.3639362,82.36844160000001,113.6397172,27.14406730530065,0.9590571376471996,14.732141201751492,0.967622916729053,37.520501,156.4182922,259.3821702
5934.674,12.2046378,-16.4287948,8.7632978,0.9374626,0.020312,0.1728392,-8.58847,-74.4066696,-145.0344818,-11.1099322,6.0690446,-10.218814599999998,-0.9637892,0.1061574,0.0523795999999999,28.5515602,82.5956678,113.0421448,22.263285263886385,0.9534789419800526,16.269236849789824,0.9710317389805342,37.1400302,157.00233740000002,258.0766266
5954.656,15.927346599999998,-6.8677242,10.5226382,0.9278314,0.0147732,0.1674384,-8.991789399999998,-74.56659540000001,-144.28007200000002,-15.9549352,4.755340599999999,-9.8930596,-0.9607926,0.097436,0.0421727999999999,27.5475536,82.8010526,112.34986579999998,20.2872353979515,0.94293423527771,19.3661005292072,0.9666409568038176,36.539343,157.367648,256.6299378
5974.638,19.4012114,3.830485200000001,12.3611374,0.9168632,0.0102698,0.1617682,-9.3477306,-74.5088346,-143.50304239999997,-20.5020752,3.3788384,-9.490820199999998,-0.9604176,0.0847756,0.0370685999999999,26.3152732,82.97964160000001,111.5207824,23.32117789642255,0.9310813857217424,22.84353966679633,0.964864213167366,35.6630038,157.48847619999998,255.0238248
5994.62,23.1952826,15.102831400000005,14.468709999999998,0.9005905999999999,0.0041242,0.1635184,-9.6424466,-74.2177458,-142.71020800000002,-24.4421718,2.4453008000000005,-9.245950399999998,-0.9605518,0.0681408,0.0319109999999999,24.8638884,83.14027999999999,110.5523238,31.23235854454141,0.9153243714512138,26.246654207773915,0.9634942869726212,34.506335,157.3580258,253.2625318
6014.602,28.451609399999995,26.5860674,16.8186912,0.8867236000000001,-0.0084137999999999,0.167438,-9.8532588,-73.68932179999999,-141.8946716,-26.565601,1.948378,-10.503546599999998,-0.964417,0.0501186,0.0291279999999999,23.0156124,83.30146319999999,109.22960039999998,42.41675884516011,0.9024328333296612,28.63305475321235,0.9661575773852626,32.8688712,156.99078500000002,251.124272
6034.584,33.9855448,38.333055,19.9206426,0.8741876,-0.0199545999999999,0.1770514,-10.0025814,-72.9153076,-141.0259246,-27.7621658,1.6773713999999995,-13.554707599999997,-0.9645746,0.0282068,0.0332005999999999,20.452218,83.4720336,107.21514739999998,54.966101940948725,0.8921599320171691,30.93996643245957,0.9655579021331452,30.4547994,156.38734119999998,248.241072
6054.566,38.0257554,50.4991802,23.736399,0.8613836000000001,-0.0320344,0.1879286,-10.1442352,-71.8866242,-140.07769159999998,-29.6458236,0.1573934,-18.109853,-0.9552228,0.0100366,0.0398363999999999,16.805736600000003,83.6202712,104.1531738,67.52438013117856,0.8822273334182523,34.73998280492219,0.9561057837626336,26.949971800000004,155.5068954,244.2308654
6074.548,39.9623678,62.7083042,27.4589906,0.8414688,-0.0417019999999999,0.201089,-10.2885086,-70.6028292,-139.0809602,-32.0070846,-2.0344934,-22.729228,-0.9416916,0.0129424,0.0468665999999999,12.190574800000002,83.7105788,100.1657014,79.26738560463,0.8661671802247185,39.30916475152053,0.9429459440624792,22.4790834,154.313408,239.2466616
6094.53,40.76501,74.9869356,29.9877114,0.8156328,-0.0457784,0.2129968,-10.366573,-69.06880199999999,-138.1303132,-36.0015498,-2.1897899999999995,-25.7956378,-0.9399146,0.0205144,0.0528371999999999,6.9671716,83.77257540000001,95.646985,90.46595705561478,0.8442275541301884,44.34322606390708,0.9416220396764088,17.333744600000003,152.8413774,233.7772982
6114.534,41.2413086,87.706299,31.1645366,0.7915525999999999,-0.0550724,0.2330324,-10.3315466,-67.277408,-137.2846162,-41.7404322,-0.8708197999999998,-26.3202738,-0.9394872,0.0035704,0.0505529999999999,1.3652288000000006,83.8318802,90.8647996,101.8060349920896,0.8269779847482519,49.35361000244902,0.94085309827252,11.6967754,151.10928819999998,228.1494158
6134.495,40.65026099999999,100.6544328,31.723907000000004,0.7688292,-0.0674669999999999,0.2640234,-10.191775,-65.22318519999999,-136.55907299999998,-48.336614,0.9177130000000002,-23.8555552,-0.935946,-0.0341691999999999,0.0445395999999999,-4.055725799999999,83.88652499999999,86.3970368,113.09361094687218,0.8156950965950451,53.91064796527317,0.937627977991698,6.1360492,149.10971020000002,222.9561098
6154.477,39.7385728,112.9253402,32.482651,0.7445692,-0.0838018,0.298466,-9.9739488,-62.9181382,-135.93081060000003,-53.8693052,2.9803906000000007,-19.3344726,-0.9324362,-0.0499003999999999,0.0487413999999999,-8.8643514,83.94357,82.655429,124.04196565458982,0.8065283556254423,57.31148751846759,0.9350417322582772,1.1095974000000002,146.8617082,218.5862396
6174.459,41.4112184,124.1004576,33.0414652,0.7234612,-0.0944348,0.3322238,-9.6348146,-60.3884094,-135.3884368,-56.4801062,6.813949200000001,-12.0309714,-0.9438154,-0.0499863999999999,0.0561243999999999,-12.4506686,84.068628,80.1946044,134.9353586294738,0.8016774243066347,58.14788536904052,0.9468030934346804,-2.8158540000000003,144.4570374,215.5830412
6194.442,43.6892076,134.16065199999997,33.212542199999994,0.7020522,-0.0900918,0.3755134,-9.1662668,-57.653183,-134.9246642,-56.9108466,10.8720422,-4.0476948,-0.9565126,-0.0491371999999999,0.0589159999999999,-14.7543078,84.2934616,79.03300619999999,144.95137241560624,0.8012516068824075,58.08123273073032,0.959584239886525,-5.588041,141.9466446,213.9576704
6214.423,43.9229074,143.39568,33.210411,0.677432,-0.0897864,0.438345,-8.644955,-54.7204078,-134.5051054,-58.1455824,16.4490756,1.8363724000000012,-0.9808608,-0.0497715999999999,0.0707721999999999,-16.3624308,84.6417648,78.60028839999998,153.60492907429858,0.811863320562002,60.45538110310105,0.984669399055358,-7.7174758,139.36217259999998,213.1053938
6234.405,42.280124,151.6677854,33.310019999999994,0.6474338000000001,-0.0928338,0.492293,-8.1319542,-51.6141478,-134.1042264,-63.0457084,22.8532396,3.877822600000002,-0.988445,-0.0346733999999999,0.0815781999999999,-18.6104392,85.11851659999999,77.6375702,160.93565001576323,0.8186214251129029,67.17193920075488,0.992411590726247,-10.478485,136.7326644,211.7417966
6254.387,38.8329294,158.5420318,32.528627,0.6139760000000001,-0.0734972,0.5353894,-7.6207458,-48.3713592,-133.7619016,-64.84599680000001,27.721048,4.033082000000002,-0.9974382,-0.0038503999999999,0.0853017999999999,-21.6888664,85.6799882,75.8899812,166.43822826370965,0.8179304228454888,70.6379894505969,1.0010865024974815,-14.0681206,134.0513474,209.6518828
6274.369,35.822598799999994,163.7035278,31.2485276,0.5706722,-0.066271,0.6032476,-7.1108964,-45.0111846,-133.4713468,-68.74517740000002,32.590433999999995,2.8692716000000016,-1.010883,0.0124664,0.0749997999999999,-26.4100448,86.3224182,72.59292539999998,170.46575631521745,0.8330463805812975,76.1332287741719,1.0137380434895396,-19.2991484,131.3336028,206.0642722
6294.352,31.9826374,167.52098700000002,29.3017748,0.5272336,-0.0673502,0.6624715999999999,-6.638876999999999,-41.5702818,-133.2220182,-74.210884,36.6006154,-2.435974199999998,-1.017707,0.0085258,0.0666555999999999,-34.9816408,86.94689939999999,65.56219939999998,173.0455552360244,0.849340885166586,82.78160618170705,1.0199231324595006,-28.3427638,128.5171812,198.7842176
6314.334,29.371111599999995,169.80746779999998,27.651913,0.4863256000000001,-0.0668555999999999,0.7020544,-6.1948798,-38.086375,-132.997894,-77.2669938,37.5010838,-9.601668999999998,-1.009241,0.0005936,0.0602305999999999,-47.809240200000005,87.3638976,54.30534619999999,174.53328224103063,0.8566578319411315,86.42170829513509,1.011036830990009,-41.6143604,125.45027260000002,187.3032402
6334.316,28.303209599999995,170.9748232,25.819969800000003,0.4443236,-0.0503919999999999,0.7411648,-5.7350078,-34.584495399999994,-132.806503,-75.2559082,35.826020400000004,-12.362498399999998,-1.0134964,0.0144648,0.0518135999999999,-62.4726112,87.5540328,41.13579979999999,175.21453330818682,0.8656142766498252,84.26023275186252,1.014923067230694,-56.73760340000001,122.1385282,173.94230280000002
6354.315,28.7904582,171.70201120000002,23.3571844,0.3954845999999999,-0.0417303999999999,0.7917462000000001,-5.230491,-31.0637674,-132.651013,-74.25952000000001,36.8281096,-13.3609074,-1.0319248,0.0064868,0.0335243999999999,-78.28253480000001,87.55478819999999,26.765598399999988,175.65884320633128,0.8860087698977703,83.96010846760137,1.0324895916301724,-73.0520438,118.6185556,159.41661140000002
6374.28,27.5193582,171.95723879999997,21.0531786,0.3506015999999999,-0.0447257999999999,0.8296716,-4.7307548,-27.5440482,-132.5197172,-70.88818599999999,38.176025200000005,-15.9302398,-1.029519,-0.0354539999999999,0.0249765999999999,-94.3516494,87.289824,12.031562999999988,175.4133500638524,0.9018186308536544,82.07506536413563,1.030432039498268,-89.6208946,114.8338722,144.5512802
6394.262,27.005074999999994,172.1217072,19.7896386,0.3124696,-0.0480206,0.8541122,-4.2357166,-24.0258956,-132.386862,-64.7626352,38.1077398,-13.8778786,-1.0256124,-0.0763935999999999,0.0277923999999999,-108.4450638,86.842209,-0.8755468000000114,175.3476146433614,0.9107419388264494,76.41331209383037,1.028829040537095,-104.2093472,110.8681046,131.5113152
6414.244,27.4016044,172.7335968,19.5035412,0.260795,-0.0291235999999999,0.8917882,-3.7235904,-20.4963538,-132.23448480000002,-60.7833978,37.5366354,-7.298257199999999,-1.0352799999999998,-0.0765453999999999,0.0230589999999999,-119.737178,86.37030200000001,-11.051207800000013,175.9776449055367,0.9295958314026586,71.81145454189694,1.038361976452412,-116.01358759999998,106.8666558,121.183277
6434.227,24.3635806,173.48898000000003,19.0559396,0.2089024,-0.0250957999999999,0.9133016000000002,-3.2698992,-16.954203200000002,-132.06276859999997,-58.7800424,39.0347814,-3.885863999999998,-1.0318932,-0.0763263999999999,0.0114355999999999,-129.3745162,85.8339876,-19.598909200000016,176.22468350129603,0.9372245325779518,70.6675843829268,1.0347753710301382,-126.104617,102.7881908,112.4638594
6454.209,21.1853744,173.617279,19.5472544,0.1536179999999999,-0.0418403999999999,0.9372376,-2.8917253999999994,-13.4101442,-131.85299679999997,-56.83378379999999,39.9672316,-1.9471185999999985,-1.0271636,-0.1079297999999999,-0.0030068,-137.2276168,85.22974860000001,-26.38452140000001,175.99396242601716,0.9506647294656092,69.50719281941723,1.0328228036499,-134.33589139999998,98.6398928,105.46847540000002
6474.191,19.810606199999995,173.8756196,20.510645,0.1044718,-0.0417783999999999,0.9428266,-2.537597,-9.866344799999998,-131.60458079999998,-52.3473846,40.4787284,2.0319912000000016,-1.0314542,-0.123617,-0.0134368,-143.87305899999998,84.6151886,-32.04006420000001,176.1984045546707,0.9495166082641,66.20351286433493,1.0389222670541236,-141.33546199999998,94.4815334,99.5645166
6494.173,17.353297999999995,174.69128419999998,21.8922296,0.0463216,-0.0258871999999999,0.9746288,-2.2168832,-6.3063446,-131.31050419999997,-45.81171,41.7894898,7.204792600000002,-1.0292962,-0.1033405999999999,-0.0263118,-150.0733244,83.9847304,-37.37909760000001,176.91085733719422,0.9760723003650088,62.42582211935554,1.0348054202419117,-147.8564412,90.291075,93.9314066
6514.155,10.613964999999997,174.56640020000003,22.0436086,-0.0137102,-0.0357015999999999,0.973115,-2.0241308,-2.7496252,-130.99724419999998,-38.336612200000005,43.8020988,11.0172072,-1.0104504,-0.0753437999999999,-0.0412382,-155.8190368,83.291371,-42.411709400000014,176.27253050863538,0.973866200795366,59.242708823498965,1.0140943191823135,-153.79490600000003,86.04099620000001,88.5855348
6534.137,9.268873799999998,172.8639192,21.158688,-0.073568,-0.0596303999999999,0.9859184,-1.848654,0.7671956000000002,-130.68958119999996,-31.677479,41.5354524,12.3503084,-1.0267621999999998,-0.0808748,-0.0385526,-160.57246700000002,82.6175824,-46.57908000000001,174.40050648030183,0.99045601956206,53.676685809047655,1.0306636947087249,-158.723813,81.8503868,84.1105012
6554.119,8.469892999999995,171.75618300000002,19.1336446,-0.120547,-0.0540381999999999,0.9794466,-1.6759610000000005,4.2531798,-130.4123534,-29.1796404,39.682459400000006,13.518986800000002,-1.0294914,-0.0854326,-0.0450188,-164.7684906,81.97653940000001,-50.23496080000001,173.02607272269708,0.9883154094315234,51.07750974748608,1.0340106209174835,-163.09252959999998,77.72335960000001,80.1773926
6574.101,5.337407999999997,171.4130556,17.350058,-0.1772638,-0.0533028,0.9989424,-1.5501002,7.726155199999999,-130.1617064,-26.5732936,38.553254800000005,14.8030984,-1.0190686000000002,-0.0835201999999999,-0.0602832,-168.488916,81.3423978,-53.4651726,172.3715407684532,1.015947617643764,49.10829981444692,1.024260952841726,-166.9388158,73.6162426,76.6965338
6594.083,2.3600237999999973,170.17398400000002,14.8373478,-0.2330528,-0.0719894,0.9844426,-1.4836216,11.1709394,-129.95527040000002,-24.2529076,37.71671980000001,12.963987000000005,-1.0046756,-0.0817567999999999,-0.0818378,-171.35954299999997,80.6791762,-55.8854134,170.83589035242855,1.0142106852104054,46.67782598260141,1.0113133347733727,-169.8759214,69.50823679999999,74.069857
