Timestamp (ms),Wrist Gyroscope X (deg/s),Wrist Gyroscope Y (deg/s),Wrist Gyroscope Z (deg/s),Wrist Accelerometer X (g),Wrist Accelerometer Y (g),Wrist Accelerometer Z (g),Wrist Roll (deg),Wrist Pitch (deg),Wrist Yaw (deg),Arm Gyroscope X (deg/s),Arm Gyroscope Y (deg/s),Arm Gyroscope Z (deg/s),Arm Accelerometer X (g),Arm Accelerometer Y (g),Arm Accelerometer Z (g),Arm Roll (deg),Arm Pitch (deg),Arm Yaw (deg),Wrist Gyroscope Magnitude (deg/s),Wrist Accelerometer Magnitude (g),Arm Gyroscope Magnitude (deg/s),Arm Accelerometer Magnitude (g),Difference Roll (deg),Difference Pitch (deg),Difference Yaw (deg)
0.0,3.5341062545776367,-0.6587930917739868,-1.0054826736450195,-0.918654203414917,-0.1565364301204681,0.3503962755203247,-24.58116149902344,67.13848114013672,-138.76185607910156,0.5599778890609741,-0.6287769079208374,-0.7508208751678467,-0.9628427028656006,0.1183459907770156,0.2272954881191253,24.68741226196289,75.1246109008789,-102.76085662841795,3.732949338447314,0.9955936667663526,1.128125712303148,0.9963609200053162,49.26857376098633,7.9861297607421875,36.000999450683594
20.002,1.6358712911605835,-0.4216304123401642,-1.09146249294281,-0.9123069643974304,-0.1540878713130951,0.3522631227970123,-24.577943801879883,67.12236022949219,-138.7953338623047,0.3919404149055481,-0.9738192558288574,-1.0607879161834717,-0.9605595469474792,0.116900086402893,0.2330955862998962,24.612977981567383,75.11325073242188,-102.91693878173828,2.011252708973804,0.9900183720803156,1.4923847476372425,0.99532598970661,49.19092178344727,7.990890502929687,35.878395080566406
43.422,0.5058088898658752,-0.1516606658697128,-1.4404046535491943,-0.9107822179794312,-0.1628274321556091,0.3504978120326996,-24.630239486694336,67.10698699951172,-138.86245727539062,0.002994354814291,-0.853191077709198,-0.9686547517776488,-0.9591599702835084,0.0998124927282333,0.2331052422523498,24.50708198547364,75.10717010498047,-103.09455871582033,1.5341476971287895,0.98938654604236,1.2908276451117535,0.992113116667858,49.13732147216797,8.00018310546875,35.76789855957031
65.423,1.8023722171783447,0.5768947005271912,-0.90572988986969,-0.9165145754814148,-0.1548165678977966,0.3455624282360077,-24.639856338500977,67.11480712890625,-138.91273498535156,1.5822004079818726,-0.9071028828620912,-0.8827379941940308,-0.960758090019226,0.0917967706918716,0.2312431931495666,24.423444747924805,75.10240173339844,-103.2801284790039,2.0980228164050314,0.9916554485172242,2.0261836386439462,0.9924495800920344,49.06330108642578,7.9875946044921875,35.632606506347656
87.47399999999999,1.323220133781433,0.3468502461910248,-0.8260853886604309,-0.9280543327331544,-0.1472525000572204,0.3499570190906524,-24.638397216796875,67.1211166381836,-138.94271850585938,3.375424861907959,-0.8834341168403625,-0.607994556427002,-0.9682538509368896,0.1006765663623809,0.2312180995941162,24.41399574279785,75.0949478149414,-103.42627716064452,1.598009288172501,1.0027153427013558,3.541695387498584,1.0005563954363343,49.05239295959473,7.973831176757812,35.516441345214844
97.556,0.8665199279785156,0.1625168472528457,-0.8073173761367798,-0.9308137893676758,-0.1550254374742508,0.3504955172538757,-24.651561737060547,67.12279510498047,-138.9770050048828,3.1693115234375,-0.8155730962753296,-0.614999532699585,-0.9705010056495668,0.1150910854339599,0.2245139181613922,24.437211990356445,75.08922576904297,-103.5352783203125,1.1954203683379632,1.0066252055040923,3.32985276449013,1.0027585249507318,49.08877372741699,7.9664306640625,35.44172668457031
124.943,1.9735952615737915,0.3420093059539795,-0.3002558946609497,-0.9198117256164552,-0.1545638889074325,0.3488014340400696,-24.62474250793457,67.13048553466797,-138.99188232421875,2.787304639816284,-0.6568375825881958,-0.6974120140075684,-0.9711562395095824,0.1087800860404968,0.2352851182222366,24.429323196411133,75.08326721191406,-103.6837921142578,2.025389400620111,0.995794178896482,2.947352419091376,1.0051550305869357,49.0540657043457,7.952781677246094,35.30809020996094
144.954,2.614665031433105,0.6415786147117615,0.0203247629106044,-0.9137718081474304,-0.1567060053348541,0.3524666130542755,-24.578174591064453,67.1425552368164,-138.9990692138672,2.216423511505127,-0.5444097518920898,-0.2860746681690216,-0.9613763689994812,0.0969793424010276,0.2400483191013336,24.413434982299805,75.07484436035156,-103.82789611816406,2.692305599563675,0.9918509982809838,2.3001638802650435,0.995626793144167,48.99160957336426,7.932289123535156,35.171173095703125
167.764,3.856444358825684,0.6000494956970215,-0.0411728098988533,-0.919037401676178,-0.1551413834095001,0.3629590570926666,-24.50070571899414,67.14973449707031,-139.0009765625,2.194603443145752,-0.115885354578495,0.320235401391983,-0.9611800909042358,0.1006798073649406,0.234603926539421,24.46412467956543,75.07117462158203,-103.8977279663086,3.903065166030367,1.0002189118645537,2.220870189898018,0.9945062056666266,48.96483039855957,7.921440124511719,35.103248596191406
187.585,2.410063028335572,0.3287034332752228,0.1134342849254608,-0.9217466115951538,-0.153707280755043,0.3718433380126953,-24.43368148803711,67.1499252319336,-138.98391723632812,2.2560667991638184,-0.2608316242694855,0.3505818545818329,-0.9650456309318542,0.1181623116135597,0.2350034713745117,24.547910690307617,75.06103515625,-103.93115234375,2.435018908467344,1.005738640089303,2.297994381035422,1.0002509851155317,48.98159217834473,7.911109924316406,35.052764892578125
198.079,1.2305996417999268,-0.4445899426937103,0.1083704680204391,-0.926697075366974,-0.1586933434009552,0.3651061654090881,-24.38664054870605,67.13924407958984,-138.9610595703125,0.6567579507827759,-1.2236782312393188,0.3723740875720978,-0.9694583415985109,0.1203729882836341,0.2388956844806671,24.571277618408203,75.03150939941406,-103.99246978759766,1.3129279697993617,1.008589886303251,1.4378393097354556,1.0056889581111812,48.95791816711426,7.892265319824219,34.968589782714844
217.88,2.1078526973724365,-0.7461830377578735,0.1788324117660522,-0.9185402989387512,-0.1602464169263839,0.3561091721057892,-24.32114601135254,67.12591552734375,-138.93592834472656,-1.012920618057251,-1.108722686767578,0.635604977607727,-0.9633564949035645,0.101231150329113,0.2339219003915786,24.548784255981445,75.0081787109375,-104.07247161865234,2.243170334851076,0.9981026687521206,1.6307261763393386,0.9965053625308016,48.869930267333984,7.88226318359375,34.86345672607422
240.387,3.983982563018799,-0.25176602602005,0.7100960612297058,-0.9108150601387024,-0.1510635167360305,0.349317193031311,-24.197486877441406,67.12958526611328,-138.88958740234375,-0.8237890601158142,-0.7334302067756653,0.444810688495636,-0.9633283615112304,0.0953040719032287,0.2416004836559295,24.51010704040528,74.99085998535156,-104.17098999023438,4.054594876244692,0.9871305694848068,1.189287531414272,0.9977250081640868,48.70759391784668,7.861274719238281,34.718597412109375
257.46599999999995,3.4791736602783203,-0.3681807816028595,0.2896282374858856,-0.9236934185028076,-0.1480245441198349,0.3590539097785949,-24.09122085571289,67.1264419555664,-138.85263061523438,0.7636623382568359,-0.5882695913314819,0.8490123152732849,-0.956476390361786,0.1120694428682327,0.2385379821062088,24.57169342041016,74.9697265625,-104.2003936767578,3.5105684671097523,1.0020182169873877,1.284547854477563,0.9921224794608826,48.66291427612305,7.843284606933594,34.65223693847656
279.982,2.0470707416534424,-0.6625364422798157,0.247223675251007,-0.924477756023407,-0.1576975882053375,0.3709570467472076,-24.016576766967773,67.11003112792969,-138.81773376464844,1.929028272628784,-0.1549994945526123,0.6928572654724121,-0.9711117148399352,0.1183277443051338,0.231447547674179,24.677318572998047,74.96235656738281,-104.20854949951172,2.165773003868823,1.0085319931659402,2.055535480168285,1.005299649406132,48.69389533996582,7.852325439453125,34.60918426513672
304.937,0.7531203031539917,-1.139088749885559,0.3255370259284973,-0.9204679131507874,-0.15875044465065,0.3688336014747619,-23.95865631103516,67.08563232421875,-138.7723846435547,2.2890195846557617,-1.1703413724899292,0.4352074861526489,-0.9718525409698486,0.1095622032880783,0.2332555204629898,24.72123336791992,74.93986511230469,-104.2865219116211,1.4038118557659276,1.0042415587864246,2.6074345903785496,1.0054398915924063,48.67988967895508,7.8542327880859375,34.485862731933594
317.622,0.3723831176757812,-1.231774091720581,0.335974246263504,-0.917304515838623,-0.1599132269620895,0.3600420653820038,-23.91346740722656,67.06307220458984,-138.7313690185547,2.12298583984375,-1.790252447128296,0.5200751423835754,-0.9606679081916808,0.1045987457036972,0.2399021238088607,24.73200798034668,74.90178680419922,-104.40296936035156,1.3299681550760254,0.9983236468099403,2.825340838615975,0.995679042884889,48.64547538757324,7.838714599609375,34.328399658203125
340.059,1.3014702796936035,-1.3353875875473022,0.1934574246406555,-0.9146690368652344,-0.1628534346818924,0.3584771752357483,-23.859352111816406,67.03721618652344,-138.69992065429688,1.162192702293396,-1.588037610054016,0.720168948173523,-0.9627144932746888,0.0995221957564354,0.2394291460514068,24.73355484008789,74.86784362792969,-104.50682830810548,1.8747028225960896,0.9958145275866718,2.095518704789689,0.9970206512345814,48.5929069519043,7.83062744140625,34.193092346191406
362.313,1.4779767990112305,-1.2888067960739136,0.4572751224040985,-0.9144209027290344,-0.1536641418933868,0.3552406430244446,-23.78157615661621,67.01807403564453,-138.64825439453125,0.9572737216949464,-1.5963679552078247,1.0091063976287842,-0.9607818722724916,0.1107543185353279,0.2388630956411361,24.772846221923828,74.82911682128906,-104.56539154052734,2.0135885661155988,0.9929623206889746,2.1173236286400448,0.996204749848607,48.55442237854004,7.811042785644531,34.082862854003906
386.135,1.3976575136184692,-1.2823151350021362,-0.3452225029468536,-0.9307264685630798,-0.1518372446298599,0.3620337843894958,-23.73446273803711,66.99349212646484,-138.62904357910156,0.8648564219474792,-1.5587631464004517,0.7742030620574951,-0.9609812498092652,0.1244933679699897,0.2355726063251495,24.82539939880371,74.79177856445312,-104.60740661621094,1.927941183586937,1.0101360151880885,1.943478726011488,0.99723518490089,48.55986213684082,7.798286437988281,34.021636962890625
407.366,0.8418607115745544,-1.741307258605957,-0.4462920725345611,-0.9277870059013368,-0.1539384871721267,0.3672103881835937,-23.69444274902344,66.95640563964844,-138.60545349121094,0.8176659941673279,-1.2304123640060425,0.5842517018318176,-0.9735562801361084,0.1183717250823974,0.2368711978197097,24.860313415527344,74.76512145996094,-104.66606903076172,1.984957692388884,1.0096183711393902,1.5886605410250352,1.008925993444506,48.55475616455078,7.8087158203125,33.93938446044922
418.622,-0.1086063012480735,-1.8431944847106927,-0.0985635668039321,-0.9196625351905824,-0.157166451215744,0.3609748482704162,-23.66489791870117,66.92109680175781,-138.57119750976562,0.3750811815261841,-1.7373318672180176,0.1692181676626205,-0.9690557718276978,0.1049417033791542,0.2394931018352508,24.814456939697266,74.73409271240234,-104.8005599975586,1.849020284864344,1.0003915798849818,1.7853970700808872,1.0037125065711612,48.47935485839844,7.812995910644531,33.77063751220703
439.596,-0.069125011563301,-1.911351203918457,0.1437613368034362,-0.9132239818572998,-0.1601071506738662,0.3604608178138733,-23.627513885498047,66.88499450683594,-138.5285186767578,0.6112321615219116,-1.6292393207550049,0.1607033461332321,-0.961270034313202,0.0967705398797988,0.2387797683477401,24.76124763488769,74.70652770996094,-104.9452896118164,1.917996093297292,0.9947584339502996,1.747527134276145,0.9951986706328202,48.38876152038574,7.821533203125,33.583229064941406
459.746,0.8003389239311218,-1.8548762798309328,0.3270128667354584,-0.915799915790558,-0.1528031378984451,0.3574910163879394,-23.55855369567871,66.85531616210938,-138.4716796875,0.9777587056159972,-1.298546552658081,0.5155524015426636,-0.961156725883484,0.098392367362976,0.2382018566131591,24.75313377380371,74.68212127685547,-105.04521942138672,2.046471554077703,0.994906081754296,1.7052945536078117,0.9951097598558188,48.31168746948242,7.826805114746094,33.42646026611328
482.396,-0.0240254178643226,-1.598914623260498,0.1502393782138824,-0.9171319007873536,-0.1458205878734588,0.3572782278060913,-23.509984970092773,66.83101654052734,-138.4205322265625,1.6275181770324707,-1.853628158569336,0.559720516204834,-0.9590598344802856,0.11945391446352,0.2387101799249649,24.785175323486328,74.64208221435547,-105.11705017089844,1.606137311672296,0.9950086931046616,2.52943468448443,0.9955137135136912,48.2951602935791,7.811065673828125,33.30348205566406
502.241,-1.2445260286331177,-1.229989528656006,0.036522414535284,-0.923603355884552,-0.1566074043512344,0.3554439544677734,-23.513328552246094,66.8128662109375,-138.39662170410156,1.0711774826049805,-1.550078511238098,0.8948825597763062,-0.961251139640808,0.1250942051410675,0.2425658106803894,24.844219207763672,74.60218048095703,-105.14517974853516,1.750158039524497,1.0019528146906551,2.0859001380780087,0.9992449580216366,48.357547760009766,7.789314270019531,33.251441955566406
525.069,-0.2154731154441833,-1.0663809776306152,0.1805236488580703,-0.9177063703536988,-0.1573597192764282,0.355528861284256,-23.494001388549805,66.79751586914062,-138.37026977539062,-0.3337223529815674,-1.2355749607086182,0.6638967394828796,-0.9620124101638794,0.1070193797349929,0.2465682029724121,24.8300838470459,74.57266998291016,-105.2110366821289,1.102808161344792,0.9966683674345224,1.4417957459729362,0.9988577995216452,48.3240852355957,7.775154113769531,33.15923309326172
547.045,-1.152302622795105,-1.1075952053070068,0.2401245683431625,-0.9091503620147704,-0.1451154798269271,0.358370691537857,-23.472288131713867,66.78131103515625,-138.323974609375,0.3509092032909393,-0.3838370144367218,0.7287080883979797,-0.9538738131523132,0.105206973850727,0.2372628599405288,24.86468505859375,74.56226348876953,-105.2403335571289,1.6162389308643503,0.98794859977142,0.8952561648503828,0.9885531970874004,48.33697319030762,7.780952453613281,33.083641052246094
557.079,-2.623812675476074,-0.9070706963539124,0.1437156945466995,-0.902817726135254,-0.1556069552898407,0.3562356233596802,-23.50320625305176,66.76555633544922,-138.30029296875,0.7920218706130981,0.1303601264953613,0.7189430594444275,-0.950917422771454,0.112489715218544,0.239434003829956,24.934829711914062,74.55805206298828,-105.24888610839844,2.779896473797528,0.9829533002686672,1.0775766927846349,0.9870291399701918,48.43803596496582,7.7924957275390625,33.05140686035156
587.073,-0.5674322843551636,-0.1458894312381744,0.271545797586441,-0.9181643724441528,-0.1567107737064361,0.3562431931495666,-23.502880096435547,66.76811218261719,-138.28713989257812,0.1955830454826355,-0.0410159081220626,0.1522262096405029,-0.9582377672195436,0.1177470758557319,0.2444021850824356,24.95590591430664,74.55294036865234,-105.29647064208984,0.6457555603031023,0.997242846094588,0.2512127610231106,0.9958998044339302,48.45878601074219,7.784828186035156,32.99066925048828
607.209,-0.7287279963493347,0.1352264881134033,0.1355869770050048,-0.932131052017212,-0.1441574692726135,0.3601676225662231,-23.49805450439453,66.77852630615234,-138.26876831054688,-0.1401086151599884,-0.2032028585672378,0.0094329928979277,-0.9661588072776794,0.1199108585715293,0.2444180250167846,24.95996284484864,74.546875,-105.35432434082033,0.753468329848147,1.009638742534578,0.2470036581246499,1.003783654896161,48.45801734924317,7.768348693847656,32.91444396972656
617.383,-2.2602643966674805,0.2443017065525055,0.1837629675865173,-0.9244426488876344,-0.1494254767894745,0.3511293530464172,-23.535873413085938,66.79280090332031,-138.26144409179688,0.3864037096500397,-0.0707094818353653,0.1743984222412109,-0.9746972322463988,0.1153235808014869,0.2382820695638656,24.98586082458496,74.54727935791016,-105.39964294433594,2.280843548979912,1.000106997659222,0.4297935170904299,1.0100062215220789,48.5217342376709,7.754478454589844,32.86180114746094
645.165,-1.1998929977416992,0.4691493213176727,0.5167890787124634,-0.91708642244339,-0.1596028506755828,0.34644815325737,-23.55828857421875,66.81218719482422,-138.2577667236328,0.2805035710334778,-0.0021295733749866,0.4780724942684173,-0.9611053466796876,0.1028234213590622,0.2372919768095016,25.00790405273437,74.54773712158203,-105.4441909790039,1.3881337268429403,0.993250672825964,0.554292430239958,0.995290724187876,48.566192626953125,7.735549926757812,32.813575744628906
656.937,0.5775117874145508,0.955678164958954,1.1093604564666748,-0.914753258228302,-0.1498067080974578,0.3633884191513061,-23.506046295166016,66.83834075927734,-138.21539306640625,-0.1958916336297989,1.899505615234375,0.7651876211166382,-0.9444044232368468,0.1031773313879966,0.2444598525762558,25.09086036682129,74.57389831542969,-105.40292358398438,1.5740143715843296,0.9956237825622573,2.05718429168201,0.9809719139013484,48.596906661987305,7.735557556152344,32.812469482421875
679.721,-1.2193784713745115,0.728854238986969,1.2814264297485352,-0.9406340718269348,-0.1525520235300064,0.4022406041622162,-23.460718154907227,66.84841918945312,-138.14443969726562,-1.9591288566589355,12.311455726623535,0.8775538206100464,-0.9133394360542296,0.0822946205735206,0.2897928655147552,25.381982803344727,74.76396942138672,-105.10449981689452,1.9131560451251728,1.0343413752729818,12.497208836123066,0.961738652093411,48.84270095825195,7.915550231933594,33.039939880371094
702.295,-1.801169753074646,-2.928027391433716,2.2416231632232666,-0.9342743158340454,-0.1550579369068145,0.4006244242191314,-23.322900772094727,66.79776000976562,-137.95945739746094,-4.114037036895752,32.726314544677734,-1.7841624021530151,-0.9381430149078368,-0.0919114500284195,0.2472126483917236,26.157644271850582,75.36911010742188,-104.27111053466795,4.103953129639299,1.028305105650012,33.03210862018033,0.9745122495851668,49.48054504394531,8.57135009765625,33.68834686279297
717.173,-6.929090023040772,-7.233856201171875,1.999976634979248,-0.9030166864395142,-0.1750799715518951,0.3889093399047851,-23.254133224487305,66.66078186035156,-137.7321014404297,-0.712765097618103,31.39541244506836,-2.8099119663238525,-1.0180816650390625,0.0283352360129356,0.1136890724301338,27.115631103515625,75.98367309570312,-103.3427734375,10.21473791279536,0.9986704196540458,31.52896385767896,1.0248016234758035,50.36976432800293,9.322891235351562,34.38932800292969
739.643,-8.957117080688477,-8.627822875976562,1.1992967128753662,-0.9246349334716796,-0.1901104152202606,0.3837571144104004,-23.25809097290039,66.49788665771484,-137.53561401367188,23.32048416137696,10.430838584899902,0.6909970045089722,-0.9784873127937316,0.3688809275627136,0.1915751099586486,28.07114219665528,76.16310119628906,-102.91402435302734,12.494302164662876,1.0190001241570064,25.5563074790845,1.0631140967805357,51.329233169555664,9.66521453857422,34.62158966064453
762.0649999999999,6.362874507904053,-8.783524513244629,-0.974254071712494,-0.9313253164291382,-0.1773582994937896,0.3960704505443573,-23.02412796020508,66.3149185180664,-137.41738891601562,5.653466701507568,9.13735294342041,3.390648126602173,-0.9649325609207152,0.2340106070041656,0.2903333306312561,28.817625045776367,76.25648498535156,-102.34246063232422,10.889703663293732,1.0274700059931547,11.267182401830516,1.034480185499416,51.841753005981445,9.941566467285156,35.074928283691406
785.03,12.256938934326172,-8.33902359008789,-2.978191375732422,-0.920041799545288,-0.144342303276062,0.4270038902759552,-22.71113586425781,66.11572265625,-137.35128784179688,-14.524612426757812,7.508848667144775,3.110299825668335,-0.9913272261619568,0.1232378631830215,0.2313089370727539,29.038055419921875,76.34791564941406,-101.8951644897461,15.12089581824867,1.024521320293712,16.643952038478176,1.0253882506746426,51.74919128417969,10.232192993164062,35.45612335205078
798.1129999999999,4.7289137840271,-12.40919017791748,-3.1053788661956787,-0.9363582134246826,-0.1386103332042694,0.466030478477478,-22.46392822265625,65.82984924316406,-137.1964874267578,-10.862922668457031,4.995651245117188,3.814889430999756,-0.9766823649406432,0.1251668483018875,0.1949888169765472,29.32978057861328,76.40196228027344,-101.4321060180664,13.637961884060973,1.0550658440063394,12.550418384837702,1.0037907255228995,51.79370880126953,10.572113037109377,35.764381408691406
819.577,-1.732352614402771,-19.26901626586914,-1.39198637008667,-0.9179245233535768,-0.1666251122951507,0.4338419139385223,-22.21790313720703,65.4376449584961,-136.92669677734375,-6.800566673278809,9.66805362701416,1.769554615020752,-0.9624658226966858,0.0566896982491016,0.1575646996498108,29.646629333496094,76.59242248535156,-101.01080322265624,19.39674352796017,1.028867418529279,11.951999479086052,0.9769241609882096,51.864532470703125,11.154777526855469,35.9158935546875
842.054,0.0083500742912292,-23.817420959472656,-1.0895204544067385,-0.884505569934845,-0.1767767667770385,0.4380603432655334,-21.87383079528809,64.9546127319336,-136.60838317871094,4.207486152648926,9.112479209899902,-0.1622097939252853,-0.9686461687088012,0.0354570709168911,0.1689228266477584,29.96719741821289,76.79061126708984,-100.80940246582033,23.84232928438492,1.002744729659461,10.038253288936064,0.9839042257226632,51.84102821350098,11.83599853515625,35.798980712890625
864.972,10.811314582824709,-25.480133056640625,-2.1068789958953857,-0.8996201753616333,-0.1751584708690643,0.4435943961143493,-21.34258079528809,64.43883514404297,-136.2602081298828,10.487024307250977,7.460698127746582,1.6628109216690063,-0.9473702907562256,0.1252017021179199,0.2144647240638733,30.621023178100582,76.88861083984375,-100.38308715820312,27.75897409300736,1.0182204761734754,12.977081163938829,0.9793778902387744,51.96360397338867,12.44977569580078,35.87712097167969
887.262,21.40564346313477,-27.067960739135746,-3.660868644714356,-0.906000316143036,-0.15337435901165,0.475297212600708,-20.62139129638672,63.876991271972656,-135.97500610351562,5.991705417633057,4.997413635253906,5.754538536071777,-0.958911120891571,0.2161767333745956,0.2165994793176651,31.567550659179688,76.87445068359375,-99.5716323852539,34.70270925850157,1.0345374363257804,9.694812562223682,1.0065576249091377,52.188941955566406,12.997459411621094,36.40337371826172
897.087,18.173547744750977,-31.10855865478516,-4.082936763763428,-0.926378607749939,-0.1383376270532608,0.5060145854949951,-19.924022674560547,63.23469924926758,-135.62387084960938,-2.421151638031006,3.6376633644104,6.952283382415772,-0.9656743407249452,0.1807596981525421,0.2004752606153488,32.30595397949219,76.84089660644531,-98.80718231201172,36.258662852149456,1.064596348241489,8.211504992175813,1.0026920419199243,52.229976654052734,13.606197357177734,36.816688537597656
922.02,16.318574905395508,-37.61814498901367,-2.932527542114258,-0.9245071411132812,-0.1624035090208053,0.5092275142669678,-19.19388008117676,62.47671890258789,-135.2161865234375,-6.92164945602417,6.061054706573486,4.005241394042969,-0.9750586748123168,0.0791745036840438,0.1587284505367279,32.68853759765625,76.92999267578125,-98.3121109008789,41.10985815035996,1.0678956011700012,10.034319806180765,0.99106142209762,51.88241767883301,14.45327377319336,36.904075622558594
941.852,15.94167137145996,-44.959320068359375,-0.6614324450492859,-0.9233605265617372,-0.1675380766391754,0.5008353590965271,-18.350954055786133,61.602237701416016,-134.65260314941406,-1.3152636289596558,7.2455854415893555,0.5336999893188477,-0.9790027141571044,0.0273247323930263,0.1530002206563949,32.887115478515625,77.09416198730469,-98.1142578125,47.70654923597149,1.0637197591742242,7.383309724211403,0.9912628424632052,51.23806953430176,15.491924285888672,36.53834533691406
965.605,17.742599487304688,-51.10021209716797,-1.1508336067199707,-0.9069552421569824,-0.1818567365407943,0.5268884897232056,-17.478431701660156,60.59526443481445,-134.1101837158203,8.695272445678711,8.934771537780762,0.6273753046989441,-0.9868271946907043,0.0759753808379173,0.1699931025505066,33.460792541503906,77.26123809814453,-97.7303695678711,54.105045337129255,1.0645427020576013,12.483248980528376,1.0042399243155686,50.93922424316406,16.665973663330078,36.37981414794922
986.898,28.00541877746582,-55.11909866333008,-2.961568832397461,-0.907151460647583,-0.1851855367422104,0.5760130286216736,-16.46714973449707,59.48550796508789,-133.552490234375,10.843265533447266,6.224469661712647,2.384028673171997,-0.9714983105659484,0.1737892627716064,0.1945211887359619,34.253326416015625,77.3172378540039,-97.17352294921876,61.89660255868797,1.0904166473029733,12.728080087465385,1.0059076340074382,50.720476150512695,17.831729888916016,36.37896728515625
1006.657,35.24615478515625,-61.6850814819336,-5.237459659576416,-0.914402186870575,-0.159293383359909,0.6250665187835693,-15.351522445678713,58.2289924621582,-133.11537170410156,5.011209964752197,5.366720199584961,4.771107196807861,-0.9709332585334778,0.1966248750686645,0.1878686249256134,35.114376068115234,77.32537078857422,-96.4412841796875,71.23743179156355,1.119023634352799,8.756561819281398,1.0082992384474194,50.465898513793945,19.096378326416016,36.67408752441406
1016.771,29.179443359375,-69.59700775146484,-5.766582012176514,-0.8992088437080383,-0.1641413569450378,0.6586246490478516,-14.373501777648926,56.80732727050781,-132.6166534423828,4.440345287322998,4.30116081237793,4.372459888458252,-0.9878010153770448,0.1381299495697021,0.1887245178222656,35.74883270263672,77.33912658691406,-95.9233856201172,75.68643782622874,1.1266345272518108,7.571991553136036,1.0151096849972892,50.122334480285645,20.53179931640625,36.693267822265625
1041.6989999999998,24.33039665222168,-79.14781188964844,-4.277242660522461,-0.9129570126533508,-0.1845600008964538,0.6639596223831177,-13.463201522827148,55.21875,-132.07632446289062,8.421320915222168,5.7152180671691895,0.8073184490203857,-0.9885784983634948,0.054336704313755,0.1636756956577301,36.139915466308594,77.45531463623047,-95.72125244140624,82.91344362014286,1.1438510746766652,10.20951157453598,1.0035086737100705,49.60311698913574,22.23656463623047,36.355072021484375
1056.7869999999998,26.634960174560547,-88.9275131225586,-4.617020130157471,-0.8927617073059082,-0.1774447411298751,0.6723145246505737,-12.517698287963867,53.441650390625,-131.56019592285156,17.3133544921875,7.11506462097168,-0.7485804557800293,-0.9785742163658142,0.0482873804867267,0.134731650352478,36.70404052734375,77.62522888183594,-95.51262664794922,92.94536335151707,1.1315992763529568,18.73330619595825,0.988985230252171,49.22173881530762,24.183578491210938,36.04756927490234
1079.178,28.3510684967041,-96.02294158935548,-7.179205417633057,-0.8548606634140015,-0.1442974656820297,0.7502833604812622,-11.598502159118652,51.49023818969727,-131.12197875976562,28.07623863220215,6.911860466003418,-0.5333178639411926,-0.9768892526626588,0.1198139637708664,0.1863565891981125,37.56378936767578,77.73919677734375,-95.22240447998048,100.37793276814456,1.146531130615274,28.91942977961115,1.0016969482931692,49.162291526794434,26.248958587646484,35.89957427978516
1101.78,26.534746170043945,-102.00205993652344,-8.681930541992188,-0.8566935062408447,-0.149713858962059,0.7987803220748901,-10.788690567016602,49.41499710083008,-130.76312255859375,26.39339256286621,5.3597283363342285,-0.8138375282287598,-0.9975114464759828,0.1903938204050064,0.2127147167921066,38.38710784912109,77.79772186279297,-94.95803833007812,105.75390727315354,1.1808420750187592,26.944390702690217,1.0375579229320004,49.175798416137695,28.38272476196289,35.805084228515625
1117.291,22.56830406188965,-108.29359436035156,-10.57812213897705,-0.8372119069099426,-0.1562387347221374,0.8097031712532043,-10.13443374633789,47.21700668334961,-130.48822021484375,15.888689994812012,2.008793354034424,-1.5938174724578855,-1.010095477104187,0.1844189167022705,0.2079107910394668,38.743900299072266,77.81815338134766,-94.95375061035156,111.12482888941332,1.1751397979971798,16.094283911562027,1.0476307110497625,48.87833404541016,30.601146697998047,35.53446960449219
1139.033,19.18267059326172,-114.03258514404295,-10.426671028137209,-0.8043073415756226,-0.1384872049093246,0.8128572106361389,-9.558032035827637,44.915626525878906,-130.22152709960938,10.1163969039917,-0.985040009021759,-3.277362585067749,-1.0004642009735107,0.12216167896986,0.1969614177942276,38.58087921142578,77.83672332763672,-95.3560791015625,116.10392239046875,1.1518792690725912,10.679555030640012,1.0269595383158057,48.13891124725342,32.92109680175781,34.865447998046875
1161.731,11.080974578857422,-119.5132293701172,-10.069071769714355,-0.7788113951683044,-0.0930961817502975,0.8240782022476196,-9.126835823059082,42.51872634887695,-129.9398956298828,12.297377586364746,-2.222044944763184,-4.230967044830322,-0.994503915309906,0.1010227352380752,0.1875659078359604,38.29349136352539,77.85771942138672,-95.92786407470705,120.44744164321293,1.1376814016763015,13.193333974875868,1.0170666646705333,47.42032718658447,35.338993072509766,34.01203155517578
1182.8719999999998,7.481083393096924,-123.83586120605467,-9.518186569213867,-0.7665719985961914,-0.1132017597556114,0.8073835968971252,-8.794231414794922,40.06138229370117,-129.67091369628906,16.235198974609375,-3.626343727111816,-4.530158042907715,-0.9800886511802672,0.127064824104309,0.1709550321102142,38.06650924682617,77.8560791015625,-96.5188217163086,124.4262151033538,1.119069050587168,17.2410668598565,1.0029680237678662,46.86074066162109,37.79469680786133,33.15209197998047
1197.544,4.378421783447266,-126.78797149658205,-11.004502296447754,-0.7528603076934814,-0.1060753241181373,0.8198535442352295,-8.561419486999512,37.55604934692383,-129.4508819580078,18.528026580810547,-3.1959285736083984,-5.076877593994141,-0.9849169850349426,0.1459764093160629,0.1829628497362136,37.89255905151367,77.85662841796875,-97.11214447021484,127.33993625066876,1.118128101463405,19.47502027036759,1.0123467705636882,46.453978538513184,40.30057907104492,32.33873748779297
1219.336,6.924956321716309,-128.86073303222656,-13.032026290893556,-0.7237330675125122,-0.0881111919879913,0.8290691375732422,-8.31205940246582,35.01460266113281,-129.28810119628906,13.702985763549805,-1.4061654806137085,-5.238040924072266,-0.976237416267395,0.1656677722930908,0.1816887706518173,37.75714492797852,77.87971496582031,-97.56572723388672,129.7030348407738,1.104042014617675,14.737238306995447,1.0067254407622583,46.069204330444336,42.8651123046875,31.722373962402344
1241.634,9.72108268737793,-131.9829864501953,-14.361659049987791,-0.6866381168365479,-0.0680882632732391,0.8708279132843018,-8.022268295288086,32.40571212768555,-129.1594696044922,7.094011306762695,0.3087302148342132,-2.996192455291748,-0.9466286897659302,0.2079297304153442,0.1657961308956146,37.87177658081055,77.8905258178711,-97.61969757080078,133.11748724940452,1.1110576806104615,7.706976060373857,0.9832746341173024,45.89404487609863,45.48481369018555,31.539772033691406
1264.942,8.094799995422363,-137.50881958007812,-12.791060447692873,-0.6785949468612671,-0.0775709003210067,0.8804665207862854,-7.759671688079834,29.710607528686523,-129.00123596191406,10.827764511108398,3.7459676265716553,0.5974017381668091,-0.9196464419364928,0.162637248635292,0.1310032159090042,38.485721588134766,77.93913269042969,-97.22921752929688,138.33948271064517,1.1143292335336823,11.47299640913855,0.9430600698728636,46.2453932762146,48.22852516174317,31.772018432617188
1287.546,0.791969895362854,-141.82118225097656,-12.191914558410645,-0.6223455667495728,-0.078994870185852,0.903265416622162,-7.644114971160889,26.9280014038086,-128.8319854736328,13.873722076416016,9.933568000793455,-3.21419095993042,-0.9808523654937744,0.079011432826519,0.1481737196445465,39.02775573730469,78.16059112548828,-96.9698257446289,142.34647073945828,1.0997466102853577,17.363379884311673,0.995122917335006,46.671870708465576,51.23258972167969,31.862159729003903
1297.85,-0.4210242927074432,-143.56898498535156,-11.701865196228027,-0.5509044528007507,-0.0938060730695724,0.92672860622406,-7.5647053718566895,24.101348876953125,-128.6610870361328,22.82038688659668,11.056706428527832,-6.825571060180664,-0.9989085793495178,0.0973038375377655,0.1593538969755172,39.58018493652344,78.4329833984375,-96.91590881347656,144.04570233175943,1.0821835357527934,26.26041193504356,1.016208665176071,47.14489030838013,54.331634521484375,31.74517822265625
1319.488,-2.64870548248291,-143.96575927734375,-12.397616386413574,-0.4874827563762665,-0.1129956543445587,0.9516171216964722,-7.554305076599121,21.25676345825196,-128.51365661621094,23.9620361328125,13.363737106323242,-5.9299139976501465,-0.992329478263855,0.1718537956476211,0.1880507171154022,40.49117660522461,78.68692779541016,-96.52239990234376,144.52285762847237,1.0751663136328424,28.07013582255454,1.0245069998382277,48.04548168182373,57.4301643371582,31.991256713867188
1339.408,2.302943706512451,-146.77603149414062,-13.765639305114746,-0.4453749060630798,-0.1115716248750686,0.983227550983429,-7.458139419555664,18.35427665710449,-128.392333984375,14.320083618164062,17.916776657104492,-3.2042436599731445,-0.9286061525344848,0.2039770185947418,0.1805380582809448,41.83005142211914,78.95124816894531,-95.47616577148438,147.43812192361528,1.0851467418929257,23.15907722782264,0.9677344682956956,49.288190841674805,60.59697151184082,32.916168212890625
1361.481,1.4582017660140991,-151.60202026367188,-15.52797508239746,-0.4186556041240692,-0.1222227960824966,1.014644980430603,-7.398489475250244,15.361169815063477,-128.30368041992188,6.642758369445801,14.964388847351074,0.0945577248930931,-0.9451255202293396,0.1547838598489761,0.1613617837429046,43.027381896972656,79.14979553222656,-94.40178680419922,152.40215520318844,1.104407245113745,16.372785758474468,0.9712146608815267,50.4258713722229,63.788625717163086,33.901893615722656
1382.062,-1.9468693733215328,-155.45828247070312,-13.941725730895996,-0.3803154826164245,-0.1345201879739761,1.0060949325561523,-7.40893030166626,12.308449745178224,-128.1762237548828,4.83072566986084,21.030563354492188,-3.68573522567749,-0.9714088439941406,0.0967196300625801,0.1567841172218322,44.25854110717773,79.5106201171875,-93.2532730102539,156.0943291905674,1.0839568997914475,21.89075489010285,0.988721946981306,51.667471408844,67.20217037200928,34.922950744628906
1404.144,4.545538902282715,-157.5603790283203,-13.223668098449709,-0.3092718720436096,-0.1269005537033081,0.9841527938842772,-7.291297435760498,9.214301109313965,-128.0323944091797,3.643832921981812,26.31739616394043,-10.311569213867188,-0.9893959164619446,0.1144302785396575,0.1485867798328399,45.49655151367188,80.03028106689453,-92.07501983642578,158.17964585065323,1.0393794124754414,28.49932137552539,1.0070137036303566,52.78784894943237,70.81597995758057,35.957374572753906
1424.094,2.201975107192993,-159.48025512695312,-13.361749649047852,-0.2525855898857116,-0.1121954247355461,0.9961329698562622,-7.220551013946533,6.080836296081543,-127.892333984375,5.669074058532715,17.25168800354004,-10.934945106506348,-1.0288243293762207,0.1276619732379913,0.1644589900970459,46.065242767333984,80.41658782958984,-91.62255859375,160.05416840374568,1.0337640868129243,21.197456548721192,1.049677969451197,53.28579378128052,74.3357515335083,36.269775390625
1447.987,8.336566925048828,-160.9755096435547,-13.824577331542969,-0.2106986194849014,-0.129508763551712,1.023917317390442,-7.044427394866943,2.921757936477661,-127.7661361694336,-0.6502562761306763,18.321531295776367,-13.646522521972656,-1.018997311592102,0.1160918474197387,0.1451847702264785,46.427616119384766,80.86354064941406,-91.27333068847656,161.78297806473276,1.0533627584747691,22.85451638493948,1.0358143924347525,53.47204351425171,77.9417827129364,36.49280548095703
1466.427,18.441654205322266,-164.10899353027344,-13.340982437133787,-0.1817305386066436,-0.1348218917846679,1.0500829219818115,-6.676990985870361,-0.2853446900844574,-127.6385498046875,-5.269861221313477,11.923495292663574,-15.16213321685791,-1.0299986600875854,0.1618159413337707,0.1245004534721374,46.16474533081055,81.23011779785156,-91.47808074951172,165.67992690647807,1.0741867036062758,19.99578608036753,1.0500390476390502,52.84173631668091,81.51546248793602,36.16046905517578
1476.6840000000002,19.943124771118164,-166.54815673828125,-12.769444465637209,-0.122421994805336,-0.1268894970417022,1.0112961530685425,-6.288926601409912,-3.537245750427246,-127.51602172851562,-6.252618789672852,3.979256629943848,-11.423090934753418,-1.007909059524536,0.1110568866133689,0.1659418642520904,45.22174072265625,81.4292221069336,-92.3321304321289,168.22329045205504,1.026551507954105,13.61678124813525,1.027497448487026,51.51066732406616,84.96646785736084,35.18389129638672
1500.236,30.782878875732425,-168.4364471435547,-11.15768337249756,-0.0386942327022552,-0.1188777983188629,0.9628698825836182,-5.695260524749756,-6.837072372436523,-127.3835678100586,-13.150775909423828,-4.270249843597412,-11.434226989746094,-1.0243085622787476,0.0783023983240127,0.1556230932474136,43.28765106201172,81.52242279052734,-94.02384948730467,171.58938270319177,0.9709518965243062,17.942114914347858,1.0390177301147177,48.98291158676148,88.35949516296387,33.359718322753906
1517.141,36.75558471679688,-169.56532287597656,-10.347578048706056,0.0320427753031253,-0.1019281893968582,0.9192556142807008,-4.986159324645996,-10.168767929077148,-127.27204132080078,-16.260883331298828,-15.02743911743164,-13.927141189575195,-1.04319167137146,0.1398499011993408,0.1411371231079101,40.29682922363281,81.46102142333984,-96.72564697265624,173.81151889728676,0.925444206653992,26.15732239462956,1.061944699880094,45.28298854827881,91.629789352417,30.54639434814453
1540.226,36.82764434814453,-166.9294891357422,-10.081982612609863,0.1391219794750213,-0.0687598288059234,0.8696478605270386,-4.262487411499023,-13.485525131225586,-127.20199584960938,-17.68392562866211,-23.88145446777344,-16.891023635864258,-1.009793996810913,0.1690444499254226,0.2024061232805252,36.31266784667969,81.23316192626953,-100.38196563720705,171.24069640349592,0.8833856692010142,34.18116107746654,1.0436609510695505,40.57515525817871,94.71868705749512,26.820030212402344
1561.639,49.94769287109375,-163.16201782226562,-11.72749137878418,0.1963290125131607,-0.0625052452087402,0.8805756568908691,-3.260906934738159,-16.731964111328125,-127.22071075439452,-30.855451583862305,-28.90195083618164,-6.926260948181152,-1.01849627494812,0.1318278163671493,0.1729980111122131,32.952728271484375,80.80176544189453,-103.1386260986328,171.0384463710364,0.9043591511903792,42.8410404320837,1.041461255688424,36.21363520622253,97.53372955322266,24.08208465576172
1586.466,55.74644470214844,-158.12234497070312,-11.128684043884276,0.1775941252708435,-0.0658705234527587,0.8533909916877747,-2.138752222061157,-19.836502075195312,-127.29315185546876,-31.29100799560547,-26.11025047302246,-3.0070459842681885,-0.98944753408432,0.1438270956277847,0.151530310511589,30.52231407165528,80.36276245117188,-104.94700622558594,168.0303237053132,0.874159472799157,40.864589643070175,1.011263611105435,32.66106629371643,100.1992645263672,22.34614562988281
1596.503,50.6301383972168,-155.7783966064453,-10.85684299468994,0.2198336720466613,-0.0263463445007801,0.8284206390380859,-1.077386736869812,-22.892915725708008,-127.43184661865234,-38.514923095703125,-26.61384963989257,0.7570931911468506,-0.9843746423721312,0.1352334171533584,0.1555178463459015,28.46567153930664,79.87122344970703,-106.22301483154295,164.15904118630704,0.8574973635051851,46.82167749902621,1.0057173132606911,29.543058276176453,102.76413917541504,21.20883178710937
1620.387,47.42485046386719,-150.41079711914062,-9.651250839233398,0.2886995077133178,-0.0421804897487163,0.7277150750160217,-0.0828928127884864,-25.877826690673828,-127.59947204589844,-34.42943572998047,-24.213119506835938,-2.787037372589112,-0.9440273642539978,0.1004847064614296,0.1316370666027069,26.38388633728028,79.46949005126953,-107.61211395263672,158.00528780486192,0.7840254012944529,42.18327604932295,0.958443090640626,26.46677915006876,105.34731674194336,19.98735809326172
1641.615,36.8062629699707,-140.9416046142578,-9.624518394470217,0.3699088990688324,-0.0396514497697353,0.6548013091087341,0.723929226398468,-28.717788696289062,-127.80635833740234,-30.674392700195312,-23.95828628540039,-1.859119176864624,-0.960943043231964,0.072405457496643,0.1496170759201049,24.51767539978028,79.05948638916016,-108.91194152832033,145.98584951762246,0.7531066229224581,38.96632101408581,0.9752124650649668,23.793746173381805,107.77727508544922,18.89441680908203
1664.045,36.474029541015625,-130.80491638183594,-9.367435455322266,0.4055179357528686,0.0044712633825838,0.7007403373718262,1.584002137184143,-31.330585479736328,-128.07896423339844,-30.97398567199707,-18.160120010375977,3.754549264907837,-0.9542866945266724,0.0184640847146511,0.2102776169776916,23.293132781982425,78.68820190429688,-109.54830169677734,136.11770578300093,0.8096306619894561,36.10089178099286,0.9773539246234236,21.70913064479828,110.0187873840332,18.530662536621094
1685.975,40.287071228027344,-124.26110076904295,-6.076870918273926,0.3344837427139282,0.0061842873692512,0.764868974685669,2.516187191009521,-33.77690887451172,-128.32666015625,-24.94090843200684,-10.156342506408691,7.106534481048584,-0.9450294375419616,0.0158100984990596,0.1298170238733291,22.93581771850586,78.48347473144531,-109.43143463134766,130.77001809521846,0.8348306223341889,27.851445902350672,0.9540351443855488,20.41963052749633,112.26038360595705,18.895225524902344
1696.564,26.453975677490234,-119.5069580078125,-3.3115179538726807,0.3455542027950287,-0.0145063567906618,0.6977231502532959,3.14437198638916,-36.0987663269043,-128.51483154296875,-11.43455696105957,-0.0840901434421539,2.640632390975952,-0.9219335317611694,0.0720237046480178,0.0431662201881408,23.09535217285156,78.53514099121094,-109.07845306396484,122.44464868905104,0.7787398383645394,11.735804338527949,0.925749519893032,19.9509801864624,114.63390731811523,19.436378479003903
1719.712,11.71815586090088,-115.8402328491211,-3.1811537742614746,0.4914648532867431,0.038984477519989,0.6495716571807861,3.5300047397613525,-38.40635299682617,-128.76377868652344,-4.006289958953857,3.114572048187256,-6.399993896484375,-0.9908944368362428,-0.0151245286688208,0.1678942888975143,22.36502456665039,78.6607437133789,-109.7702407836914,116.4748662272443,0.8154758300012694,8.1676704239092,1.005131348911609,18.83501982688904,117.06709671020508,18.99353790283203
1739.213,24.811279296875,-105.13495635986328,1.671253681182861,0.6018898487091064,0.0085699511691927,0.6621707081794739,4.083409786224365,-40.53596115112305,-128.85443115234375,4.626424312591553,15.317909240722656,-4.936155319213867,-0.9710267782211304,-0.0399912074208259,0.160245805978775,22.295446395874023,79.01846313476562,-109.94823455810548,108.0358816227496,0.8948826072804295,16.745380699242347,0.9849725981098516,18.21203660964965,119.55442428588869,18.90619659423828
1761.674,39.37236404418945,-99.52574157714844,8.39758014678955,0.6180430054664612,0.0067036002874374,0.6424229145050049,4.821932315826416,-42.55856323242188,-128.8124542236328,17.27251625061035,17.266796112060547,-1.1952499151229858,-1.007725715637207,0.0061810184270143,0.1231353431940078,23.09856414794922,79.39252471923828,-109.5052719116211,107.35956240238346,0.89147590878494,24.45221233268412,1.0152396937121904,18.276631832122803,121.95108795166016,19.30718231201172
1784.667,38.624019622802734,-99.01810455322266,8.28783130645752,0.6477596163749695,0.084380954504013,0.6823108196258545,5.627543449401856,-44.54436874389648,-128.83572387695312,21.79022216796875,16.589981079101562,-3.15103816986084,-1.0142648220062256,0.0739918649196624,0.1317418068647384,23.987672805786133,79.74576568603516,-109.07421112060548,106.60716706159997,0.9445955328434288,27.56755875811829,1.025457863059032,18.36012935638428,124.29013442993164,19.761512756347656
1806.154,33.36334991455078,-100.0622100830078,10.235875129699709,0.6819572448730469,0.0784556493163108,0.7218692302703857,6.30190372467041,-46.533782958984375,-128.84417724609375,22.939502716064453,20.10950469970703,-5.867870330810547,-0.9620682001113892,0.1246580630540847,0.1593557447195053,24.94559097290039,80.15021514892578,-108.60113525390624,105.97326145725415,0.996150670509055,31.06517127503201,0.983111950758952,18.64368724822998,126.68399810791016,20.2430419921875
1816.888,37.96040725708008,-102.58184051513672,11.165038108825684,0.6728265881538391,0.0153146386146545,0.7003551125526428,7.021386623382568,-48.56353378295898,-128.8267364501953,12.982876777648926,19.468647003173828,-5.083283424377441,-1.0296132564544678,0.0850532501935958,0.1678743064403534,25.6593017578125,80.54307556152344,-108.16980743408205,109.94855432686622,0.9713019301747826,23.94625390181845,1.0466705766372233,18.63791513442993,129.10660934448242,20.65692901611328
1841.095,44.28407669067383,-106.74812316894533,12.313700675964355,0.7360289096832275,0.0385658368468284,0.6202460527420044,7.906618118286133,-50.71583938598633,-128.82374572753906,7.234487056732178,22.3021297454834,-13.571876525878906,-0.9242976903915404,0.1286472529172897,0.1630398333072662,25.66627311706543,81.0365982055664,-108.3450927734375,116.22335596933624,0.96329177594497,27.09093255301677,0.9473427697466016,17.759654998779297,131.7524375915527,20.47865295410156
1864.036,52.12608337402344,-108.45077514648438,11.885066032409668,0.8237053155899048,0.0795873627066612,0.5419996380805969,9.05662727355957,-52.94320297241211,-128.94960021972656,1.1045594215393066,19.32587432861328,-1.6381354331970217,-0.9587090015411376,0.0822956711053848,0.1942369937896728,26.54946517944336,81.3667984008789,-107.5080337524414,120.9130017507782,0.9892361714540994,19.426604381068778,0.981643283925042,17.49283790588379,134.31000137329102,21.44156646728516
1884.206,47.14427947998047,-106.8673095703125,12.81698989868164,0.8460510969161987,0.0643498823046684,0.4947988390922546,10.123977661132812,-55.14929962158203,-129.11671447753906,-5.201638221740723,13.174153327941896,7.850551128387451,-0.9715705513954164,0.0744242966175079,0.1678014248609542,28.1197566986084,81.51029205322266,-105.82525634765624,117.50523466019044,0.9822266831606492,16.194026958030605,0.9887596424061668,17.995779037475586,136.6595916748047,23.29145812988281
1906.33,49.8534049987793,-105.19767761230467,12.816814422607422,0.8154929876327515,0.0621783547103405,0.4704589545726776,11.299845695495604,-57.302093505859375,-129.31544494628906,-12.791337966918944,12.732054710388184,13.974924087524414,-1.024469971656799,0.0964823588728904,0.1386773437261581,30.385467529296875,81.58972930908203,-103.28262329101562,117.116113737343,0.9435181972862487,22.82590737263976,1.038305819141501,19.08562183380127,138.8918228149414,26.03282165527344
1916.562,43.471961975097656,-102.76824188232422,11.582011222839355,0.7784101963043213,0.0593361556529998,0.4739615023136139,12.442298889160156,-59.3652229309082,-129.65200805664062,-16.106338500976562,23.826414108276367,15.767831802368164,-0.9629855155944824,0.0940012037754058,0.0772223621606826,33.762535095214844,81.8455810546875,-99.56112670898438,112.1840719599454,0.9132812922389174,32.79842479319524,0.9706392856121536,21.320236206054688,141.2108039855957,30.09088134765625
1938.738,30.25371360778809,-100.27110290527344,9.992711067199709,0.7863444089889526,0.0643500164151191,0.403653621673584,13.459769248962402,-61.38858413696289,-130.11961364746094,-20.851606369018555,36.51773452758789,15.26473617553711,-0.9733121395111084,0.0875191912055015,0.0532550476491451,38.32098388671875,82.28865814208984,-94.56621551513672,105.21138502735592,0.8862362554370093,44.73641239197251,0.9786890363384424,24.861214637756348,143.6772422790527,35.55339813232422
1956.352,19.59270477294922,-95.4570541381836,8.766294479370117,0.8328219652175903,0.0510477237403392,0.3492446541786194,14.356819152832031,-63.33372497558594,-130.68019104003906,-20.27328491210937,49.48567199707031,14.94098663330078,-0.9849753975868224,0.0421581976115703,0.0283390954136848,44.657508850097656,82.89021301269531,-87.81148529052734,97.84053957311916,0.9045275696850276,55.52540765906778,0.9862844172986012,30.300689697265625,146.22393798828125,42.86870574951172
1978.627,12.520953178405762,-89.70868682861328,7.997602939605713,0.8373785018920898,0.0638192743062973,0.3234764039516449,15.205583572387695,-65.15516662597656,-131.36573791503906,-18.87409400939941,51.84508895874024,13.127667427062988,-1.039686679840088,0.0651441514492034,0.1227033287286758,51.84804153442383,83.39424896240234,-80.22279357910156,90.93065717231804,0.8999514648676955,56.71402230393208,1.0489271946069658,36.64245796203613,148.5494155883789,51.1429443359375
2001.522,0.1203988790512085,-83.17292785644531,5.544003486633301,0.8444756269454956,0.0586685687303543,0.2999248802661896,15.9347505569458,-66.83126068115234,-132.17198181152344,-21.89557647705078,55.877532958984375,15.5668363571167,-1.034969687461853,0.0844736918807029,0.0139538757503032,61.25575637817383,83.783935546875,-70.35682678222656,83.35758153139602,0.8980735043773111,62.0003334911516,1.0385050646161031,45.32100582122803,150.61519622802734,61.81515502929688
2016.359,-12.826980590820312,-78.62743377685547,2.6294877529144287,0.9106744527816772,0.0706937983632087,0.2638992667198181,16.616241455078125,-68.41516876220703,-133.1425323486328,-21.03304481506348,59.36213302612305,9.270596504211426,-1.0220211744308472,0.1278362721204757,0.0438466891646385,71.63955688476562,84.08539581298828,-59.51302719116211,79.71021878814409,0.9507725253978908,63.65685957654127,1.0309180013974772,55.0233154296875,152.5005645751953,73.6295051574707
2038.831,-20.039947509765625,-73.10452270507812,-2.00132417678833,0.9195640683174132,0.0650572478771209,0.2230453789234161,17.43381690979004,-69.87125396728516,-134.4904022216797,-24.73196220397949,51.10896682739258,5.835442543029785,-1.056514024734497,0.1558771729469299,0.0622204393148422,80.77639770507812,84.19099426269531,-49.809940338134766,75.82793703241597,0.9484617874753352,57.07756857378901,1.0697621046639971,63.342580795288086,154.06224822998047,84.68046188354492
2061.068,-24.90835189819336,-67.66998291015625,-4.140503883361816,0.949026584625244,0.0304864421486854,0.2028605192899704,18.27178192138672,-71.21149444580078,-135.91033935546875,-27.944149017333984,47.99420547485352,1.0942533016204834,-1.0254614353179932,0.1269788891077041,0.0755829438567161,89.13350677490234,84.24152374267578,-40.83415603637695,72.22739337504301,0.97094452558678,55.54742670685596,1.036053847541484,70.86172485351562,155.45301818847656,95.0761833190918
2083.74,-10.29463005065918,-64.99462127685547,-6.1875176429748535,0.9481970071792604,0.0656571090221405,0.2291405797004699,19.682767868041992,-72.44517517089844,-137.5605010986328,-30.075550079345703,39.92508316040039,-1.0491740703582764,-0.9850776195526124,0.1194900944828987,0.0259238556027412,96.0932846069336,84.21737670898438,-33.196475982666016,66.09512521649334,0.9776982283170604,49.99651732040973,0.9926368145058316,76.4105167388916,156.6625518798828,104.3640251159668
2105.584,-4.5992937088012695,-67.11563873291016,-6.380582809448242,0.9188663959503174,0.1096201390027999,0.2685248255729675,21.54627799987793,-73.65512084960938,-139.65260314941406,-33.47922134399414,35.57771301269531,-6.880309104919434,-0.9764152765274048,0.0956480652093887,-0.0032201912254095,102.37760162353516,84.24407196044922,-26.18117332458496,67.57495321592576,0.9635546743339016,49.33528735492578,0.9810941413778376,80.83132362365723,157.8991928100586,113.4714298248291
2116.431,-7.677858829498291,-70.06427001953125,-4.6473541259765625,0.9281063079833984,0.101329818367958,0.2475101798772812,23.60139846801757,-74.91472625732422,-141.97410583496094,-31.02205848693848,37.86103820800781,-4.926955699920654,-0.949141263961792,0.0993131399154663,-0.0685135275125503,109.24168395996094,84.12122344970703,-18.61540031433105,70.63674220933268,0.9658728384999458,49.19452428293457,0.9567791501527768,85.64028549194336,159.03594970703125,123.35870552062988
2139.217,2.4576783180236816,-68.83309936523438,-3.879499673843384,0.97014182806015,0.0812940746545791,0.1797374933958053,26.15617752075196,-76.16682434082031,-144.60980224609375,-27.093809127807617,36.526947021484375,-3.519456624984741,-0.9701659679412842,0.0841985344886779,-0.0623343922197818,115.40003204345705,83.90579986572266,-11.824939727783203,68.98613098774611,0.989994676580658,45.614459623013694,0.9758058080452788,89.24385452270508,160.07262420654297,132.78486251831055
2162.299,11.924032211303713,-65.77517700195312,-2.104041576385498,1.0033833980560305,0.0811585411429405,0.1388311386108398,29.15719413757324,-77.36063385009766,-147.46092224121094,-29.603988647460938,30.94276428222656,-3.192268133163452,-0.972078800201416,0.0918432548642158,-0.0712607949972152,120.11221313476562,83.66481018066406,-6.456122875213623,66.8803666614473,1.0161884851457916,42.9423029319393,0.9790048407279266,90.95501899719238,161.02544403076172,141.00479936599731
2183.655,17.023521423339844,-59.44979476928711,-0.6400012969970703,0.9875718355178832,0.0768457874655723,0.0994735658168792,32.41580581665039,-78.43182373046875,-150.40863037109375,-31.6280574798584,21.944753646850582,7.54560661315918,-0.9329412579536438,0.078940249979496,-0.0581038892269134,122.08683776855467,83.30888366699219,-3.740244626998901,61.84244482086252,0.9955392486766608,39.22808192775605,0.9380762313385016,89.6710319519043,161.74070739746094,146.66838574409485
2207.793,14.134939193725586,-51.63901519775391,-2.0639753341674805,0.966965913772583,0.0562482923269271,0.002284268848598,35.84577560424805,-79.30582427978516,-153.6074981689453,-32.58029556274414,8.047528266906738,13.849350929260254,-0.9525074362754822,0.087666817009449,-0.0358254089951515,121.28620147705078,82.99626922607422,-3.816674947738648,53.57839481343418,0.9686032039343636,36.30486043664443,0.9572039212698252,85.44042587280273,162.30209350585938,149.7908232212067
2216.679,5.965219020843506,-34.02924346923828,-4.097377777099609,1.0023188591003418,0.0222915466874837,-0.1340520977973938,38.53286743164063,-79.80199432373047,-156.29299926757812,-27.511388778686523,-8.29408073425293,17.246681213378906,-0.9772958159446716,0.0802722126245498,-0.0710113197565078,118.34650421142578,82.78609466552734,-6.198407173156738,34.79025371714899,1.0114889882177724,33.512927365932406,0.9831547932630768,79.81363677978516,162.5880889892578,150.0945920944214
2239.5040000000004,-3.10361909866333,-10.253668785095217,-6.594642162322998,1.0047637224197388,-0.00188600551337,-0.0947979763150215,39.75421524047852,-79.87843322753906,-157.65029907226562,-7.044816017150879,-15.19553279876709,17.917482376098633,-0.9554986953735352,0.0435672998428344,-0.1013270914554596,115.20539855957033,82.62277221679688,-9.234966278076172,12.580122428383277,1.0092276012976409,24.526920402931083,0.9618435662512622,75.4511833190918,162.50120544433594,148.41533279418945
2263.489,-0.3895732164382934,9.893121719360352,-7.035303115844727,0.988724946975708,0.0186774339526891,-0.0205970406532287,39.66289520263672,-79.6589584350586,-157.61631774902344,11.329779624938965,-5.609317302703857,18.22279167175293,-0.972007691860199,0.0344592779874801,-0.1013018190860748,113.88351440429688,82.36626434326172,-10.797151565551758,12.145827043757048,0.9891158200103992,22.17878453081239,0.9778795700008044,74.22061920166016,162.0252227783203,146.81916618347168
2283.522,0.573967456817627,24.41411590576172,-6.396682262420654,0.9574908018112184,0.0381434708833694,0.0275239758193492,38.597206115722656,-79.27510070800781,-156.55752563476562,18.738584518432617,4.985079765319824,13.070713996887209,-1.0022809505462646,0.0740300118923187,-0.0768195241689682,114.3133544921875,82.10533905029297,-10.688725471496582,25.244722974669777,0.9586454658365752,23.384377999199955,1.007942848470213,75.71614837646484,161.38043975830078,145.86880016326904
2306.639,-7.611896514892578,33.448509216308594,-7.635655403137207,0.959238350391388,0.0778655260801315,0.0715559124946594,37.020790100097656,-78.6978759765625,-155.10821533203125,25.130800247192383,7.609419822692871,8.441534042358398,-0.9776628613471984,0.0941737294197082,-0.0753091350197792,115.40841674804688,81.89810943603516,-10.034547805786133,35.14323506426768,0.9650499995473136,27.58115095659664,0.985070975913835,78.38762664794922,160.59598541259766,145.07366752624512
2326.779,-12.159245491027832,37.05876159667969,-7.340625286102295,0.9682824611663818,0.0877192690968513,0.0990694537758827,35.273250579833984,-78.04815673828125,-153.5743408203125,34.217506408691406,4.685426712036133,9.515754699707031,-0.9367223381996156,0.0925531536340713,-0.0735545232892036,116.21295928955078,81.69630432128906,-9.831254005432127,39.68732595655175,0.9772821247954776,35.82374290617461,0.9441531088896912,80.9397087097168,159.7444610595703,143.74308681488037
2336.253,-11.80747127532959,40.458641052246094,-5.707661151885986,0.9778642058372498,0.0635635927319526,0.0833147019147872,33.39784240722656,-77.37415313720703,-151.89927673339844,40.57257080078125,1.7410712242126465,10.227282524108888,-0.9436478614807128,0.0876811370253562,-0.0707383379340171,116.72381591796876,81.51384735107422,-10.098675727844238,42.531111078091705,0.9834633063484668,41.877943337992754,0.9503489783868078,83.32597351074219,158.88800048828125,141.8006010055542
2355.993,-7.128824234008789,45.06017303466797,-5.289413928985596,0.987648904323578,0.0906876102089881,0.0873165130615234,31.627565383911133,-76.61334991455078,-150.22776794433594,49.71705627441406,-3.134033203125,9.005650520324707,-0.9388517737388612,0.0954359620809555,-0.0624492838978767,116.86830139160156,81.39729309082031,-10.941243171691896,45.926215047462335,0.9956398818399173,50.62321196848112,0.9457539790930202,85.24073600769043,158.0106430053711,139.28652477264404
2378.346,-6.605221748352051,49.74610137939453,-5.289671897888184,0.9713170528411864,0.1298984587192535,0.1228294223546981,29.92021942138672,-75.7387924194336,-148.62481689453125,55.100982666015625,-13.17440128326416,12.984670639038086,-1.0200252532958984,0.1362916678190231,-0.0253019500523805,115.5498275756836,81.29240417480469,-13.309303283691406,50.46071923368918,0.9876322664401536,58.12301447393558,1.0294013428953286,85.62960815429688,157.03119659423828,135.31551361083984
2395.93,-8.971699714660645,54.67920303344727,-7.11152458190918,0.9680346250534058,0.1447204798460006,0.1405362486839294,28.32861518859864,-74.74555206298828,-147.15768432617188,51.77113342285156,-18.76131057739257,14.49032211303711,-1.0305017232894895,0.1926777362823486,-0.0440131500363349,113.48326873779295,81.1645278930664,-16.391613006591797,55.86484066049136,0.9888303645131938,56.94037640732324,1.0492834074441564,85.15465354919434,155.9100799560547,130.76607131958008
2418.542,-13.353233337402344,59.53009414672852,-8.15410327911377,0.9605504274368286,0.1328552216291427,0.1495608687400818,26.735292434692383,-73.65504455566406,-145.77297973632812,48.35149383544922,-24.89886283874512,7.212934494018555,-0.9750629663467408,0.209623098373413,-0.0426007211208343,111.0165023803711,81.18685150146484,-19.834697723388672,61.55185090610946,0.9811605816692244,54.86207023798071,0.9982506965450062,84.28120994567871,154.8418960571289,125.93828201293944
2445.427,-17.28215789794922,64.30091094970703,-7.146562099456787,0.959584891796112,0.1242004781961441,0.1520506590604782,25.06049346923828,-72.48930358886719,-144.38916015625,46.86722946166992,-31.04338455200196,-0.6169611811637878,-0.9656079411506652,0.17518150806427,-0.0216265656054019,108.05599212646484,81.39466857910156,-23.786176681518555,66.96531550297657,0.9794632847984822,56.21929884795218,0.9816083562810493,82.99549865722656,153.88397216796875,120.60298347473145
2456.987,-18.111474990844727,69.27406311035156,-4.880613327026367,0.9431288242340088,0.1354395896196365,0.1791339665651321,23.3348331451416,-71.23319244384766,-142.94590759277344,45.48333740234375,-34.136962890625,-8.208782196044922,-0.9870981574058532,0.1275071203708648,-0.0090480539947748,104.79582214355467,81.76201629638672,-28.002546310424805,71.76866818193656,0.9694972096477212,57.45824850962179,0.995340497207058,81.46098899841309,152.99520874023438,114.94336128234865
2479.588,-18.37907600402832,75.49832153320312,-2.5232057571411133,0.9254415035247804,0.1205713003873825,0.2004824876785278,21.53280639648437,-69.86959838867188,-141.42974853515625,44.381614685058594,-33.909481048583984,-13.507816314697266,-1.0113520622253418,0.1227813512086868,-0.0070472294464707,101.3963623046875,82.19658660888672,-32.29218673706055,77.7441544837015,0.9545536353652848,57.46339468417165,1.0188021973940544,79.86355590820312,152.0661849975586,109.1375617980957
2501.185,-17.287761688232422,81.88619232177734,-1.077110767364502,0.9174190759658812,0.1117099896073341,0.2100937962532043,19.778785705566406,-68.3912124633789,-139.91653442382812,43.10117721557617,-35.829376220703125,-7.895130634307861,-1.0505791902542114,0.1561389863491058,0.0071386275812983,97.12814331054688,82.46565246582031,-37.41250991821289,83.69812043739928,0.9477743855729828,56.602020860265895,1.0621426354577173,77.34935760498047,150.85686492919922,102.50402450561523
2523.3430000000003,-18.018802642822266,90.2776336669922,-0.5477288365364075,0.9141886234283448,0.1171070262789726,0.2279429286718368,18.083934783935547,-66.74625396728516,-138.46429443359375,40.49639892578125,-46.12491607666016,-0.5897774696350098,-1.0807273387908936,0.2002890110015869,0.0115006119012832,90.9498062133789,82.51359558105469,-44.41303253173828,92.05991742376806,0.949427655770154,61.38252232108622,1.0991903987991092,72.86587142944336,149.25984954833984,94.05126190185548
2545.653,-25.82152557373047,97.5948715209961,0.9119632840156556,0.8576913475990295,0.1285535842180252,0.2558006048202514,16.314510345458984,-64.94383239746094,-137.13079833984375,34.84194564819336,-58.25646209716797,3.5422520637512207,-1.0674220323562622,0.2180705666542053,0.0386490263044834,82.92149353027344,82.3359375,-53.14183044433594,100.95712856052288,0.9042092795298812,67.97296596672517,1.090155179061561,66.60698318481445,147.27976989746094,83.98896789550781
2555.9440000000004,-37.69749069213867,103.67210388183594,2.508953809738159,0.8144548535346985,0.1201845556497573,0.2842127978801727,14.397153854370115,-63.00983047485352,-135.8233642578125,26.570199966430664,-66.85084533691406,0.85081946849823,-1.017808437347412,0.1857928037643432,0.0815886855125427,73.87759399414062,82.01179504394531,-62.77880096435547,110.34174539579054,0.8709523238052889,71.94258087033084,1.03783895411083,59.48044013977051,145.02162551879883,73.04456329345703
2579.751,-44.05661392211914,111.1016616821289,4.6932525634765625,0.8054590225219727,0.0601153969764709,0.2886522114276886,12.370490074157717,-60.93397903442383,-134.55740356445312,15.450430870056152,-65.48230743408203,-2.550875425338745,-0.9633402228355408,0.1479213982820511,0.0712803602218627,65.56201934814453,81.58409881591797,-71.46383666992188,119.6101629395992,0.857728510122979,67.32871130801195,0.9772338587850428,53.191529273986816,142.5180778503418,63.09356689453125
2600.7630000000004,-35.53218460083008,121.75676727294922,5.668205261230469,0.8202228546142578,0.0288331639021635,0.3081893622875213,10.616881370544434,-58.612491607666016,-133.356689453125,10.222290992736816,-46.35677337646485,-12.657301902770996,-0.9828319549560548,0.1053772345185279,0.0604786872863769,59.52972030639648,81.39324951171875,-77.72728729248047,126.96210092051102,0.8766855568556836,49.12894220797959,0.990313427584114,48.91283893585205,140.00574111938477,55.62940216064453
2623.21,-24.01640510559082,132.04200744628906,7.3582940101623535,0.7359696626663208,0.0609403029084205,0.3913999795913696,9.19419765472412,-56.0766487121582,-132.24049377441406,3.8869879245758057,-42.944602966308594,-11.731070518493652,-1.064782977104187,0.1309583485126495,0.1185030415654182,54.053001403808594,81.1097183227539,-83.35567474365234,134.40991010852474,0.8357984260022704,44.68742121189754,1.0793312041427652,44.85880374908447,137.1863670349121,48.88481903076172
2646.966,-23.511104583740234,134.07713317871094,7.1678643226623535,0.5841826796531677,0.0950637310743331,0.5627694725990295,7.962681770324707,-53.407012939453125,-131.33367919921875,-4.1811699867248535,-53.52763748168945,1.334927320480347,-1.0243839025497437,0.103897713124752,0.1371602416038513,48.82158660888672,80.41504669189453,-88.55951690673828,136.31151073595163,0.8167104722372052,53.707282446424514,1.0387348297195116,40.85890483856201,133.82205963134766,42.77416229248047
2655.73,-30.099090576171875,132.46275329589844,7.10376501083374,0.5990555286407471,0.0553816892206668,0.6159124374389648,6.719559669494629,-50.71722030639648,-130.53285217285156,2.65433120727539,-29.40250396728516,-10.41878604888916,-0.86716628074646,0.0405567809939384,-0.074873611330986,45.5758171081543,80.1760482788086,-91.90499114990234,136.02499675269908,0.8609778095212363,31.30660978829651,0.8713370579873106,38.85625743865967,130.89326858520508,38.62786102294922
2678.306,-33.96271896362305,129.77650451660156,7.409924507141113,0.6663066744804382,0.0210750885307788,0.6325011849403381,5.501512050628662,-48.12251663208008,-129.85903930664062,18.49794006347656,-5.450443744659424,-22.103227615356445,-0.8810451626777649,0.103611059486866,0.0917559564113617,43.711700439453125,80.4210433959961,-94.18407440185548,134.35145844072954,0.918948580043896,29.33315180170593,0.891849194574309,38.21018838882446,128.54356002807617,35.67496490478516
2703.296,-21.28754615783692,133.1122589111328,9.480716705322266,0.675259530544281,0.0467339754104614,0.598292887210846,4.6202592849731445,-45.50185394287109,-129.23768615722656,20.82838249206543,-8.110383987426758,-16.031044006347656,-1.0021083354949951,0.1582233756780624,0.1524045765399933,42.12946319580078,80.4936294555664,-96.2195053100586,135.13666076639998,0.9033902129952696,27.50625778968744,1.02590589608884,37.50920391082764,125.9954833984375,33.01818084716797
2723.269,-9.161032676696776,140.3274688720703,8.659149169921875,0.6435946226119995,0.0343944430351257,0.620432436466217,4.053622245788574,-42.73430633544922,-128.69517517089844,15.476070404052734,-0.3281136155128479,-14.568090438842772,-1.023880124092102,0.1286606043577194,0.1226379573345184,41.16050338745117,80.68092346191406,-97.51827239990234,140.89252607605673,0.8946135613694803,21.25666184353,1.039193980065192,37.1068811416626,123.41522979736328,31.176902770996094
2745.924,4.681799411773682,139.66561889648438,7.97435188293457,0.5524420142173767,0.0848761722445488,0.7213425636291504,3.867536783218384,-39.918067932128906,-128.24667358398438,9.15558624267578,4.403475284576416,-8.402137756347656,-0.980995774269104,0.1167386844754219,0.1498516649007797,40.88945007324219,80.84306335449219,-97.98009490966795,139.9714064922653,0.9125410882752149,13.18375033537848,0.9992177695880046,37.02191329002381,120.7611312866211,30.266578674316406
2765.586,2.295999050140381,135.1159210205078,5.9568047523498535,0.4344514310359955,0.0704721361398696,0.810304582118988,3.681650161743164,-37.21905899047852,-127.86922454833984,9.1466703414917,11.073299407958984,-4.163654327392578,-0.9176124930381776,0.1262800097465515,0.0909090489149093,41.73393630981445,81.06474304199219,-97.31956481933594,135.26665238600373,0.9221214039942726,14.953780641437923,0.930711439392437,38.05228614807129,118.2838020324707,30.549659729003903
2775.721,-8.014266014099121,134.20875549316406,2.446897506713867,0.4384588003158569,-0.0284685939550399,0.7663222551345825,3.313535690307617,-34.49496078491211,-127.57530212402344,11.946084976196287,19.119834899902344,-5.185580730438232,-0.9614866971969604,0.1247663050889968,0.0811628773808479,43.28929138183594,81.42418670654297,-96.0027313232422,134.4700926532625,0.8833495226300571,23.13368281035077,0.9729392131253723,39.97575569152832,115.91914749145508,31.57257080078125
2795.686,6.821744918823242,141.46463012695312,2.523198127746582,0.515328049659729,-0.0501837544143199,0.7692497968673706,3.2437832355499268,-31.6812801361084,-127.2861557006836,8.04635238647461,13.094857215881348,-3.3588404655456543,-1.0668785572052002,0.1300054937601089,0.1726566702127456,44.243743896484375,81.63426971435547,-95.2100067138672,141.6514889067002,0.9272683850718236,15.732160738583636,1.0885502331087031,40.99996066093445,113.31554985046388,32.076148986816406
2818.203,12.403264999389648,149.02780151367188,-1.0722684860229492,0.4416247010231018,0.0119770783931016,0.794762134552002,3.374213695526123,-28.697242736816406,-127.0953598022461,-1.4054439067840576,6.067517280578613,0.110877051949501,-1.0639562606811523,0.1031462997198104,0.175167053937912,44.624732971191406,81.69964599609375,-94.80199432373048,149.54690356657198,0.9092979035927846,6.229151807901742,1.083201541991977,41.25051927566528,110.39688873291016,32.293365478515625
2835.658,-0.8566495776176453,145.67996215820312,1.7019461393356323,0.3456138074398041,0.1550665497779846,0.8818137049674988,3.320054769515991,-25.743310928344727,-126.89698791503906,-7.521659374237059,13.951215744018556,-0.9346336126327516,-0.9540876746177672,0.1496774703264236,0.1386615335941314,45.78634643554688,81.8749771118164,-93.49183654785156,145.69242205267756,0.9597343116829746,15.877194981106152,0.9756606258733272,42.46629166603088,107.61828804016112,33.4051513671875
2858.3,-26.7017822265625,145.9025115966797,-6.9763360023498535,0.1972985118627548,0.0111878886818885,0.8860480785369873,2.7743144035339355,-22.811792373657227,-126.87433624267578,4.968472957611084,19.214555740356445,-0.3535321056842804,-0.9364389777183532,0.1795989573001861,0.0253405570983886,48.28058242797852,82.13687133789062,-91.0814208984375,148.4897212884168,0.9078177510467084,19.849681629172974,0.9538426957772258,45.50626802444458,104.94866371154784,35.79291534423828
2880.655,-44.234859466552734,150.47390747070312,-6.639545917510986,0.2717883884906769,0.0101775852963328,0.8215871453285217,1.877836227416992,-19.76856803894043,-126.89698791503906,0.4134149551391601,14.886865615844728,-3.859722137451172,-1.0527405738830566,0.1231033354997634,0.0998235046863555,49.58375549316406,82.38724517822266,-89.76937866210938,156.98153774096536,0.8654351210402157,15.384639572238386,1.0646040950506723,47.70591926574707,102.15581321716309,37.12760925292969
2896.134,-34.80516815185547,163.67523193359375,-6.404528617858887,0.2974216341972351,-0.0044645685702562,0.8313403129577637,1.176968336105347,-16.509138107299805,-126.9350814819336,-11.637227058410645,5.909060955047607,3.2851433753967285,-1.0701711177825928,0.0610168986022472,0.2301973700523376,49.97900772094727,82.39727783203125,-89.1177749633789,167.45745509057403,0.8829531566339094,13.458611443101626,1.0963485360185847,48.80203938484192,98.90641593933104,37.81730651855469
2918.288,-20.500524520874023,166.6613311767578,-1.7228728532791138,0.0646655485033989,0.0531623773276805,0.9335689544677734,0.7713009119033813,-13.146896362304688,-126.9281005859375,-11.838333129882812,17.142372131347656,8.010836601257324,-0.914633572101593,0.0683235600590705,0.157786339521408,52.22802734375,82.47803497314453,-86.59245300292969,167.9262906935911,0.9373147093012184,22.319958705959333,0.9306552578769596,51.45672643184662,95.62493133544922,40.33564758300781
2941.004,-26.908361434936523,165.04095458984375,-0.8336491584777832,-0.0649827197194099,0.0071544223465025,0.9150370359420776,0.2300179749727249,-9.847679138183594,-126.9135971069336,-2.866739749908448,34.58782958984375,14.062982559204102,-0.8548658490180969,0.0809295251965522,0.0431933291256427,57.7525520324707,82.66218566894531,-80.96151733398438,167.22222214155474,0.9173694548909432,37.44734477890595,0.8597737327616651,57.52253405749798,92.5098648071289,45.95207977294922
2963.058,-27.959840774536133,167.01248168945312,1.464116096496582,0.0589181929826736,0.0293235145509243,0.8577771186828613,-0.3127954006195068,-6.464343547821045,-126.88955688476562,-2.6824419498443604,21.414918899536133,11.995057106018066,-1.1050724983215332,0.0919689014554023,0.0679812878370285,61.41956329345703,82.68956756591797,-77.19488525390625,169.34304051879826,0.8602980921203031,24.691610746661084,1.1109747795865976,61.73235869407654,89.15391111373901,49.694671630859375
2985.519,-28.410743713378903,169.9261474609375,6.853869438171387,-0.0673555806279182,0.0732198655605316,1.003593683242798,-0.8607959747314453,-3.0321614742279053,-126.78961181640624,-5.748530387878418,6.100409984588623,8.06721019744873,-1.092033624649048,0.1771602481603622,0.0915509760379791,62.71601486206055,82.57320404052734,-75.75122833251953,172.42111667524682,1.0085128675427355,11.633592908910426,1.1100922358551495,63.57681083679199,85.60536551475525,51.03838348388672
2995.668,-21.33881187438965,163.55931091308594,13.359004020690918,-0.3672865927219391,0.069661907851696,1.0497114658355713,-1.292289972305298,0.2420951277017593,-126.58576202392578,-4.135178089141846,-1.546384572982788,15.09703254699707,-0.8621851801872253,0.152827113866806,0.051430445164442,63.55976867675781,82.25943756103516,-74.78517150878906,165.48551618494878,1.114291875634698,15.72931641240543,0.8771342556058044,64.85205864906311,82.0173424333334,51.80059051513672
3018.2090000000003,-14.814393043518066,154.38648986816406,11.496136665344238,-0.3811534345149994,0.0062990505248308,1.0297836065292358,-1.5834373235702517,3.333240509033203,-126.43358612060548,5.852041721343994,10.727317810058594,20.15947914123535,-0.8975546360015869,0.0003951637190766,-0.0675936117768287,66.33906555175781,82.00796508789062,-72.05390930175781,155.5211099924664,1.098076452236571,23.573848624105786,0.9000963154659298,67.92250287532806,78.67472457885742,54.379676818847656
3041.35,-8.390369415283203,156.81060791015625,21.53666877746582,-0.1164490953087806,-0.029703713953495,0.849452018737793,-1.725675106048584,6.507204532623291,-126.09200286865234,19.49955368041992,3.035648822784424,8.989934921264648,-1.138501763343811,0.0806905925273895,0.0210901945829391,67.61430358886719,81.89482116699219,-71.11723327636719,158.50486791927858,0.8579110877932377,21.68563320263958,1.141552466234879,69.33997869491577,75.3876166343689,54.97476959228516
3060.844,-24.563888549804688,163.02557373046875,23.17812728881836,-0.0815858393907547,0.0825184732675552,0.9072204828262328,-2.0966134071350098,9.750425338745115,-125.72450256347656,20.89327049255371,-28.71665954589844,6.474131107330322,-1.1073861122131348,0.1811077445745468,0.2540054023265838,64.64373779296875,81.51954650878906,-74.50952911376953,166.48708026586445,0.9146116946983378,36.09833321560647,1.1504880534271056,66.74035120010376,71.76912117004395,51.21497344970703
3083.121,-0.946060299873352,167.0819854736328,37.603477478027344,-0.4081572294235229,0.0279956553131341,1.0240120887756348,-1.9591593742370603,13.129645347595217,-125.08561706542967,-2.667877674102783,-19.30838203430176,12.568695068359377,-0.8273667097091675,0.1357179582118988,0.105300635099411,63.10182571411133,81.11518859863281,-75.97940063476562,171.26385029638553,1.1027133982162984,23.19274204978627,0.8450108048235359,65.06098508834839,67.9855432510376,49.10621643066406
3105.2360000000003,0.3190829157829284,152.92721557617188,30.403053283691406,-0.6721172332763672,-0.0097061758860945,1.0237481594085691,-1.8206545114517207,16.205007553100586,-124.56141662597656,-12.34563159942627,3.630190849304199,24.24211502075196,-0.8753811717033386,0.2501871585845947,-0.1132780015468597,64.58291625976562,80.70820617675781,-74.19561004638672,155.92043075478938,1.2247024450901711,27.445820189429423,0.9174517511715772,66.40357077121735,64.50319862365723,50.36580657958984
3115.513,-10.878854751586914,139.50010681152344,24.029253005981445,-0.5225558280944824,0.0031020061578601,1.0147489309310913,-1.9046334028244016,19.040985107421875,-124.14667510986328,-12.154406547546388,-2.6774959564208984,13.357537269592283,-0.9933571219444276,0.213315799832344,0.0180360153317451,64.9109115600586,80.42893981933594,-73.59486389160156,141.97194892357447,1.1413980938934087,18.25711874936009,1.0161630282709937,66.815544962883,61.38795471191406,50.55181121826172
3137.88,-18.783002853393555,141.22962951660156,21.26125717163086,-0.3919364511966705,-0.04466263204813,0.9567081928253174,-2.1659514904022217,21.897335052490234,-123.82445526123048,-19.33036231994629,-2.2967116832733154,5.01365852355957,-1.0628243684768677,0.1120458543300628,0.1095463782548904,64.37467956542969,80.33575439453125,-73.71857452392578,144.05086083083762,1.0348427410467695,20.101605999704223,1.0743138836902228,66.54063105583191,58.438419342041016,50.10588073730469
3163.415,-27.15589141845703,147.79054260253906,15.226738929748535,-0.4466316699981689,-0.0482531674206256,0.9697629809379578,-2.637040615081787,24.87702751159668,-123.63053131103516,-28.80786895751953,-15.05229949951172,5.920083999633789,-1.1127376556396484,0.2616894245147705,0.1953646540641784,62.39361190795898,80.02955627441406,-75.14494323730469,151.03423618477586,1.0687602425282996,33.038045170066255,1.15966969143757,65.03065252304077,55.15252876281738,48.48558807373047
3185.234,-19.49271774291992,149.24400329589844,10.920156478881836,-0.556916356086731,-0.010532759130001,1.0823025703430176,-2.969362497329712,27.87857437133789,-123.54573822021484,-42.56074905395508,-14.038592338562012,12.881874084472656,-0.9676526188850404,0.278030127286911,0.2083623111248016,60.82894515991211,79.64305114746094,-75.87174224853516,150.9072177939629,1.2172286639998728,46.63091372480576,1.0281377316349798,63.79830765724182,51.76447677612305,47.67399597167969
3205.353,-18.05550575256348,142.23365783691406,10.473333358764648,-0.6470658183097839,-0.0772764980792999,0.975543200969696,-3.313729763031006,30.77336502075196,-123.48969268798828,-50.98906326293945,1.6824932098388672,16.930339813232422,-0.9199548959732056,0.1525763720273971,0.0305205527693033,61.01005935668945,79.37598419189453,-74.65934753417969,143.7571056375754,1.1731795972222288,53.75269074218256,0.9330209344207976,64.32378911972046,48.60261917114258,48.830345153808594
3215.49,-35.94497299194336,136.6472930908203,14.45181369781494,-0.5620905160903931,-0.0542114004492759,0.7794015407562256,-3.963201284408569,33.55539321899414,-123.34427642822266,-49.24042510986328,-4.719155788421631,13.102968215942385,-1.0629768371582031,0.2208844125270843,0.1595545262098312,60.18209838867188,79.0641098022461,-74.50112915039062,142.03301979327355,0.96247149877314,51.172039947841085,1.0973455822421376,64.14529967308044,45.50871658325195,48.84314727783203
3237.812,-24.10043334960937,142.36648559570312,11.52230739593506,-0.5933204889297485,-0.0042965533211827,0.7422292232513428,-4.394461154937744,36.44843673706055,-123.32037353515624,-59.41194915771485,-16.502559661865234,10.240252494812012,-0.9726023077964784,0.237393707036972,0.1689774096012115,58.02658462524414,78.66161346435547,-75.4908676147461,144.8509947367878,0.9502378032906128,62.50581532361464,1.0153149197304878,62.421045780181885,42.21317672729492,47.82950592041016
3255.909,-8.408791542053223,146.25753784179688,3.222327947616577,-0.8060857653617859,-0.0247180610895156,0.7598587870597839,-4.671067237854004,39.45757675170898,-123.51886749267578,-77.58110809326172,-19.52297782897949,16.562335968017578,-1.0002481937408447,0.3980405032634735,0.1246389150619506,55.78604507446289,78.1573257446289,-76.20787048339844,146.53449610294615,1.1080481126444317,81.69630327626014,1.0837285409492,60.457112312316895,38.69974899291992,47.310997009277344
3278.4300000000003,-5.580276012420654,148.05026245117188,-3.1729631423950195,-0.8004975914955139,-0.065489187836647,0.7466756701469421,-5.057401657104492,42.462921142578125,-123.9505615234375,-97.53125762939452,-29.761962890625,21.20134925842285,-1.0173414945602417,0.4082954227924347,0.1472879946231842,52.80396270751953,77.44181060791016,-77.28153991699219,148.189363273275,1.0966356660728336,104.15189801559976,1.1060662829086865,57.86136436462402,34.97888946533203,46.66902160644531
3299.766,-3.646859645843506,152.52926635742188,-1.7354518175125122,-0.7775079011917114,-0.0714806243777275,0.6731634736061096,-5.440488338470459,45.548675537109375,-124.39196014404295,-112.79474639892578,-31.493602752685547,17.218408584594727,-0.9957773685455322,0.2179080247879028,0.1692053079605102,49.362335205078125,76.74868774414062,-78.5333023071289,152.58272665613478,1.0309108003481258,118.36796620592916,1.0332893647069252,54.80282354354858,31.20001220703125,45.85865783691406
3322.773,-16.428966522216797,157.02938842773438,2.311173439025879,-0.8348962068557739,-0.0779533386230468,0.6229203939437866,-6.069491863250732,48.73885726928711,-124.8144760131836,-108.80362701416016,-29.87225914001465,5.627382278442383,-0.9959296584129332,0.0437623038887977,0.1672401577234268,45.44221115112305,76.31008911132812,-80.36876678466797,157.9033922803486,1.044585188682915,112.97012237256538,1.0108215936076526,51.51170301437378,27.571231842041016,44.445709228515625
3335.34,-27.332334518432617,157.9707794189453,5.7477240562438965,-0.9302700757980348,-0.0775653943419456,0.5602414011955261,-6.920933723449707,51.9776725769043,-125.20452117919922,-90.48298645019533,-32.315067291259766,10.804738998413086,-0.9494755268096924,0.0006160556804388,0.1176811456680297,42.403717041015625,75.72489929199219,-81.68302154541016,160.42088390319793,1.0887098933775834,96.68597000500488,0.95674082571033,49.32465076446533,23.74722671508789,43.52149963378906
3358.467,-24.57193374633789,155.82736206054688,8.25680923461914,-0.9681113362312316,-0.0551976636052131,0.4899225234985351,-7.724061489105225,55.15937423706055,-125.59534454345705,-64.17264556884766,-27.665884017944336,15.452710151672363,-0.8989702463150024,0.0912349373102188,0.100020058453083,40.60733795166016,75.16329193115234,-82.23271179199219,157.96873612686807,1.0864209223123733,71.5703557964531,0.9091068857063034,48.33139944076538,20.0039176940918,43.36263275146485
3383.0260000000003,-25.964448928833008,153.40911865234375,9.12857437133789,-0.9931199550628662,-0.0644220411777496,0.4416755437850952,-8.633692741394043,58.3151969909668,-126.06285858154295,-43.90441131591797,-21.32723617553711,16.36326026916504,-0.88301020860672,0.1738075017929077,0.1080304756760597,39.78879928588867,74.65094757080078,-82.2031021118164,155.85840100527116,1.088813450739582,51.48013813618685,0.906414176774597,48.42249202728272,16.335750579833984,43.85975646972656
3402.583,-32.43109893798828,147.64698791503906,11.725610733032228,-1.0513373613357544,-0.0751105025410652,0.4203113317489624,-9.69890308380127,61.35121536254883,-126.54387664794922,-33.41735076904297,-12.55740737915039,15.73984718322754,-0.8972065448760986,0.1119100973010063,0.0772261321544647,39.50203323364258,74.32801818847656,-81.86735534667969,151.6209060973185,1.1347305629659334,39.01474851717685,0.9074510066851909,49.20093631744385,12.976802825927734,44.67652130126953
3426.183,-41.16998672485352,138.1964111328125,12.514269828796388,-1.0650153160095217,-0.1250564455986023,0.4641301929950714,-11.052268028259276,64.1485824584961,-127.13093566894533,-18.722137451171875,-4.009843826293945,9.94472885131836,-0.9277717471122742,0.0367048606276512,0.0674739703536033,39.47236633300781,74.16201782226562,-81.57464599609375,144.74053615439553,1.168466334119327,21.57533105604833,0.930945969543204,50.52463436126709,10.013435363769531,45.55628967285156
3435.2070000000003,-33.51261138916016,129.14125061035156,10.23419189453125,-1.0986777544021606,-0.2009487152099609,0.5275197625160217,-12.541213989257812,66.69906616210938,-128.0128631591797,-1.5826019048690796,3.063807725906372,10.88726806640625,-0.970842719078064,0.0517313703894615,0.111474260687828,40.12670516967773,74.11813354492188,-80.93000793457031,133.81067377104333,1.2352126513308015,11.420339422294246,0.9785899195603632,52.66791915893555,7.4190673828125,47.082855224609375
3457.9390000000003,-5.166250228881836,111.17040252685548,9.091334342956545,-1.1229394674301147,-0.1979745924472808,0.7369810342788696,-13.456869125366213,68.8891372680664,-128.88864135742188,15.662565231323242,12.24310302734375,15.179298400878906,-0.9763442277908324,0.1162559390068054,0.1153395324945449,41.82154083251953,74.155517578125,-79.57707977294922,111.66109841635053,1.3576921711690206,25.01240934629318,0.9899831828121584,55.27840995788574,5.266380310058594,49.311561584472656
3481.074,19.2533016204834,84.75234985351562,12.913541793823242,-1.1297398805618286,-0.2478084564208984,0.7734038829803467,-13.462562561035156,70.58839416503906,-129.30569458007812,28.957826614379883,30.568679809570312,8.237044334411621,-1.0055423974990845,0.0589763112366199,0.0902179330587387,44.21909713745117,74.52860260009766,-77.76480102539062,87.865863625431,1.3913571773684286,42.90511399466947,1.0113026223147434,57.68165969848633,3.9402084350585938,51.5408935546875
3500.279,-8.039064407348633,61.890018463134766,2.3715269565582275,-1.0238714218139648,-0.2375442236661911,0.9425086975097656,-14.36259651184082,71.80323791503906,-130.08750915527344,30.925161361694336,22.38134002685547,-2.005918502807617,-1.098206877708435,0.1324656009674072,0.3481875956058502,45.638126373291016,74.8663558959961,-77.0054931640625,62.454984444945175,1.4117586874130006,38.2271329775653,1.1596724034914123,60.00072288513184,3.0631179809570312,53.08201599121094
3522.741,30.81813621520996,40.02390670776367,0.2871282696723938,-1.0540562868118286,-0.2182905972003936,0.9360957145690918,-14.348603248596191,72.5816421508789,-130.7201385498047,11.841575622558594,11.15503215789795,-3.3533780574798584,-1.0337048768997192,0.2836812138557434,0.3686374425888061,46.23823165893555,75.05350494384766,-76.71160888671875,50.51487969474193,1.4265204616227076,16.61032209395407,1.1335406334575515,60.58683490753174,2.47186279296875,54.00852966308594
3542.451,24.50667190551757,10.404037475585938,-0.3371789455413818,-0.9685174226760864,-0.1154810860753059,0.664508581161499,-14.043389320373535,72.78199005126953,-130.9139862060547,-9.98359489440918,13.06263828277588,1.1379960775375366,-0.9375900030136108,0.3637951016426086,0.1529806703329086,46.85108947753906,75.2138442993164,-75.95452880859375,26.62582681006165,1.180226051951714,16.480282794746145,1.0172634738482085,60.8944787979126,2.431854248046875,54.95945739746094
3565.102,26.67134666442871,-11.333712577819824,-7.5701799392700195,-0.9879554510116576,-0.1588274389505386,0.5784398317337036,-13.805328369140623,72.52505493164062,-131.2227783203125,-12.90183162689209,8.99218463897705,-5.286802291870117,-0.91835618019104,0.1659090965986251,0.1184837073087692,46.88107681274414,75.43839263916016,-75.73303985595703,29.95198487585906,1.155800487750092,16.59117001249312,0.9407137135849992,60.686405181884766,2.9133377075195312,55.48973846435547
3575.026,45.34877014160156,-29.70321273803711,-8.789234161376953,-1.066338062286377,-0.1411150097846985,0.5901490449905396,-13.002806663513184,71.90516662597656,-131.33157348632812,-12.657312393188477,18.31033134460449,-7.614451885223389,-1.0157581567764282,-0.0047636926174163,0.205351710319519,47.20962142944336,75.8175048828125,-75.20904541015625,54.91850723991339,1.2268929066428116,23.52563853501856,1.0363187978399078,60.21242809295654,3.9123382568359375,56.12252807617188
3605.039,55.14982986450195,-44.75017929077149,-8.546282768249512,-1.0202264785766602,-0.0831684321165084,0.5569226145744324,-11.808212280273438,70.95975494384766,-131.24752807617188,-17.260087966918945,25.52669906616211,-10.385913848876951,-1.024771809577942,-0.0265953335911035,0.1202719956636428,47.81306838989258,76.31800842285156,-74.28640747070312,71.53405643324432,1.1653076221814016,32.517536934959814,1.0321482095200218,59.621280670166016,5.358253479003906,56.96112060546875
3624.934,48.133094787597656,-56.72304153442383,-7.278309345245361,-1.004372000694275,-0.1005221903324127,0.543150782585144,-10.624823570251465,69.75050354003906,-131.05470275878906,-5.536190032958984,22.51481819152832,-9.88156509399414,-1.029318928718567,0.1412083506584167,-0.0025140489451587,48.6863899230957,76.79874420166016,-73.34882354736328,74.74805710968624,1.1462463082386354,25.203407844683472,1.038962740311753,59.31121349334717,7.048240661621094,57.70587921142578
3635.072,48.730262756347656,-72.38168334960938,-1.1975221633911133,-1.0184710025787354,-0.0799761191010475,0.4472486972808838,-9.069724082946776,68.28729248046875,-130.4741668701172,24.42300033569336,10.656920433044434,-9.05284595489502,-0.9676270484924316,0.2940843105316162,-0.0305725205689668,49.40602111816406,77.07903289794922,-73.17339324951172,87.26500244747385,1.1152178082956024,28.142617475931,1.0117916612074696,58.47574520111084,8.791740417480469,57.30077362060547
3657.593,37.82016754150391,-86.548583984375,-2.253229141235352,-0.9817802309989928,-0.0361757948994636,0.4057250320911407,-7.780110836029053,66.56617736816406,-129.88385009765625,30.30457305908203,12.114364624023438,-7.701241970062256,-0.9231923222541808,0.1345038115978241,0.0423139184713363,50.54313659667969,77.4029541015625,-72.68489837646484,94.47803715219082,1.0629270491347942,33.53258275794573,0.9338981780150388,58.32324743270874,10.836776733398438,57.198951721191406
3681.189,16.980369567871094,-94.19059753417967,-2.3856019973754883,-0.9707648754119872,-0.0201713554561138,0.5072423219680786,-6.957498550415039,64.65884399414062,-129.38677978515625,34.86441802978516,14.270865440368652,-4.298181533813477,-0.9473404288291932,0.09255351126194,0.0802235603332519,51.99221420288086,77.70226287841797,-71.96248626708984,95.73866884074155,1.0954844134492083,37.91648202919585,0.9552255546067308,58.9497127532959,13.043418884277344,57.424293518066406
3695.166,5.559350967407227,-102.761962890625,-4.2170233726501465,-1.0201563835144043,-0.034914705902338,0.5799158215522766,-6.49365234375,62.573272705078125,-128.97792053222656,36.64204406738281,15.4857759475708,-5.527026176452637,-0.963327169418335,0.2016319781541824,0.0993956327438354,53.67699432373047,77.97240447998047,-71.01882934570312,102.99859555566026,1.1739848566315014,40.16212978029899,0.9892088666012137,60.17064666748047,15.399131774902344,57.95909118652344
3717.541,7.082080364227295,-112.5605239868164,-5.468029975891113,-0.99032461643219,-0.0475963130593299,0.578289270401001,-6.082374572753906,60.30355072021485,-128.66766357421875,41.55266571044922,14.11942195892334,-2.3552653789520264,-0.9710832238197328,0.2462432086467743,0.087887667119503,55.66172790527344,78.1503677368164,-69.87005615234375,112.91557365699954,1.147792113228405,43.94916812755116,1.005665246202976,61.744102478027344,17.846817016601562,58.797607421875
3741.097,-4.874366760253906,-117.4369659423828,-4.706553936004639,-0.947724223136902,-0.0137511966750025,0.6294872164726257,-5.879083156585693,57.92981719970703,-128.31436157226562,45.88820266723633,13.394211769104004,-6.31298303604126,-1.0312540531158447,0.1178977265954017,0.1346722692251205,57.19349670410156,78.42853546142578,-69.26710510253906,117.6322747846796,1.1378156503726309,48.218106638049406,1.0466715894216605,63.072579860687256,20.49871826171875,59.04725646972656
3755.026,-20.63210105895996,-121.28672790527344,-0.3683700859546661,-0.9695695638656616,-0.0231951121240854,0.6806228756904602,-5.885325908660889,55.49722290039063,-127.84185791015624,47.55484008789063,11.47711944580078,-13.165522575378418,-1.0680519342422483,0.0936072617769241,0.1335154920816421,58.24307632446289,78.8108901977539,-69.1937484741211,123.0296291817349,1.1848420364395629,50.66081396149125,1.0804275266401653,64.12840223312378,23.31366729736328,58.64810943603516
3777.524,-21.972644805908203,-125.86463928222656,-3.620342969894409,-0.942731499671936,-0.0876215621829032,0.7054612040519714,-6.069616794586182,52.97216796875,-127.49858856201172,48.30110549926758,8.12407112121582,-13.60317325592041,-1.0205256938934326,0.1502948254346847,0.1250655502080917,59.11595153808594,79.13339233398438,-69.314697265625,127.81944853828496,1.1807183106293928,50.83348942050445,1.0390873968526262,65.18556833267212,26.16122436523437,58.18389129638672
3799.945,2.3151769638061523,-132.7470245361328,-7.149477481842041,-0.8892629146575928,-0.0203378498554229,0.8227922916412354,-5.8059282302856445,50.272552490234375,-127.24490356445312,55.81729507446289,6.654027938842773,-2.4294378757476807,-0.9766111373901368,0.2832384407520294,0.1441193521022796,60.75579833984375,79.17169952392578,-68.79279327392578,132.95957128328052,1.2116886211837985,56.26498632038114,1.0270169013431465,66.5617265701294,28.899147033691406,58.452110290527344
3823.527,-3.3456764221191406,-141.2743377685547,-7.5359110832214355,-0.8578345775604248,-0.0174755360931158,0.861271858215332,-5.6733012199401855,47.40633392333984,-127.0072784423828,44.46768569946289,5.013113498687744,-1.53265643119812,-0.9724043011665344,0.2702916264533996,0.1348011195659637,62.062538146972656,79.18350219726562,-68.3691635131836,141.51474134703926,1.2157198569463712,44.77561182332448,1.0182332886398076,67.73583936691284,31.77716827392578,58.63811492919922
3845.242,-11.421796798706056,-150.6083984375,-6.729392528533936,-0.8352820873260498,-0.0353094972670078,0.869027853012085,-5.697721481323242,44.374507904052734,-126.74554443359376,33.22407913208008,2.343700408935547,-6.028118133544922,-0.9840643405914308,0.1532811522483825,0.1235611736774444,62.53715896606445,79.31068420410156,-68.5612564086914,151.19071349068622,1.205882388674702,33.84775581945628,1.0035661919867502,68.2348804473877,34.93617630004883,58.18428802490234
3854.815,-8.921183586120605,-158.67626953125,-2.3096492290496826,-0.8082681894302368,-0.049628309905529,0.8768777847290039,-5.605381011962891,41.209415435791016,-126.36532592773438,40.94662094116211,0.5631382465362549,-10.534037590026855,-0.9875762462615968,0.0605754293501377,0.0922815948724746,62.726165771484375,79.5555191040039,-69.20152282714844,158.9436394087301,1.193597538762609,42.283671069717045,0.9937263796303824,68.33154678344727,38.34610366821289,57.16380310058594
3877.273,-6.320278167724609,-165.969482421875,-0.3092310726642608,-0.8165978193283081,-0.0501553006470203,0.9232134222984314,-5.449090957641602,37.9230842590332,-125.9433822631836,55.388702392578125,-0.1369935572147369,-12.014154434204102,-1.006706714630127,0.0999116674065589,0.0884457156062126,63.12187194824219,79.80097198486328,-69.9219970703125,166.0900678407917,1.2335601225018271,56.676865004490274,1.015511395886052,68.57096290588379,41.87788772583008,56.02138519287109
3897.273,2.438857078552246,-171.3367156982422,-4.666815757751465,-0.817744255065918,-0.0383410081267356,0.9246634244918824,-5.205395698547363,34.55426406860352,-125.64472198486328,57.12154769897461,1.8313719034194944,-7.979521751403809,-0.9700151085853576,0.2707094848155975,0.0856699794530868,64.12100982666016,79.92615509033203,-70.06044006347656,171.41761093722744,1.2349810315104206,57.70526754080595,1.010718695499634,69.32640552520752,45.37189102172852,55.58428192138672
3924.691,17.003284454345703,-179.1166229248047,-11.672054290771484,-0.7652944326400757,-0.0305621102452278,0.9597738981246948,-4.784060955047607,31.02224349975586,-125.5337905883789,49.19473648071289,3.6916909217834473,1.5182743072509766,-0.9430590271949768,0.4170789122581482,0.0918056964874267,65.5511474609375,79.92993927001953,-69.58746337890625,180.3000641752209,1.227915121958358,49.35641636242263,1.0352504207832602,70.33520841598511,48.90769577026367,55.946327209472656
3939.849,11.069181442260742,-186.64962768554688,-14.422757148742676,-0.7078034281730652,-0.0424889363348484,0.9518219828605652,-4.535294055938721,27.35141944885254,-125.50746154785156,24.593950271606445,9.436402320861816,2.159832000732422,-0.9109109044075012,0.3258445560932159,0.0909031108021736,67.12772369384766,79.9401626586914,-68.4743423461914,187.53300034054425,1.186910312408241,26.43053069831941,0.9716978573906546,71.66301774978638,52.58874320983887,57.03311920166016
3963.65,6.190849781036377,-193.3155517578125,-14.501092910766602,-0.6290532350540161,-0.0564038753509521,0.9608588218688964,-4.395214557647705,23.55045509338379,-125.48877716064452,12.356474876403809,14.147320747375488,-2.3731939792633057,-0.957389771938324,0.139622151851654,0.0987624824047088,68.62460327148438,80.09407806396484,-67.19554138183594,193.95749758141736,1.1498430524422942,18.933071736079462,0.97254488257897,73.01981782913208,56.543622970581055,58.293235778808594
3984.761,9.63790512084961,-198.72085571289065,-16.124927520751953,-0.5860331058502197,-0.112739160656929,1.0552879571914673,-4.228248596191406,19.63551521301269,-125.51945495605467,17.103763580322266,16.334552764892578,-8.801719665527344,-1.0189638137817385,0.0684028938412666,0.083171859383583,70.2036361694336,80.42308807373047,-65.92962646484375,199.6068160107052,1.2123438423530777,25.235423747406124,1.0246383595570718,74.431884765625,60.78757286071777,59.58982849121094
3994.864,13.626856803894045,-202.57571411132807,-15.453359603881836,-0.5636329650878906,-0.1174631863832473,1.055729627609253,-3.966891288757324,15.60949993133545,-125.5404815673828,23.09147834777832,24.338308334350582,-14.241286277770996,-1.0433404445648191,0.1325171440839767,0.0717348232865333,72.81816101074219,80.86663818359375,-63.73806381225586,203.6207688255677,1.202516014904186,36.44700069565756,1.0541660028728106,76.78505229949951,65.2571382522583,61.80241775512695
4017.322,10.79451847076416,-205.4820098876953,-17.699237823486328,-0.4590787589550018,-0.11784128844738,0.9996618032455444,-3.7690932750701904,11.487192153930664,-125.6182632446289,22.68190574645996,16.773752212524414,-16.580724716186523,-1.0591059923171997,0.1742574870586395,0.0979428067803382,74.56440734863281,81.26969146728516,-62.42298889160156,206.52515836099704,1.1063288828620252,32.722286651339324,1.0778051624288143,78.333500623703,69.78249931335449,63.195274353027344
4044.596000000001,-0.4075232148170471,-206.13319396972656,-21.158180236816406,-0.3291302025318146,-0.1135136932134628,0.9874439239501952,-3.823998689651489,7.421533584594727,-125.77546691894533,13.719417572021484,4.614362716674805,-18.544193267822266,-1.1061279773712158,0.1795384883880615,0.1167754456400871,74.55490112304688,81.63798522949219,-62.69436264038086,207.2166217325848,1.047023185852039,23.524495015852622,1.126671946859621,78.37889981269836,74.21645164489746,63.08110427856445
4065.328,-10.182111740112305,-204.00540161132807,-22.98243904113769,-0.2469872087240219,-0.0791594386100769,0.9842123985290528,-4.050597190856934,3.3926126956939697,-125.95560455322266,-0.3264389634132385,-11.435834884643556,-19.855831146240234,-1.0342679023742676,0.1600863635540008,0.1355769038200378,71.94586181640625,81.93356323242188,-65.30684661865234,205.5482225424657,1.017812823368156,22.91590959167165,1.055328780298841,75.99645900726318,78.5409505367279,60.64875793457031
4076.102,-11.055306434631348,-204.16932678222656,-23.938129425048828,-0.249355599284172,-0.0705072730779647,0.9594230651855468,-4.275740623474121,-0.7127718925476074,-126.13665008544922,-12.390182495117188,-16.76436996459961,-18.465984344482425,-0.99567973613739,0.0976041704416275,0.1225278973579406,68.23988342285156,82.17343139648438,-68.77495574951172,205.86492620026755,0.9938018456721084,27.84875760932519,1.007927475899521,72.51562404632568,82.88620328903198,57.3616943359375
4097.212,-12.148247718811035,-205.6519775390625,-25.192012786865234,-0.2276878505945205,-0.0813066884875297,0.9383276104927064,-4.509603977203369,-4.850424766540527,-126.32302856445312,-12.230600357055664,-26.84942626953125,-21.16023635864257,-0.9901555776596068,0.1100580543279647,0.085941731929779,63.03049087524414,82.3386001586914,-73.75354766845703,207.5450632913687,0.9689743234545036,36.307504442616604,0.9999534112047308,67.54009485244751,87.18902492523193,52.569480895996094
4117.232,-3.092996120452881,-201.8715209960937,-23.051897048950195,-0.158864364027977,-0.0836382582783699,0.848000168800354,-4.55454158782959,-8.909799575805664,-126.46481323242188,-1.5004454851150513,-33.88800811767578,-21.86818122863769,-1.0143582820892334,0.1004220023751258,0.0876804366707801,56.9574089050293,82.38172912597656,-79.81266784667969,203.2069574887456,0.8667972835047891,40.35920937141861,1.0230812098649986,61.51195049285889,91.29152870178224,46.65214538574219
4139.777999999999,14.809488296508787,-199.4535522460937,-19.82547187805176,-0.0406049601733684,-9.362120181322098e-05,0.8479465246200562,-4.242552757263184,-12.91580581665039,-126.55208587646484,-8.1109619140625,-36.2563362121582,-20.674922943115234,-1.019750952720642,0.0713665559887886,0.1032175198197364,50.53214645385742,82.29517364501953,-86.0837173461914,200.98280966882987,0.8489181822595401,42.51778518930848,1.027442965466257,54.774699211120605,95.21097946166992,40.46836853027344
4155.201,22.059988021850582,-197.1312255859375,-15.085878372192385,-0.0137316640466451,-0.0119448844343423,0.8622344136238098,-3.795201778411865,-16.868173599243164,-126.5793228149414,-3.686012744903565,-40.186805725097656,-18.55990600585937,-0.9629693031311036,0.1311649531126022,0.0252033732831478,44.6884651184082,82.03375244140625,-91.85956573486328,198.9345291768087,0.8624264739088399,44.41887161205998,0.9721879107058902,48.48366689682007,98.9019260406494,34.719757080078125
4178.581999999999,26.84619903564453,-198.93869018554688,-11.152217864990234,0.0046686823479831,0.0141069758683443,0.8960979580879211,-3.2665157318115234,-20.85129737854004,-126.55377960205078,4.504148006439209,-27.32390594482422,-12.240772247314451,-0.9579041004180908,0.1012860313057899,0.0980883985757827,40.97206878662109,81.79344177246094,-95.6543426513672,201.05146808394773,0.8962211523125071,30.277379189027148,0.968225417798268,44.23858451843262,102.64473915100098,30.8994369506836
4199.582,41.70161056518555,-196.3740997314453,-10.68545150756836,0.0977621525526046,-0.0191256683319807,0.8184877634048462,-2.4262280464172363,-24.782941818237305,-126.5716781616211,16.25908851623535,-21.670753479003903,-7.811913967132568,-0.9378767609596252,0.1592588573694229,0.0513188242912292,38.9730110168457,81.5564193725586,-97.96491241455078,201.0372857033904,0.8245274091892465,28.1958421678874,0.952685585135708,41.39923906326294,106.3393611907959,28.606765747070312
4222.125,57.50068664550781,-196.045150756836,-9.871086120605469,0.2327025979757309,-0.0204839017242193,0.6766098737716675,-1.2373262643814087,-28.679122924804688,-126.65373229980467,14.831849098205566,-4.112733840942383,-2.636045217514038,-0.9427756667137146,0.1700684875249862,0.0976309329271316,38.93915557861328,81.5008773803711,-98.26620483398438,204.54209454578248,0.7158009574035327,15.615603149003006,0.9629543329051214,40.17648184299469,110.18000030517578,28.387527465820312
4244.231,48.7596549987793,-190.2340240478516,-10.726899147033691,0.441557914018631,0.0300954096019268,0.6138712167739868,-0.135075494647026,-32.52357482910156,-126.86474609375,6.717058181762695,-15.053733825683594,3.2470598220825195,-1.0225443840026855,0.2084138244390487,0.1854674071073532,38.34933471679688,81.1583251953125,-98.99980926513672,196.67626757275312,0.7567806788595806,16.80110621952906,1.0599205152141675,38.4844102114439,113.68190002441406,27.86493682861328
4265.232,54.47953414916992,-182.6241455078125,-6.6264166831970215,0.5967660546302795,0.0552613139152526,0.6082230806350708,1.0689705610275269,-36.18806457519531,-127.06266784667967,-10.11245346069336,-18.97513198852539,3.702358722686768,-0.9628490805625916,0.1579397320747375,0.1785943806171417,37.11952590942383,80.76102447509766,-100.031982421875,190.6921801271059,0.8538845663155212,21.817992783207703,0.9919270455512784,36.0505553483963,116.94908905029295,27.030685424804688
4275.329,60.91139221191406,-175.7473907470703,-6.635092258453369,0.549537181854248,0.0003436938859522,0.6751418113708496,2.456881761550904,-39.71089172363281,-127.3564224243164,-17.281757354736328,-10.809637069702148,16.048477172851562,-0.8852572441101074,0.1359231770038604,0.1901628375053405,37.49063873291016,80.33821868896484,-99.3140640258789,186.12191570278668,0.8705215091121574,25.943419404816314,0.915596746971246,35.03375697135925,120.04911041259766,28.0423583984375
4297.2210000000005,68.51473999023438,-169.72015380859375,0.0700265765190124,0.4432147145271301,-0.0469279512763023,0.6370337605476379,3.94602632522583,-43.07025146484375,-127.57713317871094,-23.20132827758789,-9.024002075195312,25.88872337341309,-0.9650340676307678,0.1220124661922454,0.1265919357538223,38.77041244506836,79.8692855834961,-97.56494903564452,183.02788068615,0.7774660943487001,35.91601655532854,0.9809196255515532,34.82438611984253,122.93953704833984,30.012184143066406
4317.070000000001,61.83732604980469,-164.8515625,1.5508421659469604,0.501002311706543,0.0072327153757214,0.5765523314476013,5.376316547393799,-46.32390975952149,-127.88296508789062,-22.62445640563965,-7.568619728088379,17.176502227783203,-1.0010186433792114,0.1350195705890655,0.0890837684273719,39.40840148925781,79.54849243164062,-96.48224639892578,176.0746934204485,0.763850914383606,29.396977072823983,1.014004204444949,34.032084941864014,125.87240219116212,31.400718688964844
4339.556,60.35384368896485,-153.63377380371094,5.093475341796875,0.6377266049385071,0.0424519814550876,0.4538506865501404,6.8254570960998535,-49.457027435302734,-128.21434020996094,-26.66636085510254,-9.560328483581545,7.005156517028809,-1.0010837316513062,0.0641524866223335,0.0878127589821815,38.79298782348633,79.35462951660156,-96.59939575195312,165.1419583033316,0.7838863687154481,29.18161921135626,1.006973316407538,31.967530727386475,128.8116569519043,31.61494445800781
4362.138,58.91352081298828,-140.22030639648438,10.5166597366333,0.6820265650749207,0.0440291166305542,0.4155195653438568,8.185133934020996,-52.33037567138672,-128.4445343017578,-24.377445220947266,-8.89377212524414,5.479573249816895,-1.0126861333847046,0.0154883237555623,0.131788745522499,37.96812438964844,79.19009399414062,-96.97188568115234,152.45700178254353,0.7998470527311516,26.52140156771816,1.0213429230032465,29.78299045562744,131.52046966552734,31.47264862060547
4384.351,58.80258560180664,-128.83445739746094,17.299415588378906,0.642805814743042,0.0600876733660697,0.4423376023769378,9.423423767089844,-54.94779586791992,-128.52732849121094,-17.758668899536133,3.560382843017578,6.995183944702148,-0.9927748441696168,-0.002022324129939,0.0844798162579536,38.26170349121094,79.21903228759766,-96.33775329589844,142.67211103104708,0.7826061579329615,19.41595337583052,0.9963648028537896,28.838279724121094,134.16682815551758,32.1895751953125
4394.531,46.20918655395508,-119.4072265625,20.029296875,0.6697767376899719,0.0596440248191356,0.3922354876995086,10.36136245727539,-57.40303039550781,-128.54920959472656,-5.896793842315674,14.035089492797852,8.124692916870117,-0.9471073150634766,0.0689242631196975,0.0399303585290908,39.83488464355469,79.39926147460938,-94.654541015625,129.59377844107067,0.7784644923553794,17.25591346996896,0.9504510791332726,29.473522186279297,136.8022918701172,33.89466857910156
4416.977,37.17210006713867,-110.07653045654295,20.82577133178711,0.7524935603141785,0.0499401800334453,0.3571074306964874,11.08163070678711,-59.70415496826172,-128.50369262695312,-3.118118524551392,28.276100158691406,9.786917686462402,-0.9696201086044312,0.113308809697628,0.0811831429600715,42.68506622314453,79.72431945800781,-91.7362823486328,118.03525038019568,0.8344257288427339,30.083953548679226,0.9795880481437274,31.603435516357425,139.42847442626953,36.76741027832031
4441.8240000000005,47.18794631958008,-102.45545959472656,21.65412330627441,0.7923030257225037,0.0285917818546295,0.323261022567749,11.953575134277344,-61.858924865722656,-128.43478393554688,-9.36676025390625,34.291996002197266,15.548772811889648,-0.9806289672851562,0.1237605661153793,0.133781298995018,46.3890495300293,79.99528503417969,-87.82209777832031,114.85958616845856,0.8561888011824283,38.80001963175573,0.9974203151955277,34.43547439575195,141.85420989990234,40.61268615722656
4465.294,44.57658004760742,-96.13504791259766,21.67896842956543,0.8383867740631104,0.0381360799074173,0.3113777339458465,12.78152084350586,-63.89882659912109,-128.36500549316406,-17.99273681640625,40.089317321777344,10.691330909729004,-0.9692704677581788,0.0997743755578994,0.1076857969164848,50.24140548706055,80.38681030273438,-83.59445190429688,108.16189993740076,0.8951552025832751,45.22384877575044,0.9803246383436792,37.45988464355469,144.28563690185547,44.77055358886719
4485.467,47.97684097290039,-90.50123596191406,22.85344696044922,0.8973776698112488,0.0528482571244239,0.2608088552951813,13.663578987121582,-65.8540267944336,-128.26048278808594,-24.246238708496094,45.31998062133789,10.036905288696287,-0.9816367626190186,0.1354781687259674,0.0937416777014732,54.8271484375,80.78389739990234,-78.49349975585938,104.95013586626312,0.936002606597513,52.36907678011973,0.9953655459502182,41.16356945037842,146.63792419433594,49.76698303222656
4494.544,38.85314178466797,-85.1505126953125,19.993846893310547,0.9307048320770264,0.0527994781732559,0.2303014397621154,14.495931625366213,-67.6956787109375,-128.32313537597656,-30.967761993408203,44.33083724975586,6.495160102844238,-0.9866362810134888,0.1573725193738937,0.1137875467538833,59.25625991821289,81.1424331665039,-73.42805480957031,95.7075250563258,0.9602281096194786,54.464782372706665,1.00556693793227,44.76032829284668,148.8381118774414,54.89508056640625
4517.055,41.62531280517578,-79.0959701538086,17.724605560302734,0.933591604232788,0.0512529611587524,0.2413984686136245,15.4760160446167,-69.38526153564453,-128.4607391357422,-38.08609008789063,43.68208694458008,9.811609268188477,-1.0223711729049685,0.224670335650444,0.1282376497983932,64.02208709716797,81.33466339111328,-67.87371826171875,91.1208033490115,0.965656962989702,58.778760232318405,1.0545920868915046,48.54607105255127,150.7199249267578,60.58702087402344
4535.453,47.976932525634766,-77.89547729492188,16.101974487304688,0.9075627326965332,0.0599244870245456,0.301149308681488,16.730131149291992,-70.98677062988281,-128.7305908203125,-51.04472351074219,45.447486877441406,6.460902690887451,-1.0110774040222168,0.2104053646326065,0.1066745966672897,68.77415466308594,81.53925323486328,-62.056419372558594,92.89114607949894,0.9580980972969794,68.64969865443287,1.0382328274354524,52.044023513793945,152.5260238647461,66.6741714477539
4557.154,47.03807067871094,-76.67539978027344,13.302334785461426,0.9049755334854126,0.0350559093058109,0.2561538815498352,18.21483612060547,-72.55867767333984,-129.29998779296875,-64.74456787109375,55.58136367797852,4.041355133056641,-0.9731390476226808,0.1574961543083191,0.0113951936364173,74.95295715332031,81.80940246582031,-54.54802322387695,90.93211278412406,0.941182471159292,85.42528670382006,0.9858673820894468,56.73812103271485,154.36808013916016,74.7519645690918
4579.204,32.06245803833008,-76.12828826904297,9.97248649597168,0.9692943096160888,0.0139345815405249,0.1736240983009338,19.794506072998047,-74.13526153564453,-130.2366485595703,-60.42339706420898,54.07419204711914,-2.426035165786743,-0.9675710797309875,0.1301642507314682,0.0274292211979627,81.07908630371094,82.090087890625,-47.1409797668457,83.20437474764485,0.984820267220193,81.12268982814497,0.9766723548231516,61.28458023071289,156.22534942626953,83.09566879272461
4595.458,27.04421043395996,-69.12564086914062,7.481905937194824,1.0275166034698486,0.0185927990823984,0.1232879385352134,21.564498901367188,-75.5707015991211,-131.51393127441406,-50.0203742980957,45.03209686279297,-2.0529050827026367,-1.011191964149475,0.1049139723181724,0.0514953359961509,86.31949615478516,82.25082397460938,-40.850345611572266,74.60376974401994,1.0350536113516997,67.33603798903042,1.0179233269639751,64.75499725341797,157.82152557373047,90.6635856628418
4617.025,24.38590240478516,-65.1982421875,6.293393135070801,0.9736807346343994,0.0488619059324264,0.1659474074840545,23.569232940673828,-76.86701965332031,-133.05673217773438,-49.914039611816406,32.63287734985352,-1.8535819053649905,-1.0528041124343872,0.1679275035858154,0.0933452099561691,89.72296142578125,82.2972412109375,-36.38241958618164,69.89341755550495,0.9889288148801268,59.66365560691413,1.0701913258109894,66.15372848510742,159.1642608642578,96.67431259155272
4639.279,21.25781440734864,-63.702613830566406,4.629390716552734,0.9124101400375366,0.0354224555194377,0.1789768189191818,25.88935852050781,-78.0853042602539,-134.94573974609375,-55.73069763183594,31.714040756225582,0.5335332751274109,-1.0016459226608276,0.1744763553142547,0.0114266220480203,93.15478515625,82.25057220458984,-31.737653732299805,67.3152949977199,0.9304728452291195,64.12468867272831,1.0167925651961836,67.26542663574219,160.33587646484375,103.20808601379396
4661.509,3.07957410812378,-64.40132904052734,0.3323533236980438,0.9375129342079164,0.0433040969073772,0.1381220668554306,28.78782081604004,-79.26759338378906,-137.8407440185547,-56.971229553222656,26.97990798950196,-4.189074516296387,-0.9862012267112732,0.1336594671010971,-0.0450291372835636,96.12776947021484,82.29178619384766,-27.556581497192383,64.47577388140037,0.9486218698556956,63.17582430986608,0.9962355825391258,67.3399486541748,161.55937957763672,110.2841625213623
4683.552,-18.93820571899414,-61.17356872558594,-2.2132043838500977,0.9809926152229308,0.0488954521715641,0.1116703227162361,31.997194290161133,-80.34147644042969,-141.45803833007812,-40.224609375,17.04633331298828,-7.25661563873291,-0.960633397102356,0.0860806629061698,-0.0503921657800674,98.11637878417967,82.41876220703125,-24.691436767578125,64.07620010677616,0.9885380808752566,44.28606044024615,0.9657979988210704,66.11918449401855,162.76023864746094,116.7666015625
4694.4,-28.875507354736328,-54.4765853881836,-4.191785335540772,0.997578740119934,0.0403501763939857,0.0619252882897853,35.55373001098633,-81.26067352294922,-145.57017517089844,-24.602209091186523,7.487380981445312,-4.2752790451049805,-1.0119750499725342,0.1059090867638588,-0.0195449590682983,98.84009552001952,82.49830627441406,-23.428770065307617,61.798578825477406,1.000313061398317,26.06928416817929,1.0176896589093598,63.2863655090332,163.75897979736328,122.14140510559082
4717.16,-20.589603424072266,-47.335479736328125,-5.100292682647705,1.0087562799453735,0.0375488512217998,0.0497007891535759,39.57087326049805,-82.00767517089844,-150.0693359375,-20.750225067138672,1.785198211669922,-5.887973308563232,-1.0180753469467163,0.138143241405487,-0.0403310433030128,98.91094970703124,82.60572052001953,-22.87994384765625,51.870920528534754,1.0106776523698315,21.64317450546968,1.0281962654379762,59.3400764465332,164.61339569091797,127.18939208984376
4740.326999999999,-26.209115982055664,-42.70449066162109,-8.42166805267334,0.982164978981018,0.071227490901947,0.0927401781082153,44.07829284667969,-82.55006408691406,-155.13856506347656,-12.57365608215332,-3.237574815750122,-4.777439594268799,-0.9688867926597596,0.1146787256002426,-0.0282585993409156,98.32766723632812,82.71680450439453,-23.14172744750977,50.80861911151244,0.9891016843745208,13.834834550392635,0.9760591045282668,54.24937438964844,165.2668685913086,131.9968376159668
4761.624000000001,-40.3837890625,-44.178184509277344,-9.426185607910156,0.9403366446495056,0.0979006364941597,0.0822391360998153,49.32738876342773,-83.02342987060547,-161.20506286621094,-7.702714443206787,-5.683042049407959,-2.8025381565093994,-0.948013722896576,0.1171003654599189,-0.02461963519454,97.4004135131836,82.79063415527344,-23.85361862182617,60.59220561008668,0.948989365273972,9.974116344198949,0.955535787308976,48.07302474975586,165.8140640258789,137.35144424438477
4784.386,-49.49211502075195,-38.466102600097656,-9.135266304016112,0.9924298524856568,0.0587639287114143,-0.1190336197614669,54.42992401123047,-83.38072204589844,-167.31480407714844,0.5188674926757812,-16.913238525390625,-1.7516018152236938,-0.8914423584938049,0.0874392762780189,-0.0366125479340553,94.94009399414062,82.87698364257812,-26.306865692138672,63.34479922546028,1.0012688020985274,17.011612792760367,0.8964683955495836,40.51016998291016,166.25770568847656,141.00793838500977
4795.836,-37.7135009765625,-20.98164176940918,-6.752987384796143,1.053478717803955,-0.0188557840883731,-0.1669120043516159,57.29312896728516,-83.50715637207031,-170.90792846679688,12.863618850708008,-24.243471145629883,5.568705558776856,-0.9175577759742736,0.0428826808929443,-0.0379157289862632,91.51722717285156,82.8354263305664,-29.97161293029785,43.68226511833164,1.0667860922678578,28.0040901427922,0.9193415029661074,34.224098205566406,166.34258270263672,140.93631553649902
4816.867,-33.27377700805664,-1.2717390060424805,-8.151436805725098,0.9857836961746216,0.0003408407792448,-0.0441668666899204,57.73004531860352,-83.44879913330078,-172.05714416503906,25.705928802490234,-11.717126846313477,13.792193412780762,-0.9448946714401244,0.0439740419387817,-0.067944623529911,90.50535583496094,82.60579681396484,-31.468721389770508,34.28129925307818,0.9867726809804478,31.437405049826395,0.9483544318170268,32.77531051635742,166.05459594726562,140.58842277526855
4841.817,-33.476287841796875,14.5009126663208,-8.538227081298828,0.9490141868591307,0.0465082600712776,0.0053994040936231,55.91349411010742,-83.18470764160156,-170.97962951660156,35.75838088989258,4.986941814422607,14.243675231933594,-0.995910108089447,0.1175753697752952,-0.0807146579027175,92.25204467773438,82.32234954833984,-30.3863582611084,37.46784805022735,0.950168458053266,38.81254535121176,1.00606946428807,36.33855056762695,165.5070571899414,140.59327125549316
4861.671,-43.1688117980957,27.299224853515625,-10.821736335754396,0.9760964512825012,0.0678725019097328,0.0114368256181478,52.6673469543457,-82.7175064086914,-168.67091369628906,41.70773315429688,15.736562728881836,10.636046409606934,-0.9571573138237,0.1152461618185043,-0.0658699199557304,95.50257110595705,82.09381103515625,-27.9027042388916,52.2101902599751,0.9785201887043512,45.82902895128131,0.9663180881961552,42.83522415161133,164.81131744384766,140.76820945739746
4884.137,-32.66437530517578,36.66706848144531,-9.099629402160645,0.9937066435813904,0.0264857858419418,0.0133732538670301,48.68120574951172,-82.1632308959961,-165.34629821777344,45.74238586425781,16.364948272705078,8.839286804199219,-0.9514205455780028,0.0778672844171524,-0.0348783954977989,98.65780639648438,81.9081039428711,-25.602458953857425,49.942352571310096,0.994149502976514,49.37925057886011,0.9552386460999928,49.976600646972656,164.0713348388672,139.74383926391602
4904.406,-25.34557342529297,40.18113327026367,-8.39383602142334,0.9992333650588988,-0.0099426275119185,-0.010913647711277,44.89741134643555,-81.54798889160156,-162.0485382080078,52.97366714477539,14.41111660003662,9.978907585144045,-0.9460684657096864,0.0829037055373191,-0.008408679626882,101.4024658203125,81.69181823730469,-23.856674194335938,48.24290669408459,0.9993424244947962,55.798461349916735,0.9497311577994932,56.50505447387695,163.23980712890625,138.19186401367188
4914.157,-23.25047874450684,45.40618896484375,-7.815385341644287,1.0179026126861572,0.0306120999157428,-0.0194089133292436,41.31999969482422,-80.85496520996094,-158.9473114013672,58.624454498291016,9.95600700378418,8.889524459838867,-0.9502506256103516,0.0729547888040542,0.0181325245648622,103.48876190185548,81.51789855957031,-22.90596580505371,51.60801300377928,1.0185477580806797,60.124640421408486,0.9532195136113214,62.16876220703125,162.37286376953125,136.04134559631348
4934.161999999999,-31.016864776611328,51.03763198852539,-8.874445915222168,0.9902583360671996,0.0793094784021377,0.0163675807416439,37.8493766784668,-80.00695037841797,-156.1315460205078,64.32884979248047,3.648178577423096,4.358738422393799,-0.945609450340271,0.0990118086338043,0.0021905354224145,104.99603271484376,81.44322967529297,-22.65869140625,60.379148469226905,0.993564020692342,64.57947602134237,0.9507814518948102,67.14665603637695,161.45018005371094,133.4728546142578
4957.535,-32.44034194946289,58.54905700683594,-10.004746437072754,0.9313010573387146,0.0848489180207252,0.0426413528621196,34.50614929199219,-78.98931121826172,-153.4677734375,63.84859085083008,0.1216204613447189,4.213614940643311,-0.9601340889930724,0.1518442034721374,-0.0233372431248426,106.07086181640624,81.35704040527344,-22.82817840576172,67.67911652391693,0.9361299499873974,63.98759173497103,0.9723470357291748,71.56471252441406,160.34635162353516,130.63959503173828
