Timestamp (ms),Wrist Gyroscope X (deg/s),Wrist Gyroscope Y (deg/s),Wrist Gyroscope Z (deg/s),Wrist Accelerometer X (g),Wrist Accelerometer Y (g),Wrist Accelerometer Z (g),Wrist Roll (deg),Wrist Pitch (deg),Wrist Yaw (deg),Arm Gyroscope X (deg/s),Arm Gyroscope Y (deg/s),Arm Gyroscope Z (deg/s),Arm Accelerometer X (g),Arm Accelerometer Y (g),Arm Accelerometer Z (g),Arm Roll (deg),Arm Pitch (deg),Arm Yaw (deg),Wrist Gyroscope Magnitude (deg/s),Wrist Accelerometer Magnitude (g),Arm Gyroscope Magnitude (deg/s),Arm Accelerometer Magnitude (g),Difference Roll (deg),Difference Pitch (deg),Difference Yaw (deg)
0.0,32.491161,-10.319913,1.407844,-0.933455,0.076197,0.274649,3.526861,74.380814,167.670639,17.468771,5.113895,2.74499,-0.938954,0.174269,0.025594,65.693855,81.891258,17.002291,34.1197621941277,0.9760001501203778,18.40773892746108,0.955332063375348,62.166994,7.510443999999993,-150.66834799999998
19.984,28.6823765,-10.1764845,1.6724115,-0.9499755,0.0631309999999999,0.2639205,3.8550245,74.2837945,167.7742005,16.652112,3.8947495,2.848017,-0.9705585,0.16715,0.046922,66.109966,81.8667945,17.262872,30.480100372075952,0.9879741920118664,17.33704440095206,0.9859637916811396,62.2549415,7.582999999999998,-150.5113285
39.967,28.869520666666663,-9.298468666666666,1.8721936666666668,-0.9599643333333332,0.0509723333333333,0.2639026666666667,4.202492666666667,74.20280733333334,167.871338,17.019561666666664,1.7616293333333335,3.623571333333333,-0.9891966666666664,0.1637266666666666,0.0610596666666666,66.33117666666668,81.81446066666666,17.31417433333333,30.387758262063063,0.9968822987250467,17.48997102459821,1.0045121948566211,62.128684,7.611653333333332,-150.55716366666667
59.951,30.2337055,-8.40174175,2.164815,-0.96952925,0.0566025,0.28211025,4.61168525,74.12529775,168.001072,17.7492575,0.1096602500000001,4.9073835,-0.99877,0.166898,0.06476925,66.5071505,81.7325725,17.305384749999998,31.453976484359625,1.0113243805856136,18.41549836381868,1.0146878884906247,61.89546525,7.607274749999998,-150.69568725
79.935,28.6831996,-7.998446799999999,2.1252596,-0.9781048,0.0636886,0.2970304,4.984788,74.0453554,168.1312806,17.8469256,-0.9744772,6.062751,-1.0065244,0.1716947999999999,0.0663582,66.6714552,81.63042440000001,17.285847999999998,29.85327149364476,1.024193485664286,18.873773042856484,1.0232174171942343,61.6866672,7.585068999999999,-150.8454326
99.918,25.3146212,-7.656207599999999,2.42947,-0.9913012,0.055867,0.2991908,5.664685199999999,73.8793474,168.37251600000002,16.636757199999998,-3.2600104,7.4444824,-1.0274502,0.1714081999999999,0.0763843999999999,66.98891900000001,81.44812160000001,17.271335999999998,26.55842400811251,1.0369736378592658,18.51566029456605,1.0444468684766306,61.3242338,7.568774199999998,-151.10118000000003
119.902,25.5193672,-7.998864399999999,3.2880160000000003,-0.9905036,0.0493908,0.3161375999999999,6.369721199999999,73.6968524,168.6437196,15.3303642,-5.049186199999999,8.687767000000001,-1.0257619999999998,0.1672142,0.0825413999999999,67.0962142,81.23101340000001,17.071440799999998,26.94496211157624,1.0409033648093178,18.330074828903484,1.042574386813526,60.726493000000005,7.534160999999997,-151.5722788
139.885,26.5856932,-9.5707156,4.3497708,-0.9768208,0.0462014,0.3370634,7.123187799999999,73.4682344,168.95004899999998,12.927281400000002,-4.7565854000000005,9.6100666,-1.0086814,0.1625694,0.0756166,67.2463926,81.0037566,16.9634794,28.58877727418825,1.034371877176753,16.795627083223618,1.024492482509208,60.1232048,7.535522199999997,-151.9865696
159.869,27.1385168,-12.3948424,5.5091318000000005,-0.9555022,0.032748,0.3387722,7.8882312,73.17786120000001,169.25296640000002,10.8376808,-2.7860038000000005,9.69302,-0.9806838,0.1470474,0.0667896,67.580287,80.80021500000001,17.083988400000003,30.339442074871634,1.0143093656284952,14.804451324405884,0.9938936080372788,59.692055800000006,7.622353799999996,-152.168978
179.853,30.2320308,-15.5028404,6.609245799999999,-0.9371136,0.0389382,0.3359894,8.743240400000001,72.8221834,169.58608099999998,9.9677532,-0.1644207999999995,8.2569582,-0.9591452,0.1395895999999999,0.0673106,68.101158,80.64623099999999,17.4120938,34.61207703684999,0.9962865850931448,12.944516088758592,0.971584009740568,59.35791759999999,7.824047599999995,-152.1739872
199.836,35.010842600000004,-19.460957,7.924110799999999,-0.916263,0.0576613999999999,0.3628601999999999,9.7254988,72.3726182,169.93480219999998,10.541756199999998,2.4956822,8.4485186,-0.9332326,0.1584112,0.0625502,68.9530592,80.496144,18.0636094,40.83233374286242,0.9871829855518176,13.738068276078016,0.9486462573099838,59.2275604,8.123525799999996,-151.8711928
219.82,37.0281144,-24.9259484,9.1875872,-0.903319,0.0734676,0.38548,10.7396148,71.79863280000001,170.27282100000002,10.1388628,7.365286,8.644699399999999,-0.9046666,0.161497,0.0384732,70.3945144,80.37410279999999,19.3197614,45.57187639560778,0.9848743749386314,15.224152011044168,0.9197734097498144,59.6548996,8.575469999999996,-150.95305960000002
239.803,36.6932802,-32.395748600000005,10.6935592,-0.9104662,0.086458,0.3903952,11.7183866,71.075032,170.56468800000002,10.8095064,14.466418999999998,7.612903,-0.8914806000000001,0.1485978,0.0100105999999999,72.62024999999998,80.3114656,21.357599,50.10223096384051,0.9944003717263384,19.597933548785463,0.9038358138807956,60.9018634,9.236433599999994,-149.207089
259.787,37.0987382,-40.7463568,12.369367,-0.922147,0.1136116,0.4027581999999999,12.6834602,70.1810638,170.825354,14.3896106,21.4359494,7.090591999999999,-0.8965318,0.154455,-0.0015852,75.6882248,80.272362,24.1775244,56.47639514421697,1.0126583100586295,26.77381771076842,0.9097406928874184,63.0047646,10.091298199999994,-146.6478296
279.771,36.0802574,-51.26895460000001,14.5347158,-0.931851,0.1308987999999999,0.4228656,13.572840200000002,69.07126,171.0108886,15.967600999999998,29.0425394,7.667794000000001,-0.8917182,0.1825778,-0.0291468,79.67973939999999,80.2139162,27.9031028,64.35486495373824,1.031647273880855,34.018060516763576,0.910684103964882,66.1068992,11.142656199999996,-143.10778580000002
299.754,30.4442714,-62.4147294,17.045629400000003,-0.9549784,0.144568,0.4459796000000001,14.2938134,67.73239740000001,171.1372742,16.2279614,38.9430254,5.0237048,-0.9002892000000001,0.1750528,-0.0526832,84.7316604,80.1919512,32.7012992,71.50528364249894,1.0638521770935658,42.48698116391041,0.9186618779435228,70.437847,12.459553799999997,-138.435975
319.737,22.0846672,-72.7956986,19.800692200000004,-0.9794048,0.1701598,0.469409,14.825665,66.1853248,171.224942,16.4207958,46.5108414,-0.2444965999999997,-0.9439374,0.1804468,-0.0418122,90.56089,80.2130052,38.2883056,78.60670245975173,1.099332947327642,49.32505125216459,0.9619392511057234,75.735225,14.027680399999994,-132.9366364
339.721,11.0593906,-80.8057222,23.163646,-1.000921,0.188266,0.5086226,15.160219,64.467569,171.339862,13.9109826,50.133554,-5.9123892,-0.9979562,0.210079,-0.0186004,96.7797102,80.24243779999999,44.3249644,84.78460565881201,1.1384128795071495,52.362629991442326,1.019997910899625,81.6194912,15.774868799999997,-127.0148976
359.705,-1.6855938,-88.38985,27.157098,-1.0239328,0.1957464,0.5557676,15.2782422,62.5848228,171.5034514,5.6919054,52.3221626,-13.3785168,-1.0472906,0.2231784,-0.0224868,103.2393722,80.3035508,50.774257600000006,92.48305131894548,1.1813689759082724,54.304614886685926,1.0710424152428135,87.96113,17.718728,-120.7291938
379.688,-15.0585078,-94.6676882,31.0743232,-1.0364618,0.178609,0.597484,15.1688714,60.5677604,171.7143554,-1.5636880000000002,52.72889239999999,-21.3519946,-1.0907052,0.1857692,-0.0303752,109.8946778,80.41363240000001,57.5681908,100.76876206758293,1.2096038062093886,56.909479766472565,1.106829111358533,94.7258064,19.845872,-114.1461646
399.672,-25.3241134,-100.02092,33.582915400000005,-1.0359714,0.151484,0.6249722,14.8691068,58.4470572,171.952661,-4.9979746,50.1984686,-28.183874,-1.1118012,0.1517212,-0.0439076,116.6011552,80.5502886,64.4810006,108.5048725353199,1.219333586286706,57.78578331679261,1.122964428728105,101.7320484,22.1032314,-107.4716604
419.656,-32.111446,-105.6109254,34.3362646,-1.01944,0.1344049999999999,0.6656272000000001,14.411690800000002,56.21817539999999,172.1727934,-3.948163,47.3754042,-32.710392,-1.1057748,0.1220428,-0.0736454,123.4773744,80.663199,71.54021379999999,115.60186674416852,1.224900888645624,57.70603659047821,1.1149242119032308,109.0656836,24.44502360000001,-100.6325796
439.639,-36.9958526,-111.59050299999998,33.648662,-0.9787154,0.1219815999999999,0.7033944,13.8024418,53.8752982,172.3361204,1.6629881999999996,42.6214374,-36.2266102,-1.0896604,0.07968,-0.0990524,130.46393740000002,80.7688584,78.5931536,122.28395611765336,1.2114152990973328,55.961770364939326,1.097050622202057,116.6614956,26.893560200000003,-93.7429668
459.623,-41.1381858,-117.2423858,32.1854118,-0.9208782,0.1052398,0.7246004,13.047256,51.430767,172.4329374,11.6360248,34.1840304,-36.2731682,-1.0586905999999998,0.0288334,-0.110674,137.0996002,80.8870972,85.0844286,128.35119045699165,1.1764938650156405,51.18288521371016,1.0648501705685731,124.0523442,29.456330200000004,-87.3485088
479.606,-44.37155,-122.94131,30.8402488,-0.8584206,0.1038227999999999,0.7612325999999999,12.1919094,48.8746826,172.5006834,26.606861,22.8347918,-33.258322,-1.0298393999999995,-0.0253706,-0.1134284,142.9168426,81.046971,90.4417466,134.29266956898468,1.1520156993752124,48.32668777268263,1.0363777588617384,130.72493319999998,32.1722884,-82.0589368
499.59,-45.7223822,-128.9312544,27.6828116,-0.7970284000000001,0.1172258,0.7938158000000001,11.2736684,46.2070702,172.511038,43.9673024,8.5458686,-28.0245698,-1.0200744,-0.0547526,-0.1041698,147.58527220000002,81.3123412,94.28313,139.57128162083163,1.1309905759650871,52.83495114918328,1.0268402874713085,136.3116038,35.105271,-78.227908
519.573,-46.3995024,-134.25883779999998,29.2857548,-0.7514624000000001,0.1340116,0.8193638,10.3989356,43.4332978,172.599533,59.47822,-7.7561874,-19.5018726,-1.0166536,-0.0415988,-0.0945384,150.4358338,81.7151946,95.9718736,145.0379425687638,1.1198267206576025,63.07249901707518,1.021886741096566,140.0368982,38.281896800000005,-76.6276594
539.557,-45.8214416,-139.2384674,30.329154,-0.7131544,0.1570528,0.8471354,9.586624600000002,40.5631784,172.7547942,69.04047399999999,-22.949277,-9.2104578,-1.011507,0.0113813999999999,-0.0810039999999999,151.0785646,82.2392242,95.236403,149.68905403054288,1.1184333534727762,73.3354545758938,1.0148091423173915,141.49194,41.6760458,-77.5183912
559.541,-43.9193542,-143.61656200000002,31.2664452,-0.682203,0.1813608,0.8875308000000001,8.8531962,37.6084486,172.9685822,69.57778019999999,-34.1118204,0.9895708000000006,-1.0146242,0.0914417999999999,-0.0634575999999999,149.3234926,82.8255676,92.07037499999998,153.40214193253465,1.1340209847856786,77.49621306186245,1.0207108978602315,140.4702964,45.217119,-80.8982072
579.524,-38.6484806,-147.67272359999998,31.913003600000003,-0.6560026,0.1979486,0.9161424,8.2504174,34.583859399999994,173.22508539999998,59.1198796,-41.486703600000006,11.0913758,-1.0183114,0.1627246,-0.0446102,144.8539948,83.3819062,86.3788376,155.94671572977796,1.1440454346425584,73.0706873968596,1.0321954624775096,136.6035774,48.7980468,-86.8462478
599.508,-32.373514799999995,-151.7439914,35.1966264,-0.627615,0.2179631999999999,0.957063,7.8303624,31.4768732,173.57964780000003,41.0392506,-46.0232244,21.2794206,-1.0230984,0.2157606,-0.0293726,137.5060882,83.7838226,78.1517364,159.1008670512209,1.1650657194975054,65.23167187075661,1.046014207468369,129.6757258,52.30694940000001,-95.4279114
619.491,-25.2862758,-156.16951020000002,35.0649064,-0.5896834,0.2127939999999999,0.9878266,7.528807,28.2927434,173.924597,18.7905122,-48.5567602,30.4132932,-1.0295608,0.2512938,-0.0110142,127.9206772,83.9217376,68.1177506,162.04277003551357,1.1699611918089934,60.29768414398532,1.0598421238169011,120.3918702,55.6289942,-105.8068464
639.475,-15.5099852,-161.3076724,36.5906722,-0.5546021999999999,0.2022056,1.0221024,7.408242400000001,25.0134292,174.2863128,-3.465109200000001,-49.5312002,39.061012600000005,-1.0279632,0.2466506,0.0085511999999999,117.0003814,83.719133,57.1851318,166.13127974002305,1.1803236933155077,63.17522837598423,1.0571745277181246,109.592139,58.7057038,-117.101181
659.459,-6.0338892,-167.2258578,38.993206,-0.5215036,0.1961686,1.0548254,7.4608256000000015,21.6226452,174.6701842,-21.0370116,-50.6332984,45.1690436,-1.0383058,0.210696,0.0211139999999999,105.8173338,83.1971816,46.3376538,171.81782634517913,1.1929395411855874,71.03892780483584,1.0596780358795967,98.3565082,61.5745364,-128.3325304
679.442,2.356246,-173.3511996,42.0249748,-0.485782,0.1900874,1.0846446,7.6625106,18.114303,175.0797302,-31.8965876,-51.49168160000001,48.4995956,-1.0601178,0.224438,0.0371733999999999,95.551712,82.40366499999999,36.6271962,178.3880287600942,1.203566067763594,77.59507940510011,1.0842527506944126,87.8892014,64.28936200000001,-138.452534
699.426,10.6310474,-179.31377279999998,45.217736,-0.446327,0.1775846,1.0909076,8.004333800000001,14.4916518,175.50814200000002,-41.3796114,-51.2253028,51.0154038,-1.0590514,0.2466416,0.0555946,86.9043808,81.374121,28.7315736,185.23253475984384,1.1919830002243823,83.29991183334921,1.0888125211631616,78.900047,66.8824692,-146.77656840000003
719.41,17.8772342,-184.8318026,48.599813,-0.4016532,0.1756888,1.1008528,8.465106800000001,10.7592992,175.953363,-49.3866744,-49.9456886,50.487654,-1.06148,0.242759,0.0723332,80.0072128,80.2249908,22.7544528,191.9487759237917,1.184934063475061,86.50213075088672,1.0912853954411923,71.542106,69.46569159999999,-153.19891020000003
739.393,22.3766552,-190.1270632,52.544233,-0.3524762,0.1790552,1.0953952,8.987821,6.899502799999999,176.4217192,-53.2743834,-48.8284356,49.186528,-1.0674646,0.232446,0.0803922,74.58647,79.0282974,18.337616,198.51929699793607,1.164556087269531,87.41676376123934,1.0954335767128922,65.598649,72.1287946,-158.08410320000002
759.377,25.451841,-194.5971224,56.3554954,-0.2924326,0.1745726,1.0718558,9.5362008,2.9241400000000004,176.9096922,-53.16973720000001,-48.033719000000005,48.2232026,-1.0498316,0.243593,0.0960732,70.2643502,77.79147800000001,15.0212356,204.18564621057303,1.1246631825605211,86.36976545000381,1.0819953778855989,60.72814939999999,74.867338,-161.8884566
779.36,28.384644,-197.9062868,59.320874,-0.2287664,0.1708806,1.0319664,10.1088584,-1.1445368000000002,177.404019,-52.8587548,-48.0319756,48.6120782,-1.0187522,0.259453,0.1112626,66.7350562,76.5032304,12.4937622,208.5462837407909,1.070742217321368,86.39590722926887,1.0571429753692732,56.6261978,77.6477672,-164.9102568
799.344,30.6483242,-200.1492066,61.50787879999999,-0.1622112,0.1741934,1.0007284,10.6960414,-5.285235,177.8930846,-53.0489632,-47.120533,48.042489,-0.9989918,0.276001,0.122932,63.81418219999999,75.20641040000001,10.582001,211.6181557271334,1.028646267953936,85.68907676077602,1.0436826361937042,53.118140800000006,80.49164540000001,-167.31108360000002
819.328,32.307562000000004,-201.5498596,62.659049800000005,-0.0970624,0.1703241999999999,0.9477242,11.2900322,-9.4780258,178.3593566,-54.304447200000006,-45.804067200000006,47.5926394,-0.9681094,0.2959492,0.1336826,61.3360976,73.90780360000001,9.1423056,213.5234904852448,0.9677874776339276,85.51049574653474,1.0211232917193496,50.0460654,83.3858294,-169.217051
839.311,33.7670952,-201.696463,61.9266118,-0.0213289999999999,0.1669959999999999,0.9028532,11.893327,-13.6680306,178.7710328,-56.54633260000001,-42.734507,46.283333000000006,-0.9349936,0.324099,0.1494327999999999,59.239267600000005,72.64070000000001,8.136698999999998,213.6740160945737,0.9184152062151628,84.65147802981211,1.0007913646498954,47.3459406,86.3087306,-170.6343338
859.295,34.9530532,-200.908194,60.23006719999999,0.0500984,0.1643492,0.8605636000000001,12.5066444,-17.8315992,179.1133912,-62.2112832,-37.6197886,44.5848786,-0.9247466,0.3436432,0.162005,57.4624014,71.44601460000001,7.5771152,212.63461463096775,0.877547844204611,85.2836657952508,0.9997462393741724,44.955757,89.27761380000001,-171.536276
879.278,35.140235,-199.0231658,58.8634144,0.1251846,0.1661642,0.8289802,13.111541399999998,-21.9403414,179.39974360000002,-68.88583000000001,-30.3486548,41.7685608,-0.9142022,0.3281086,0.1754326,55.9377296,70.3871598,7.422569999999999,210.4993068770908,0.8546870172354556,86.0866487572943,0.9870144441808136,42.8261882,92.3275012,-171.9771736
899.262,33.182991400000006,-196.0147278,57.9057096,0.1982898,0.1573294,0.7910554000000001,13.6676764,-25.9799576,107.6464386,-72.92405860000001,-24.8503982,38.298294,-0.9201446,0.3163666,0.1917332,54.55400999999999,69.458113,7.5031856,207.065099997658,0.8305660905416017,86.03615482287219,0.9917235151426832,40.8863336,95.4380706,-100.143253
919.245,31.2339426,-191.6733094,57.00822900000001,0.2708438,0.1458642,0.7507552000000001,14.173324,-29.927668400000005,35.86825560000001,-74.176323,-18.8325696,35.805783,-0.9126912,0.2976575999999999,0.1925066,53.3809746,68.65592799999999,7.835747,202.3960347447664,0.8113359964694775,84.49169585102587,0.9791139180089108,39.2076506,98.5835964,-28.032508599999996
939.229,28.9269732,-186.5896972,56.155291,0.327632,0.1418501999999999,0.7123538,14.6333294,-33.7779918,-35.93157359999999,-73.12067880000001,-13.275089599999998,35.21791460000001,-0.9331286,0.288834,0.205411,52.45277940000001,67.9442,8.4120788,196.99213585063717,0.7968137442580168,82.23845317631948,0.9981722008826734,37.81945,101.7221918,44.3436524
959.213,25.291809200000003,-180.903363,54.787272,0.3835184,0.1353452,0.6722090000000001,15.0204758,-37.5132664,-107.7519562,-70.7398422,-8.4406658,34.9104218,-0.903206,0.2912032,0.1983022,51.77085039999999,67.3003874,9.2036702,190.70224836252183,0.7856650851238077,79.33541242019295,0.9694865366012464,36.7503746,104.8136538,116.9556264
979.196,22.3545942,-174.68526000000003,52.74036579999999,0.4361416,0.1152012,0.6276126,15.3470934,-41.132892600000005,-179.59268179999998,-68.1831558,-5.207493,34.956598,-0.8909514,0.2964284,0.1930296,51.2724418,66.7021498,10.139842,183.83746660523823,0.772909042132876,76.79859674450911,0.9586055601573986,35.9253484,107.8350424,189.7325238
999.18,21.899336,-168.2122314,50.3953806,0.4869746,0.1046759999999999,0.5746393999999999,15.678113000000002,-44.6250358,-179.46490480000003,-65.48174979999999,0.3577942,36.5600992,-0.9029736,0.2888484,0.1943304,51.0565056,66.1610244,11.3297088,176.95940239395844,0.7604681229700032,74.99752280624469,0.967759797079668,35.3783926,110.7860602,190.7946136
1019.164,19.1112944,-161.312445,48.5927004,0.5340868000000001,0.0963876,0.5401038,15.9512272,-47.9808356,-179.3447418,-62.9329842,5.7827832,35.809734199999994,-0.8979647999999999,0.2830038,0.1994802,51.0310776,65.70515420000001,12.6779372,169.55293278998644,0.7656705519624221,72.63840681987939,0.9624054670696336,35.0798504,113.6859898,192.022679
1039.147,18.0601844,-153.658545,47.0276476,0.5797398,0.0722927999999999,0.4936188,16.176262,-51.1859344,-179.2047058,-61.432537,11.5108128,33.824413,-0.8702333999999998,0.2691968,0.1829667999999999,51.1603746,65.3616148,14.166186,161.705653428904,0.7648424702834695,71.06719586678217,0.929112446105443,34.9841126,116.5475492,193.3708918
1059.131,18.659464,-145.222438,45.1795366,0.6215032,0.061036,0.447239,16.4031206,-54.2351042,-179.05563980000002,-58.365896600000006,16.754023,30.4995732,-0.8900116,0.2686933999999999,0.1847672,51.4239458,65.1415754,15.7372084,153.22833492152122,0.7681239118965377,67.9521827315987,0.947869036066671,35.0208252,119.3766796,194.79284820000004
1079.114,16.289934,-136.2116134,43.2322886,0.6563042,0.058888,0.4057072,16.576596000000002,-57.110005,-178.89722620000003,-54.66845020000001,23.0081186,25.8862248,-0.901492,0.2625659999999999,0.179237,51.83697600000001,65.076921,17.3930554,143.83322409078198,0.7738225452992953,64.71560556139208,0.95590513786097,35.26038,122.186926,196.2902816
1099.098,12.9815174,-126.631961,40.5961458,0.6869455999999999,0.04197,0.3834472,16.6640772,-59.7913382,-178.72102060000003,-49.6161498,28.5788758,19.5520198,-0.8743928000000001,0.2643244,0.1685287999999999,52.38344880000001,65.1721344,19.0820762,133.61220151815058,0.7878372252230786,60.50451174274079,0.9288875677694476,35.7193716,124.9634726,197.8030968
1119.081,13.508741400000002,-117.1764542,36.4004956,0.7136020000000001,0.025408,0.3427056,16.810468800000002,-62.2720726,-178.6007692,-44.4040436,33.9528856,16.5400584,-0.8935267999999998,0.284932,0.1716882,53.163832,65.364026,20.909619,123.441498666463,0.7920356741582795,58.29314762879767,0.953442827316604,36.3533632,127.6360986,199.5103882
1139.065,12.7637212,-108.0501556,31.8205152,0.7412248,0.0245952,0.3083072,17.0300796,-64.5538636,-178.57658999999998,-38.8430242,38.519085,12.851463999999998,-0.8962002,0.2984478,0.1634848,54.1620788,65.6512834,22.8475126,113.35913678062732,0.8031640290562819,56.19306509866059,0.9586308818496928,37.1319992,130.205147,201.42410260000003
1159.049,10.3159834,-99.4406052,26.6384328,0.768778,0.0267781999999999,0.2964128,17.347394599999998,-66.6328614,-178.7091064,-33.6955182,41.3633996,11.0509354,-0.8876172,0.2941268,0.1534004,55.352101000000005,65.9863924,24.8780386,103.46235826662496,0.824376875757126,54.48340982767859,0.9475793111577732,38.0047064,132.6192538,203.587145
1179.032,10.0191522,-91.5995958,20.9691926,0.7925006,0.0154596,0.2688558,17.851166,-68.5322846,-107.0464324,-27.1707516,43.9190316,11.2276502,-0.8872899999999999,0.3050148,0.1539092,56.8108314,66.319214,27.055187,94.50172696742656,0.8370063568612606,52.8506500263172,0.9507920982863078,38.959665400000006,134.8514986,134.1016194
1199.016,11.1160694,-84.30011920000001,15.8447288,0.8160328,0.0081202,0.2322239999999999,18.6121052,-70.2600922,-35.6272704,-22.498659,45.616945,12.3462142,-0.8888947999999999,0.3097756,0.1514922,58.4933204,66.6237184,29.3709562,86.49354037606147,0.8484712455350977,52.34046554056992,0.95343839574628,39.8812152,136.8838106,64.9982266
1219.015,9.9352536,-76.8305742,11.7901118,0.8444718,0.0199184,0.2209806,19.5595072,-71.81972800000001,35.577713200000005,-17.7235316,46.0251054,11.924879399999998,-0.879542,0.3003116,0.1363548,60.3209992,66.91549380000001,31.7366548,78.36231959465287,0.8731333169855334,50.740877487109465,0.9393475492817344,40.761492,138.7352218,-3.8410584000000023
1238.983,7.611395999999999,-69.9531946,7.4766912,0.8678893999999999,0.0240078,0.2133846,20.7163554,-73.2168058,106.5214966,-13.054816399999998,46.5173944,12.1136568,-0.8780720000000001,0.3104218,0.1313804,62.318470000000005,67.16916499999999,34.181022,70.76216287758906,0.894058931284935,49.81000797099964,0.9405492760102472,41.60211460000001,140.38597080000002,-72.34047460000001
1258.966,8.4126258,-63.8113648,3.360219,0.8870716,0.0072894,0.1836443999999999,22.1822928,-74.466635,177.167868,-8.848044400000001,48.0116112,13.514705,-0.8820132,0.322975,0.1314252,64.5210876,67.36869659999999,36.75471280000001,64.45117238823097,0.9059108259261944,50.65619360908755,0.9484369872554952,42.3387948,141.8353316,-140.41315519999998
1278.95,9.6770244,-58.1598984,-0.6794277999999998,0.912004,0.0088576,0.1721644,24.0355378,-75.5651366,175.4501128,-6.3136906,47.7823518,12.661671600000002,-0.8876900000000001,0.3318982,0.126402,66.77412260000001,67.5408874,39.3263014,58.96338020561516,0.9281542618127224,49.83305890909907,0.956100108182841,42.7385848,143.10602400000002,-136.1238114
1298.933,6.994364,-52.885823,-4.587848599999999,0.9375122,0.0267912,0.1722131999999999,26.2237914,-76.51618640000001,173.34199800000002,-4.3678212,47.018863,12.4227288,-0.898639,0.3355012,0.1217169999999999,69.0422806,67.6742156,41.8712616,53.5432512734177,0.95357447522494,48.82801993411454,0.966916819385949,42.8184892,144.190402,-131.4707364
1318.917,3.402294,-48.819590600000005,-8.318769,0.957152,0.033135,0.1617996,28.7564116,-77.33679180000001,170.815295,-2.9041256,46.6899124,13.331694000000002,-0.9082708,0.3448474,0.1151496,71.3536682,67.7472748,44.4306062,49.64000351016714,0.9712965509509236,48.64273769361553,0.9783327684379992,42.5972566,145.0840666,-126.3846888
1338.901,0.1396990000000002,-44.5747602,-11.3221054,0.9770434,0.0350586,0.1399798,31.576824,-78.03376600000001,167.93550679999998,-1.5581596000000002,43.8188674,13.7379402,-0.9187458,0.346902,0.1122336,73.5613098,67.75963440000001,46.85057,45.99042110469107,0.9876422709288823,45.94836234836483,0.9884488978144494,41.9844858,145.7934004,-121.0849368
1358.884,-4.656008,-40.78468,-13.0288574,0.9934848,0.0516022,0.1303764,34.5783312,-78.61793960000001,164.7813748,-0.1234595999999999,40.058688,12.714516,-0.9351618,0.3477482,0.110544,75.5849762,67.7422408,49.0436364,43.06761728199041,1.003330872919218,42.02823626644869,1.003830851647069,41.006645,146.3601804,-115.73773839999998
1378.868,-11.0562456,-37.6979552,-13.5000282,1.0074428000000002,0.07572,0.1177271999999999,37.662187800000005,-79.1051986,161.4216154,1.5156824,35.921555600000005,13.2232458,-0.9468852,0.3518024,0.1053644,77.4365464,67.6706436,51.0172402,41.54066868057761,1.0171205470796865,38.30808895453777,1.0156072899561917,39.77435859999999,146.7758422,-110.4043752
1398.852,-16.0896088,-34.447465,-13.328011600000002,1.0143364,0.0878632,0.0961572,40.7162688,-79.51096500000001,157.99626139999998,2.2423864,31.8792932,11.4970878,-0.9368238,0.359481,0.0868076,79.0979646,67.5902328,52.7683808,40.2882023609021,1.022665380948744,33.96322510568424,1.0071747519796157,38.3816958,147.1011978,-105.2278806
1418.835,-19.3090178,-29.8846568,-12.5293906,1.015804,0.0886864,0.0694354,43.5487662,-79.8364122,154.73503399999998,4.3049958,25.765452600000003,10.019810199999998,-0.9341934,0.3645146,0.0748914,80.487201,67.496614,54.1804588,37.72156557278438,1.0220295097178551,27.978351148073195,1.0055828777433913,36.9384348,147.3330262,-100.5545752
1438.819,-22.0311722,-23.9744048,-11.0936496,1.0148132,0.0976902,0.0528861999999999,45.9253676,-80.0742174,151.88403920000002,7.1715402,20.755247200000003,9.321157,-0.9381132,0.3684956,0.0661918,81.6792344,67.38863380000001,55.3176506,34.39787341490599,1.0208751913043632,23.855717197183004,1.0100627394478223,35.7538668,147.4628512,-96.5663886
1458.803,-25.9067586,-16.3709938,-9.5269356,1.0148596,0.1115117999999999,0.034234,47.625984800000005,-80.21094819999999,149.656311,10.4807156,16.599645200000005,7.9553376,-0.928201,0.3758272,0.054522,82.72754080000001,67.28316520000001,56.22705080000001,32.09255491675382,1.0215414117926889,21.18209188404064,1.00288375654651,35.101556,147.4941134,-93.4292602
1478.786,-28.1296332,-7.2390922,-8.3785098,1.0126301999999998,0.1128763999999999,0.0148104,48.515759200000005,-80.23388220000001,148.213327,12.715512999999998,14.359404400000004,6.432544999999999,-0.9064172,0.3894846,0.0396816,83.70808120000001,67.184987,57.0130516,30.23045064691129,1.0190094953321875,20.230037092228315,0.987352532518938,35.192322,147.41886920000002,-91.20027539999998
1498.77,-29.461717600000004,3.0404539999999995,-8.0921576,1.015699,0.1084266,-0.0028178,48.539050200000005,-80.12551880000001,147.6246156,15.7772266,13.390816600000004,7.170287400000001,-0.9031618,0.4054013999999999,0.036108,84.6962144,67.05479740000001,57.7421592,30.703748616276545,1.0214738010274176,21.90086459026634,0.9906337970033124,36.1571642,147.18031620000002,-89.8824564
1518.753,-30.3146666,13.637483200000002,-8.7462816,1.0209504,0.1122026,-0.0095048,47.7672224,-79.864769,147.8385928,17.911082599999997,13.842602000000005,7.432683800000001,-0.893921,0.4159472,0.037307,85.7272768,66.9080796,58.4741638,34.37233481923997,1.0271414137936217,23.82581160223528,0.986660346663349,37.9600544,146.7728486,-89.364429
1538.737,-29.8843594,24.058768800000003,-9.7497326,1.0242282,0.112604,-0.00843,46.3307052,-79.4451462,148.7505924,17.1257452,14.8702338,6.432505000000001,-0.8925240000000001,0.4169294,0.034486,86.7728074,66.7784226,59.240728,39.58480237024968,1.0304339529495523,23.57524384809223,0.9857071062726293,40.44210220000001,146.2235688,-89.5098644
1558.72,-28.6340176,35.2448628,-10.4107668,1.0204878000000002,0.1069078,0.0008954,44.278926,-78.85167700000001,150.3127322,14.0494532,18.287881,3.5779846,-0.9135526,0.406505,0.017937,87.9197738,66.71403339999999,60.1832322,46.58853274220938,1.0260728187564665,23.33743131724201,1.0000731993013112,43.6408478,145.5657104,-90.1295
1578.704,-28.896441600000003,47.3207784,-10.3135936,1.0071664,0.1043444,0.0168408,41.641004,-78.06569520000001,152.474399,14.696046999999998,20.3622554,-0.3822141999999996,-0.9622654,0.3987776,0.004148,89.1797102,66.7370162,61.23383640000001,56.39707987538077,1.0126971529756366,25.114564103239378,1.0416311632256976,47.53870620000001,144.8027114,-91.2405626
1598.688,-30.277066,59.9574518,-9.3207136,0.9899284,0.1013046,0.0398598,38.5053576,-77.0717636,155.1279268,20.1815512,14.292655400000005,-4.082755799999999,-0.9887272,0.3987976,-0.0113708,90.2711744,66.8363738,61.9806084,67.81203767717723,0.9958964116632611,25.064794077426697,1.0661849262103829,51.7658168,143.90813740000002,-93.14731840000002
1618.671,-31.8917336,72.57091299999999,-7.9140356,0.9696042,0.1104893999999999,0.0739862,35.0588592,-75.8515884,158.0635988,26.4699202,5.733916800000003,-8.4666178,-0.9949682,0.393092,-0.0345814,91.1084104,67.0274,62.3106414,79.66336702114093,0.9786798097235072,28.376365063816174,1.0703639160123066,56.0495512,142.87898839999997,-95.7529574
1638.655,-35.492756799999995,84.60051200000001,-6.280054399999999,0.9497228,0.1224108,0.1124373999999999,31.4549174,-74.400386,161.0874268,35.809831,-5.525920599999998,-10.4914772,-0.9966286,0.3840768,-0.0461828,91.6063582,67.265135,62.0683266,91.95880327186218,0.9641576477502214,37.72202126827492,1.0690726849246688,60.1514408,141.665521,-99.0191002
1658.639,-38.7443132,94.5936142,-4.190326000000001,0.929989,0.1181384,0.1358268,27.8725746,-72.74860679999999,164.0295564,48.7177724,-23.1081734,-8.3894758,-0.9901352,0.3809662,-0.0355134,91.5014008,67.4606094,60.8956406,102.30656129860104,0.947251361188676,54.569151814019015,1.0614914796648347,63.628826200000006,140.2092162,-103.1339158
1678.622,-40.4718386,104.281366,-1.9088324,0.9118494,0.102157,0.168279,24.418691,-70.8979506,166.8134004,59.235107600000006,-43.751183000000005,-4.0420754,-0.9480148,0.3651977999999999,-0.033103,90.614934,67.561589,58.64805679999999,111.87589845727138,0.9328575468796724,73.75162615035924,1.0164631339861177,66.19624300000001,138.4595396,-108.1653436
1698.606,-37.5677298,112.0745912,0.2727321999999999,0.8905798,0.1209286,0.2125394,21.326029,-68.864099,169.3026734,62.858037,-55.826016200000005,-2.5636956000000004,-0.9254858,0.3537809999999999,-0.0135861999999999,89.195331,67.6126222,55.7476096,118.20373385737798,0.9235416087098404,84.10855744444493,0.9908933074721415,67.869302,136.4767212,-113.5550638
1718.589,-35.5077856,118.0398912,2.3238148,0.8607547999999999,0.111676,0.2333786,18.55963,-66.7009642,171.5192504,61.39156499999999,-63.97364580000001,-1.6855786,-0.9144752,0.3660884,0.0218878,87.3081636,67.60356300000001,52.378289800000005,123.28673435511264,0.8987969323695981,88.68141172370825,0.9852739130914002,68.7485336,134.30452720000002,-119.1409606
1738.573,-29.107508800000005,123.22236939999998,3.4923572,0.8232783999999999,0.0739084,0.2447354,16.191616599999996,-64.41291559999999,173.4713256,53.9708318,-67.6185378,-3.2247264,-0.9060216,0.381919,0.044705,85.06913,67.5741806,48.790367,126.66173829497414,0.8620586937733878,86.57664927536048,0.9842437702381256,68.8775134,131.9870962,-124.68095859999998
1758.557,-21.031163,128.695752,3.5379848,0.7958208000000001,0.0855702,0.2934222,14.2677466,-61.98506619999999,175.145416,41.3393962,-67.48879079999999,-7.9289682,-0.8939077999999998,0.3964341999999999,0.0617792,82.55558160000001,67.5756408,45.178330800000005,130.45084797126887,0.8524960951778724,79.53961967814121,0.979820340359966,68.287835,129.560707,-129.9670852
1778.54,-14.364996200000002,133.0757888,2.7354866,0.7677628000000001,0.1061118,0.3597562,12.7754694,-59.4248802,176.5235868,26.265373800000003,-63.05639719999999,-13.7903796,-0.8713253999999999,0.4110462,0.0892082,79.9011458,67.6269684,41.7428588,133.876814899022,0.8544846134375506,69.6861080719105,0.9675355467200364,67.1256764,127.0518486,-134.780728
1798.524,-11.6079416,137.0528838,0.8337051999999998,0.7264394000000001,0.0722492,0.3980258,11.5580138,-56.7656052,177.6712798,12.1116414,-57.6643302,-16.175908600000003,-0.8602746,0.401817,0.1003468,77.2032988,67.68913260000001,38.5668716,137.54610983392374,0.8314798170963863,61.10259285703332,0.9547768164154384,65.645285,124.4547378,-139.10440820000002
1818.507,-8.9079142,140.4295318,-1.1404142,0.678999,0.0567698,0.4557742,10.5844026,-54.004789,106.61762079999998,3.4566842,-50.9614814,-18.6253568,-0.8748102,0.3782824,0.10019,74.6281508,67.79405059999999,35.7089984,140.7163987654223,0.8197515316110608,54.36842068764166,0.9583467515851452,64.04374820000001,121.7988396,-70.90862240000001
1838.491,-10.3627758,143.2240662,-2.881357,0.6496812000000001,0.0858318,0.5461196,9.7554466,-51.1617424,35.383142,0.0683623999999998,-45.0028366,-19.9698954,-0.8577626,0.3662478,0.1004449999999999,72.2462326,67.9162384,33.1316632,143.62737371164488,0.8530529743391322,49.23471029417127,0.9380742651776564,62.49078599999999,119.0779808,-2.2514788000000068
1858.474,-13.7217856,145.2761964,-4.7739554,0.614156,0.063818,0.6279786,8.9915796,-48.2601668,-35.9982026,-0.9062350000000002,-36.2590562,-20.5632094,-0.8622323999999999,0.356023,0.1099456,70.2193986,68.06924599999999,30.9596398,146.00086058193264,0.8806914621579797,41.69395638720594,0.93930033700522,61.227819,116.3294128,66.9578424
1878.458,-14.439892600000002,145.9295016,-6.953991,0.5671006000000001,0.0199294,0.647627,8.3362806,-45.3405556,-107.523111,-2.978193800000001,-25.8253296,-20.163125200000003,-0.9053602,0.3289479999999999,0.1259002,68.60192420000001,68.2777024,29.2780136,146.806975060288,0.8610580715803784,32.899375451364875,0.9714601066477614,60.2656436,113.618258,136.8011246
1898.442,-16.2199108,145.5960298,-8.2923892,0.5378386,0.0403416,0.7145318,7.7532922,-42.4086464,-179.167328,-1.1011770000000003,-17.2011294,-21.985398,-0.9043062,0.303511,0.1339786,67.35002,68.57612,27.954231,146.73122748251893,0.8952393521018611,27.936520338783733,0.963243944043979,59.5967278,110.9847664,207.121559
1918.425,-21.4588664,145.41731880000003,-7.7042584,0.5145084,0.0403178,0.7849740000000001,7.1205142,-39.4773498,-178.8636934,1.2269229999999998,-11.7563532,-23.4617668,-0.922325,0.2811274,0.1563578,66.3007052,68.93843380000001,26.8061326,147.1938692733086,0.93942993317405,26.27111878068122,0.9768130743784096,59.180191,108.4157836,205.669826
1938.409,-24.1730324,144.73236400000002,-7.0974322,0.4751189999999999,0.015106,0.7985264000000001,6.459677999999999,-36.5574128,-178.59534,2.1155303999999995,-7.638679999999999,-22.5981938,-0.9374552000000002,0.2705702,0.1519188,65.4615816,69.3164826,25.8663498,146.90870031510573,0.9293065516254364,23.9479281784058,0.9874764842407744,59.001903600000006,105.8738954,204.4616898
1958.393,-26.0958436,144.64149179999998,-6.1642280000000005,0.4345998,-0.0037166,0.7878316,5.7881306,-33.6426862,-178.3577056,5.67877,-3.4891878000000007,-21.9786042,-0.943575,0.2583555999999999,0.1496188,64.87906960000001,69.71742700000001,25.126926,147.1059207175602,0.8997607622219141,22.96697417590803,0.9896803433380902,59.090939000000006,103.3601132,203.4846316
1978.376,-27.6044018,145.2658234,-4.3947688000000005,0.4118739999999999,0.0127047999999999,0.8373633999999999,5.092447399999999,-30.711175200000003,-178.1238098,12.8616386,-2.1389902,-22.4440792,-0.9598756,0.2536746,0.1547814,64.4665666,70.13554079999999,24.4178902,147.93064739810097,0.9332625929922402,25.95638105916498,1.0048229953312573,59.3741192,100.846716,202.5417
1998.36,-25.9218366,146.13052679999998,-3.1221870000000003,0.3698044,0.0108547999999999,0.8582484000000001,4.4397404,-27.760485400000004,-177.9005462,17.0674316,0.7502103999999999,-20.363824,-0.9684678,0.2733154,0.1634391999999999,64.3258074,70.52501079999999,23.9083366,148.4446716026735,0.9345926583517336,26.58092107072143,1.019482005535478,59.886067,98.2854962,201.8088828
2018.343,-23.2006334,146.83514099999996,-5.3230614,0.3138658,0.0030209999999999,0.8390772,3.8889254,-24.7888158,-177.7652892,16.6733238,2.6777948,-16.9654062,-0.9350902,0.3253106,0.134149,64.3821672,70.85595099999999,23.6132042,148.7520184915796,0.8958635021087085,23.93732063246745,0.9991079134955344,60.49324180000001,95.6447668,201.3784934
2038.327,-18.4624418,147.50319199999998,-8.2711044,0.257922,-0.0079398,0.8543800000000001,3.4813528,-21.807888,-177.72804860000002,13.518316199999996,8.5873746,-17.9192246,-0.9420562,0.3483416,0.1573276,64.6329346,71.24897,23.594315,148.8840642090447,0.89249760946909,24.033029057302635,1.0166433632158134,61.15158180000001,93.056858,201.3223636
2058.311,-11.6136718,147.0013578,-10.817132,0.2088712,0.0213603999999999,0.9053418,3.2471544000000003,-18.8218228,-177.7672394,5.834843,12.5079284,-19.6776216,-0.9478984,0.3147027999999999,0.1582772,64.8915086,71.71461339999999,23.747228,147.8556286126002,0.9293692590702796,24.035441696107068,1.0112373119551317,61.6443542,90.5364362,201.5144674
2078.294,-10.385369399999998,145.7692502,-13.1028274,0.1490348,0.03512,0.9222678,3.0693282,-15.851199200000002,-177.871527,0.7671814000000001,16.0662532,-20.8660738,-0.92088,0.2980636,0.1344555999999999,65.2411896,72.2376816,24.1006894,146.72496136417567,0.9348918017224668,26.345893323515572,0.9772104135836458,62.1718614,88.0888808,201.9722164
2098.278,-12.0959608,144.85187960000002,-15.1084216,0.0959182,0.0085312,0.9118244,2.8650544,-12.8967016,-178.027948,-1.831716,17.130436,-23.137762,-0.9332472,0.2981568,0.1201168,65.5822998,72.81090400000001,24.4964452,146.13912444849046,0.9168952060623068,28.847236460766847,0.9870541319179612,62.7172454,85.70760560000001,202.5243932
2118.261,-7.8951395999999985,144.2256956,-15.791907,0.0634272,0.0068994,0.9375876,2.7387977999999995,-9.9512218,-178.2066376,-1.1155731999999996,21.708957,-24.2101198,-0.9486898,0.2641434,0.1372768,66.1979782,73.4346254,25.1639016,145.30233593202829,0.9397558827131436,32.536951583127134,0.9942982410755036,63.4591804,83.38584719999999,203.3705392
2138.245,-7.453086600000001,143.841983,-15.6288398,0.0335466,0.036042,0.9731192,2.6183512,-7.0089754,-178.38705140000002,2.2449834,21.533405,-23.8537658,-0.9569504,0.2176612,0.1344304,66.905986,74.0537004,25.8568982,144.88038240815575,0.974364088800588,32.21381107850405,0.990556408535001,64.2876348,81.0626758,204.2439496
2158.229,-9.2229948,143.9321412,-15.4153336,-0.0106702,0.0195523999999999,0.9705896,2.4453802,-4.070041000000001,-178.5680694,8.7246656,19.6485432,-22.0973418,-0.9641872,0.2438724,0.1319946,67.7158584,74.6126374,26.5194084,145.04881045185047,0.9708451581699112,30.829815995884843,1.003271288612786,65.2704782,78.68267839999999,205.0874778
2178.213,-7.114426,144.03943180000002,-17.266533799999998,-0.0685912,0.0044357999999999,0.9564656,2.3032022000000003,-1.1352814,-178.79387200000002,9.8996486,21.3957092,-18.0909056,-0.9706178,0.2898642,0.134316,68.8591172,75.08245539999999,27.499913000000003,145.2449866950418,0.9589321524604544,29.716330190697477,1.0218419427555712,66.555915,76.2177368,206.293785
2198.196,-3.0709298,144.27146299999998,-19.7541356,-0.118794,0.0191353999999999,0.9706698,2.232635,1.811752,-179.0751952,5.8901832,24.9323178,-16.301664600000002,-0.9600124,0.299383,0.1365402,70.28530880000001,75.53525379999999,28.855154,145.64996230449248,0.9780991967081868,30.36542437939329,1.0148385167398803,68.05267380000001,73.72350179999998,207.9303492
2218.179,-3.0239406,143.9673584,-20.820367800000003,-0.1721326,0.0371364,0.9798592,2.1549882,4.7574568,-107.3818786,-1.4062720000000013,26.4491898,-18.513052800000004,-0.9660934,0.2616264,0.1279578,71.71541140000001,76.04313499999999,30.3627662,145.49650242103297,0.995556525774584,32.31517238063254,1.009038170378782,69.56042319999999,71.2856782,137.7446448
2238.163,-3.5694794,143.5366394,-21.5852202,-0.2344828,0.0318054,0.9737791999999998,2.0461002,7.701096,-35.7094604,-6.694469800000002,28.5785404,-19.6107574,-0.967704,0.249163,0.1006608,73.3270478,76.5837188,32.16108379999999,145.19445500608882,1.0021176065301116,35.30057652644216,1.0043235678015527,71.28094760000002,68.88262280000001,67.87054420000001
2258.147,-4.3068284,142.57434080000002,-23.1216578,-0.2968938,0.0269418,0.9568362,1.903831,10.6231912,35.92155759999999,-9.9995178,31.188496800000003,-18.109249,-0.9535424,0.2416325999999999,0.0793123999999999,75.2573532,77.1016494,34.351038599999995,144.50121966558586,1.0022012286442878,37.425360228328174,0.986873790701871,73.3535222,66.4784582,-1.570518999999996
2278.13,-1.7684197999999998,141.402469,-23.09532,-0.3420734,0.0294496,0.9645176,1.7903606,13.5287024,107.54171139999998,-10.124953800000002,32.3463368,-18.747672,-0.9493898,0.1987318,0.066405,77.41156459999999,77.630954,36.7689794,143.28705228940748,1.023804517785246,38.73338868793631,0.9722370825576856,75.621204,64.1022516,-70.77273199999999
2298.114,-0.6732039999999998,139.3147158,-21.6612514,-0.3814522,0.0582438,0.9727338,1.6917724,16.378847999999998,179.18292839999998,-6.7784314000000006,30.919599600000005,-18.9007626,-0.9783824,0.161517,0.0516151999999999,79.6816482,78.14640499999999,39.2322224,140.9902587212123,1.0464746374307023,36.86743276294656,0.9929672657191676,77.98987580000001,61.767557,-139.950706
2338.081,1.0610880000000005,136.258809,-20.217036,-0.4376144,0.0454891999999999,0.9657664,1.4983474,19.7121236,178.77067259999998,1.4694063999999991,29.579794000000003,-14.9207566,-0.969282,0.1670067999999999,0.02424,82.90926959999999,78.6143554,42.4633328,137.7545552149457,1.061263572244407,33.16251416535304,0.9838630211417848,81.41092219999999,58.9022318,-136.3073398
2358.065,4.1820678,131.907103,-18.4260978,-0.4809844,0.0548604,0.955488,1.367223,22.9468204,178.38459160000002,9.643339799999998,28.596335,-12.2305642,-0.9668364,0.1692345999999999,0.0188788,86.4424544,78.989949,45.8362928,133.25349748907746,1.0711269647784618,32.562725294127496,0.9817175679855996,85.07523139999999,56.0431286,-132.5482988
2378.069,3.864541799999999,127.5947982,-15.8251554,-0.522023,0.070975,0.9649322,1.2389788,26.0897056,178.0435516,13.578668,27.0770452,-12.8921746,-0.9978518,0.1646512,0.0229396,90.0344772,79.35225679999999,49.1881308,128.6304892102056,1.0993814687135854,32.92043084976186,1.011604892076368,88.7954984,53.2625512,-128.8554208
2318.098,-2.4175694,127.02743660000002,-14.9530866,-0.5382386,0.071902,0.9753158,1.1402794,27.182627399999998,177.913272,14.480307599999998,25.9934464,-13.603607399999998,-1.0079332,0.1720166,0.0214129999999999,91.1592514,79.4997788,50.2778472,127.92735864481038,1.116293687997742,32.71691761510588,1.0227304448909302,90.018972,52.3171514,-127.6354248
2398.032,-5.880569,123.2301512,-12.1559696,-0.5767748,0.0384534,0.9696638,0.9325368,29.6758718,177.6963806,15.018578,23.8062222,-13.8374204,-1.013727,0.1778396,0.0148678,94.0497606,79.7696504,52.9157966,123.96781378025,1.128891367190413,31.365077776154056,1.0293155033001302,93.1172238,50.0937786,-124.780584
2418.016,-6.1510054,119.7174194,-9.8543366,-0.5923010000000001,0.0482834,0.9506584,0.8560434000000001,31.5411036,177.5937958,13.1283472,21.4148014,-14.6789172,-1.017822,0.1845146,0.0143031999999999,96.1088518,79.9717316,54.7782394,120.27968791550975,1.1211169228974829,29.093260892681755,1.034510436306662,95.2528084,48.430628,-122.81555640000002
2437.999,-6.3165046,116.6865188,-8.8864676,-0.6152882,0.0408309999999999,0.9260364,0.7760022,33.3442116,177.504834,9.870253,19.103694,-14.452535799999998,-1.0145818,0.2129874,0.0065193999999999,97.9081972,80.1415054,56.4418518,117.1947575893667,1.1125601798308258,25.90846984636349,1.0367171089677067,97.132195,46.7972938,-121.0629822
2457.984,-2.5515742,113.3057374,-8.61758,-0.6334502000000001,0.0383054,0.8961644,0.766344,35.077748,177.4159638,5.4861002,18.3176278,-12.818254,-0.991759,0.2255998,-0.0047878,99.56693579999998,80.2591796,58.0507522,113.66161772433236,1.0981061384841448,23.020434818488745,1.017105750091838,98.8005918,45.1814316,-119.3652116
2477.967,2.6673318000000004,106.5182284,-6.434989,-0.6726444,0.040265,0.8533376,0.7137144000000001,38.6990196,177.16623839999997,0.9906737999999986,15.9151666,-12.724219,-0.997731,0.2111317999999999,-0.0114818,103.4731842,80.56314540000001,61.7678948,106.74575740438576,1.087316337893495,20.400483122801848,1.0198900024333408,102.7594698,41.8641258,-115.3983436
2497.95,6.016574,103.5502978,-6.227908,-0.6899917999999999,0.0450169999999999,0.8209761999999999,0.7757232000000001,40.77509,177.05339039999998,-2.806775600000001,13.9215062,-12.0929638,-0.9891414,0.1956764,-0.0171306,105.3036818,80.7143448,63.68517380000001,103.91174223937652,1.073367195009555,18.65277720913173,1.008455958466843,104.5279586,39.9392548,-113.3682166
2517.934,7.9620656,100.363553,-6.74544,-0.7208216000000001,0.0463378,0.7823863999999999,0.8671534000000001,42.7940482,176.9287872,-4.265267000000001,11.8265332,-10.0416382,-0.9777364,0.1935465999999999,-0.040344,106.8956052,80.82362380000001,65.3877816,100.90459959880974,1.0648283662827358,16.09017985765512,0.9975251338149432,106.0284518,38.0295756,-111.5410056
2537.917,8.820743199999999,97.0807162,-6.7552252,-0.7507596000000001,0.0504097999999999,0.7565189999999999,0.9734532,44.7485196,176.8053192,-5.351206800000001,10.3705368,-8.335313,-0.9756376,0.171124,-0.0512105999999999,108.3030058,80.9106828,66.92379220000001,97.71440035126862,1.067006149133734,14.340881791036752,0.9918541603794984,107.3295526,36.1621632,-109.881527
2557.901,9.8182708,94.4844836,-6.1540564,-0.7751418,0.0440261999999999,0.726153,1.1026896000000002,46.6526006,176.6950836,-4.790270000000001,8.382227,-6.712530599999999,-0.9911234,0.1492002,-0.0529628,109.461206,80.9855378,68.194966,95.19237623273824,1.0630528189147894,11.758676932732074,1.0036888720571928,108.3585164,34.3329372,-108.5001176
2577.885,11.9211364,92.6379168,-6.045741,-0.7986451999999999,0.045172,0.7080362,1.27384,48.5167722,176.5893066,-4.300128400000001,5.5726624000000005,-4.9502914,-0.997976,0.1622642,-0.0532644,110.232547,81.034491,69.06417059999998,93.59726548543075,1.0682649135759723,8.605292291710626,1.0124835126978613,108.958707,32.5177188,-107.525136
2597.868,15.7158252,90.474988,-6.611948,-0.815485,0.061852,0.6789502,1.523415,50.3372976,176.48306580000002,-5.9026700000000005,3.4627068000000003,-1.766701,-0.98163,0.1873419999999999,-0.0523287999999999,110.555751,81.0213104,69.51260979999999,92.06752126386266,1.0629274806914346,7.067749566521669,1.0007161361612191,109.03233600000002,30.684012800000005,-106.970456
2617.852,14.2888272,89.1258654,-7.2774946,-0.8308384,0.0683234,0.6692473999999999,1.7336252,52.1230094,176.3651184,-10.8188232,3.3979522,-1.3089806000000002,-0.9900268,0.1855532,-0.0424798,110.7126206,81.0037308,69.8930846,90.55690141399168,1.069042850548508,11.415184834137357,1.008160497220815,108.9789954,28.88072140000001,-106.4720338
2637.836,12.3392664,87.363579,-6.5944456,-0.8574846,0.0524431999999999,0.6341794000000001,1.9091816,53.87889259999999,176.2623534,-15.1569142,4.1095562,-2.5595028,-0.9956064,0.1588078,-0.0594748,110.95023500000002,81.0110062,70.4426162,88.47677177514316,1.06780786654143,15.911365585968037,1.0099451831148265,109.0410534,27.132113600000004,-105.8197372
2657.819,10.8771068,84.2216202,-5.6309832,-0.8793246,0.055364,0.6058397999999999,2.0873712,55.573317,176.198709,-15.7162894,4.9409138,-3.6360008,-0.9775448,0.1388665999999999,-0.0845494,111.419316,81.033954,71.2357468,85.10758328874306,1.069260860559854,16.871125733073754,0.9909724363689232,109.3319448,25.460637,-104.96296220000002
2677.803,8.12009,79.787915,-4.8007872,-0.8989378,0.0597075999999999,0.580754,2.2378084,57.1788146,176.16823720000002,-13.2674154,6.411304,-2.8845400000000003,-0.9679924,0.1310172,-0.0944006,112.1082578,81.03112200000001,72.20119340000001,80.34360459548108,1.071881231425665,15.014982563698606,0.981369587074085,109.8704494,23.8523074,-103.9670438
2697.786,4.5511424,75.6681746,-4.0763838,-0.9208534,0.0445394,0.5547288,2.3212648,58.704776,176.15026840000002,-10.384476800000002,7.9355154,-2.2923616000000004,-0.9916864,0.1335608,-0.0884444,112.9888624,81.01088419999999,73.3026902,75.914441638769,1.0759548243273784,13.26893683678274,1.004541096786468,110.6675976,22.3061082,-102.8475782
2717.77,4.338873,72.7417328,-3.5690642,-0.9307432,0.0338526,0.5397510000000001,2.398451,60.166877,176.13633099999998,-8.0202644,7.671227999999999,-2.0737006,-1.0163306,0.1473238,-0.0735396,113.7936048,80.9868806,74.2812882,72.95836983458749,1.0764571728006649,11.290377064222954,1.0295825675053751,111.3951538,20.820003600000003,-101.8550428
2737.753,5.2725348,70.6743866,-3.915762,-0.9298506,0.0398556,0.5263536,2.484686,61.5796912,176.11080320000002,-6.581737000000001,7.0554956,-0.249423,-1.0166052,0.1635766,-0.0694728,114.4650114,80.927315,75.09554460000001,70.97888232808484,1.0692327713854828,9.652020095903104,1.0320222413661635,111.9803254,19.3476238,-101.0152586
2757.737,5.290029800000001,68.18140580000001,-4.7884014,-0.9455128,0.0481788,0.5135358,2.548285,62.93916320000001,176.05698539999997,-6.3451956,7.7427302,1.1476066,-1.0112514,0.1630102,-0.0812862,115.1020918,80.8301362,75.8712252,68.55375482142962,1.0770490562713102,10.07612917050069,1.027525749369056,112.5538068,17.890973,-100.1857602
2777.721,5.4157426,64.47578380000002,-4.6632742,-0.9587504,0.0438782,0.4883494,2.613178,64.22630319999999,176.0025086,-5.2167636,8.676016200000001,1.2427039999999998,-1.009525,0.146445,-0.0945552,115.8966766,80.72577220000001,76.78259299999999,64.87066433140781,1.0768531758859978,10.199617286573227,1.0244645184178125,113.2834986,16.499468999999998,-99.2199156
2797.704,7.0221502000000005,60.021683800000005,-4.061631800000001,-0.9672066,0.037402,0.4772304,2.7227172000000004,65.41912540000001,175.9635194,-2.9127552000000003,9.7216106,1.2685444,-1.0020396,0.1244768,-0.1135236,116.8924698,80.61564659999999,77.84987059999999,60.56740024548944,1.0791831963905478,10.227563757216611,1.0161030663586053,114.1697526,15.1965212,-98.1136488
2817.688,8.456676400000001,53.5600688,-2.7264722,-0.9759474,0.04442,0.479114,2.9180792,66.47155760000001,175.9862824,0.6074541999999996,11.1090378,1.2201172,-0.9875098,0.1100906,-0.134197,118.1589356,80.4931948,79.1187016,54.29208041926946,1.088116119245901,11.19233699584954,1.002648682297743,115.2408564,14.021637199999995,-96.8675808
2837.672,6.8376868,44.982075,-0.6770249999999999,-0.9856692,0.0446122,0.4918338,3.1619944,67.33693539999999,176.097406,3.820304599999999,13.09957,0.0324868,-0.9885722,0.0992004,-0.1439662,119.7579178,80.3690278,80.65951419999999,45.50383934275374,1.1024674630300524,13.64531116588608,1.0039133332690824,116.5959234,13.032092399999996,-95.4378918
2857.655,5.264685600000001,34.7837516,1.6580032000000002,-0.9894656,0.0304262,0.4976551999999999,3.4474599999999995,67.98650359999999,176.2906922,7.3991466,15.246634600000002,-0.6316452,-0.994401,0.0971714,-0.1490028,121.6207872,80.2248826,82.3964998,35.21896171735561,1.107984036580329,16.958956710036492,1.0101868461758945,118.1733272,12.238378999999998,-93.8941924
2877.639,5.2666682,23.868604,3.8491152,-0.9877606,0.0394744,0.5311100000000001,3.8174954,68.4089706,176.5746124,11.4530158,15.526888,-0.1765688,-0.9973614,0.107118,-0.1489619999999999,123.474933,80.0579162,84.04393160000001,24.74396368128151,1.1221885150311066,19.29474017499917,1.0140974832716825,119.6574376,11.6489456,-92.5306808
2897.622,0.9366778,11.2143086,6.0396576,-0.9965584,0.0635952,0.5641342,4.1780316,68.58244619999999,176.94062200000002,14.631190199999995,15.4814832,-0.4266476,-1.0060328,0.1204446,-0.1523376,125.3317536,79.8884352,85.6308182,12.771669687330808,1.146917778083172,21.30563486298974,1.02460511452889,121.153722,11.305989,-91.3098038
2917.606,-4.8445414,-3.015598,8.0972128,-1.0082103999999998,0.0525724,0.5745901999999999,4.4553316,68.4664992,177.3445008,16.4945932,14.7638702,-0.2163176,-1.0114518,0.1224546,-0.1621666,127.110547,79.7181044,87.1007674,9.905971320491584,1.1616393441365351,22.13798232495464,1.03166267691526,122.6552154,11.2516052,-90.2437334
2937.59,-5.824206200000001,-18.5577726,9.8461382,-1.007161,0.0523974,0.5964626,4.7290848,68.0379454,177.767099,18.2120008,13.5270646,1.5457246,-1.005845,0.1180573999999999,-0.1667238,128.6093034,79.524536,88.252774,21.80042979362857,1.1717023515579883,22.738683215411108,1.026381283542427,123.8802186,11.486590600000005,-89.514325
2957.578,-6.298004400000001,-34.715124,11.626454,-0.9955098,0.0660746,0.6224918,5.008737399999999,67.2745252,178.2063476,21.749292,9.8453984,4.3141472,-1.0009648,0.1210461999999999,-0.1569696,129.6557388,79.32935319999999,88.8721696,37.14807029136118,1.1759683906161935,24.260573740520943,1.0204029442811502,124.6470014,12.054828,-89.334178
2977.557,-9.6075192,-51.0607012,13.096512,-0.9901838,0.0705624,0.6394214,5.2009446,66.18147400000001,178.625116,24.3166434,6.062239,6.1832146,-0.9990438,0.1292644,-0.1504276,130.2660308,79.1530548,88.9964876,53.58188368077585,1.1808059691812876,25.812439457082267,1.0185412423007525,125.0650862,12.971580800000002,-89.6286284
2997.54,-12.3366418,-67.3720278,14.8336916,-0.981351,0.0580586,0.6507208,5.3203364,64.7446814,179.0282318,25.2661148,2.074909,6.7395098,-0.9863024,0.1205813999999999,-0.1507994,130.55175179999998,79.02361900000001,88.77023779999999,70.08010607347417,1.1789224511339156,26.231713569444064,1.0050237595759015,125.2314154,14.278937600000004,-90.257994
3017.524,-13.4013856,-83.08391359999999,16.2669628,-0.9673252,0.0682386,0.6658672,5.4016702,62.99755,107.4155548,26.391214400000003,-2.7373166,7.2311644,-0.9777468,0.1168907999999999,-0.1391214,130.425241,78.9538558,88.1015412,85.71550567912864,1.1763305985652333,27.50052432691476,0.9944883247041364,125.0235708,15.9563058,-19.3140136
3037.508,-16.7507272,-96.6381532,17.048447,-0.9514854,0.0767202,0.6765554,5.380428,60.9808036,35.766805999999995,29.0300442,-9.4789682,8.7719518,-0.9845498,0.138983,-0.1164671999999999,129.6740402,78.945021,86.7436982,99.5498320478106,1.1700160959449917,31.773281901183708,1.0011089809031184,124.2936122,17.964217400000003,50.9768922
3057.491,-21.3262886,-108.1349198,16.9892712,-0.942066,0.0812714,0.700468,5.2158372,58.74445039999999,-35.9366088,28.3322948,-16.2657432,9.232954,-0.9872874,0.1669868,-0.0977324,128.2555116,79.0018586,84.7226914,111.51953551512878,1.1767535034313514,33.94909085746729,1.0060679020735928,123.0396744,20.257408200000004,120.6593002
3077.475,-24.034652,-118.2857314,16.063813399999997,-0.9339396,0.077384,0.705499,4.9371382,56.3129716,-107.7059692,24.6644466,-21.4237452,9.8849684,-0.9778414,0.1834894,-0.0956152,126.2693482,79.0891128,82.1987396,121.76709264224084,1.173013341315929,34.13245354128198,0.9994920859803544,121.33221,22.7761412,189.9047088
3097.458,-24.632711,-126.9326292,14.4927266,-0.9203406,0.0812852,0.7169762,4.5876368,53.7263474,-179.54288019999998,22.706922400000003,-25.1109616,12.1040444,-0.9785726,0.1883343999999999,-0.0909014,123.782341,79.161766,79.2044312,130.11034521181074,1.1694823534854384,35.95375652408894,1.000668398729609,119.1947042,25.4354186,258.74731140000006
3117.442,-25.0835164,-133.6242232,13.309643400000002,-0.9007097999999999,0.082485,0.73864,4.194007,51.020971,-179.4191254,23.8544978,-28.940655600000003,15.3842098,-0.9946056,0.1864836,-0.0778548,120.772188,79.1967436,75.65394599999999,136.60806135886585,1.1677632331260648,40.53729792448471,1.0149274863276492,116.578181,28.1757726,255.0730714
3137.425,-24.5516912,-139.0266234,12.2938066,-0.8833384000000001,0.0840282,0.7691374,3.789348,48.2209114,-179.31875300000002,25.2845668,-33.6333626,18.1534048,-1.0109439999999998,0.201511,-0.0621383999999999,117.1989428,79.18390480000001,71.5012206,141.71212099006843,1.1742741619351762,45.82639527476937,1.0327030720451835,113.4095948,30.9629934,250.8199736
3157.409,-22.6795896,-143.3910552,11.8448976,-0.858991,0.0790732,0.7905512,3.4142866,45.348070400000005,-179.22213440000002,25.8721404,-37.7023966,21.6602834,-1.0164156,0.2075841999999999,-0.05288,113.1630448,79.0838972,66.86337719999999,145.65596484507034,1.1700808984256943,50.5965041799265,1.0387435518033312,109.7487582,33.7358268,246.0855116
3177.393,-19.8362008,-147.23208000000002,12.012213,-0.8258816,0.076555,0.8138258,3.1053468000000004,42.4083708,-179.108017,27.6112228,-42.037417000000005,26.2712532,-1.0132466,0.196822,-0.0430507999999999,108.7510728,78.87042840000001,61.8026084,149.04715195018554,1.1620040955130924,56.74242502080467,1.0330832219507775,105.645726,36.4620576,240.9106254
3197.376,-17.1891594,-150.8222686,12.3287386,-0.7906679999999999,0.0687856,0.8370048000000001,2.854734,39.4061124,-178.9783052,29.7926754,-46.4247274,29.956920000000004,-1.0007118,0.2072654,-0.0232825999999999,104.0629518,78.5374588,56.4117034,152.2984625726612,1.153457576252547,62.77161681477128,1.0222157952991922,101.2082178,39.1313464,235.3900086
3217.36,-13.175873,-154.7230894,12.6744946,-0.7510832,0.0686712,0.8659250000000001,2.6884318,36.3319162,-178.83584000000002,28.2170844,-48.864740600000005,31.428064,-0.9862368,0.2452724,0.0021559999999999,99.3148118,78.0923828,50.9873138,155.7994892037774,1.1483326228304584,64.58862076813615,1.0162805834079482,96.62638,41.76046660000001,229.8231538
3237.344,-9.1860556,-158.7929594,13.1299294,-0.7081364,0.0673738,0.8881180000000001,2.601128,33.1841062,-178.6850892,21.7170328,-48.911576,30.850217800000003,-0.9748556,0.2745112,0.023795,94.7412766,77.567357,45.8672036,159.5994442927209,1.1378708063112437,61.77141506188351,1.013047897091643,92.1401486,44.3832508,224.55229280000003
3257.327,-4.6218596000000005,-162.5850676,13.670095,-0.6612560000000001,0.067447,0.9057056,2.6005854,29.9677508,-178.5295106,13.598830800000002,-47.7693276,29.399102400000004,-0.9716778,0.292151,0.046494,90.4666658,76.9895142,41.2112856,163.22419333532545,1.123437238663718,57.71606431842729,1.0157123834284192,87.8660804,47.0217634,219.74079620000003
3277.311,-0.0379478000000009,-166.1009734,14.6018562,-0.6178512,0.0699176,0.9310404,2.6882748,26.6870448,-178.3651856,5.517753799999999,-46.0408304,26.722718800000003,-0.9729094,0.306855,0.0666368,86.5467958,76.39453119999999,37.0766184,166.74156353155774,1.1195824233004732,53.51922431223057,1.0223273227042309,83.858521,49.70748640000001,215.441804
3297.295,4.918819399999999,-169.6684204,16.0084488,-0.5742306,0.0782564,0.9571656,2.8751,23.3401802,-178.1867004,-2.222449,-44.090307,24.4074908,-0.9775346,0.3187538,0.075151,82.9975786,75.7877318,33.4720816,170.49292682778125,1.1189418358166254,50.44422720256436,1.0309343102315491,80.1224786,52.4475516,211.658782
3317.278,10.0361486,-173.2785096,16.9094918,-0.5289204,0.077373,0.9713728,3.1523874,19.929450600000003,-178.013391,-8.933872,-42.0167824,24.5980228,-0.9719828,0.3310056,0.0790073999999999,79.826816,75.1319488,30.3856314,174.39064504970685,1.108741848784017,49.500371693863606,1.0298336953032563,76.6744286,55.2024982,208.3990224
3337.262,15.1152594,-176.734836,17.849806,-0.4774506,0.0751388,0.9825389999999998,3.5162454,16.4559076,-177.85034179999997,-13.7785698,-39.4372804,25.4795792,-0.9628788,0.3202952,0.0914212,77.0125184,74.43960560000001,27.7601618,178.27587861770257,1.0949830141270684,48.93216761283694,1.0188633050816582,73.496273,57.983698,205.6105036
3357.245,18.6150702,-180.0119356,19.0626932,-0.4240069999999999,0.0748844,1.0029682000000002,3.934428,12.9194344,-177.6964416,-16.5666716,-37.4143876,26.0820904,-0.9628268,0.3111422,0.1047562,74.51115280000002,73.7237868,25.5098654,181.9730861117841,1.0914828535637198,48.52387502064373,1.0172604272542602,70.5767248,60.80435239999999,203.206307
3377.229,22.1869232,-183.5553988,20.2484808,-0.3646842,0.0771002,1.0189638,4.4082952,9.313088400000002,-177.5559022,-18.1605256,-36.1694054,27.8878922,-0.9601896,0.321206,0.1218496,72.2953264,72.9534224,23.5826826,185.9968950397229,1.0850005678708745,49.15043345095367,1.0197963950732123,67.8870312,63.640334,201.1385848
3397.213,24.3621222,-186.6377656,21.182140800000003,-0.3078574,0.0703566,1.0202668,4.9087956,5.6307052,-177.436493,-21.2225578,-34.9232544,29.921529799999995,-0.955569,0.3256738,0.1397806,70.3135132,72.1330886,21.9571698,189.40921739746275,1.0680218036541014,50.64907307181196,1.0191732698142155,65.4047176,66.5023834,199.3936628
3417.196,26.028987,-189.442215,22.9534646,-0.2474739999999999,0.075187,1.0208928,5.434000599999999,1.8720012,-177.3213196,-23.2394062,-34.1840104,30.797929,-0.9365012,0.3091488,0.1539966,68.5010406,71.29469900000001,20.5463136,192.5947105335342,1.0531469862924356,51.54734715041064,0.9981595217972126,63.06704,69.4226978,197.8676332
3437.18,26.824852600000003,-192.4247436,24.7873094,-0.184756,0.0852728,1.0167620000000002,5.9692386,-1.96765,-177.2111572,-23.4196358,-33.1082614,32.8102076,-0.9526262,0.3177276,0.1548101999999999,66.9277694,70.42415600000001,19.3844476,195.86032108068443,1.0369239097445098,52.164605209763344,1.016077606658192,60.958530800000005,72.391806,196.5956048
3457.163,27.2784874,-195.3150818,25.596004200000003,-0.1204478,0.0978236,1.0066846,6.511368999999999,-5.8839202,-177.12773140000002,-23.8709232,-30.400119600000004,35.6418182,-0.9552058,0.364691,0.1619592,65.670339,69.50305920000001,18.5597214,198.86491013846327,1.018573027877216,52.57687182323093,1.0352045345241103,59.15897,75.3869794,195.6874528
3477.147,26.3980248,-197.3454498,25.7344662,-0.0523133999999999,0.0986162,0.9822546,7.0354932,-9.8447282,-177.0824462,-28.6995718,-26.3880042,36.410537,-0.9513336,0.3887788,0.1779084,64.6104178,68.5903486,18.0446838,200.75942075206504,0.9885777389478076,53.345284625643735,1.0429937548274006,57.57492460000001,78.4350768,195.12713
3497.131,26.1489068,-199.431482,25.9353772,0.0178594,0.1086216,0.9553944,7.5592444,-13.8379008,-177.075125,-34.6230982,-21.3756434,36.1937868,-0.9422572,0.39416,0.1866764,63.71603,67.7240308,17.832067799999997,202.8036615302044,0.9617151707788952,54.45794030859651,1.0382961113616866,56.1567856,81.56193160000001,194.9071928
3517.114,24.4836946,-201.105484,25.638961,0.0861392,0.1209458,0.9300266,8.0627922,-17.8542322,-177.11660139999998,-40.804907400000005,-16.174876000000005,35.963962,-0.9523144,0.4170754,0.1896182,62.983673,66.9063458,17.9230436,204.20632536065048,0.9418053541055286,56.74569273764657,1.056792159085106,54.9208808,84.760578,195.039645
3537.098,21.9048952,-201.9363892,24.6467244,0.1506607999999999,0.1233611999999999,0.8945076000000001,8.5382404,-21.875588,-177.21997059999998,-48.5758924,-12.3569824,34.4153612,-0.9257278,0.4335552,0.2081486,62.2422844,66.1415922,18.173521200000003,204.6108275251005,0.9154564483250092,60.80073538220367,1.0432008008153753,53.704044,88.0171802,195.3934918
3557.082,19.638898,-202.1809478,23.9705524,0.2131511999999999,0.1194052,0.8579459999999999,8.9965786,-25.8905628,-177.378018,-59.6807768,-9.3859208,29.342510200000003,-0.9132138,0.4053058,0.2145674,61.29063659999999,65.5099958,18.4399596,204.54195009904905,0.8920551411008625,67.16303695897317,1.0218959854930636,52.29405799999999,91.4005586,195.8179776
3577.065,17.3644096,-202.2056304,23.8090404,0.2733455999999999,0.1257862,0.8071341999999999,9.4449632,-29.9078258,-177.5835632,-65.9206596,-4.3896554000000005,26.2670524,-0.8943995999999999,0.389189,0.200004,60.3669594,64.99583720000001,18.8729316,204.3416504068292,0.8613974703697707,71.0968387371349,0.9957009200644336,50.9219962,94.903663,196.4564948
3597.049,14.8809418,-201.0875242,23.1809398,0.3367518,0.1093738,0.7643677999999999,9.8831758,-33.906465600000004,-177.84291380000002,-68.753215,-0.7132083999999999,24.3868716,-0.8984292,0.3932255999999999,0.2010057999999999,59.5009896,64.5587028,19.4320672,202.96549161803787,0.8423909642241658,72.95363421717208,1.0011017588345552,49.6178138,98.4651684,197.274981
3617.032,16.2046864,-198.9846922,22.440747,0.400271,0.0871944,0.6971328000000001,10.3913132,-37.8680544,-178.1597566,-70.0132462,3.1837366000000005,25.2851236,-0.8834032,0.3748372,0.2049292,58.765411400000005,64.15833660000001,20.1681158,200.90068869262015,0.8085875819403858,74.50723654563542,0.98127474098069,48.3740982,102.026391,198.3278724
3637.016,17.2030208,-195.448776,22.4234404,0.4695015999999999,0.0779632,0.6402282,10.9625698,-41.769987,-178.5222992,-69.7248566,5.4813878,26.9011934,-0.8793832,0.3584902,0.2032888,58.153888,63.76776199999999,21.0381678,197.48159064559857,0.7977481814658308,74.93514159891042,0.9711623819648906,47.1913182,105.537749,199.560467
3657.0,17.425541,-190.8161864,21.9344828,0.5221742,0.0607952,0.5661232,11.5962968,-45.5827372,-178.9461212,-65.6524734,7.380317600000001,33.8820696,-0.8908088,0.3621446,0.2070434,57.83502719999999,63.285009,22.1463002,192.86157732188576,0.7725654852935899,74.24763290364092,0.9836442440995424,46.2387304,108.8677462,201.0924214
3676.983,18.5303676,-184.6277404,20.5809676,0.5639784000000001,0.0441732,0.5208644,12.3319634,-49.2743524,-107.4578552,-62.5703726,8.401156199999999,36.60434360000001,-0.9000426000000001,0.3644888,0.2125702,57.6478042,62.7737664,23.3381104,186.69320629298,0.7689750519049108,72.97608459753435,0.9940396657418858,45.3158408,112.0481188,130.7959656
3696.968,21.2657438,-177.4986634,19.003222200000003,0.5984488000000001,0.0406662,0.4517088,13.2388798,-52.82404799999999,-36.0909394,-62.4796392,11.4121344,38.4567198,-0.8744932000000001,0.356686,0.2008338,57.5865486,62.270239200000006,24.672837,179.77522026724458,0.7508898361552913,74.24864593985234,0.9655555264533884,44.3476688,115.0942872,60.763776400000005
3716.951,21.2188168,-169.99285600000002,16.764941600000004,0.628563,0.0482068,0.4145886,14.3250806,-56.2127016,35.091284200000004,-62.0756902,16.4185144,35.157651,-0.8707741999999999,0.3651592,0.1862052,57.6256896,61.8800758,26.1121212,172.1303940165133,0.7545190837780049,73.20532325416768,0.9624247114643928,43.300609,118.0927774,-8.979162999999994
3736.934,22.8969732,-162.9100314,13.7567218,0.6489112,0.0394846,0.3682866,15.685782800000002,-59.43952959999999,106.02211,-61.2701002,24.5259664,31.9120234,-0.8722962000000001,0.361989,0.1735931999999999,57.8674842,61.6380904,27.7641674,165.08542366651608,0.7471812356196855,73.30706271468061,0.9602454351579496,42.1817014,121.07762,-78.2579426
3756.918,27.139569,-155.3140994,10.8901168,0.6765866,0.0303104,0.3304934,17.432093200000004,-62.49556,176.645285,-60.130792,34.7965904,24.7177176,-0.8437992000000001,0.3481054,0.159879,58.3109742,61.6212104,29.620000800000003,158.04309640682342,0.7536007133033249,73.73927320882669,0.9266799631322564,40.878881,124.1167704,-147.0252842
3776.901,32.7554992,-147.7432742,8.6610692,0.7107978,0.0256228,0.2770425999999999,19.672397,-65.3750088,174.8859864,-58.23971,44.709885,19.4315022,-0.8427272,0.3271054,0.1461816,59.0099344,61.7966452,31.722409,151.57840188781768,0.7633103186643294,75.95012123325367,0.9157271080991104,39.3375374,127.17165400000002,-143.16357739999998
3796.885,34.442215399999995,-139.41147640000003,6.9405646,0.7475134000000001,0.0361628,0.2518188,22.3778262,-68.05856739999999,172.6975678,-51.8097654,54.978672,14.182973399999998,-0.8647518,0.3178696,0.1339624,60.0990366,62.1548384,34.115202000000004,143.77064161592426,0.7896180971310373,76.86392456901827,0.9310116448364972,37.7212104,130.21340579999998,-138.5823658
3816.869,34.4098718,-129.8395906,5.118197199999999,0.7771866000000001,0.0181142,0.2140564,25.566296200000004,-70.51282219999999,170.0302124,-43.6543722,64.46591719999999,12.0232916,-0.8834076,0.30213,0.1276462,61.667644,62.62201,36.859098800000005,134.41932341388323,0.8063295094700181,78.77891998188359,0.9423296010484866,36.1013478,133.1348322,-133.17111359999998
3836.852,36.8441216,-120.0475952,3.257038,0.8080130000000001,0.003691,0.1670586,29.430065000000003,-72.7090776,166.74544980000002,-34.451815800000006,70.85667040000001,11.0555088,-0.8839922,0.3002577999999999,0.1264378,63.673193600000005,63.122383,39.8787796,125.61657019005132,0.8251104213885316,79.56016356769413,0.942116486104834,34.2431286,135.8314606,-126.8666702
3856.836,37.59847860000001,-110.8018126,1.6679416,0.8455400000000001,0.0145184,0.1249464,34.052322,-74.6508286,162.72878099999997,-25.5920576,69.81116779999999,12.6360398,-0.8916107999999999,0.30381,0.1252095999999999,65.8848276,63.5449118,42.924038800000005,117.01909800396338,0.85484517803607,75.42030272830159,0.9502356437793732,31.8325056,138.1957404,-119.8047422
3876.819,33.8220694,-101.5477584,-0.5338454,0.8827264000000001,0.0267374,0.0888478,39.467469,-76.322348,157.8552336,-18.1622092,64.4937338,14.6445448,-0.8912682000000001,0.3210892,0.1247128,68.1267618,63.83960939999999,45.8305314,107.03347422873968,0.8875892729075539,68.58403775580025,0.9555158612873572,28.659292800000003,140.16195739999998,-112.0247022
3896.803,29.913538400000004,-92.3715194,-3.867865600000001,0.9103682,0.0182142,0.039295,45.6550162,-77.6757522,152.15634459999998,-13.4754228,54.98374700000001,16.752975799999998,-0.876628,0.3466592,0.1293628,70.168451,63.968363800000006,48.4061042,97.17138344272205,0.9113978898800896,59.03779850192718,0.9515166763396634,24.5134348,141.644116,-103.7502404
3916.787,29.0747124,-83.9131546,-7.397026199999999,0.9300074,0.0250222,-0.013945,52.570298,-78.70511160000001,145.72720639999997,-10.9180106,40.8993468,19.7275208,-0.8782780000000001,0.3731449999999999,0.1366386,71.7700242,63.8947782,50.43433220000001,89.11493933493811,0.930448460460116,46.70261878142183,0.9639914643392647,19.1997262,142.5998898,-95.2928742
3936.77,25.4398614,-74.67820280000001,-10.8300532,0.9497936,0.0575868,-0.0366825999999999,59.8316574,-79.41155699999999,138.8945968,-8.3715708,25.6414226,21.804118,-0.8804716000000001,0.3971892,0.1309566,72.8582916,63.6520072,51.8337958,79.63234627840605,0.9522445774473908,34.6840786582133,0.9747508040964932,13.0266342,143.0635642,-87.060801
3956.76,21.520800200000004,-64.9274384,-13.903323599999998,0.9635602,0.0903424,-0.0563238,67.0418586,-79.7984848,132.0606248,-6.772018200000001,14.1011064,20.7745194,-0.8731224000000001,0.4038596,0.1221743999999999,73.51430500000001,63.348082,52.71548299999999,69.79985319153924,0.9694237353749084,26.00542421315654,0.9697277380323202,6.472446399999998,143.14656680000002,-79.34514180000001
3976.737,17.471189000000003,-54.15044400000001,-15.5661456,0.9644294,0.097517,-0.0764894,73.6034134,-79.9249008,125.8231416,-4.0763528,5.91602,20.09611,-0.8670264,0.4062506,0.111422,73.9006834,63.0068246,53.2350312,58.98998151645122,0.9723601499371104,21.341733339224533,0.9639445992282544,0.2972699999999992,142.93172539999998,-72.5881104
3996.721,15.221353000000002,-42.0993222,-15.2203416,0.9682718,0.1129866,-0.0867448,79.0347352,-79.89287859999999,120.6673706,0.3573989999999998,0.6970046,18.9905696,-0.8685836,0.3992259999999999,0.1030219999999999,74.15858899999999,62.6639886,53.51214159999999,47.28320331016832,0.9786934713084786,19.006716791441555,0.9614740775231332,-4.876146199999999,142.5568672,-67.15522899999999
4016.705,10.2724646,-29.0506844,-13.6068948,0.9825218,0.153755,-0.0786962,82.954094,-79.765625,116.9333772,4.8135298,-0.6874008000000001,15.9375956,-0.8626256,0.4018475999999999,0.0945749999999999,74.419734,62.3728486,53.6924326,33.68402260961306,0.9975884819877784,16.662819164369157,0.9563204745408936,-8.534359999999996,142.1384736,-63.2409446
4056.672,2.3990488,-15.145805800000002,-11.067835,0.9942448,0.1591734,-0.0914024,84.9697664,-79.581671,114.9048722,8.120074800000001,1.6896538,12.0880824,-0.8616254000000001,0.4132892,0.0887648,74.7963576,62.1649948,53.927578200000006,18.911579523226507,1.0110456430450407,14.659886794605177,0.9597319847128364,-10.173408799999995,141.74666580000002,-60.97729400000001
4076.656,-5.064566600000001,-0.9454338000000008,-8.4353772,1.0035432,0.1468982,-0.1047668,85.21662,-79.4042876,114.5000884,12.2270726,5.875864399999999,9.8248266,-0.8718640000000001,0.4375044,0.09388,75.37965080000001,62.0127212,54.3045412,9.884294027511416,1.0196343059213533,16.749755357405242,0.9799848921873032,-9.836969199999997,141.4170088,-60.1955472
4036.688,-8.849249,7.020878599999999,-6.824749199999999,1.0152854,0.1727558,-0.0989884,85.4675218,-79.3079864,114.1895186,15.538784799999998,9.3549654,7.3558254,-0.8799908000000001,0.4533736,0.1048256,76.1146056,61.9175574,54.782113800000005,13.1976947162313,1.034624430999655,19.572362606777787,0.9954495646073488,-9.352916199999996,141.22554380000005,-59.40740480000001
4096.639,-13.332367199999998,16.584232800000002,-5.251199399999999,1.031127,0.2009048,-0.0937588,83.832596,-79.16154639999999,115.550592,18.2446724,12.716891,5.180267,-0.8950100000000001,0.4672052,0.1124846,76.9911024,61.874157,55.3621858,21.91720529307494,1.0546925340446287,22.83467875579798,1.01586238450107,-6.841493599999995,141.03570340000002,-60.18840620000001
4116.623,-19.2081446,25.3964578,-3.643418399999999,1.0396372,0.1962604,-0.1010812,81.2354752,-79.01224060000001,117.7633498,20.7482956,16.141547199999998,2.3362348,-0.9026426,0.4824978,0.1133084,78.0126218,61.8911194,56.0515276,32.05007621518471,1.062817510782279,26.39127335608379,1.0297604497406958,-3.222853399999997,140.90336,-61.71182220000001
4136.606,-22.4744558,33.820828,-2.693586399999999,1.0379204,0.1910618,-0.1002581999999999,77.93714600000001,-78.8399202,120.6720138,23.4568498,18.4554368,-0.6768094000000001,-0.913554,0.4848772,0.1118538,79.14544040000001,61.9715638,56.80751360000001,40.69649834821176,1.0601108785512203,29.85439701254209,1.0402874999586798,1.2082944000000029,140.811484,-63.8645002
4156.59,-26.0159094,43.1974504,-2.1139517999999997,1.0312066000000002,0.1926169999999999,-0.0843652,73.8589326,-78.5710954,124.300882,27.0529092,17.124183600000002,-4.955899799999999,-0.9253876,0.4861904,0.0952586,80.28611880000001,62.1301964,57.4885988,50.47094268172719,1.0524285474765498,32.398433650063915,1.0496654305824689,6.427186200000003,140.7012918,-66.8122832
4176.574,-30.92447,58.5048212,-0.9307141999999994,1.024685,0.1887404,-0.0680232,67.58909,-78.0786148,129.8634918,31.9263368,14.418577799999998,-10.4524452,-0.9361558,0.4929466,0.0735606,81.414343,62.3850694,58.0412072,66.18159243586507,1.0441405286432477,36.55735189945642,1.060563621004209,13.825253000000004,140.4636842,-71.8222846
4196.558,-36.902133,71.0640436,-0.7301557999999992,1.0041205999999998,0.1749458,-0.0472558,61.454564600000005,-77.4308272,135.32271880000002,37.5035158,10.782319,-15.5433916,-0.938851,0.4989936,0.0537309999999999,82.51224040000001,62.7229408,58.4298462,80.0774552556752,1.0203417677012148,42.00439408930405,1.0645763633497412,21.0576758,140.153768,-76.8928726
4216.541,-40.5795294,83.3797952,-0.5024377999999994,0.9790432,0.155029,-0.022147,54.9355004,-76.5282012,141.1129302,44.5647638,2.7325804,-18.8290872,-0.9507966,0.4896114,0.0425436,83.43259880000001,63.108125400000006,58.4598342,92.73155286989578,0.9914888138129648,48.45636896195853,1.0703006378968856,28.4970984,139.63632660000002,-82.653096
4236.525,-43.833058,95.7583116,0.0903806000000007,0.9560314,0.1458008,0.015835,48.379985,-75.3372038,146.89205,53.985447,-13.058005,-20.001221800000003,-0.949806,0.4798563999999999,0.031508,83.9144622,63.4822396,57.78834300000001,105.3138138268998,0.9672148976786906,59.03379418487879,1.0646061977656152,35.5344772,138.8194434,-89.10370700000001
4256.508,-47.2921652,106.9846788,0.8390344000000006,0.938573,0.1585508,0.0557088,42.1173232,-73.8486158,152.3211394,64.2041854,-29.228526800000004,-19.1288458,-0.9393496,0.4714585999999999,0.0315868,83.94415439999999,63.79943480000001,56.3871292,116.97424659286182,0.9534993984828098,73.0917022883998,1.051498268409587,41.8268312,137.64805059999998,-95.9340102
4276.492,-51.0901282,116.1116028,0.9240952000000008,0.911681,0.1455988,0.0836822,36.3625158,-72.08371260000001,157.1887696,72.69699399999999,-45.0349508,-15.9847428,-0.9177658,0.4568087999999999,0.0445102,83.49356399999999,64.00823679999999,54.2671928,126.85802874164511,0.9270188600666548,86.99719382012621,1.0261332765830762,47.1310482,136.0919494,-102.9215768
4296.475,-51.3604012,124.3763978,1.209704600000001,0.8813324,0.1142067999999999,0.1083868,31.250397,-70.049771,161.4363556,78.3601882,-60.069797400000006,-12.7535522,-0.9103166,0.4384308,0.0595874,82.5392198,64.1069224,51.464589,134.56909944838029,0.8952863736650077,99.55577707061802,1.0121504516933044,51.288822800000005,134.1566934,-109.9717666
4316.459,-48.8014732,132.9292588,1.1689976000000006,0.8522472000000001,0.1050876,0.1552494,26.8488578,-67.7617308,165.0523072,78.2362708,-68.71765740000001,-12.1613186,-0.9070938000000002,0.4227808,0.0676064,81.21893779999999,64.15824760000001,48.2585496,141.60910347501147,0.8726230972086174,104.83762767883204,1.0030620081371044,54.37008,131.9199784,-116.7937576
4336.443,-42.9223392,139.79325260000002,0.9475016000000008,0.8243360000000001,0.1252559999999999,0.2114654,23.2249122,-65.25905680000001,168.0351564,71.0735382,-68.70375960000001,-16.8985298,-0.9093794,0.4167248,0.0899997999999999,79.68510599999999,64.2742082,44.9791778,146.2374043607492,0.8601956299756237,100.28566560003948,1.0043557218831582,56.4601938,129.533265,-123.05597859999996
4356.426,-39.114918,146.0806548,-0.5355241999999992,0.7742102000000001,0.0963348,0.2573778,20.2133868,-62.55755320000001,170.4967652,55.9802878,-62.588835800000005,-21.8656526,-0.8885084000000001,0.4256514,0.0981474,78.0401734,64.4635102,41.912850000000006,151.22771340965343,0.8215382884612988,86.77131872107326,0.9900804024518818,57.826786600000005,127.0210634,-128.5839152
4376.41,-30.6108358,152.78606559999997,-2.1671734,0.7214614,0.0604738,0.2953344,17.7971856,-59.6667864,172.53060599999998,39.4004684,-53.714875600000006,-26.9486308,-0.886336,0.4219558,0.1066686,76.34929500000001,64.75271760000001,39.1671432,155.83742089256907,0.7819117853055804,71.86037484495598,0.9874291834230948,58.552109400000006,124.419504,-133.3634628
4396.394,-22.908750399999995,158.7833832,-3.868777599999999,0.6831878,0.0914262,0.379191,15.9139796,-56.6068812,174.18455799999998,22.689511000000003,-44.90190600000001,-34.7330798,-0.8685968000000001,0.4201296,0.1125318,74.55748739999999,65.1915068,36.6856552,160.4741133810865,0.786695706481407,61.134130436648285,0.9714075806671678,58.6435078,121.798388,-137.4989028
4436.361,-21.535268,164.7786102,-7.297917199999999,0.6326814,0.0887222,0.455884,14.2233452,-52.6998758,175.62723979999998,6.936041400000001,-37.7094388,-40.209317000000006,-0.8580056,0.4278252,0.1214755999999999,72.6216888,65.7303388,34.4002304,166.34006655864192,0.7848487778768595,55.559874176602925,0.9664183011417778,58.3983436,118.4302146,-141.2270094
4456.344,-22.3683624,169.26433400000002,-10.7307536,0.5660912,0.0550508,0.5013338,12.7967252,-48.6685266,176.76547219999998,-5.379726799999999,-28.9372246,-42.0777284,-0.8280010000000001,0.4072108,0.120304,70.6992828,66.3243804,32.4071946,171.07281336830002,0.7581724185965353,51.350167042548655,0.9305263800955028,57.9025576,114.992907,-144.3582776
4416.377,-19.300869,171.794699,-11.8204248,0.5547259999999999,0.0654074,0.5429252,12.138796199999998,-46.6673356,177.3809874,-11.9362448,-20.0238748,-43.5905282,-0.820983,0.3670008,0.1326202,68.8994444,66.9954712,30.7019404,173.2791522114193,0.7789523963926166,49.432414979308845,0.9090053855383255,56.760648200000006,113.6628068,-146.679047
4476.328,-19.2438908,173.65902699999998,-13.6240076,0.5117604,0.084836,0.6226269999999999,11.278429,-43.195723,178.02604660000003,-16.7376534,-10.8197108,-41.520004,-0.8167481999999999,0.3631208,0.1313814,67.383409,67.6813492,29.4140428,175.25238536120958,0.8104074500108941,46.05568276873316,0.9034353379527722,56.10498,110.8770722,-148.6120038
4496.312,-19.290518,174.95424780000002,-15.9527192,0.454435,0.0738504,0.6753134,10.546028799999998,-39.694787600000005,178.5183654,-19.415256,-0.9820092000000032,-35.7601386,-0.8547708,0.3378432,0.1214321999999999,66.3151824,68.340886,28.6712098,176.73596735765526,0.8173207687467142,40.70262915716416,0.9271013577358844,55.7691536,108.0356736,-149.8471556
4516.295,-18.5761492,174.283914,-16.8908174,0.4098855999999999,0.0894222,0.7283438,10.0905842,-36.8805196,178.7610444,-18.873726,8.333891599999998,-33.318939799999995,-0.8660776,0.3089036,0.1301939999999999,65.6642576,69.0299028,28.3729874,176.08309319948978,0.8405279447696191,39.189578100812085,0.9286884951105618,55.5736734,105.9104224,-150.38805699999998
4536.279,-18.2618216,172.902841,-17.375877600000003,0.3730285999999999,0.0907176,0.7660861999999999,9.6898518,-34.0861714,178.9424592,-14.9196968,16.9761064,-26.8342522,-0.8935027999999999,0.2891916,0.1245532,65.78864259999999,69.7989686,28.8574372,174.73067182493085,0.8568944422728857,35.08365192281522,0.9473608260576536,56.0987908,103.88514,-150.085022
4556.263,-16.8112786,172.4425596,-19.396866,0.2900319999999999,0.079655,0.8303121999999998,8.8774236,-29.1948506,179.3460206,-10.7608828,21.6164806,-23.8976418,-0.9584385999999998,0.2743795999999999,0.1236063999999999,66.29354679999999,70.562735,29.6598804,174.34246143779296,0.8831091832371804,33.97302040982844,1.0045731715445518,57.4161232,99.7575856,-149.6861402
4576.246,-17.167790399999998,171.6796966,-19.392485200000003,0.2525313999999999,0.0866484,0.8713725999999999,8.4573122,-25.7273254,179.5018068,-6.275127799999999,25.642722,-23.910511000000003,-0.9799526,0.2491127999999999,0.1199552,67.14811060000001,71.3602874,30.734724,173.62234802616453,0.9113562756898532,35.61795834627159,1.0182109483685784,58.69079839999999,97.08761280000002,-148.7670828
4596.23,-19.632845600000003,170.187149,-18.3807976,0.2167186,0.0904138,0.9033074,8.0095392,-22.2839742,179.6383606,-4.670224799999999,27.401767599999992,-24.4204478,-0.9483878,0.248061,0.1229924,67.3038418,71.64157399999999,30.998940600000005,172.2990656722021,0.9333305232934148,37.000353215063626,0.987978142150726,59.2943026,93.9255482,-148.63942
4616.213,-20.3846248,168.69017319999998,-17.0006192,0.1673503999999999,0.0732406,0.9038618,7.558097200000001,-18.8758344,107.7662506,-1.335562799999999,29.920566399999995,-21.743611,-0.9430158,0.2485418,0.1091183999999999,68.4822384,72.28934919999999,32.2658688,170.76571235369872,0.9221369179074004,37.0109259680013,0.981304565675428,60.9241412,91.1651836,-75.50038179999999
4636.197,-19.9343468,168.18958419999998,-16.4691304,0.1172583999999999,0.0762268,0.9402458,7.127761600000001,-15.4785762,35.874249199999994,-2.681173399999999,31.360904199999997,-23.4813724,-0.9593406,0.2593082,0.1058235999999999,69.6234738,72.8390898,33.4762784,170.16564480483055,0.9505904595704924,39.26919725217115,0.9993866937840228,62.4957122,88.317666,-2.397970799999996
4656.181,-21.4918234,167.5287048,-15.5506496,0.0808052,0.0799952,0.953089,6.669124999999999,-12.083281199999998,-36.0275422,-3.2741837999999985,34.504461799999994,-22.0896594,-0.9309334,0.2622164,0.0977336,71.0860272,73.3642424,35.0300158,169.6160019220012,0.959847568258148,41.10025810225344,0.9720834800743609,64.41690220000001,85.4475236,71.057558
4676.164,-23.2482306,167.67861320000003,-15.057082,0.0394164,0.0656076,0.9597764,6.178789,-8.6847866,-107.9490082,-3.645856399999999,35.13588639999999,-21.9452098,-0.9565292,0.2578582,0.099324,72.68712599999999,73.8782698,36.7326556,169.9509142931003,0.96282332115694,41.58623588603736,0.995642615970148,66.50833700000001,82.5630564,144.6816638
4696.148,-22.4635924,168.217047,-15.4699164,-0.0116753999999999,0.0456264,0.9472338,5.7099292,-5.273785,-179.9064758,-2.536963599999999,37.9164688,-21.3778152,-0.9890388,0.270469,0.1023336,75.4947448,74.8946364,39.7126864,170.41392606925214,0.9484038987712776,43.60167168004513,1.0304481518035733,69.78481559999999,80.1684214,219.61916220000003
4716.132,-19.8310418,168.83507079999998,-17.1623818,-0.0689602,0.0530518,0.9623528,5.298078800000001,-1.8422852,-107.9239746,-6.998462799999999,38.6967368,-18.5287764,-0.9923688,0.2879378,0.0926184,77.80394279999999,75.4137236,42.2501008,170.85988031121678,0.9662778660070404,43.47104180270649,1.0374402054580496,72.505864,77.25600879999999,150.1740754
4736.115,-16.0139654,169.6154022,-19.002827,-0.1247263999999999,0.0489996,0.9693076,4.954647799999999,1.611546,-35.999593999999995,-11.8674506,38.3992324,-16.9315244,-0.988499,0.2967016,0.083339,80.1778564,75.86472160000001,44.95009,171.42619165486963,0.978526882142172,43.61208492104506,1.035426241392674,75.22320859999999,74.2531756,80.949684
4756.099,-11.09069,169.5786926,-20.6155154,-0.1969792,0.0550486,0.9728398,4.7058408,5.0623252,35.8739564,-17.354356,38.4350784,-15.5875922,-0.9995014,0.274535,0.061287,82.6573196,76.2672774,47.8656462,171.18684489121537,0.9941068504233536,44.96000394108505,1.0383297218109286,77.95147879999999,71.20495220000001,11.9916898
4776.083,-9.2699266,168.2568358,-21.815673,-0.2795734,0.0597906,0.9690924,4.4941186,8.484291,107.70667720000002,-19.8740384,37.1202366,-14.6368342,-0.983596,0.246905,0.0367384,85.17547139999999,76.6295928,50.8675138,169.91826835582006,1.0103842247252677,44.577194651109934,1.014777256483195,80.68135279999998,68.1453018,-56.8391634
4796.066,-8.2757182,166.5596192,-22.3894792,-0.3494262,0.0760732,0.9982068,4.297627,11.878444,179.513327,-18.2866538,33.92031899999999,-13.894113,-0.9869018,0.2202796,0.0204314,87.6039672,76.9579604,53.7407514,168.2613533721337,1.0603313711151434,40.96383922827039,1.011392953863809,83.3063402,65.0795164,-125.7725756
4816.05,-5.7930796,163.44044200000002,-21.2502718,-0.402472,0.0719638,0.9760786,4.1424194,15.2130956,179.3266478,-13.0680886,30.801361799999995,-14.6608292,-0.990449,0.1950582,-0.0001322,89.9801772,77.2843108,56.4486792,164.91789443229374,1.0582494661810131,36.52997045199354,1.009473595724564,85.83775779999999,62.071215200000005,-122.8779686
4836.033,-6.944318,160.5802736,-19.8669344,-0.4660552,0.0685224,0.9667074,3.956034,18.4858412,179.1501096,-6.435054200000001,26.6948928,-13.758923600000005,-0.9919042,0.1678268,-0.0132666,92.239122,77.58222939999999,58.896955000000005,161.95352081504706,1.0753724777785416,30.713762433004955,1.006089349636224,88.28308799999999,59.0963882,-120.25315460000002
4856.017,-7.8024368,157.23144539999998,-17.687417,-0.5184442,0.0629416,0.9573256,3.7542706,21.6933978,179.00136700000002,0.6169726000000008,23.056829,-14.4581026,-0.9901682,0.1666318,-0.021099,94.4539398,77.8710494,61.1515502,158.41543536765303,1.0905128783923463,27.22195344784276,1.004312893904823,90.6996692,56.1776516,-117.8498168
4876.001,-5.6173032,153.3967622,-16.6079918,-0.564808,0.0677688,0.9370438,3.5914164,24.8265446,178.857373,5.597137000000001,20.545544799999995,-13.150999,-0.9801464,0.1877144,-0.0318124,96.6418778,78.107428,63.2739326,154.39542137094918,1.0961987822634542,25.027906992466963,0.9984666695458994,93.0504614,53.28088339999999,-115.5834404
4895.984,-4.2879648,149.1670074,-16.1565178,-0.6200936,0.0609314,0.8968119999999999,3.4416020000000005,27.8747338,178.7046448,6.389585000000001,20.091136,-12.3504004,-0.965375,0.2101385999999999,-0.0501821999999999,98.8874054,78.2920914,65.436541,150.1006855621233,1.0920166993278628,24.433848085863207,0.9892549595689678,95.4458034,50.4173576,-113.2681038
4915.968,-3.8639254,145.52512199999998,-15.779063,-0.6662684000000001,0.05826,0.8822825999999999,3.2885748,30.8522588,178.5420502,5.408095600000001,20.6315356,-13.505505599999998,-0.969706,0.193468,-0.0554764,101.2505036,78.4837464,67.7378258,146.42906091951014,1.1071270905823414,25.24492901048521,0.9903722655733852,97.9619288,47.6314876,-110.8042244
4935.951,-3.5007652,141.49780579999998,-15.2456718,-0.7012432000000001,0.072712,0.8714851999999998,3.1357586,33.7492238,178.37452100000002,6.101852200000001,22.2482546,-14.701019400000002,-0.9779166,0.1777641999999999,-0.0676232,103.9016052,78.67782600000001,70.3167954,142.35980792285915,1.1209440281786065,27.355756330546637,0.996239872990155,100.7658466,44.9286022,-108.0577256
4955.935,-4.7022744,137.45914,-14.6362992,-0.7328844000000001,0.061901,0.8388327999999999,2.9480992,36.5595076,178.2010438,9.1686834,21.6882978,-13.5223936,-0.9745174,0.1736456,-0.0817058,106.6450302,78.825531,72.92502139999999,138.31611550482617,1.115612721297225,27.153308185638103,0.9932335047992288,103.696931,42.26602340000001,-105.27602240000002
4975.919,-2.9936414,133.9465866,-14.2225822,-0.7633582000000001,0.0556474,0.8153946,2.781908,39.2993394,178.0170838,12.930604400000002,21.1531746,-12.0244566,-0.9791308,0.1814404,-0.0837034,109.3755844,78.9260406,75.4439836,134.73281632571496,1.118338378284122,27.554398602267984,0.9993117638817028,106.5936764,39.6267012,-102.5731002
4995.903,-0.4101293999999999,131.23954020000002,-14.048751399999995,-0.7837116,0.0502508,0.7993674000000001,2.645803,41.973159800000005,177.81513360000002,15.3626608,20.1160242,-11.2375182,-1.0042694,0.1746966,-0.0769042,112.0084076,79.00668479999999,77.81485599999999,131.98997133847394,1.120587905993082,27.693818656266483,1.0222476147223627,109.3626046,37.033525,-100.0002776
5015.886,2.1088994,128.9143768,-14.1102866,-0.8092179999999999,0.0476284,0.7861352,2.5360922,44.5880288,177.590155,16.218549799999998,18.0550188,-12.176497,-1.0147114,0.1834734,-0.0709278,114.50663920000002,79.094342,80.0321746,129.70144251451424,1.129208036054296,27.153123957925036,1.0336016963077992,111.97054699999998,34.5063132,-97.5579804
5035.87,4.0141822,126.2964384,-13.9153318,-0.8220914,0.0564388,0.7527654,2.4555648,47.140674,177.3582976,16.2499678,15.251517799999998,-11.62342,-1.0032358,0.1973666,-0.0667048,116.7170548,79.1685074,81.9566252,127.12411443295834,1.116098273243248,25.13511768822962,1.0246390464647734,114.26149,32.027833400000006,-95.4016724
5055.853,4.879546,124.8098082,-15.1615106,-0.8286752,0.0638308,0.733653,2.3515662,49.6488748,177.07640980000002,13.6678272,11.516158999999998,-10.5415798,-0.9991191999999998,0.2173989999999999,-0.0526346,118.4209412,79.23806920000001,83.4202636,125.82197580613972,1.1086134053549417,20.74985115999893,1.023851503943223,116.069375,29.5891944,-93.6561462
5075.837,5.813888,123.6886138,-16.7757546,-0.8525786,0.058427,0.7225623999999999,2.1917196000000003,52.1228396,176.7124174,8.4319154,8.746043199999999,-9.1155948,-1.0073519999999998,0.2175154,-0.0525085999999999,119.674092,79.30504920000001,84.531935,124.95639407345875,1.1191069678099228,15.188302654569746,1.0319051091137788,117.4823724,27.1822096,-92.1804824
5095.821,9.2269782,119.581845,-17.658679,-0.8849754000000001,0.0564772,0.671432,2.0351868,54.5208796,176.2806976,4.2694444,7.409602399999997,-8.6069608,-0.9741964,0.1875368,-0.0897073999999999,120.785585,79.369951,85.5806686,121.23029210693316,1.1122913572212094,12.133018479484557,0.9961305610922496,118.7503982,24.8490714,-90.700029
5115.804,7.965799599999999,112.8735824,-17.587633599999997,-0.9181152,0.0646154,0.6460292,1.8217786,56.7805596,175.8177154,4.849440600000001,8.768535399999998,-6.674954,-0.9449452,0.1343528,-0.1370842,121.972409,79.3786104,86.69284680000001,114.51298800889268,1.1244840584200562,12.039904405604618,0.964242803323167,120.1506304,22.598050800000003,-89.1248686
5135.788,8.2098258,103.34626620000002,-16.072902199999998,-0.9541444,0.0466206,0.6214028,1.6079751999999998,58.84747,175.36058959999997,9.7668846,11.971751199999996,-5.9204092,-0.949284,0.0958878,-0.1660172,123.5410568,79.3327348,88.092119,104.91039110726057,1.1396080274566165,16.545878842777228,0.968450460034317,121.9330816,20.485264800000003,-87.26847059999999
5155.772,11.7796396,91.8154816,-14.074565799999998,-0.9888829999999998,0.0494878,0.6212546,1.4959859999999998,60.673683800000006,174.94464720000002,15.494269400000002,15.524385199999998,-4.9369024,-0.9727784,0.1172164,-0.1721706,125.47540600000002,79.2224214,89.7468278,93.631917490802,1.168886610437043,22.482258013484348,0.994826726339758,123.97942,18.548737600000003,-85.19781939999999
5175.755,13.813270400000002,78.84634940000001,-11.780185199999998,-0.9996316,0.060538,0.6240557999999999,1.4651806,62.234197,174.58221439999997,18.3378072,19.3149924,-5.373386999999999,-0.9900314,0.133386,-0.1693096,127.780887,79.0724396,91.7220598,80.9093691496646,1.1799889095564415,27.1701562779495,1.013222452689497,126.3157064,16.8382426,-82.8601546
5195.738,11.123977,66.0262704,-8.8778186,-1.0056296,0.0608504,0.6522914,1.4511463999999998,63.512091600000005,174.30606999999998,19.6103608,22.712221,-6.9222692,-1.013238,0.12029,-0.169305,130.4140504,78.8926972,94.006981,67.54277837285753,1.200199039364005,30.794951604707645,1.034304167916286,128.96290399999998,15.3806056,-80.29908899999998
5215.723,10.5720924,52.083832,-5.373739399999999,-1.0099822,0.0474318,0.6636042,1.5271044,64.4971938,174.148691,20.944949,24.741895,-7.7836744,-1.0307112,0.1205045999999999,-0.175677,133.19157120000003,78.67303,96.413797,53.41696143227799,1.2094148809344625,33.338233965956285,1.0524967195937478,131.6644668,14.175836200000004,-77.73489399999998
5235.706,12.172175800000002,36.554398,-2.7805257999999986,-1.0089442,0.0657606,0.694667,1.7238154,65.17436219999999,174.0907656,20.9857152,24.7767678,-6.5458894,-1.0244774,0.1411598,-0.1859481999999999,135.7976626,78.4032272,98.645604,38.62793290577397,1.2267253548023698,33.12306044295515,1.0507410553176455,134.0738472,13.228865000000004,-75.4451616
5255.689,7.606474,19.0795518,0.8177264000000013,-1.0149307999999997,0.0746484,0.7038362,1.9469324,65.5154786,174.1657076,20.32068,25.2396052,-7.1056962,-1.0182928,0.1137305999999999,-0.2095942,138.3822848,78.11774740000001,100.8702698,20.55617717540925,1.2373529443298057,33.17316121205456,1.0458415771912302,136.4353524,12.602268800000004,-73.2954378
5275.673,0.7482410000000002,-0.2404312000000018,5.644031400000001,-1.0197954,0.0668516,0.7140548000000001,2.2007522,65.475403,174.42748120000002,21.1957586,24.996017,-8.7558148,-1.0152092,0.0685214,-0.2398036,141.05988480000002,77.8478194,103.1712402,5.698487711682847,1.2467261333936817,33.922342803905245,1.0453949820979436,138.8591326,12.3724164,-71.256241
5295.657,-1.9399738,-20.692093,10.112580400000002,-1.0039086,0.0814076,0.7301255999999999,2.544064,65.03902599999999,174.8491578,25.1456808,20.7668216,-6.585714,-1.0088449999999998,0.079204,-0.2376866,143.33267540000003,77.6006026,104.9789016,23.11256137713429,1.2440028401362595,33.27067434170085,1.039488541283914,140.7886114,12.5615766,-69.8702562
5315.64,-5.0156622,-40.8248652,13.4436,-0.976037,0.1065988,0.7545056000000001,2.9125694,64.2097162,175.36845999999997,27.716257,13.163235199999995,-2.4097604,-1.0025878,0.1108412,-0.2148284,144.893796,77.41345520000002,106.0055312,43.27305012201797,1.2382609700551013,30.777729094362638,1.0313192084766192,141.9812266,13.203739000000002,-69.3629288
5335.624,-11.9266436,-59.2120388,16.0860882,-0.9651686,0.093404,0.7535258,3.1872848,62.9971582,175.9407042,26.5988336,4.653002799999997,-0.0788749999999998,-1.0028414,0.1117546,-0.2005948,145.748749,77.3411254,106.3336318,62.5065804535195,1.228037403708698,27.002862907531156,1.0287945557603615,142.5614642,14.343967200000003,-69.6070724
5355.608,-13.4119438,-76.36270060000001,18.1334636,-0.9454056,0.0898098,0.7588618,3.4466386,61.4212572,176.532913,25.6009394,-4.684995200000003,4.511782800000001,-0.9918078,0.1070927999999999,-0.1961234,145.7470308,77.36870880000001,105.8045028,79.6238957948688,1.2156186820654904,26.41426626315543,1.0166690552880222,142.30039219999998,15.947451600000004,-70.7284102
5375.591,-13.8435724,-92.1811186,19.0611142,-0.931836,0.1026166,0.7695116,3.6630582,59.5131722,177.0915618,26.2772486,-14.874592400000004,10.9869642,-0.9794684,0.1261278,-0.1861486,144.6846896,77.477202,104.1772932,95.14372915587631,1.2128464865868722,32.13192610760241,1.0049466999863028,141.0216314,17.964029800000002,-72.91426859999999
5395.575,-15.091208599999998,-106.2069822,19.391396800000003,-0.9281738,0.096607,0.7753398,3.8010639999999993,57.3159456,177.5955382,25.653716,-24.1166512,16.721680600000003,-0.9855354,0.149957,-0.1696548,142.5938356,77.6488512,101.5128538,109.01235670737002,1.213256494282837,38.97871998667393,1.011212083425233,138.79277159999998,20.3329056,-76.08268439999999
5415.559,-13.765202,-117.7300962,18.6021528,-0.925631,0.0880586,0.7755,3.8879786,54.8842378,178.0149506,23.4366482,-31.7349824,21.9450202,-0.999604,0.1768752,-0.1505984,139.524408,77.8401446,97.8960264,119.98290055735696,1.210763112749542,45.143875535417656,1.026242111430631,135.6364294,22.9559068,-80.1189242
5435.542,-11.6049258,-127.43886700000004,18.088949000000003,-0.9116804,0.0948908,0.7973368,3.9562038,52.2668374,178.368033,21.1880518,-37.9316978,26.9631494,-1.008961,0.1865772,-0.133609,135.57171480000002,78.0123614,93.4236584,129.2383426115942,1.214870934833425,51.134710937256,1.0347292959812435,131.61551100000003,25.745524,-84.94437459999999
5455.526,-11.8693754,-135.8426056,17.781622000000002,-0.902918,0.0881639999999999,0.8167402000000001,3.9545584,49.499508,178.65743119999996,19.218511600000003,-43.5293532,30.142280600000003,-1.0190718,0.180096,-0.1160244,130.9012086,78.1557162,88.2584638,137.51465976227465,1.220695850699936,56.32683958734789,1.0413469950821388,126.9466502,28.6562082,-90.3989674
5495.493,-9.790100400000002,-145.2791718,18.524361,-0.8704792000000001,0.0835382,0.8448544,3.9429666,45.923543,178.98806159999998,18.7086634,-48.6048224,31.8685448,-1.0270218,0.178585,-0.0942668,125.6498384,78.25031899999999,82.511009,146.78227336839527,1.2159324100011646,61.057734927031554,1.0466864905416904,121.7068718,32.326776,-96.4770526
5515.477,-7.447570999999999,-154.1151184,18.841040400000004,-0.8307656,0.0839148,0.8855546000000001,3.9475964,42.1809114,179.2919342,18.7195728,-52.97326880000001,33.36756,-1.0209486,0.1955712,-0.0728754,119.9344224,78.24830019999999,76.2895666,155.44105261030785,1.2171360340502453,65.34511208594836,1.0420628397733798,115.986826,36.0673888,-103.0023676
5535.461,-4.8328954,-162.8670226,19.960181,-0.7874092,0.082501,0.9222586,3.9925132,38.273018,107.5937378,15.9465716,-56.76690140000001,33.4639832,-1.0242442,0.200838,-0.0382953999999999,112.7382082,78.028096,68.54913619999999,164.15673228378122,1.2154754578022544,67.79832160135774,1.0444513493403127,108.745695,39.75507800000001,-39.04460159999999
5475.51,-5.786322000000001,-165.83172900000002,21.242415200000003,-0.7776797999999999,0.0793362,0.9328998,3.9656574,37.0320818,107.7162566,16.057037,-59.6232772,34.346090600000004,-1.0134642,0.2389009999999999,-0.0135886,107.8143098,77.8896744,63.2039778,167.2868317260696,1.2171204298665437,70.65704183441886,1.0413299297209315,103.8486524,40.85759260000001,-44.51227879999999
5555.444,-1.1600782000000014,-172.4871762,22.0196652,-0.7349302,0.0813018,0.9581976,4.0947014,33.579718400000004,35.965649400000004,12.4712986,-62.1645172,35.396154,-1.009275,0.2651164,0.0087852,101.6344056,77.49369659999999,56.6264982,173.89087782399642,1.2103202147370091,72.61438015621405,1.0435515851710446,97.5397042,43.91397820000001,20.660848800000007
5575.428,3.014704599999999,-177.12137120000003,22.6540326,-0.7039042,0.08544,0.9662216,4.3050002,30.6819942,-35.8664398,8.5754768,-64.0823326,37.6433562,-0.9954044000000002,0.2830812,0.0292202,95.627504,76.9077988,50.2955442,178.58967991638073,1.1984845834153228,74.81381169145466,1.0352867744836889,91.3225038,46.2258046,86.161984
5595.411,5.636053799999999,-181.326019,23.9525922,-0.6677046000000001,0.0914412,0.9712172,4.5597844,27.7109008,-107.6990326,4.3287212,-65.320205,39.443196,-0.985476,0.289238,0.051331,90.006862,76.1501816,44.4329192,182.9880240396195,1.1821394907092986,76.42795770635095,1.0283270096525716,85.4470776,48.439280800000006,152.1319518
5615.395,7.9749782,-185.300726,24.6525182,-0.6302154,0.0953686,0.977227,4.8479248,24.668654,-107.5473878,1.8439124,-65.9824654,41.6748778,-0.9672842,0.3177726,0.0613091999999999,86.0830018,75.3403656,40.4018012,187.103463321818,1.1667215733807788,78.06331528218618,1.0199887091948812,81.235077,50.6717116,147.949189
5635.379,14.6719132,-194.4432646,24.9459736,-0.5500234,0.0953626,0.9953774,5.2933546,18.7199434,-179.2438996,-5.0454238,-65.56646660000001,42.6633194,-0.9570068,0.3144966,0.0824363999999999,80.2697832,74.1960296,34.4911796,196.58522270024733,1.1412256281985085,78.3873501654249,1.0107254259702585,74.9764286,55.4760862,213.73507920000003
5655.362,16.8427274,-199.163858,25.2489342,-0.4939949999999999,0.0997362,1.0072858,5.679355800000001,14.7535878,-179.11288779999998,-9.4661772,-64.33670500000001,43.4680268,-0.9400704,0.3330376,0.1101893999999999,76.2346558,73.0493072,30.494839,201.4632186726669,1.1263228011973656,78.21949549136932,1.003388311593413,70.5553,58.29571940000001,209.6077268
5675.346,18.1790886,-202.8326386,24.6216682,-0.4338529999999999,0.0932246,1.0114364,6.070066199999999,10.7003426,-179.033948,-16.09507,-61.773591,43.5984238,-0.9438736,0.3655222,0.135206,72.74439699999999,71.83733360000001,27.184111,205.12870371724125,1.1045011737880228,77.30362463160823,1.0211682103873976,66.67433079999999,61.136991,206.218059
5695.33,20.1693612,-205.941388,24.2506016,-0.3794566,0.0878578,1.0130532,6.4842824,6.57099,-179.001462,-24.1034002,-57.8793756,43.1731606,-0.9311278,0.3653982,0.1526282,69.7285644,70.61192779999999,24.520721,208.34286668984984,1.0853492941604743,76.12435758179262,1.01183506162384,63.244282,64.04093780000001,203.522183
5715.313,20.7452298,-208.93976160000005,24.7799346,-0.3177568,0.0870734,1.0122475999999998,6.903831200000001,2.3655518000000004,-178.9967044,-29.2555382,-52.6700708,40.284984,-0.942288,0.3426446,0.1654706,67.1420028,69.4609344,22.4040412,211.42429778930315,1.0645169630586258,72.47691225023958,1.0162147983165368,60.2381716,67.0953826,201.4007456
5735.297,21.6409164,-211.8017672,25.0264122,-0.2513368,0.092907,1.0064754,7.3412196,-1.8971424000000003,-179.02599519999998,-30.4595102,-47.4913042,39.7323824,-0.9493492,0.3594262,0.1806378,65.01609099999999,68.3380584,20.7903766,214.37033180755003,1.0415347466543785,69.00628918744053,1.0310582483913897,57.6748714,70.2352008,199.8163718
5755.281,21.515821,-214.4797578,25.3976554,-0.1849568,0.100257,0.9939478,7.779400799999999,-6.2136836,-179.0885622,-32.8125722,-41.092821,37.6601542,-0.950413,0.3795416,0.1972486,63.2794844,67.2863676,19.6328956,217.04731732750776,1.015968854365172,64.6805383905084,1.042230160234063,55.5000836,73.5000512,198.7214578
5775.264,20.796673,-217.214267,26.0989006,-0.1162552,0.1039795999999999,0.97032,8.2133024,-10.585613400000002,-179.1790132,-35.644774,-34.403959,34.4042166,-0.9381284,0.3718306,0.2085752,61.8249006,66.349214,18.8341968,219.7628085203338,0.982775626042486,60.31444626492456,1.0304593655442995,53.6115982,76.9348274,198.01321
5795.256,19.606497,-219.46731280000003,26.970368200000003,-0.0340644,0.1126686,0.943046,8.63539,-15.0042806,-179.2934816,-36.23459419999999,-28.689743,30.9344534,-0.9428816,0.3782676,0.2217153999999999,60.601520400000005,65.52311219999999,18.2946026,221.98584836224956,0.950363275221281,55.614634561430805,1.0398412414525018,51.9661304,80.5273928,197.5880842
5815.231,18.272377,-221.3878784,27.2465348,0.0470074,0.1186322,0.9119128,9.0489546,-19.4559272,-179.444394,-37.224203,-23.9641696,30.304419000000003,-0.9279938,0.4012116,0.2444848,59.5809904,64.7392178,17.9960392,223.80537554377676,0.9207976158393548,53.64960880127958,1.0401519399799437,50.5320358,84.195145,197.4404332
5835.215,16.508432,-222.7463806,27.439404000000003,0.1214698,0.1150282,0.8728136,9.4555614,-23.933759,-107.6359314,-41.5571528,-19.207799800000004,28.0089074,-0.9001165999999999,0.4077704,0.25816,58.6319998,64.0364026,17.8716092,225.03643991445892,0.8887012880896707,53.66968805332488,1.0213389145194265,49.1764384,87.97016160000001,125.5075406
5855.199,16.2105446,-223.6235046,27.2391214,0.2018774,0.1117518,0.8153386000000001,9.8957784,-28.4149662,-35.881012000000005,-47.189345,-16.4735914,24.4294674,-0.8819836000000001,0.3991563999999999,0.2600726,57.6224166,63.426052600000006,17.802736000000003,225.8588570334552,0.8473605974341504,55.6328353815518,1.002426386125525,47.7266382,91.8410188,53.683748
5875.182,14.341001799999995,-223.286029,26.8451136,0.2869011999999999,0.1156601999999999,0.7722262000000001,10.347089,-32.8767068,35.8135834,-51.0033914,-12.532119600000003,21.203415,-0.8844184,0.4016636,0.2677944,56.62296680000001,62.915486,17.8291296,225.35078256667617,0.8318791284747563,56.63907453015562,1.0075928713993962,46.2758778,95.7921928,-17.9844538
5895.166,12.7707876,-222.0324554,26.0558218,0.3552367999999999,0.091241,0.701527,10.815427199999998,-37.31040879999999,107.444043,-54.8590966,-9.092781200000005,21.0549286,-0.8957459999999999,0.400659,0.2720472,55.675888,62.4532524,18.0004174,223.92054420385517,0.7916174807849053,59.46014772997376,1.0182819893452106,44.8604608,99.7636612,-89.44362559999999
5915.15,13.4885708,-219.390564,25.6457296,0.4173896,0.0845334,0.6375270000000001,11.3597332,-41.6886232,179.0074402,-59.6374924,-5.491217800000003,20.624024400000003,-0.8714572,0.389686,0.2610302,54.76212840000001,62.047107,18.315244,221.29587560815727,0.7666815829486973,63.34141106052888,0.9896613538680188,43.4023952,103.7357302,-160.69219619999998
5935.137,13.5900904,-215.464679,25.6427228,0.4828632,0.081419,0.5693910000000001,11.9713886,-45.9894806,178.5062774,-63.43909,-3.0642388000000027,21.7663492,-0.869862,0.3699146,0.2472426,53.8883178,61.6709482,18.761227,217.41036701650373,0.7509940308392871,67.13927060184572,0.9770494427570796,41.9169292,107.6604288,-159.7450504
5955.117,11.3744042,-209.3137026,25.4925324,0.5339506,0.0673502,0.5011490000000001,12.6139618,-50.1858352,177.93468620000002,-63.69565359999999,1.314884799999997,25.154763600000003,-0.873597,0.3522075999999999,0.2307267999999999,53.2296066,61.3113878,19.4562584,211.16693011736305,0.7353839900904834,68.49545489549178,0.969771503058839,40.615644800000005,111.497223,-158.47842780000002
5975.1,11.5046532,-201.6818788,25.169390400000005,0.5722548,0.0465392,0.426208,13.3474142,-54.2442138,177.2833098,-62.9776216,5.618096399999997,27.561543,-0.8661752,0.3361523999999999,0.2218862,52.7600158,60.978992600000005,20.3523886,203.57169620224164,0.7150487483547397,68.97378112075144,0.9552441566799768,39.4126016,115.2232064,-156.9309212
5995.084,13.819103000000002,-193.0251436,24.746773800000003,0.6096138,0.0494998,0.3714043999999999,14.2543124,-58.1299538,176.516867,-62.0181704,12.028020599999998,26.645081,-0.8529114,0.3264144,0.2075792,52.4786346,60.750232800000006,21.4412668,195.095044742386,0.7155560381198945,68.56301540053515,0.9365326161164704,38.2243222,118.8801866,-155.0756002
6015.068,13.9290216,-183.3407808,23.670116,0.637063,0.0434324,0.3201704,15.3400504,-61.819477000000006,175.5809386,-58.628843200000006,21.1763798,21.8101672,-0.8742182,0.320382,0.2039352,52.419175,60.7216912,22.707249,185.38644486191643,0.7143141636387452,66.04137876888997,0.953148284861427,37.0791246,122.5411682,-152.87368959999998
6035.051,14.083322199999998,-172.7903596,21.792482,0.6569468,0.0337234,0.2647917999999999,16.6867774,-65.2903,174.39283440000003,-54.542172400000005,33.642069799999994,14.440730399999998,-0.8653088,0.3172064,0.1878968,52.6663514,60.9641228,24.2237796,174.72767556001725,0.7091058193845543,65.6899697444357,0.940576646004269,35.979574,126.2544228,-150.1690548
6055.035,16.928714199999998,-162.3259064,19.249515,0.6771854,0.01932,0.2180629999999999,18.4844648,-68.5280434,172.81471240000002,-49.1287646,46.6040148,8.201034799999999,-0.8477707999999999,0.3324736,0.1804776,53.3165788,61.4420358,26.064432,164.33753399872492,0.7116915064423349,68.21163154764473,0.9283459420557404,34.832114,129.9700792,-146.7502804
6075.019,22.6540508,-153.1927736,16.1066828,0.6984614,0.0196822,0.1774194,21.0425392,-71.5415406,170.593695,-43.5928946,58.4681508,4.890535799999999,-0.8450772000000001,0.3386194,0.1714344,54.4273736,62.0908738,28.288983,155.69411399192217,0.7209114784653938,73.09433943876456,0.9263953397548804,33.384834399999995,133.6324144,-142.30471200000002
6095.002,25.4418182,-144.41795660000002,12.038052800000004,0.7263574,0.0249906,0.1416554,24.7187206,-74.3189118,167.31278980000002,-38.7676924,70.16615900000001,2.4048852,-0.830138,0.340673,0.1598052,56.0426516,62.8775704,30.9567706,147.1351318246493,0.7404632705085918,80.19979623203216,0.9114411083114696,31.323930999999995,137.1964822,-136.3560192
6114.986,25.3496094,-135.8348908,7.347356400000001,0.7608385999999999,0.0275022,0.091566,30.0078988,-76.82847920000002,162.4222016,-34.3798044,77.80543800000001,3.0395648,-0.8019772,0.3444488,0.146104,58.1352076,63.6859238,34.043104799999995,138.37522864100032,0.7668220645044064,85.11695534455814,0.8849625890156486,28.1273088,140.514403,-128.3790968
6134.969,24.23391,-127.6456406,2.314713600000001,0.7993825999999999,0.0231232,0.0467942,37.50185760000001,-78.9971026,155.3130586,-30.7746726,80.696945,7.449049400000002,-0.8161756,0.3447346,0.1543646,60.5964534,64.3883812,37.4484008,129.9463345274598,0.801084839898147,86.68659494370428,0.8993403050045516,23.0945958,143.3854838,-117.8646578
6154.953,24.7370762,-119.5742158,-2.6788063999999983,0.8384164000000001,0.0139102,0.0078298,47.6083392,-80.738837,145.6094744,-31.0364272,80.3906722,10.0886134,-0.8301812,0.3335376,0.1555274,63.191218000000006,64.985202,40.9991722,122.13554776083112,0.8385683390285136,86.76231964651137,0.908095219455515,15.582878799999998,145.724039,-104.6103022
6174.937,21.866634,-110.31849060000002,-6.221708599999998,0.8802973999999999,0.016937,-0.0333446,59.9977756,-81.99010960000001,133.5779116,-31.9258822,74.494281,12.201122000000002,-0.8370280000000001,0.3159813999999999,0.1466624,65.6612558,65.4405548,44.423433800000005,112.63671119424411,0.8810915030602212,81.9605224117936,0.9066255994089956,5.663480200000001,147.4306644,-89.15447780000001
6194.92,15.6409794,-99.9183198,-8.606445399999998,0.9217832,0.023196,-0.07751,73.623942,-82.7113604,120.1996538,-29.1046632,60.0832892,14.4789076,-0.8696334,0.313278,0.142503,67.7092102,65.6959702,47.316148600000005,101.5006491145228,0.9253270353330436,68.31340883286099,0.9352606378376886,-5.914731799999997,148.4073306,-72.8835052
6214.904,11.0428908,-88.97705700000002,-10.174985199999998,0.9582812,0.012878,-0.1234951999999999,87.1372926,-82.9350466,106.8548798,-24.5398824,41.3350058,18.6656644,-0.9150826,0.3248214,0.133647,69.1930206,65.7036028,49.4850572,90.23520617487496,0.9662917600706736,51.56738853369725,0.980176834724082,-17.944271999999994,148.6386494,-57.3698226
6234.888,9.575407600000002,-76.4026398,-11.587425799999998,0.9901274,0.0125252,-0.1647806,99.1031524,-82.7559418,95.0358322,-17.2253126,22.4530368,18.160235,-0.92959,0.342392,0.117604,70.0686828,65.5600314,50.8203066,77.86732457061298,1.0038235875900507,33.62505599943438,0.99759738902024,-29.0344696,148.3159732,-44.2155256
6254.871,3.9917608,-61.82549820000001,-13.079525999999998,1.0181496,0.0483382,-0.2030084,108.3028212,-82.3206314,85.88710160000001,-6.5581372,5.978575599999997,18.813105200000003,-0.9501842,0.358259,0.1148304,70.4925446,65.2774752,51.4242852,63.3198261395852,1.0393159288830127,20.801092687770183,1.0219518314357092,-37.8102766,147.5981066,-34.4628164
6274.855,-2.8076484,-46.165855400000005,-14.064440799999996,1.0419338000000002,0.0730472,-0.2334232,114.3640426,-81.78104540000001,79.7542982,2.603711000000001,-4.082558800000003,17.7368436,-0.9501156000000002,0.382241,0.1133356,70.6673586,64.9368808,51.5529534,48.34229607050576,1.0702561970428015,18.38592445915732,1.0303750742674826,-43.696684,146.7179262,-28.201344800000005
6294.839,-5.3088318,-29.185680200000007,-14.667194199999996,1.0453694,0.0698868,-0.2646034,117.45,-81.28332359999999,76.55686639999999,8.261440400000001,-4.916218800000003,15.8351842,-0.9345376,0.3992104,0.1144632,70.8865726,64.61692980000001,51.6070618,33.09250987032983,1.0805999752739956,18.524947055798982,1.0226589330936096,-46.5634274,145.9002534,-24.9498046
6314.822,-6.1718432,-10.282791800000007,-14.4982108,1.0427348,0.0870862,-0.2804936,117.9492996,-80.9217788,75.9446534,12.0748746,1.3556249999999976,11.6962878,-0.9143914,0.395247,0.1190782,71.360387,64.4135392,51.861416,18.815567280546453,1.0833081412979595,16.865451788990978,1.003250437885875,-46.5889126,145.335318,-24.0832374
6334.806,-9.2470036,8.669431399999993,-12.4049784,1.0366828,0.1241216,-0.2717484,116.3323198,-80.74041600000001,77.403679,13.7030234,11.2656594,7.579122000000001,-0.916488,0.392923,0.1269776,72.19121580000001,64.34850320000001,52.4787698,17.735546382397846,1.0788719072739634,19.29069781808424,1.0052174137840828,-44.141104,145.08891920000002,-24.9249092
6354.79,-13.3712144,26.81735539999999,-8.372164799999998,1.0234102,0.1382964,-0.2597392,112.76840080000002,-80.74933940000001,80.73982099999999,13.4939332,23.4486106,1.7231092,-0.9058176,0.3992026,0.1166156,73.4488986,64.4553178,53.5715838,31.113551205528356,1.064875008502707,27.10890402785807,0.9967283674501696,-39.3195022,145.2046572,-27.168237200000004
6374.773,-16.8894196,44.8218316,-5.094692799999999,1.0038513999999998,0.1369068,-0.2500739999999999,107.0415208,-80.8817826,86.1851656,15.733836000000002,34.9135108,-3.9700098,-0.9000192,0.4075867999999999,0.1047882,75.1795778,64.7138978,55.134852,48.16850607118716,1.0435507226024998,38.50023129110666,0.9935502638327464,-31.861943000000004,145.59568040000002,-31.050313600000003
6394.757,-20.5755468,62.24015959999999,-2.4100447999999988,0.990433,0.1452322,-0.2228907999999999,99.1560808,-81.01492920000001,93.7349428,19.137984,42.61037219999999,-9.490164,-0.9028464,0.4076094,0.0922542,77.27598739999999,65.09621899999999,57.023202600000005,65.59724772496533,1.0255389939590207,47.66518082787145,0.994880838281128,-21.880093400000007,146.1111482,-36.7117402
6414.741,-25.0403898,78.315384,0.3257834000000014,0.976903,0.1554274,-0.1828747999999999,89.3379808,-81.01028900000001,103.1417848,23.8369576,45.5983804,-14.3282108,-0.9132556,0.4031614,0.0717578,79.603499,65.5662614,59.056462800000006,82.2218135729632,1.0059524544205851,53.41077108090221,1.0008616723814336,-9.734481800000006,146.5765504,-44.085322000000005
6434.724,-30.2861088,93.3323472,3.104514200000001,0.962186,0.1504304,-0.1506179999999999,78.0062394,-80.746756,113.9740082,31.9780552,42.0635584,-16.3100444,-0.9263412,0.390673,0.0494742,81.9784396,66.0495376,60.9575706,98.17236591080398,0.985452680631678,55.29879300648821,1.0065689783676426,3.9722001999999943,146.7962936,-53.0164376
6454.708,-32.4025662,107.39208239999998,5.317081200000001,0.9476754,0.1307434,-0.1175542,65.95830380000001,-80.093634,125.4942978,43.371164,27.946053,-14.9619986,-0.9426472,0.3879144,0.0315652,83.99983379999999,66.45555879999999,62.2196334,112.2998531211914,0.963847233925771,53.72058401674452,1.0198321858258053,18.041529999999995,146.5491928,-63.274664400000006
6474.692,-33.3021996,121.14917299999998,6.952310200000001,0.9317784,0.116658,-0.0774765999999999,54.229010800000005,-78.95294040000002,136.69262840000002,57.058519,2.4460302000000014,-10.7849914,-0.9622316,0.3986456,0.018025,85.181502,66.7115158,62.2646156,125.8351828142638,0.9422434394667444,58.120338038510646,1.0416971090786995,30.9524912,145.6644562,-74.4280128
6494.675,-35.399962800000004,133.5162614,8.852340200000002,0.924402,0.1319538,-0.0194351999999999,43.663790000000006,-77.31568460000001,146.7004988,71.12633819999999,-30.4103968,-5.7203698,-0.9784556,0.4007032,0.0205556,85.17648340000001,66.7865418,60.7085762,138.41283665719394,0.9339746195360342,77.56591293811336,1.0575258617891858,41.5126934,144.1022264,-85.9919226
6514.659,-36.844475,144.13875579999998,11.1310426,0.9065692,0.1195244,0.022582,34.6946972,-75.2313554,155.1000974,81.783834,-65.9709612,0.2801859999999997,-0.9760082,0.3926698,0.042589,83.8043078,66.6291398,57.429569400000005,149.1891295334907,0.914693250936072,105.07540972837585,1.0528985711930092,49.1096106,141.8604952,-97.670528
6534.642,-34.6317736,153.4298644,13.119668800000005,0.8709358,0.0815132,0.0700524,27.4442516,-72.7487442,161.8513304,90.0353408,-100.0349048,8.078235000000001,-0.9721548,0.3909572,0.0564297999999999,81.21255359999999,66.16268640000001,52.6276894,157.83601851892277,0.8775425392775212,134.82804846185542,1.0493411312451828,53.76830199999999,138.9114306,-109.223641
6554.626,-28.3322364,161.9509032,14.128987,0.8380208,0.0653724,0.1314038,21.858837200000004,-69.9349464,167.0953886,91.0214432,-120.5002898,9.7107044,-0.9463256,0.3769788,0.0703876,77.8815372,65.5221398,46.9758858,165.0164808143945,0.8507757463449697,151.3258759896634,1.0210776518456175,56.02270000000001,135.4570862,-120.1195028
6574.61,-20.4218706,168.25525199999998,15.431252400000002,0.8121802,0.0936584,0.202794,17.663183,-66.88460239999999,171.13133520000002,82.1854066,-123.541841,2.4300204,-0.915023,0.3581758,0.1074517999999999,74.27331720000001,64.9158952,41.1972824,170.19108723731438,0.8423383996937336,148.40125516592175,0.9884851458458442,56.610134200000005,131.80049760000003,-129.93405280000002
6594.593,-18.042579,173.6877378,15.346608800000002,0.7543,0.0690278,0.2546388,14.416201,-63.6422944,174.276486,67.36711820000001,-114.2530226,-0.6719085999999994,-0.8921742,0.3765258,0.136574,70.89272639999999,64.2963266,35.974123,175.29541728383268,0.799108406687278,132.63684725209524,0.9779565116544192,56.4765254,127.938621,-138.302363
6614.577,-11.171982,178.34340799999998,13.8071524,0.6878246,0.0348603999999999,0.3188344,12.0240936,-60.2369858,104.7078978,51.7561846,-95.739115,-3.908746,-0.8697471999999999,0.4100016,0.1388138,68.114162,63.73812339999999,31.733032999999995,179.22561707596267,0.7589290496987713,108.90343925067296,0.97150953416878,56.09006840000001,123.9751092,-72.9748648
6634.561,-2.9895163999999994,181.5953184,10.160644800000002,0.6348064000000001,0.0662132,0.3795132,10.3858898,-56.7105378,34.5361846,33.9751188,-69.9871138,-15.351799,-0.7987862,0.4342966,0.148743,65.6398326,63.4956452,28.13299,181.9039185280378,0.7425588342410587,79.2980613134058,0.9213020189552392,55.2539428,120.206183,-6.403194600000001
6654.544,-4.4698692,184.0182188,5.6707948,0.5835788,0.0969307999999999,0.4406618,9.1731084,-53.094832,-36.1185638,20.5189272,-48.1716584,-20.499837,-0.8157482,0.4263812,0.1782142,63.65114000000001,63.4690378,25.3743966,184.1598286669856,0.7376602319342693,56.22969289860793,0.9375533875989784,54.4780316,116.56386980000002,61.4929604
6674.529,-10.0728962,187.1331298,0.4864434000000013,0.5212055999999999,0.0474743999999999,0.5003584,8.1836588,-49.3861352,-107.142993,14.9105714,-31.9062456,-17.1107346,-0.8053114000000001,0.4029486,0.1820802,62.20030379999999,63.497014,23.3412854,187.4046641196025,0.7240632738768622,39.15495991970436,0.9187204277928952,54.016645,112.8831492,130.4842784
6694.512,-4.264703199999999,188.6765258,-3.5545293999999985,0.471691,0.0210167999999999,0.5420816,7.5595938,-45.6271798,-178.443817,13.3207016,-26.165826600000003,-20.3845762,-0.7658446,0.3942628,0.1691008,61.63697440000001,63.4412164,22.5608998,188.75818859217105,0.7188786868601684,35.74384589871544,0.8778132986994671,54.077380600000005,109.0683962,201.0047168
6714.495,-1.3202691999999991,188.9732696,-7.563505799999999,0.4298129999999999,0.0664689999999999,0.6331918,7.1861326000000005,-41.8478494,-177.962335,15.4935806,-16.552403599999998,-20.205113200000003,-0.7632036,0.3741776,0.1767108,60.9944008,63.6413064,21.4913292,189.1291790128149,0.7681726358815706,30.369058335266235,0.8681677938229222,53.8082682,105.4891558,199.4536642
6734.479,-4.236144599999999,189.0850036,-10.608832199999998,0.3824676,0.0648801999999999,0.6964796000000001,6.870908,-38.0636888,-177.62050159999998,19.5121216,-8.9592518,-16.0979882,-0.8139489999999998,0.3804646,0.1783144,61.085678,63.8245896,21.2221618,189.4297516973822,0.79722941404464,26.83535552654984,0.916003445245442,54.21477,101.8882784,198.8426634
6754.462,-7.1309878,189.216873,-13.407383199999998,0.3183536,0.0304629999999999,0.7467334,6.577692999999999,-34.2734716,-177.387683,21.6616424,-0.1798266000000012,-16.6348604,-0.8059324,0.4066168,0.1694138,61.550318,64.0905732,21.316597,189.82527212985505,0.8123347706934131,27.31259177740248,0.9184581052189806,54.972625,98.3640448,198.70428
6774.446,-4.081698599999999,187.6447598,-14.663875999999998,0.2699696,0.0349347999999999,0.7973288000000001,6.3971428,-30.5114602,-177.22326660000002,20.6909488,7.6749724,-19.821196,-0.84344,0.4078077999999999,0.1686494,62.235128,64.49239200000001,21.675969,188.2611096408504,0.8425183917782686,29.66311471264269,0.951914310986656,55.837985200000006,95.0038522,198.89923560000005
6794.43,-3.863557999999999,186.1633176,-16.1177226,0.2325902,0.0675389999999999,0.8794384000000001,6.263548,-26.770557399999998,-177.1170806,21.759156,22.9682744,-17.576826399999998,-0.9023394,0.375725,0.1785658,62.7871674,65.1886916,21.633957400000003,186.89967598171052,0.9121795969279296,36.19319445754641,0.9936153246337336,56.52361940000001,91.959249,198.751038
