Timestamp (ms),Wrist Gyroscope X (deg/s),Wrist Gyroscope Y (deg/s),Wrist Gyroscope Z (deg/s),Wrist Accelerometer X (g),Wrist Accelerometer Y (g),Wrist Accelerometer Z (g),Wrist Roll (deg),Wrist Pitch (deg),Wrist Yaw (deg),Arm Gyroscope X (deg/s),Arm Gyroscope Y (deg/s),Arm Gyroscope Z (deg/s),Arm Accelerometer X (g),Arm Accelerometer Y (g),Arm Accelerometer Z (g),Arm Roll (deg),Arm Pitch (deg),Arm Yaw (deg),Wrist Gyroscope Magnitude (deg/s),Wrist Accelerometer Magnitude (g),Arm Gyroscope Magnitude (deg/s),Arm Accelerometer Magnitude (g),Difference Roll (deg),Difference Pitch (deg),Difference Yaw (deg)
0.0,1.3662084341049194,7.567105770111084,-2.929943561553955,-0.709144115447998,0.2074731588363647,0.6947271823883057,17.347002029418945,45.14097213745117,-132.3826446533203,10.3866548538208,-3.89813232421875,1.91852343082428,-0.9412981271743774,0.1622416079044342,-0.3562704622745514,153.423583984375,67.26935577392578,63.27773666381836,8.228741367630857,1.0141875300265022,11.258719590794508,1.0194572800498949,136.07658195495605,22.12838363647461,195.66038131713867
21.842,1.0131530854851007,7.531873106956482,-2.6982497572898865,-0.7143628299236298,0.2105590216815471,0.6934754252433777,17.34913921356201,45.17952632904053,-132.3799171447754,9.159590244293211,-3.709380626678467,1.1921723335981371,-0.9359453916549684,0.166090190410614,-0.3598862662911415,153.4472770690918,67.28228759765625,63.277276039123535,8.064498956949352,1.0176234666144794,9.953837096814764,1.0164142128954043,136.09813785552979,22.102761268615723,195.65719318389893
39.742,0.5631088784171475,7.359230862723456,-2.449547211329142,-0.7183349861039056,0.2096067658729022,0.6920262575149536,17.345763312445744,45.21530808342828,-132.3765352037218,8.144374397065905,-3.6061507066090894,0.6506724854310356,-0.932060976823171,0.1682112150722079,-0.3632867021693123,153.4710244072808,67.29557037353516,63.28352249993218,7.776609289423252,1.0192352474530837,8.930763232874158,1.0144012546155918,136.12526109483505,22.080262290106873,195.660057703654
62.311,0.261450939035664,7.106613864501317,-2.230655573308468,-0.7213200951615969,0.208583287273844,0.6907044984400272,17.341099341710407,45.24772731463115,-132.3727887471517,7.191201289494832,-3.488876134157181,0.1867539025843145,-0.9289378374814988,0.1699369723598162,-0.3651285345355669,153.49403731028238,67.30892753601074,63.29679028193156,7.453062558396857,1.0202364292550956,7.995030311740797,1.0124835441683555,136.15293796857196,22.061200221379593,195.66957902908325
85.591,0.0319035915782054,6.79047424475352,-2.065161899328232,-0.723601035674413,0.2075489796201387,0.6891052514314652,17.33499449412028,45.27658410390218,-132.36984842936198,6.2710383478800455,-3.354292631149292,-0.2063766235113142,-0.9259100794792176,0.1719756897290547,-0.3663394673665364,153.5145609029134,67.32157592773437,63.316710027058924,7.097637070057433,1.0205592022616163,7.114758767990414,1.01048984086402,136.1795664087931,22.04499182383219,195.6865584564209
99.577,-0.5056351284931103,6.090470208326975,-1.6748385035991666,-0.7290911122163137,0.2064805973569551,0.6850755745172501,17.322347246805826,45.34524667104085,-132.36422281901042,4.066305262247721,-3.0021664118766784,-1.1884932583570478,-0.9181695556640628,0.1768159713347752,-0.3697942992051442,153.56294102986652,67.35075042724608,63.36305722554524,6.336764020761935,1.0215364064965315,5.192336456311759,1.00550835122938,136.2405937830607,22.005503756205236,195.72728004455567
123.059,-0.9604257601747908,5.055572477976481,-1.331970876455307,-0.7322303767999013,0.2038271979490915,0.6804094201326369,17.301147600809735,45.41023148854573,-132.3606537882487,1.9497710482279456,-2.5580703449249267,-2.0088503080606457,-0.9111471676826476,0.1799354787667591,-0.3713147570689519,153.61649419148762,67.3813525390625,63.44267278035481,5.315578720760864,1.0201293203989066,3.792203922561073,1.0002202689969388,136.31534659067788,21.97112105051677,195.8033265686035
144.528,-1.2482879959791895,3.802405540943146,-1.0767268359661102,-0.7326140058040619,0.2030262827873229,0.6750930076837539,17.27335018157959,45.46686656951905,-132.36114044189452,-0.0274534988403321,-1.910203459262848,-2.720772498250008,-0.9049036836624148,0.1820894753932952,-0.3701247292757034,153.67819992065432,67.41028991699218,63.56047088623048,4.144375887632596,1.0167071958170697,3.324490026697616,0.99448457452905,136.40484973907473,21.943423347473136,195.921611328125
167.08700000000002,-1.5628009337186817,2.449813117980957,-0.9080440950393676,-0.7306205797195435,0.202945966720581,0.6689999747276306,17.236130676269532,45.51270889282227,-132.36766174316406,-1.64262797832489,-1.1215895652770995,-3.291499996185302,-0.900333993434906,0.1829942750930785,-0.3674559319019317,153.75333374023438,67.435146484375,63.71778091430664,3.0444170460039515,1.0112143507206786,3.845797973503293,0.989500917807156,136.51720306396484,21.92243759155273,196.0854426574707
190.467,-1.883657213151455,1.1485813164711,-0.7667955136299133,-0.7263395738601685,0.2042238348722457,0.6633091473579407,17.189721755981445,45.54711257934571,-132.37935607910157,-2.713722813129425,-0.2430981373786926,-3.741634910106659,-0.8986110687255859,0.1814060211181639,-0.3630015313625335,153.85168640136715,67.45533050537111,63.91382232666015,2.3356752550230424,1.0046171291860475,4.628522443655744,0.9859919417041946,136.6619646453857,21.9082179260254,196.29317840576172
201.047,-2.224531602859497,0.1490970897674561,-0.7216234731674195,-0.7202188539505004,0.2059276604652404,0.6595140266418457,17.134081573486327,45.56074935913087,-132.39632446289062,-2.9326510286331176,0.5685281991958618,-3.9471834659576417,-0.9011648488044738,0.1772597736120223,-0.3568194735050201,153.9723406982422,67.4669305419922,64.13921600341796,2.3433973694881494,0.9980381507075772,4.950143804270049,0.9853117520532144,136.83825912475587,21.90618118286133,196.5355404663086
222.106,-2.5361226820945744,-0.3884713006019591,-0.721755952835083,-0.7136343574523926,0.2083172887563704,0.6565171289443971,17.07212936401367,45.56230499267578,-132.41559509277346,-2.6231753420829778,1.1765600073337554,-4.024312953948974,-0.907255790233612,0.1734214949607848,-0.3501773631572723,154.11508178710935,67.47346618652344,64.38116760253905,2.66528795170031,0.9918088674380202,4.945749394934086,0.9878321059241948,137.04295242309567,21.91116119384766,196.7967626953125
244.469,-2.791538214683533,-0.4466442918777465,-0.7462103176116943,-0.7087493371963501,0.2108737981319426,0.6551640415191651,17.00717834472656,45.56117065429687,-132.43395141601565,-2.080284204483032,1.4646168249845506,-4.046834735870361,-0.9151087379455566,0.1699876356124877,-0.3444591569900512,154.27534057617186,67.48007171630859,64.62862014770508,2.9238684248125195,0.9879439776700818,4.78012093935879,0.9924575101029414,137.2681622314453,21.918901062011713,197.06257156372072
267.12,-2.9796371626853944,-0.1048363280296325,-0.7348631733655929,-0.7054325675964355,0.2138251852989196,0.6558908343315124,16.94349021911621,45.56453628540039,-132.4471923828125,-1.6016729378700258,1.452091281414032,-4.0723593616485605,-0.9221587991714476,0.1671729892492293,-0.3402343702316284,154.44570251464845,67.49110382080077,64.87391235351564,3.0707087391186345,0.9866859195579434,4.6106437793295765,0.9970371537263606,137.50221229553225,21.92656753540038,197.32110473632812
290.51700000000005,-3.1775537109375,0.4788659000396729,-0.69708726644516,-0.7044030332565308,0.2155683040618895,0.6576143288612366,16.88161346435547,45.57747116088867,-132.45344482421874,-1.4447292423248288,1.2059940820932389,-4.114701042175293,-0.9271021056175232,0.1656615579128265,-0.3379158413410186,154.61507324218752,67.50916351318361,65.11244323730469,3.288174386061887,0.9874765478231546,4.52464683441159,1.0005744259373004,137.73345977783205,21.931692352294938,197.56588806152342
300.594,-3.2892916584014893,1.1384977579116822,-0.5837331825494767,-0.7048539376258851,0.2176160901784896,0.6593476128578186,16.82539596557617,45.60144882202148,-132.44987548828126,-1.624748237133026,0.9024095833301544,-4.153123483657837,-0.9294814252853394,0.1658458614349365,-0.3367581510543823,154.77388732910157,67.53366333007813,65.34170867919923,3.529357050116761,0.9894013900700724,4.550009292371081,1.0024203818793431,137.9484913635254,21.932214508056646,197.7915841674805
322.28200000000004,-3.4579193592071533,1.7093262290954592,-0.4264292603731155,-0.7066435980796815,0.2191473066806792,0.6622979688644409,16.773260803222655,45.63454071044922,-132.4365759277344,-2.0690856981277466,0.715393037199974,-4.145936708450318,-0.9292075753211976,0.1655652594566344,-0.336675329208374,154.91870666503908,67.5610678100586,65.56363159179688,3.880830370726821,0.9929800180740588,4.688463929086673,1.0020922365086002,138.14544586181643,21.92652709960938,198.00020751953127
346.90900000000005,-3.697601137161255,2.106909093856812,-0.228198533654213,-0.7081078052520752,0.218738755583763,0.6653435683250427,16.721992950439454,45.67318893432618,-132.414990234375,-2.60858879327774,0.6787927329540253,-4.029115180969238,-0.9277179431915282,0.1652576690912246,-0.3371704733371734,155.04648315429688,67.5871987915039,65.77685119628907,4.261853431322418,0.9959645430258772,4.847603965697093,1.0008269617688157,138.32449020385744,21.914009857177717,198.19184143066408
366.908,-3.877874116897583,2.319744367599488,-0.0505190408974886,-0.7096453022956848,0.2165267944335936,0.6680760169029236,16.669941482543944,45.71430633544922,-132.38817260742186,-3.168203072547912,0.8207944756746292,-3.78170578956604,-0.9272064542770384,0.1641274505853652,-0.3371320331096649,155.1556591796875,67.60842590332031,65.98023803710937,4.519034606086454,0.998401658722028,5.00125113936876,1.0001538064904345,138.48571769714354,21.894119567871087,198.36841064453125
390.474,-3.9304302978515615,2.423902406692505,0.0850370052456855,-0.7102510523796081,0.2138393056392669,0.6699807071685792,16.6180216217041,45.75604843139648,-132.35830383300782,-3.5845274353027348,1.0938430190086366,-3.3829379606246954,-0.9282675981521606,0.1616767799854278,-0.3366608369350433,155.24673339843747,67.62202331542969,66.17209899902343,4.618529689814756,0.9995288660267566,5.0487224849567145,1.0005801487594292,138.62871177673338,21.865974884033207,198.53040283203126
400.481,-3.875800023078918,2.492986783981324,0.1275166154652833,-0.71004239320755,0.2092564147710799,0.6717452478408813,16.56488182067871,45.798224182128905,-132.32927734375,-3.620255031585693,1.311596550345421,-2.796612093448639,-0.9308050990104676,0.1571089732646941,-0.3361176860332489,155.32086242675783,67.6283609008789,66.34614044189453,4.610105141016179,0.9995949806154284,4.758946438637729,1.002026177646332,138.7559806060791,21.830136718749998,198.67541778564453
422.0940000000001,-3.609767551422119,2.63676875114441,0.1174395558238029,-0.7086473155021669,0.2040424507856368,0.6725634860992431,16.513895416259764,45.84252593994141,-132.30211669921874,-3.087328310012817,1.3611203338205815,-2.063237323760986,-0.9343741106986998,0.1519100129604338,-0.3352933347225189,155.38030151367187,67.62985656738282,66.49294342041017,4.471774063118997,0.9980761405449002,3.9548948040506526,1.004267519683362,138.8664060974121,21.787330627441406,198.7950601196289
450.442,-3.2238137054443365,2.89729287147522,0.0632102864235639,-0.7074347734451294,0.1995560878515243,0.6726241493225098,16.4679940032959,45.891696014404296,-132.27656982421877,-2.0149087619781496,1.327833824455738,-1.2650670409202576,-0.937546775341034,0.1464355200529097,-0.3342605781555176,155.4315985107422,67.62763122558593,66.60842590332031,4.334890578875275,0.9963482509292606,2.724590722014557,1.006065331673047,138.9636045074463,21.735935211181634,198.8849957275391
460.502,-2.738517764210701,3.266594657897949,-0.0098574116826057,-0.7068766808509827,0.1961505734920501,0.6716715669631957,16.43045867919922,45.94839797973633,-132.2515344238281,-0.4828383445739749,1.2296788029372692,-0.4528396892547608,-0.9388024592399598,0.142552141547203,-0.3341196882724762,155.48040649414062,67.62162322998047,66.68921569824218,4.262653794582675,0.9946317827613176,1.396533783890859,1.006631579390388,139.0499478149414,21.673225250244144,198.94075012207028
481.936,-2.185360925793648,3.653783798217773,-0.096468938216567,-0.7080221438407899,0.1935031080245971,0.6710986542701721,16.402912139892578,46.01341125488281,-132.22692504882812,1.238315076828003,1.1216578322649002,0.3332930445671081,-0.937352213859558,0.1421331918239592,-0.3347478747367859,155.52722778320313,67.61058837890626,66.73140533447265,4.258549597708708,0.9945412071640486,1.703709122983601,1.0054288421794333,139.12431564331055,21.597177124023446,198.9583303833008
500.641,-1.6496873223781583,3.969327630996704,-0.1742945434153079,-0.7106384086608887,0.1930386650562285,0.6699126625061036,16.386539001464843,46.08580764770508,-132.20179626464844,2.636078057289123,1.2056184585392475,0.9830676555633544,-0.9338107085227966,0.1450667351484297,-0.3363926029205322,155.57154174804688,67.59056457519532,66.74099884033203,4.3020237902263485,0.9955168755258684,3.060856972664123,1.003098589520553,139.18500274658203,21.504756927490234,198.94279510498046
522.39,-1.1905440327525136,4.12800477027893,-0.2621062073856592,-0.7148177647590638,0.19345900952816,0.6685004806518554,16.379345474243163,46.16317916870117,-132.17722412109376,3.406858842372894,1.585961864590645,1.4685077023506163,-0.9293121242523192,0.1490071415901183,-0.3393360948562621,155.61344055175783,67.5565835571289,66.73177093505858,4.304244200939151,0.9976390719165538,4.034659475055273,1.0004864505826725,139.23409507751467,21.393404388427733,198.90899505615232
544.044,-0.7206839662790298,4.123728494644165,-0.3471574109792709,-0.7194009637832642,0.1940038549900054,0.666833267211914,16.380719070434573,46.24259323120117,-132.15439819335938,3.5935506629943843,2.120727000683546,1.833670439720153,-0.9253141665458676,0.1533316326141356,-0.3430853855609893,155.6496649169922,67.50661407470703,66.71284637451171,4.200599998189512,0.999920921225168,4.5577885712743536,0.9987114088444784,139.26894584655764,21.26402084350586,198.8672445678711
566.572,-0.3475013831257819,3.979273920059204,-0.4414915463328361,-0.7236203336715699,0.1945706266164779,0.6654913592338563,16.387587051391602,46.32112594604492,-132.13480041503908,3.2745134663581843,2.7500579956173903,2.112973849773407,-0.9225753903388976,0.1576271730661391,-0.3468752694129943,155.6759588623047,67.44006805419922,66.69021118164062,4.018742704829588,1.0021790584819703,4.769687192096194,0.9981553631965964,139.2883718109131,21.118942108154293,198.8250115966797
580.492,-0.0724091327190399,3.767745943069458,-0.5531617118418216,-0.7265688800811768,0.1952378910779952,0.6638135075569153,16.397347183227538,46.39721740722656,-132.11938232421875,2.6616195893287657,3.404274974018336,2.301269717216492,-0.9220718145370485,0.1602667707204818,-0.3505961525440215,155.69332458496098,67.358291015625,66.67063415527343,3.808824025006309,1.003328731986687,4.895829781395983,0.9994095912785144,139.29597740173344,20.961073608398436,198.79001647949218
602.109,0.1403902393579483,3.5483615493774416,-0.6907459378242493,-0.728591034412384,0.1947408264875411,0.6623726963996888,16.407166748046876,46.470560760498046,-132.1096649169922,2.1069604462385176,3.864531469345093,2.43412338256836,-0.9226639294624328,0.1608761060237883,-0.35426287651062,155.70435180664063,67.26612335205078,66.65490020751953,3.61769388630768,1.0037462198498943,5.029795467127683,1.001345112283479,139.29718505859375,20.795562591552738,198.7645651245117
624.668,0.2985264980792999,3.318405776023865,-0.8533809554576874,-0.7297304010391236,0.1937827062606811,0.6603003358840943,16.415145492553712,46.5410792541504,-132.10660400390626,1.7206328016519543,4.02124463558197,2.5140597534179685,-0.9223272204399108,0.1618134701251982,-0.3572775673866271,155.70795288085938,67.16963348388671,66.63765991210937,3.4393595362424545,1.0030227958601343,5.044946194071196,1.0022566342190389,139.29280738830568,20.628554229736316,198.74426391601563
646.467,0.3101022166013717,3.0102368915081024,-1.0396561074256898,-0.730409517288208,0.1928119862079619,0.6591059827804565,16.417202911376954,46.6069091796875,-132.1116522216797,1.371924745440483,4.016599264144896,2.5100534772872924,-0.9197693109512328,0.1636917543411254,-0.3603358042240142,155.70416564941405,67.07174224853516,66.61772094726561,3.1997772343469446,1.0025443738347166,4.931086656582227,1.001305381795558,139.2869627380371,20.46483306884766,198.7293731689453
668.749,0.1130472844839096,2.552407133579254,-1.1983567070961,-0.7305647468566895,0.1920852690935134,0.6579108500480653,16.40908706665039,46.66484924316406,-132.12508666992187,0.986343486905098,3.936757831573486,2.377016677856445,-0.9152142024040222,0.1647384464740752,-0.3636994397640227,155.6976208496094,66.97445495605469,66.60118591308593,2.821988777709376,1.0017326422571415,4.703312022970938,0.9985154352905048,139.288533782959,20.309605712890622,198.7262725830078
679.042,-0.3364525699615479,1.8866306364536285,-1.2790332841873169,-0.7303591799736023,0.1909494775533675,0.6560075473785401,16.386046905517578,46.71075714111328,-132.14646728515626,0.5209720224142075,3.811765413284301,2.075602517127991,-0.908673539161682,0.1644673371315001,-0.3668160581588744,155.69448486328128,66.87992126464843,66.5976776123047,2.304018583323092,1.0001160617484477,4.371394883004376,0.9936252443849032,139.3084379577637,20.169164123535154,198.74414489746096
701.797,-0.9414170199632644,1.0169077682495118,-1.268728852272034,-0.7293553638458252,0.1892369335889815,0.6543162631988525,16.345245666503907,46.74000686645508,-132.1751788330078,0.0115998905897139,3.769628810882568,1.633123145103455,-0.9018008995056151,0.1641022485494612,-0.3688769090175628,155.70075805664064,66.78820739746094,66.61623046874999,1.8788401515802853,0.997947712102867,4.108202421542812,0.988050901692052,139.35551239013674,20.048200531005854,198.7914093017578
724.508,-1.7110002782940863,0.0226924645900726,-1.1966713237762452,-0.727800853252411,0.187253502011299,0.655387146472931,16.283268241882325,46.74874114990234,-132.21096618652342,-0.416238324046135,3.848895578384399,1.1192023420333863,-0.8974716854095458,0.1632212334871291,-0.36998664021492,155.72330078125,66.69882049560547,66.66349792480469,2.088075467367021,0.9971410470802834,4.0298716354401085,0.9843712262710828,139.44003253936768,19.950079345703138,198.8744641113281
746.664,-2.583413026332855,-1.040412654876709,-1.115851767063141,-0.7267709517478942,0.1848790860176085,0.6580409526824951,16.197479820251466,46.73540237426758,-132.2543731689453,-0.5669091659784317,3.917146186828613,0.554018521308899,-0.8969042348861695,0.1599839890003203,-0.3706248986721038,155.77211181640627,66.61397674560547,66.74484527587892,3.000267741904348,0.997694436267203,3.996543102909013,0.9835623512563436,139.5746319961548,19.87857437133789,198.99921844482424
766.4830000000001,-3.398460170924664,-2.166463369131088,-1.1073914408683778,-0.728413016796112,0.1823257732391356,0.6636817049980164,16.086749153137205,46.69925598144531,-132.30819396972657,-0.0636974281072617,3.7973122215271,0.065541009902954,-0.89856107711792,0.1571691125631331,-0.3711749351024627,155.85244262695312,66.53690277099608,66.85198120117187,4.179642432847176,1.002148500060912,3.798411917378848,0.9848273816783918,139.76569347381593,19.837646789550767,199.16017517089844
788.948,-4.019303779006004,-3.529398963451385,-1.303919131755829,-0.7341600179672241,0.1802203822135924,0.6739970564842224,15.949275856018067,46.63669860839844,-132.38004333496093,1.176308016180992,3.750135021209717,-0.1863618755340576,-0.8998413515090942,0.1576799207925795,-0.3739434754848479,155.96671569824218,66.4623306274414,66.9715640258789,5.505603056278443,1.012789390888473,3.934710151318371,0.9871226560891784,140.01743984222412,19.825632019042963,199.35160736083984
799.391,-4.470992965698242,-5.419656459093093,-1.7157430624961854,-0.7470518374443055,0.1817374259233473,0.6884489107131959,15.783669395446775,46.539572143554686,-132.47802062988282,2.847698676586151,4.01035493850708,-0.1354810619354248,-0.8987947559356689,0.1618940657377242,-0.3812206578254699,156.11348571777344,66.37861267089843,67.09240234375001,7.2323045075837635,1.032025601655474,4.920435916012095,0.98963169501155,140.32981632232668,19.839040527343748,199.57042297363284
821.759,-4.770432605743408,-8.26127667427063,-2.245617940425873,-0.7674829435348511,0.1851292276382445,0.7069236087799072,15.587111206054686,46.39160934448242,-132.61116149902347,4.299781918525696,4.984112091064453,0.154810881614685,-0.8953303909301757,0.1699650675058364,-0.3939768719673155,156.28836547851563,66.26693145751953,67.21369140624999,9.80043465715426,1.0597376506443752,6.584334764594044,0.9928355396240586,140.70125427246094,19.875322113037114,199.82485290527347
847.268,-4.9381659221649175,-12.35754804611206,-2.683849267959595,-0.7920049548149108,0.1909082722663878,0.731744306087494,15.359372520446778,46.167773895263664,-132.78445739746093,4.776535491943359,6.972251749038696,0.7038647794723512,-0.8904739022254944,0.1851874417066573,-0.4111196088790892,156.47158081054687,66.1032177734375,67.33495574951172,13.575622390149418,1.095065087728841,8.480743563246644,0.9981269918780132,141.11220829010009,19.935443878173842,200.11941314697265
868.795,-5.017845249176025,-17.884918661117553,-2.936963692903519,-0.8186014795303345,0.1983740985393523,0.7613229465484619,15.100541648864745,45.83920318603516,-133.00124572753907,3.24602725982666,10.426482467651365,1.3335876560211184,-0.8867983722686767,0.2029669195413588,-0.4316432559490202,156.6429522705078,65.8588278198242,67.47782897949219,18.806244765845808,1.1353736363866238,11.00121291749555,1.006937348543967,141.54241062164306,20.019624633789043,200.47907470703126
878.852,-5.168666772842407,-24.80187950134277,-2.7094194316864018,-0.8432486581802369,0.2072969758510588,0.7963006567955018,14.814229660034178,45.37513061523437,-133.25563964843747,-0.6489985275268552,15.169856595993044,1.9191801118850709,-0.8883662891387939,0.219726738333702,-0.4522118473052977,156.7791680908203,65.51303131103516,67.66787322998047,25.479193406868514,1.1781914410369445,15.304541826973484,1.0207693461601737,141.9649384307861,20.137900695800795,200.92351287841794
909.066,-5.570553836822509,-32.94295364379882,-1.953118053674698,-0.8588610363006591,0.2130198037624358,0.8373247861862183,14.499895401000977,44.74594833374023,-133.5405841064453,-6.779153423309326,20.85117914199829,2.316893353462219,-0.8966997265815735,0.2343537878990172,-0.4691843831539153,156.85822509765623,65.05523651123048,67.92966156005859,33.46765505615842,1.218249774895208,22.04759822655948,1.0388099359120542,142.35832969665526,20.309288177490245,201.4702456665039
919.106,-6.157748212814331,-41.9649898147583,-0.781196138858795,-0.8621297383308411,0.2187648355960845,0.880604338645935,14.161530647277832,43.92936737060548,-133.84672119140623,-14.349303245544434,26.651860074996943,2.612664942741394,-0.9087173819541932,0.2448229098320006,-0.4803524780273436,156.85801574707028,64.48974258422852,68.27186645507813,42.421557027206745,1.2516348270361572,30.381740687341104,1.0566191558888665,142.69648509979245,20.56037521362304,202.11858764648434
942.307,-6.930021648406982,-51.58529468536377,0.4898734962940215,-0.8557912230491638,0.2233309489488601,0.9195808410644531,13.7995108795166,42.91321197509766,-134.1703369140625,-22.014068565368653,32.02281898498535,2.9554783010482786,-0.9201110744476318,0.2468398070335387,-0.4858746004104614,156.7748834228516,63.82918563842774,68.69252410888672,52.05101155468144,1.2758856741335365,38.97197714427455,1.0693962815446647,142.975372543335,20.915973663330078,202.8628610229492
964.472,-7.953141946792603,-61.63108299255371,1.8243520760536192,-0.8359236311912538,0.2249910974502562,0.9574197578430176,13.41245330810547,41.68685073852539,-134.50758300781249,-28.338670883178715,36.32405044555664,3.61279104232788,-0.9287576007843018,0.2434668534994123,-0.4849655961990356,156.6101525878906,63.0949481201172,69.16413970947266,62.16889188459351,1.2907524564470232,46.21221880966104,1.075666500019501,143.19769927978513,21.40809738159181,203.67172271728515
978.973,-9.26555830001831,-71.94103073120117,2.921793874502182,-0.8060352206230164,0.2235541796684264,0.9921280527114869,12.994243583679198,40.24602066040039,-134.86068054199217,-32.43234745025635,39.01074531555176,4.633123340606689,-0.932526729106903,0.2376077151298521,-0.4799539911746978,156.3721130371094,62.31553634643554,69.64742736816406,72.59407243517715,1.2976853706153524,50.94272512438128,1.07536940649833,143.37786945343018,22.069515686035153,204.50810791015624
1001.333,-10.83010711669922,-82.43918487548828,3.749629807472229,-0.7723871970176697,0.2222066426277159,1.021255395412445,12.541934928894042,38.59054031372071,-135.23008666992186,-33.762018318176274,39.81670639038085,6.219913530349731,-0.930381062030792,0.2269797766208647,-0.4732420396804809,156.07404846191406,61.52130813598633,70.09557342529297,83.2320259682966,1.299584686276244,52.57310446435224,1.068216629575361,143.53211353302,22.930767822265622,205.32566009521483
1024.372,-12.828535156249998,-93.142822265625,4.401582733392716,-0.7382851123809815,0.2182499223947524,1.0457169556617738,12.04880340576172,36.720216064453126,-135.61473693847657,-32.11364894866944,39.01993339538574,8.349003410339355,-0.9241226863861084,0.2138761091232299,-0.4661464190483093,155.7391748046875,60.73672088623048,70.4667724609375,94.12507946567617,1.2985460666249935,51.22057700694688,1.0569002855230625,143.69037139892578,24.016504821777353,206.08150939941407
1038.625,-15.152222747802734,-104.12237548828124,5.050111618041992,-0.7023673224449158,0.2109816062450408,1.0691380429267885,11.512513427734373,34.63092231750488,-136.00929748535154,-28.106218845844275,36.26827852249145,10.51711911201477,-0.9169693422317504,0.2012847298383712,-0.4604022204875946,155.38801025390626,59.9957438659668,70.73100830078124,105.3402228917157,1.2964911294125776,47.07395627320709,1.0456187267302277,143.87549682617188,25.36482154846192,206.74030578613278
1062.914,-17.7830362701416,-115.32417144775393,5.687077360153198,-0.6675054228305817,0.2024111884832381,1.087993521690369,10.932450866699218,32.32125587463379,-136.407138671875,-22.595447659492493,31.71834630966186,12.306000156402586,-0.911353635787964,0.1925476908683775,-0.4564252328872681,155.03688110351564,59.3321029663086,70.87246856689453,116.82569814897953,1.2923868159230196,40.84171136720259,1.0372868725376223,144.10443023681643,27.010847091674805,207.27960723876953
1083.827,-20.54266468048096,-126.6963934326172,6.3356644058227545,-0.6301213276386262,0.1922060310840606,1.098476209640503,10.312242431640623,29.7896736907959,-136.80054382324218,-16.630942311286926,25.80402705192565,13.174742212295532,-0.9086044621467588,0.1854076260328292,-0.4524195921421051,154.70394897460938,58.77747283935547,70.90175964355468,128.50726759397855,1.28087705462949,33.40673415074132,1.0318049930961564,144.39170654296876,28.987799148559567,207.70230346679688
1106.0700000000002,-22.921356048583984,-138.03575408935546,6.869417314529419,-0.5870570755004884,0.1788829547166823,1.1012571525573729,9.66307647705078,27.037663764953614,-137.1850695800781,-11.210003018379211,18.912439079284663,12.679431209564209,-0.9093713331222536,0.181878837943077,-0.4459569931030273,154.40169006347656,58.360896301269534,70.84702697753906,140.09442124640125,1.2607150500577555,25.3793714539544,1.0290353603708484,144.7386135864258,31.32323253631592,208.03209655761717
1129.454,-24.601587409973146,-148.9951937866211,7.17890645980835,-0.5357103776931762,0.1640703731775283,1.0956145858764648,9.001320457458496,24.07263282775879,-137.55846252441407,-7.152461972236634,11.496199979782102,10.217696771621704,-0.912650465965271,0.1802516919374465,-0.4384469854831695,154.15011901855468,58.10684173583984,70.7641387939453,151.1831424880499,1.230559229337636,16.96235990527974,1.0284246713066627,145.14879856109619,34.034208908081055,208.32260131835938
1139.469,-25.757920608520504,-159.15066314697265,7.214572067260742,-0.4776786386966705,0.1498206973075866,1.085135622024536,8.339243545532227,20.91032890319824,-137.91927185058594,-4.747342052459716,4.673216075897214,6.173640975952148,-0.9194173145294188,0.1796909809112548,-0.4262641155719756,153.9653240966797,58.01838562011719,70.71174682617189,161.38294242053496,1.195049137648914,9.08240320372488,1.029231821846612,145.62608055114748,37.10805671691895,208.63101867675783
1161.626,-26.085764923095702,-168.24045166015622,6.866076421737671,-0.417412496805191,0.1359657785296439,1.0652974176406862,7.693593215942381,17.57327832221985,-138.26930480957031,-3.690251145362854,-1.0314759349823022,0.7099735164642336,-0.9243299007415772,0.1741407606005667,-0.4118997764587401,153.87920959472655,58.08673583984376,70.7571029663086,170.38914200108383,1.1522059162546556,3.896916539314136,1.0268262734047264,146.18561637878418,40.51345751762391,209.0264077758789
1183.585,-25.26638008117676,-176.10042419433594,6.187170214653015,-0.3599251568317413,0.1243465939164161,1.0441649198532104,7.08781135559082,14.087557735443117,-138.61085632324222,-3.400417037010193,-5.201211910247805,-5.112001609802246,-0.9271197700500486,0.1643065977096556,-0.3969556987285614,153.91125366210937,58.28470367431642,70.93885650634766,178.0113210981162,1.1114353664478331,8.046614307863498,1.021822662119831,146.82344230651856,44.197145938873305,209.54971282958988
1206.304,-23.82742820739746,-182.7344018554688,5.280596904754638,-0.3039533990621565,0.1143023386597632,1.022679693698883,6.534683589935303,10.47856463432312,-138.94607482910158,-2.578405766487122,-7.630494260787967,-10.674825963973998,-0.9284382343292236,0.1534832707047461,-0.3854425466060638,154.0918426513672,58.5749592590332,71.27763061523437,184.3569707391753,1.0729988114292444,13.372528867858373,1.0169172169280845,147.5571590614319,48.09639462471008,210.22370544433596
1228.698,-21.617368974685668,-188.23755859375,4.119489235877991,-0.2532629318535327,0.1053870993852614,1.001049563884735,6.04959571838379,6.768493461608887,-139.2801708984375,-0.6523988676071166,-8.454550924301149,-14.795619525909425,-0.9287737584114074,0.1438567042350768,-0.3762257826328278,154.42533691406248,58.91447067260742,71.7503875732422,189.5195485913991,1.0379541332456383,17.053310903444196,1.012354327883629,148.3757411956787,52.14597721099854,211.03055847167968
1248.703,-18.363232640028,-192.72870971679689,2.6916559886932374,-0.2047399531304835,0.0975066491961478,0.973162853717804,5.653950099945069,2.9786065387725835,-139.62111816406252,2.5736895394325257,-7.953399257659913,-16.978834238052368,-0.9248421573638914,0.1370885935425757,-0.3724936819076537,154.9009100341797,59.25972442626953,72.3117462158203,193.6202697912969,0.9992356753546748,18.92514860391825,1.0064183233517257,149.24695993423464,56.28111788749695,211.93286437988283
1258.599,-14.444388296604156,-196.1593865966797,1.094139895439148,-0.1533172191679477,0.0906463113427161,0.9502010512351988,5.362277297973632,-0.8707884597778321,-139.97713806152345,6.788911018371581,-6.723822765350343,-16.85697512626648,-0.9265202140808104,0.1365837055444716,-0.3723743140697479,155.47670776367187,59.5778468322754,72.89040588378906,196.6935241571504,0.96674968902085,19.37670549404045,1.007847927764663,150.11443046569823,60.44863529205323,212.8675439453125
1285.967,-10.408544212579727,-198.42600036621096,-0.6319631862640381,-0.0975791834294795,0.0826049602031706,0.9211005115509032,5.17810697555542,-4.757719469070435,-140.35682861328124,11.94747557640076,-5.199595160484316,-15.094683904647828,-0.926483461856842,0.1410928586125373,-0.3770803952217101,156.12386840820312,59.84943252563477,73.43109252929688,198.6998107483386,0.9299308731665312,19.94059790133833,1.010182371805337,150.9457614326477,64.6071519947052,213.7879211425781
1308.871,-6.017136659622193,-199.32446044921875,-2.4200253438949586,-0.041247285157442,0.077102049589157,0.8858282160758971,5.112751140594482,-8.656527347564696,-140.7687243652344,17.098908634185793,-4.065332078933717,-11.586825666427613,-0.9219484829902648,0.1473336416482924,-0.3850813543796539,156.78117614746094,60.06632247924805,73.86342254638672,199.42994506747937,0.8901335253656693,21.05122633996477,1.009942501700105,151.66842500686647,68.72284982681275,214.6321469116211
1318.853,-1.80374433875084,-198.73062377929688,-4.139705486297608,0.0188614045083522,0.0720673546195029,0.8472025847434999,5.166532936096191,-12.536789464950562,-141.2188073730469,21.94626679420471,-3.5953318834304824,-6.9091471004486085,-0.9149148440361022,0.1552372726798056,-0.3962207722663878,157.39309814453125,60.23080276489257,74.13134552001952,198.7819194063215,0.850471443246596,23.2873646256948,1.009038494331134,152.22656520843506,72.76759222984313,215.35015289306642
1348.498,2.1387654304504395,-196.52213439941409,-5.604002652168274,0.077727701216936,0.0679230523109435,0.8094055485725404,5.337356739044189,-16.36840835571289,-141.70930847167966,26.485483360290527,-3.4046364974975605,-2.1608789730072013,-0.908541750907898,0.1614525759220122,-0.410434376001358,157.94654907226564,60.34694381713867,74.22736511230468,196.61365281229425,0.8159610766646406,26.79070317188975,1.0099363467161018,152.60919233322144,76.71535217285157,215.93667358398434
1358.664,5.871361058950424,-192.67146667480463,-6.6209814453125,0.1333126585185527,0.0647865712642668,0.763670907020569,5.6231450271606445,-20.121533851623536,-142.2377020263672,31.10037494659424,-3.183219685554506,1.9896557140350344,-0.8922238707542419,0.1644513642787932,-0.4298692142963409,158.46512634277343,60.41570693969727,74.17368011474609,192.8745819090844,0.777922116260415,31.32610635309853,1.0039398528580246,152.8419813156128,80.53724079132081,216.41138214111328
1378.5590000000002,9.395205543041229,-187.10772766113283,-6.994160370826721,0.1870409215986727,0.0648649722337721,0.7217909359931947,6.01964105606079,-23.76587787628174,-142.7962158203125,35.97405258178711,-2.4746415328979507,5.876793699264527,-0.8755165433883667,0.1668975687026976,-0.4517883396148681,158.96631713867183,60.42911041259765,73.98167907714844,187.4739713053561,0.7484476777018557,36.53481920110243,0.9992480773049028,152.94667608261105,84.19498828887939,216.77789489746095
1398.65,12.41341549038887,-179.85625366210937,-6.678395812511444,0.2384944312274455,0.0638745450973509,0.6807962632179261,6.511021900177002,-27.271822586059567,-143.37270629882812,41.1030908203125,0.2106311655044535,8.461934328079224,-0.8608928561210633,0.1701598519086837,-0.475427701473236,159.51799438476564,60.361860809326174,73.72351806640626,180.4077765400777,0.7241844400768274,41.9656141745056,0.9980593089841864,153.00697248458863,87.63368339538575,217.09622436523438
1422.314,15.175927224159238,-170.9008883666992,-5.605453119277954,0.2848086214065551,0.0649640330672262,0.6408118057250977,7.084948902130127,-30.60958847045898,-143.95089050292967,46.813085021972654,5.507922649383544,9.672407636642458,-0.8456458139419556,0.171630516052246,-0.5007502257823944,160.20439880371094,60.17561767578125,73.48270233154298,171.66491638163106,0.7042556686151148,48.118163001879154,0.9976595938991576,153.11944990158082,90.78520614624023,217.43359283447265
1438.618,17.322537879943845,-160.22237579345705,-3.994714167118072,0.3285400086641311,0.0671957555413245,0.5994643688201904,7.720436611175538,-33.748668975830086,-144.51541992187498,52.85192481994629,12.769378933906555,9.917156915664672,-0.8260068774223328,0.1735267955064773,-0.5258028757572174,161.07669006347655,59.84232025146484,73.30957702636718,161.20557609704088,0.6868852424828954,55.26963901475083,0.9944182090359666,153.35625345230102,93.59098922729493,217.82499694824216
1461.189,19.03253993988037,-147.88867767333983,-2.156338419914246,0.3697494971752166,0.0696876215934752,0.5611648297309875,8.39889413833618,-36.65865417480468,-145.0532647705078,58.58396438598633,22.21404722213745,9.83363121032715,-0.810747811794281,0.1761242604255675,-0.5487997353076934,162.14678100585937,59.32438552856445,73.22973419189454,149.1239362272648,0.6756308321795929,63.42117217417688,0.9947426395372134,153.7478868675232,95.98303970336913,218.28299896240236
1482.953,20.47875133514404,-134.07166198730468,-0.3977548480033874,0.4089012527465819,0.0716447192430495,0.5213297307491301,9.10497091293335,-39.31024879455567,-145.55449157714844,63.50408554077149,33.14111746788025,9.32041109085083,-0.7927514982223511,0.1752592921257018,-0.5702083945274353,163.4143225097656,58.597635192871095,73.26843414306641,135.62723920069985,0.6664217046706237,72.23553564757385,0.9921231630194608,154.30935159683227,97.90788398742677,218.82292572021487
1498.427,21.63334075927734,-118.9168295288086,1.2031095457077028,0.4484197580814361,0.076033055782318,0.4848925840854644,9.821558570861816,-41.67445442199707,-146.00784545898438,66.9292950439453,43.3796720123291,9.392618560791018,-0.7689640307426453,0.1698131069540977,-0.5884513401985169,164.8135870361328,57.672449645996096,73.38246826171874,120.87456825225772,0.6648173607168287,80.30907646340634,0.9830651817915282,154.99202846527098,99.34690406799317,219.39031372070312
1522.359,22.462203140258787,-102.60814102172851,2.517861421108246,0.490411581993103,0.0811624065041541,0.4502959322929382,10.528522720336912,-43.726287536621086,-146.4015380859375,67.30731979370117,50.70296730995178,9.391287422180175,-0.7405747270584107,0.1611625060439109,-0.6026648640632629,166.2522296142578,56.60666458129883,73.53267242431642,105.06817215496368,0.6707140095615194,84.78951864052299,0.9683125621866032,155.72370689392088,100.33295211791992,219.9342105102539
1543.6570000000002,23.34041328430176,-85.33159915924071,3.6261987495422368,0.5349003732204436,0.0863871932029723,0.4190202629566192,11.209336166381837,-45.44263916015625,-146.71901794433592,64.27358192443847,54.562569046020506,9.29078287124634,-0.7136326360702515,0.1479837551712989,-0.6137375354766845,167.6329150390625,55.463327636718745,73.68525329589843,88.54042028772238,0.6849519232684086,84.8203154949326,0.9528087392085413,156.42357887268068,100.90596679687499,220.40427124023435
1566.09,24.0223713684082,-67.15702697753906,4.6896905732154845,0.5823666000366211,0.0927560478448867,0.3906106495857238,11.840337600708008,-46.802200927734376,-146.93911071777342,57.65562772750855,54.01849037170409,8.594481887817384,-0.6806626152992249,0.1326589369773864,-0.6202490544319154,168.86994873046874,54.32963745117188,73.82262359619142,71.47820504388827,0.707340950899775,79.473478781358,0.930381039655063,157.02961112976072,101.13183837890625,220.76173431396484
1588.294,24.314409408569336,-48.120647239685056,5.7876441764831545,0.629136769771576,0.100340931713581,0.3688697111606597,12.39292049407959,-47.78657135009765,-147.03840820312502,46.82203113555908,48.88109638214111,6.305857181549074,-0.6540617418289185,0.1214465591311454,-0.6224423766136169,169.8930078125,53.30213470458985,73.95764404296875,54.22438584960934,0.7361699813681016,67.98108573694249,0.9110326783675112,157.5000873184204,101.08870605468749,220.99605224609377
1598.612,24.35700714111328,-28.3708504486084,6.735219707489014,0.6720400273799896,0.1071654683351515,0.3522441184520721,12.84780700683594,-48.38284225463868,-147.00133239746094,32.74238840103149,40.89488842010498,1.5101879692077644,-0.6448420453071594,0.1128469774127005,-0.6228408408164978,170.69253723144533,52.4459278869629,74.16152160644532,37.99384340334228,0.7662885585655491,52.40931753800251,0.9035963793066598,157.84473022460938,100.82877014160158,221.16285400390626
1620.9260000000002,24.04386177062988,-8.184799690246582,7.373241500854493,0.7076708388328552,0.1133842971920966,0.3430863499641418,13.192482376098631,-48.58291534423829,-146.8224835205078,17.261895141601563,32.38922306060791,-4.336359767913818,-0.6518620800971985,0.1067770531773566,-0.6219604969024658,171.2705010986328,51.77504928588867,74.47545257568359,26.44736140042217,0.794583072130196,36.95725653219195,0.9072818582232584,158.07801872253415,100.35796463012696,221.2979360961914
1643.319,23.291292800903324,11.9560457611084,7.5916801548004145,0.732861511707306,0.1202245274186133,0.344407113790512,13.422820968627928,-48.38828384399415,-146.50778259277345,1.4763362693786626,24.14806726932526,-10.352198543548582,-0.6694786477088928,0.1053122833371161,-0.6194625067710876,171.6323095703125,51.29095321655274,74.9157113647461,27.25921785656954,0.8186306812992397,26.314952713413533,0.9181645462851006,158.20948860168457,99.67923706054688,221.42349395751955
1666.013,22.08665634155273,31.43368488311768,7.288541450500489,0.744000723361969,0.1279988661408423,0.3569302070140838,13.544619903564453,-47.81320297241211,-146.07503295898437,-13.609106903076173,16.663386201858522,-15.856501750946045,-0.7011405944824218,0.1055558797717093,-0.6168112516403198,171.78981689453124,50.98182495117187,75.47920867919922,39.1026823908112,0.835056859606333,26.72648271264664,0.9397852399009262,158.2451969909668,98.79502792358397,221.55424163818358
1688.312,20.758310623168946,49.594757537841794,6.396233344078064,0.741269497871399,0.1350397565960883,0.3737282454967498,13.578714027404786,-46.88268524169922,-145.55229919433594,-26.90732900619508,10.328718256950378,-19.11993984222412,-0.7369901442527771,0.102366383075714,-0.6139568948745728,171.73714172363282,50.820010375976565,76.11323699951171,54.1429518603962,0.8410642102825002,34.58697550595247,0.9646638885507016,158.15842769622805,97.70269561767579,221.66553619384766
1698.421,19.44966506958008,66.01095531463622,5.06908754825592,0.7270082950592041,0.1414190584421156,0.3977593827247619,13.55050121307373,-45.63164031982421,-144.96875427246093,-38.0896409225464,4.812143688201902,-19.17944721221924,-0.7648783016204834,0.0984470835328101,-0.6104444932937623,171.4451330566406,50.77954513549805,76.72498565673828,69.00312559182828,0.8406859923426397,42.91653140516748,0.983551281804172,157.89463184356686,96.41118545532225,221.6937399291992
1723.418,17.95587242126465,80.52742332458497,3.5952732992172245,0.7034095644950866,0.1476819601655005,0.4273898530006408,13.476771202087402,-44.09892868041992,-144.34732727050783,-46.94026521682739,0.2186295604705794,-17.095133666992187,-0.7855963397026062,0.0957747012376784,-0.6074958467483521,170.91401489257814,50.83450225830078,77.25361328125,82.58332308524348,0.8362159190241485,49.95678024656049,0.9976901353465396,157.43724369049073,94.9334309387207,221.60094055175784
1745.762,15.867283525466917,93.21579498291015,2.179560492038727,0.6725023365020751,0.1541814303398131,0.4605123901367188,13.36259605407715,-42.32120559692383,-143.70555419921874,-53.60079025268554,-4.505400133132936,-13.694294180870054,-0.8058915734291077,0.093887666761875,-0.6039706301689148,170.15449951171874,50.98176956176759,77.65550354003906,94.58174033454844,0.8295197210023487,55.50564871420057,1.0114626262006263,156.79190345764158,93.30297515869142,221.3610577392578
1768.037,13.101403217315674,104.31957916259763,0.8816029930114746,0.6362669718265533,0.1576220601797103,0.4900823354721069,13.205438766479492,-40.32772979736328,-143.05570068359376,-58.55450393676758,-9.510009355545046,-9.538585729598998,-0.8181232905387879,0.0930149522423743,-0.5977862048149108,169.17642700195313,51.22047119140625,77.89929321289063,105.14275337255276,0.8184504070708396,60.083731799418,1.0175096296987465,155.97098823547364,91.54820098876954,220.95499389648438
1778.264,9.774714632034303,114.27771545410155,-0.1686890530586242,0.5964414298534393,0.1596215212345122,0.520866105556488,13.00123680114746,-38.14145439147949,-142.40408264160158,-61.24895233154297,-14.191223001480102,-5.381047787666319,-0.8244213819503784,0.0979015514254569,-0.5905988669395448,168.0159930419922,51.53848739624024,77.97627014160156,114.6951165113098,0.8077889013872483,63.101352182679165,1.0188534489408951,155.01475624084475,89.67994178771974,220.38035278320314
1808.138,5.803646659851074,123.34800170898436,-0.9374480962753295,0.5525507366657257,0.1637025642395018,0.5539104259014129,12.741051750183104,-35.772984619140615,-141.75350830078125,-61.4295132446289,-18.921498041152955,-2.2266231489181503,-0.8255164194107056,0.1086506688594817,-0.5803791308403015,166.73615051269533,51.9362353515625,77.9060302734375,123.48801824098248,0.7993294727774707,64.31614133513212,1.0149493889230283,153.9950987625122,87.70921997070312,219.65953857421874
1818.425,1.4527691173553463,131.41326324462892,-1.588630692958832,0.5042209589481353,0.1665420901775359,0.5909098541736603,12.42109233856201,-33.23462829589844,-141.1101739501953,-59.94833984375,-25.91837110519409,0.2413437938690199,-0.8256093454360961,0.1237343880534171,-0.5649168980121613,165.35876037597657,52.45761154174805,77.67800231933593,131.4308945499082,0.7944491796224703,65.31174211116362,1.0080040137410442,152.93766803741457,85.6922398376465,218.78817626953122
1847.983,-2.829695587158203,138.38387145996094,-2.1820752382278443,0.4520739537477493,0.1657579439878463,0.625256108045578,12.045807914733889,-30.54376220703125,-140.4808874511719,-57.02192687988281,-33.077008557319644,1.819100108146669,-0.8172253751754759,0.1381859922409056,-0.5457610547542572,163.92263793945312,53.10475006103516,77.30663513183595,138.42999859029206,0.7891715632867822,65.9461732430257,0.9923748340061734,151.87683002471923,83.64851226806641,217.78752258300784
1858.53,-6.170125875473023,144.01046325683592,-2.799548389911652,0.3965010488033295,0.1646244245767592,0.6674609732627867,11.63849365234375,-27.72440326690674,-139.87492492675784,-51.9979946899414,-38.36897322654725,2.758014020919801,-0.8066320514678955,0.151776398718357,-0.5305408823490143,162.4936181640625,53.840306243896485,76.82324798583986,144.1697660813637,0.793611009058138,64.68057049512059,0.9773254163823276,150.85512451171874,81.56470951080323,216.6981729125977
1880.738,-8.688871746063231,147.92012939453124,-3.3468559217453007,0.3391095376014709,0.1621576052904128,0.7195989918708801,11.216189804077148,-24.80622619628906,-139.29835327148436,-45.24968433380127,-42.35490998744965,3.463357815742495,-0.8008991408348084,0.1609175285696982,-0.5137887942790985,161.11891662597654,54.63942749023438,76.24595153808593,148.2128962569564,0.8118577933033541,62.07630127281656,0.9650454962941818,149.9027268218994,79.44565368652344,215.5443048095703
1907.97,-10.335573720932008,149.8970849609375,-3.7792565274238585,0.2810567086935043,0.1533183622360228,0.7733497500419617,10.794315032958984,-21.82990806579589,-138.75538818359377,-38.07760593414307,-45.312530059814456,4.349419927597047,-0.8026607966423034,0.1671175086498259,-0.4979177725315094,159.80704284667968,55.481474609375006,75.57897979736327,150.30050879430652,0.8370001371507213,59.34683570169563,0.9592261070084164,149.0127278137207,77.3113826751709,214.33436798095704
1918.199,-10.719585456848144,150.1047296142578,-4.107433786392211,0.222183694411069,0.1435850179195403,0.823137412071228,10.39722568511963,-18.83316514968872,-138.24905883789063,-30.54905212402344,-45.0959326171875,5.6027085924148565,-0.8050467896461487,0.1702888453006744,-0.4854459631443023,158.57825927734376,56.3004948425293,74.84330078125001,150.54305157411187,0.8646024812504443,54.75653447636853,0.9553828591127784,148.18103359222414,75.13365999221801,213.09235961914064
1940.705,-9.679662189483642,148.73020141601563,-4.490851526260376,0.163213709630072,0.1354528898000716,0.8766325640678406,10.051709938049315,-15.848877353668213,-137.78273315429686,-22.807977204322817,-42.87810363769532,7.671396145820618,-0.809613835811615,0.1777393072843551,-0.4776913499832153,157.42758911132813,57.05011688232422,74.03393585205079,149.1124958572621,0.9019261903008232,49.16895275012436,0.9566895266178604,147.3758791732788,72.89899423599243,211.81666900634764
1963.39,-7.862507877349853,146.1177233886719,-4.897730350494385,0.1058101110719143,0.1263395458459853,0.9240793704986572,9.769387092590332,-12.905565237998962,-137.35614074707033,-15.990471448898314,-40.73991973876954,9.835471119880676,-0.8246350193023682,0.1905222290754317,-0.4664565682411193,156.33122009277344,57.73417404174804,73.14956909179686,146.41105108903486,0.9386586937917398,44.85724835106833,0.9663867574045965,146.5618330001831,70.639739279747,210.50570983886718
1985.648,-5.189801292419434,142.56130615234378,-5.567231302261352,0.0520435411483049,0.1188907787203788,0.9626105189323424,9.56443546295166,-10.024385690689089,-136.9725946044922,-11.57049777507782,-38.98015335083008,10.960540013313295,-0.8340891146659851,0.2070957946777343,-0.4598317635059356,155.26711486816407,58.36455764770508,72.22282958984376,142.76433067713364,0.9713200083387488,42.11249471832264,0.9746992203272083,145.70267940521242,68.38894333839417,209.19542419433594
2008.559,-1.9306368446350093,138.53946533203126,-6.595671730041505,0.0022210895456373,0.1176951771974562,0.9896687150001526,9.449095573425293,-7.217320981025696,-136.63563537597656,-8.848101463317871,-36.391443786621096,11.734090719223024,-0.8439246201515196,0.2227156907320022,-0.4564667928218841,154.22805297851565,58.92822463989258,71.28015258789063,138.7098183211319,0.9966449986953048,39.24684656615008,0.9849735916994,144.77895740509035,66.14554562091828,207.9157879638672
2018.089,1.53340633392334,134.43768127441408,-7.8232051944732675,-0.0431347434967755,0.1184756711125372,1.009725270271301,9.424504623413084,-4.489023723602294,-136.34370239257814,-7.910971417427064,-32.87010564804078,11.209582071304322,-0.8568039202690125,0.2379903602600097,-0.4544960641860961,153.24145019531252,59.42209823608399,70.38897827148438,134.6738431208551,1.0175668096820725,35.61856319805752,0.9986586212143216,143.81694557189945,63.911121959686284,206.7326806640625
2040.507,5.109427165985108,130.38951599121094,-9.124374418258666,-0.082838687095791,0.1180110150575637,1.0200593161582947,9.48809352874756,-1.839857974052429,-136.09296875,-9.061152496337892,-28.74222789764405,9.067447223663333,-0.8719815516471863,0.2460573476552963,-0.4525176334381102,152.339697265625,59.85429000854492,69.62806396484375,130.80820438684776,1.0301989401256433,31.471236839945107,1.012752809584166,142.85160373687745,61.69414798259735,205.72103271484377
2063.598,8.680756607055665,126.72961517333984,-10.290730104446412,-0.1167492165789007,0.1234638908505439,1.021021077632904,9.636704177856446,0.741763439178467,-135.87467346191406,-11.598695063591004,-24.194547843933112,6.365208053588868,-0.8835361814498901,0.2486591958999633,-0.4521187686920165,151.52869750976564,60.22441268920899,69.02988983154297,127.4427323284318,1.035064129842397,27.57574561305662,1.0231710319591023,141.8919933319092,59.48264925003052,204.90456329345704
2086.372,11.633754711151123,123.86050018310549,-11.297534408569335,-0.149671425949782,0.1331803560256957,1.0112144255638122,9.858001518249512,3.269362063407898,-135.6786639404297,-13.846699399948122,-18.5487108707428,3.982693405151368,-0.9006172394752504,0.2473131299018859,-0.4489049208164214,150.83044311523437,60.516517944335945,68.60767547607422,124.91758098042529,1.0308700972699338,23.48717960927561,1.036238787246977,140.97244159698485,57.24715588092805,204.2863394165039
2107.887,14.000735225677492,121.63824188232422,-12.083132667541504,-0.1820488536357878,0.1390325948595999,1.0052200102806093,10.135277633666991,5.754522066116333,-135.49533447265625,-15.836136536598207,-13.293755607604982,0.843449783325196,-0.91165878534317,0.2450378435850143,-0.4420142078399657,150.27064208984376,60.74758941650392,68.38399169921875,123.03611083801272,1.0309893872451097,20.69344258690421,1.042373179631254,140.13536445617677,54.99306735038759,203.879326171875
2117.961,15.784526538848876,119.86170532226564,-12.712796173095702,-0.2144172874093055,0.1461298549175261,0.9925223040580752,10.456804542541503,8.205631260871886,-135.31753967285155,-16.935013942718506,-9.848561582565308,-1.756356582641601,-0.9151483130455016,0.2383522725105284,-0.4341409587860108,149.82763549804687,60.94587020874023,68.31144653320311,121.5631312008536,1.025879735490926,19.66910396868754,1.0405703305286949,139.37083095550537,52.74023894786835,203.62898620605466
2140.836,16.94866760253906,118.6855599975586,-13.160904579162596,-0.2520373013615608,0.160101125538349,0.9687602972984314,10.81319553375244,10.632011394500733,-135.13738525390627,-16.561098117828372,-7.055018520355224,-3.2410478782653795,-0.9115364980697632,0.2305361557006835,-0.4276428890228271,149.49003112792968,61.11139541625977,68.34256958007813,120.60982088858796,1.013731564714254,18.29064374318472,1.032920203563822,138.67683559417725,50.47938402175903,203.4799548339844
2163.845,17.304246788024905,117.96598419189452,-13.41548889160156,-0.2917877104878424,0.1727671736478804,0.9509717798233032,11.190759963989258,13.036805267333984,-134.94754943847656,-14.522947301864622,-4.49639485359192,-3.989000681638717,-0.9030510306358336,0.220053794980049,-0.4234875237941741,149.26982177734376,61.24020690917969,68.45186309814453,119.98077231566675,1.0096216570093546,15.717687216962265,1.021404190037854,138.0790618133545,48.20340164184571,203.39941253662107
2186.2050000000004,16.67954698562622,117.29780334472656,-13.18919059753418,-0.3305747908353805,0.1791828906536101,0.9440934586524964,11.569358253479004,15.41712968826294,-134.73798828125,-12.001589136123656,-2.6277713584899915,-4.958149144649505,-0.8899032473564148,0.2140832728147506,-0.4182720756530761,149.16748474121096,61.34559371948243,68.63075225830077,119.20963344361874,1.0162178207989032,13.24864397006012,1.006335414573938,137.59812648773195,45.92846403121949,203.3687405395508
2205.328,15.383935947418212,116.48798614501956,-12.49941677093506,-0.3716346949338913,0.1900356811285018,0.9265493774414064,11.9428466796875,17.770484962463378,-134.49865783691408,-9.177464113235471,-1.10540605813265,-5.5057377779483785,-0.878627700805664,0.208905010819435,-0.4172456538677215,149.1715515136719,61.42808212280274,68.86039520263672,118.16239596830316,1.0162281512621256,10.759224813275782,0.994847664640179,137.22870483398438,43.657597160339364,203.35905303955082
2228.598,13.740978336334228,115.65665954589844,-11.43961280822754,-0.4137728178501129,0.2023767924308776,0.9092248940467836,12.30847858428955,20.09550693511963,-134.22112670898437,-6.484613037109375,0.8670399230718597,-6.124536032676696,-0.8705226278305054,0.2028701126575469,-0.4188648056983947,149.29279724121093,61.48068664550782,69.15712677001952,117.03051791800988,1.0192419824853265,8.961691028193536,0.9871239302272884,136.98431865692137,41.385179710388186,203.3782534790039
2238.702,11.568147430419922,114.85179779052734,-9.863184309005735,-0.4478148543834687,0.2103531754016875,0.9054801964759828,12.661327667236328,22.392942543029783,-133.89342895507812,-4.159642076492309,1.6530989947915065,-7.194665426015854,-0.8720791411399842,0.2022106492519378,-0.417553277015686,149.51114135742188,61.5307861328125,69.50821960449218,115.85352776416232,1.031833798834989,8.473403630384537,0.9878066178300696,136.84981369018556,39.13784358978272,203.4016485595703
2260.23,8.787904052734374,113.77703186035156,-8.03400327205658,-0.4780005574226379,0.2150338923931121,0.9058103990554812,12.991752967834472,24.654292373657228,-133.51172546386718,-2.7148434448242185,0.9805628478527056,-9.279638285636905,-0.8788765335083009,0.2109633857011794,-0.4119681549072265,149.80203430175783,61.61433181762696,69.90970367431639,114.39836294793268,1.0465259608873232,9.718207918168464,0.9933011989903852,136.81028133392334,36.960039443969734,203.42142913818356
2288.463,6.345781583786011,112.38158355712892,-6.313622372150421,-0.5084770262241364,0.2248098450899123,0.8919065165519715,13.312540245056152,26.876371841430664,-133.07746276855468,-1.4949095153808591,-1.5843767586350457,-11.43309497475624,-0.884781813621521,0.2133444947004317,-0.4096536207199096,150.13759399414062,61.76412414550781,70.33359008789063,112.73753187902946,1.0509926673935284,11.63875701586194,0.9980835737067822,136.82505374908447,34.88775230407714,203.4110528564453
2298.6270000000004,4.578803734779358,110.89420379638672,-4.68221637248993,-0.5384430408477784,0.2347225272655486,0.8825388216972352,13.639998817443848,29.057351303100585,-132.59056396484374,0.3304972076416016,-5.194709349870683,-13.094598271846772,-0.8895808696746826,0.2118959647417067,-0.4063327872753143,150.49915771484376,61.99379043579101,70.74469940185547,111.08741166052522,1.0601369462697132,14.09122909951241,1.0006799476255677,136.8591588973999,32.936439132690424,203.33526336669922
2318.5750000000003,3.086241798400879,109.12969818115236,-2.96412770986557,-0.56495183467865,0.2412811720371245,0.8858057594299316,13.98214252471924,31.18982955932617,-132.0489422607422,2.831878032684326,-9.870683306157591,-14.359019049406053,-0.8968639636039735,0.2157806468009948,-0.4009679210186004,150.86129882812503,62.31735626220704,71.10159545898438,109.2135612761895,1.0779791384463888,17.65308330529441,1.005833748902503,136.87915630340578,31.12752670288087,203.15053771972657
2340.286,1.8175799131393435,106.43589813232424,-1.4691862487792968,-0.5964186692237854,0.246545454263687,0.8929710364341737,14.340374603271483,33.254375,-131.46136352539062,5.7452443504333495,-14.554622846245769,-15.324088802337648,-0.900301697254181,0.2195700204372405,-0.3974137270450592,151.22280700683592,62.72959762573241,71.39497192382812,106.46155416960974,1.101770013172931,21.9014286398074,1.008311365797993,136.88243240356445,29.475222625732407,202.85633544921876
2362.677,1.2649510192871092,102.61568603515624,-0.0587766957283021,-0.6342186498641968,0.2552031552791594,0.8953503537178038,14.72879051208496,35.23248863220215,-130.83394958496095,9.038744077682496,-18.183069832623005,-15.201098747253416,-0.8985334587097169,0.2157118380069732,-0.3987235403060912,151.58617797851562,63.19920883178711,71.6175750732422,102.62349914248158,1.126505305004197,25.36525825146739,1.0064166309592744,136.85738746643065,27.966720199584962,202.45152465820314
2378.461,0.941022629737854,97.62607940673828,1.3729979133605956,-0.6763795375823975,0.262906881570816,0.9098293089866636,15.146219062805176,37.10055801391602,-130.17382598876952,12.692274446487426,-19.44462715148926,-14.053137989044192,-0.8995237898826598,0.2176147496700286,-0.4015017676353453,151.9624688720703,63.67322647094727,71.77481506347655,97.6402684715202,1.1637863544176048,27.14181355444968,1.0088126175128458,136.81624980926512,26.57266845703125,201.94864105224607
2400.118,0.2667549514770508,91.04511123657228,2.665134871006012,-0.7176041913032531,0.2663294732570647,0.9331123304367064,15.57151191711426,38.82618850708008,-129.49862884521485,15.476972856521607,-18.909014234542845,-12.5428928232193,-0.9037335801124572,0.2270440626144408,-0.4061487400531768,152.34594177246095,64.11522994995117,71.88049530029298,91.08450132796804,1.206890958170788,27.466555453831788,1.0164842297045893,136.77442985534668,25.28904144287109,201.37912414550783
2422.792,-0.703090271949768,82.6000326538086,3.567941040992737,-0.7585781502723694,0.2705459988117217,0.954762818813324,15.980825042724607,40.37493225097656,-128.83444946289063,17.260160274505616,-16.503317584991457,-10.521960287094116,-0.9077765583992004,0.2396747702360152,-0.412971179485321,152.7286114501953,64.48654495239259,71.94707489013672,82.68004555884544,1.249082858633504,26.09567535619448,1.025693653364532,136.7477864074707,24.11161270141603,200.78152435302735
2438.505,-1.936440839767456,72.43415695190431,4.093864657878876,-0.7938039636611939,0.2762399077415466,0.9743246054649352,16.348591194152835,41.715390625,-128.20900390625,18.047592630386355,-12.383645830154418,-7.842977004051209,-0.9124732995033265,0.2535460489988326,-0.4214168953895568,153.09648010253906,64.75101104736328,71.97988861083985,72.57559248325883,1.2867562535957158,23.250431653738232,1.0365738376927995,136.74788890838622,23.03562042236328,200.18889251708984
2460.019,-3.359178576469421,60.72068095207216,4.145593838691712,-0.8208357620239257,0.2795753753185271,0.9946297955513,16.646540260314943,42.82023468017578,-127.6537826538086,17.656219425201414,-7.291207885742189,-4.930598812103272,-0.9186716198921204,0.2688975948095321,-0.4290568161010742,153.43113769531251,64.89086059570312,71.98334991455077,60.95466449967015,1.319553776433653,19.72852253641623,1.04897722240874,136.78459743499758,22.070625915527337,199.6371325683594
2482.514,-4.833822793960572,47.3986989402771,3.881121883392334,-0.8370621728897095,0.2805592274665832,1.0140615892410278,16.8511808013916,43.66010528564453,-127.19740722656252,15.747074813842776,-1.9430667018890388,-2.1094806051254267,-0.9204312086105346,0.2812790602445602,-0.4361776995658874,153.710400390625,64.90336608886719,71.96556457519532,47.802359890576376,1.3445101220048614,16.00611701269711,1.0566752126906838,136.85921958923342,21.243260803222654,199.16297180175783
2502.683,-6.397005672454834,32.62059632301331,3.470319223403931,-0.8453622937202454,0.2827072381973267,1.0317284774780275,16.944621887207035,44.209281005859374,-126.86102539062502,12.46253122329712,3.703778991699218,0.4429528236389163,-0.9178078794479372,0.2885222077369689,-0.4427757561206817,153.92587829589843,64.78702911376953,71.94651275634764,33.42256874560565,1.363460465657968,13.008799733833165,1.0590876914318168,136.9812564086914,20.57774810791016,198.80753814697266
2524.9990000000003,-8.052322320938112,16.46885692596436,3.137550048828125,-0.8489594316482544,0.2834520816802978,1.0503070664405822,16.913613739013673,44.44302795410157,-126.65817474365237,7.445728797912598,9.79505778312683,2.3171342420578007,-0.9097384381294252,0.2884045565128326,-0.4490291702747344,154.08223999023437,64.5411946105957,71.96863159179688,18.59858498695704,1.3799355539330245,12.520029768438064,1.0547172179239068,137.1686262512207,20.09816665649413,198.62680633544926
2548.505,-9.897023258209227,-0.8595298099517749,3.0775365352630617,-0.8502278184890747,0.2802228426933288,1.067839651107788,16.75042697906494,44.34037033081055,-126.59235168457032,1.093485012054444,16.29453481674194,3.3725403404235847,-0.8981662321090699,0.2814998167753219,-0.4558389925956725,154.19511901855466,64.16706588745117,72.07868469238281,10.400052499560235,1.3934466998697237,16.675778923738086,1.0458173428071371,137.44469203948972,19.826695556640622,198.6710363769531
2558.674,-12.314189548492433,-19.27009632110595,3.395413112640381,-0.8505116724967957,0.274609231352806,1.087430865764618,16.447365875244138,43.88069107055664,-126.65819915771483,-5.507539100646972,23.19283326148987,4.039207730293275,-0.8841082072257995,0.2723941761255263,-0.4646554374694823,154.28085571289063,63.66099670410156,72.30089019775392,23.11935783421312,1.4075816931230185,24.177586743281207,1.0352538745839484,137.83348983764648,19.78030563354492,198.95908935546873
2580.991,-15.240512886047364,-38.59386412620544,3.785769958496094,-0.8500650906562806,0.2654774367809295,1.107799243927002,15.99840980529785,43.04832550048828,-126.85183380126956,-11.71603422164917,30.27808115005493,4.536526861190796,-0.8738322091102599,0.2615404993295669,-0.4738180160522461,154.35466552734374,63.02359558105469,72.64509857177734,41.66643295748311,1.4213754228343334,32.78121004439086,1.027856835752802,138.3562557220459,19.97527008056641,199.4969323730469
2602.685,-18.54621730804444,-58.4758159828186,4.202271881103515,-0.8448398065567015,0.2531161892414093,1.1287428331375122,15.406330032348633,41.83292587280273,-127.1625030517578,-16.626870574951173,37.2656175994873,5.101330633163453,-0.8686882090568544,0.2503249710798262,-0.4819049060344696,154.4341516113281,62.25925750732422,73.10417266845704,61.49018068160463,1.4324393485792533,41.12423439307104,1.0244579709097938,139.02782157897948,20.42633163452149,200.26667572021483
2622.7070000000003,-22.140873527526857,-78.34401143074035,4.443156690597535,-0.8314982223510743,0.2366644793748855,1.144748091697693,14.679497032165528,40.235712661743165,-127.57581787109376,-19.539842624664303,42.83682952880859,5.904627256393433,-0.8719057035446166,0.2402961462736129,-0.4877012848854065,154.5200701904297,61.395706787109376,73.63686340332032,81.53369885513054,1.4345199765134995,47.45170214980491,1.027528265823602,139.84057315826416,21.15999412536621,201.21268127441408
2645.039,-25.54824554443359,-97.8115476989746,4.399314131736755,-0.8080731010437011,0.2203363627195357,1.1581187868118286,13.839164047241212,38.2640795135498,-128.07433990478518,-20.61829204559326,45.99492340087891,6.843991889953614,-0.8802797865867614,0.2323730140924453,-0.4878122007846832,154.59697875976565,60.47955978393554,74.187314453125,101.1887626097738,1.429254831628482,50.86734876637315,1.0328845354569107,140.75781471252444,22.21548027038574,202.26165435791017
2667.376,-28.302645339965817,-116.46788452148436,3.8755860137939457,-0.772303307056427,0.20368317425251,1.1672187089920043,12.91467227935791,35.933571395874026,-128.64282684326173,-20.616032371521,46.10947067260742,7.404851999282838,-0.893944194316864,0.222741994857788,-0.4804896736145019,154.64965759277342,59.5744775390625,74.71588928222656,119.92009016465931,1.4143333228715336,51.048368334188005,1.0390479032634754,141.7349853134155,23.640906143188474,203.3587161254883
2677.4170000000004,-30.41578468322753,-133.9289892578125,3.062602953910828,-0.7254963636398315,0.1883695757389067,1.1731850910186767,11.939569664001466,33.26598937988281,-129.259680480957,-19.487339134216302,42.87943828582764,7.54621958732605,-0.9078320622444151,0.213011370897293,-0.4662935173511505,154.66359680175782,58.74732727050781,75.18088012695313,137.3734823696663,1.3921894010899434,47.70060842693941,1.0425749573504055,142.72402713775637,25.481337890625,204.44056060791013
2703.249,-31.635970230102544,-150.08112731933593,1.8162192058563231,-0.6747453820705414,0.1732821470499038,1.1729285717010498,10.947908840179444,30.28893020629883,-129.9096466064453,-17.70406875014305,36.07177356719971,7.225372343063356,-0.920860948562622,0.2028161031007766,-0.4478104805946349,154.61776611328122,58.06463180541992,75.5429965209961,153.38995417577507,1.3642101991351665,40.82662004243095,1.0438646870140953,143.66985727310177,27.775701599121092,205.4526431274414
2724.98,-31.75739166259765,-164.93198852539064,0.2677616548538209,-0.6228911566734314,0.1615247833728789,1.1643820762634278,9.976754531860353,27.030436592102053,-130.57900878906247,-15.323877120018006,27.34321418762208,6.6989658832550045,-0.928900547027588,0.1907593286037444,-0.4299407255649566,154.51142578125,57.5600373840332,75.78621459960937,167.96179464525565,1.330364336649608,32.05228097974624,1.0411985282436893,144.53467124938965,30.52960079193115,206.36522338867184
2747.402,-30.87927383422852,-178.45939086914063,-1.6066862773895263,-0.5698087322711944,0.1494159021973609,1.1508937549591065,9.054829120635988,23.518388481140136,-131.26098754882813,-11.91923709511757,17.76250953674316,5.848169498443604,-0.9350556898117066,0.1786343848705291,-0.4157512366771697,154.3696954345703,57.24778884887695,75.91396881103516,181.11837339902303,1.292889607973484,22.17602409033334,1.038791835405879,145.31486631393432,33.729400367736815,207.1749563598633
2767.347,-29.18087268829346,-190.58695922851564,-3.605472092628479,-0.5158524996042251,0.1365926367044448,1.1348911237716677,8.205638389587403,19.78049537658692,-131.94937683105468,-7.451553933620453,8.887358360290527,4.45976363182068,-0.9438642358779908,0.1705337572097777,-0.4063428473472594,154.23811828613282,57.11160720825196,75.95555358886718,192.84167544343984,1.2540889970674003,12.425791174069792,1.0416697978284215,146.03247989654542,37.33111183166504,207.90493041992187
2777.5460000000003,-26.70869842529297,-201.12713806152345,-5.687837553024292,-0.4602294576168059,0.1244108486175536,1.1066212821006776,7.449518947601318,15.846004199981689,-132.64178649902342,-2.5689549243450163,1.7019311141967772,2.194037284851075,-0.9515479803085328,0.1634656792879103,-0.4034311270713805,154.1761767578125,57.12331787109376,75.96956024169921,202.9724900877505,1.204948079757027,3.782842651777136,1.0463848533997375,146.72665781021118,41.27731367111207,208.61134674072264
2801.619,-23.48270309448242,-209.87958740234376,-7.6211173582077025,-0.3979943516850471,0.1131225192546843,1.0705608963966369,6.805916500091553,11.748209114074708,-133.33465942382813,2.510672957897186,-2.8759378051757816,-1.044266271591186,-0.955896294116974,0.1563566839694975,-0.4048588967323303,154.25242248535156,57.24492050170899,76.03092224121093,211.32666652031693,1.1477355275625558,3.9579020966590943,1.0498075366427035,147.44650598526002,45.49671138763428,209.36558166503906
2817.344,-19.7589844417572,-216.63617248535155,-9.39497670173645,-0.3291308307647704,0.1019788509607313,1.0340264177322387,6.286142616271972,7.519653797149658,-134.0284002685547,7.77814848780632,-5.69858684539795,-5.318838329315184,-0.9621031212806702,0.1531383222341536,-0.4050298857688904,154.51971923828123,57.45128738403321,76.19772796630859,217.73817828414647,1.0899254205547029,11.011971989898022,1.0550559085094309,148.23357662200925,49.93163358688355,210.22612823486327
2841.046,-15.603490715026854,-221.4337182617188,-11.046746730804443,-0.2588796100765466,0.0940290546417235,0.9948888111114502,5.9027903175354,3.193385848999024,-134.72665405273438,12.560730905532836,-6.765346603393555,-9.483259658813475,-0.9654756546020508,0.1514125430583953,-0.4037570357322693,154.9871563720703,57.70852569580079,76.49194793701172,222.2574883306268,1.0323099641604532,17.131085467702725,1.0573971542083789,149.0843660545349,54.515139846801766,211.2186019897461
2861.284,-11.2357129573822,-224.33722961425784,-12.552021293640138,-0.1905143673717975,0.090421511530876,0.9460112047195434,5.663851852416991,-1.196733646392822,-135.43532836914065,16.984677535295486,-6.824459652900695,-12.375982809066771,-0.9566315388679504,0.1493874943256377,-0.4022612583637237,155.62782775878907,57.99198837280274,76.88770446777343,224.9688580119856,0.9692311248497576,22.095643711427755,1.0484629915252717,149.96397590637207,59.18872201919556,212.32303283691408
2877.274,-6.499726276397705,-225.6712872314453,-13.948635559082032,-0.1242146431654691,0.0884570628404616,0.9044282603263856,5.579963989257812,-5.618387451171874,-136.16430541992187,21.493563854694365,-6.690106821060181,-12.95959897994995,-0.9478699827194216,0.1483825856447218,-0.4010135519504547,156.37694458007812,58.27872543334961,77.30776153564453,226.1953597143975,0.9171937677612612,25.97464190656225,1.039849395206368,150.7969805908203,63.89711288452148,213.4720669555664
2899.779,-1.6908575153350824,-225.64280944824225,-15.199484558105468,-0.0644122603535651,0.0902688035368918,0.86301034450531,5.657090454101563,-10.048086681365966,-136.92502807617186,26.447949295043948,-5.919142889976501,-10.940387392044068,-0.9371790766716004,0.1487799775600432,-0.4036432373523712,157.17310485839843,58.53191284179688,77.66995239257812,226.16047573717427,0.8701058848778184,29.22708248787709,1.0311973460662625,151.51601440429687,68.57999952316285,214.59498046874998
2922.764,2.942025470733643,-224.61847961425784,-16.247381591796874,-0.0094130814820527,0.0924076801538466,0.8251545310020447,5.897431144714355,-14.462319259643554,-137.72928527832033,32.01146293640137,-3.9639472007751455,-6.175537452697752,-0.9214072346687316,0.1481462687253951,-0.4137914896011352,157.9621160888672,58.70676803588867,77.89575683593749,225.2245419724073,0.8303660551152171,32.8418011011699,1.0208633629940211,152.06468494415284,73.16908729553222,215.62504211425784
2944.701,7.283168840408325,-222.54258666992192,-16.7592414855957,0.0429991236329078,0.0937179085612296,0.784753897190094,6.299872817993164,-18.83590787887573,-138.58234375,39.11471801757813,-0.1874965143203734,0.3861278629302987,-0.9025301051139832,0.1491115701198576,-0.4337750673294067,158.74044921875,58.75190460205079,77.94474090576173,223.29155739810253,0.7914989893697463,39.1170731939912,1.012400938372391,152.44057640075684,77.58781248092652,216.52708465576174
2957.141,11.603001708984376,-219.51714660644527,-16.700916442871094,0.0966442251950502,0.0926019999384879,0.7497652697563171,6.867923965454102,-23.14501724243164,-139.48837280273438,48.00528503417969,6.1591080284118656,7.436189079284668,-0.8865466570854187,0.1511420691013335,-0.4633255231380462,159.5508905029297,58.61003036499024,77.8258676147461,220.45708859759097,0.7616187999182545,48.966712274170064,1.0116716071100875,152.68296653747558,81.75504760742187,217.31424041748048
2979.72,15.48187403678894,-215.381674194336,-15.939306869506831,0.1503532706201076,0.0919990950822829,0.705355703830719,7.598102149963378,-27.36711688995361,-140.44882751464846,58.42726943969727,15.895201668739322,13.601330251693724,-0.8615440225601197,0.1551497507095335,-0.5005235254764557,160.4784069824219,58.22415634155273,77.60290618896485,216.5248611728602,0.727046496730884,62.05964417304143,1.0083914654089865,152.8803048324585,85.59127323150634,218.0517337036133
3002.76,18.82940713882446,-209.98278137207035,-14.62205467224121,0.2074102293699979,0.0886792796850203,0.6582227838039398,8.483245067596435,-31.47328445434571,-141.46492248535156,69.64777381896974,26.747723417282103,17.992998905181885,-0.8347623920440673,0.1616233903169631,-0.5427629280090331,161.59149475097655,57.5860188293457,77.33816619873046,211.3317759561688,0.6958018762631913,76.74634268515773,1.0087328523893833,153.1082496833801,89.0593032836914,218.803088684082
3024.839,21.98999811172485,-202.81304931640628,-12.8425119972229,0.2672454017400741,0.087000928223133,0.5957017314434052,9.521417140960695,-35.42898513793945,-142.53499572753907,80.00165298461914,35.88405190944671,19.71345228433609,-0.8012808966636659,0.1684130591154097,-0.5845891439914703,162.93052612304686,56.747933807373045,77.09826751708985,204.4055358946316,0.6586727708867062,89.86962703092787,1.0060608834019038,153.40910898208617,92.1769189453125,219.63326324462892
3047.287,25.050804710388185,-193.31406860351564,-10.911172809600831,0.3329549634456634,0.0874630194902419,0.5204982754588128,10.707963161468506,-39.18849067687988,-143.65545837402345,87.17132873535157,40.75042556762695,18.808521637916567,-0.7662127852439881,0.1703207132220267,-0.6196702313423157,164.4724053955078,55.813314056396486,76.9276986694336,195.235564456796,0.6240410581180149,98.0469184810691,1.0000411857696905,153.76444223403928,95.00180473327637,220.58315704345705
3057.175,27.8239372253418,-180.57246337890624,-9.078737850189208,0.4007925134897231,0.092048688828945,0.4321746326982975,12.027805843353272,-42.69090347290039,-144.81458496093748,89.10598495483399,38.561014080047606,16.09054641485214,-0.73036687374115,0.1690271511673926,-0.6431482696533204,166.10830871582033,54.93509277343751,76.81822662353515,182.92897390626413,0.5965588932640651,98.41612695885384,0.9877477637779016,154.08050287246706,97.6259962463379,221.63281158447262
3082.0660000000003,30.313970298767096,-163.73104125976562,-7.471639661788942,0.4695913428068161,0.0981628113985061,0.3414828594774007,13.445608558654786,-45.85552467346192,-145.98030334472656,84.78086151123047,28.810809783935547,12.189876790046691,-0.7025420546531678,0.1612793067097662,-0.6538314008712769,167.69338500976562,54.2662013244629,76.74159057617187,166.681180900896,0.5888654431172112,90.36841447734422,0.9731761680674132,154.24777645111084,100.12172599792481,222.72189392089842
3104.661,32.542082443237305,-142.09387001037598,-6.075109491348266,0.5344076263904572,0.1082394570112228,0.2472993573546409,14.908585395812988,-48.59111267089844,-147.09868469238282,74.33529790878296,14.187171230316162,8.229455370903015,-0.6752722072601319,0.146967004239559,-0.6510127711296081,169.08196533203127,53.90253051757812,76.66430328369141,145.89915003042324,0.5987188516711206,76.12316518910329,0.949425869885044,154.17337993621828,102.49364318847657,223.7629879760742
3127.202,34.33933166503907,-115.50793060302736,-4.844426600933075,0.5899471378326415,0.1202178913354873,0.1671326885372399,16.34049785614014,-50.805318908691405,-148.09405639648438,59.327082366943365,-0.2492002677917483,5.054146690368652,-0.6577695059776307,0.129953455030918,-0.6402372670173645,170.167548828125,53.83406616210938,76.56805938720703,120.60157627695902,0.6248386210948894,59.54249912218427,0.9270665464498185,153.82705097198487,104.63938507080078,224.6621157836914
3137.3340000000003,35.02358894348144,-84.59512016296387,-3.67877115726471,0.6297148275375366,0.1328646257519721,0.1124580053985118,17.64091796875,-52.420942382812505,-148.87897827148436,41.74848901748658,-10.761617374420164,2.3413916063308724,-0.6455467605590821,0.1158127340674399,-0.6266234016418457,170.90806701660156,53.98143981933593,76.4679949951172,91.63252422091064,0.6533303726102536,43.176739784411886,0.9070832910630084,153.26714904785158,106.40238220214843,225.34697326660154
3160.5750000000003,34.196446075439454,-50.893417510986325,-2.5003092122077946,0.6533237969875336,0.1428936573863028,0.0875598260015248,18.70677055358887,-53.39018814086914,-149.37277404785158,23.906301307678223,-14.47963354110718,-0.3935025691986077,-0.6354189109802245,0.1044077071547507,-0.6158983612060547,171.34064025878905,54.21082183837891,76.41847076416016,61.36602004606996,0.6744755771418706,27.952206960635856,0.891060577671861,152.63386970520017,107.60100997924806,225.79124481201174
3184.535,32.14825798034668,-16.22052070617676,-1.475258550643921,0.6601373028755189,0.1524961432814597,0.0899926812946795,19.468006706237794,-53.70120681762696,-149.52520751953125,7.128858165740965,-11.77355333328247,-3.043016257286072,-0.6263921046257019,0.0994686284661291,-0.6097587871551513,171.51855407714842,54.39488800048828,76.46697448730468,36.03875928693552,0.6834727610154554,14.09599676436561,0.8798106928761836,152.05054737091064,108.09609481811523,225.99218200683595
3207.0660000000003,29.216407775878903,17.54929458618164,-0.8345650362968445,0.6538062214851379,0.1600370496511458,0.1188962454348802,19.89652282714844,-53.37472564697266,-149.32665832519533,-8.046092567443848,-4.500283946990968,-5.764967656135559,-0.6231968426704406,0.1008454301953314,-0.6091845965385436,171.4964910888672,54.44361404418945,76.64941131591797,34.09212112202511,0.6835281630571104,10.873224603755268,0.8772969726184604,151.59996826171877,107.81833969116211,225.9760696411133
3217.482,25.65975395202637,48.8272779083252,-0.7902602672576904,0.6388571095466614,0.165021520256996,0.1671827000379561,20.00845138549805,-52.45890029907226,-148.81087097167966,-21.81425382614136,4.1675219726562505,-8.303274557590484,-0.6265765571594238,0.1065856817364691,-0.6128287625312805,171.3024645996094,54.33305725097656,76.97040496826172,55.16475824387669,0.6806765485590247,23.7102146291978,0.882903042082541,151.29401321411137,106.79195755004882,225.7812759399414
3247.1420000000003,21.91014009475708,76.61403381347657,-1.4000825619697572,0.6201276516914367,0.1688521152734755,0.2228282406181096,19.85869667053223,-51.01820007324219,-148.043876953125,-34.39181816101075,12.372485485076904,-10.218871307373046,-0.6405317282676697,0.1130439737439154,-0.6195996999740601,170.94300842285156,54.07133697509765,77.41100646972657,79.69770791763553,0.6802365515330863,37.9512962136357,0.8983115401269919,151.08431175231934,105.08953704833985,225.45488342285157
3257.067,18.361015808582305,100.75107231140136,-2.556045012474061,0.5984729850292205,0.1746788853406905,0.2807279449701308,19.51983917236328,-49.11699661254882,-147.101884765625,-45.88580492019653,17.415981426239018,-11.311560189723968,-0.6668065428733826,0.1191510063409804,-0.6255949139595032,170.40225158691405,53.71750457763672,77.9270523071289,102.44236838108552,0.6837329931199785,50.36640642471114,0.9220612367423427,150.88241241455077,102.83450119018553,225.02893707275388
3280.163,14.659951138496396,121.44278915405276,-4.015015723705292,0.5751754760742187,0.1803368669748305,0.3340157902240753,19.054252395629884,-46.81706146240235,-146.05623474121094,-56.24465312957764,18.56910749435425,-11.372326164245605,-0.70225426197052,0.1230128821730613,-0.6276718711853028,169.65838317871095,53.35064559936524,78.45899810791016,122.39030009016406,0.6891405966756822,60.312540662696144,0.9498764106522188,150.60413078308108,100.16770706176759,224.5152328491211
3301.9210000000003,11.040961706638337,138.9269830322266,-5.513449258804322,0.5483468401432037,0.1864439803361891,0.3864865672588348,18.51562355041504,-44.17488494873047,-144.96390014648438,-64.72148345947267,16.41807683944702,-10.78403839111328,-0.7431018543243408,0.1262045097351073,-0.6243703722953795,168.71634155273438,53.03920349121093,78.96262939453125,139.4740390630939,0.6962883609325631,67.63667017470468,0.97875753176056,150.20071800231935,97.2140884399414,223.9265295410156
3317.504,7.364535579681397,153.59765747070315,-6.815615205764772,0.5180779540538788,0.1960427922010421,0.4339542376995086,17.939100074768067,-41.2387126159668,-143.8638848876953,-71.01197647094726,11.986500816345217,-10.307103080749512,-0.7819195175170899,0.1303593340516089,-0.614655933380127,167.61022521972657,52.83012664794923,79.42293243408203,153.92507714932253,0.7036716729185534,72.75034967646415,1.0030920218444233,149.6711251449585,94.06883926391603,223.28681732177733
3340.42,3.749492623806,165.80004241943362,-7.968657560348509,0.4825165677070617,0.2064388740062713,0.4811687421798705,17.34765007019043,-38.05002243041992,-142.7821124267578,-74.42607666015626,3.816943531036377,-10.068850326538088,-0.8131428050994873,0.1365056246519088,-0.595980851650238,166.3791522216797,52.79909896850586,79.8152542114258,166.03376844647013,0.7120130653743226,75.20100858260348,1.0173633483571214,149.03150215148926,90.84912139892577,222.5973666381836
3361.781,0.4651393032073972,175.89279296875003,-8.910489139556883,0.4415937054157256,0.2156765753030776,0.5233676791191101,16.761600761413575,-34.64770141601563,-141.73453186035158,-74.8375015258789,-4.921057014465331,-10.02018913269043,-0.8332370591163635,0.1422831568121909,-0.5730197191238403,165.0838006591797,52.95804641723633,80.13874877929688,176.1189591998122,0.717938098545953,75.66553130078736,1.0212150076757067,148.32219989776613,87.60574783325197,221.87328063964844
3384.434,-1.90893634557724,184.16173828125,-9.726133556365966,0.3938985240459441,0.2246911054849624,0.5658612990379334,16.204533462524413,-31.063967323303224,-140.72985778808592,-72.3072494506836,-12.081296329498292,-9.650879402160644,-0.8402201104164124,0.1483777475357055,-0.5486074721813201,163.7799548339844,53.26732727050781,80.38882202148437,184.4282721241496,0.7251490535596976,73.94210922985346,1.0143746588145406,147.57542137145998,84.33129459381104,221.1186798095703
3406.83,-3.780121445655823,190.89158447265623,-10.39652561187744,0.3401074343919754,0.2338884007930755,0.6098925471305847,15.686710586547852,-27.32954742431641,-139.77046386718752,-67.70087554931641,-17.776573333740235,-8.60685676574707,-0.8472129535675048,0.1494974732398986,-0.5232115876674652,162.4950262451172,53.68588973999023,80.54791076660156,191.2118565503289,0.7364412875441373,70.52299690895133,1.0069109437617605,146.80831565856934,81.01543716430663,220.31837463378906
3416.932,-5.780107929706573,196.13140930175783,-10.875913124084471,0.280841599702835,0.2367104732990264,0.6588845419883728,15.201141700744628,-23.475907669067382,-138.8545245361328,-60.232826004028325,-23.0450922203064,-6.45593723297119,-0.846188657283783,0.1485066556930541,-0.4992585730552673,161.25365234375002,54.191408233642576,80.57648834228516,196.51774690509595,0.7543425561138151,64.81318329961923,0.9936541618038182,146.0525106430054,77.66731590270996,219.43101287841796
3439.385,-7.175954113006592,199.9429534912109,-11.034055213928225,0.2131592988967895,0.2361500990390777,0.705939552783966,14.754610061645508,-19.536012296676635,-137.97699768066406,-50.867956275939946,-26.01559810638428,-2.584087982177734,-0.845760760307312,0.1450069591403007,-0.4799130845069885,160.05859008789062,54.72112106323242,80.43260070800781,200.37572044208488,0.77430898752834,57.192987605330416,0.9831860711766268,145.3039800262451,74.25713335990905,218.40959838867187
3462.7270000000003,-8.016320967674256,202.14965087890624,-11.160476455688478,0.139781402349472,0.232391031384468,0.7549419450759888,14.352459640502929,-15.545165246725082,-137.13751647949218,-41.24904830932618,-27.92150352478028,3.333523941040041,-0.8484396696090698,0.1429203814268111,-0.4618133413791656,158.86101379394532,55.23699798583984,80.05138641357422,202.61613703512964,0.802173156086539,49.92200644380121,0.9764976552298128,144.5085541534424,70.78216323256493,217.1889028930664
3484.182,-8.021688165664672,202.48241638183595,-11.358854026794436,0.0623697566986083,0.2257650732994078,0.8128329753875733,14.007613258361818,-11.54267108678818,-136.33925537109377,-31.53100681304932,-29.74749217987061,9.92490417480469,-0.8582531309127808,0.1424231836199759,-0.4472351765632629,157.64139892578126,55.7289453125,79.40935241699218,202.95935551153184,0.8459062009170674,44.470455411599744,0.9782137307918004,143.63378566741943,67.27161639928818,215.74860778808596
3506.465,-7.857873201370239,200.9969171142578,-11.578671226501466,-0.0143094885349273,0.2155692309141158,0.8716588759422302,13.71828022003174,-7.563350182771681,-135.58399902343749,-21.79010144233704,-30.14929973602296,16.160393753051757,-0.8604015731811522,0.1568108540773391,-0.438279173374176,156.42216857910157,56.17306640625001,78.53615478515624,201.4834298101361,0.8980334352282808,40.557947700710486,0.9782479976481512,142.70388835906982,63.73641658902169,214.12015380859373
3516.529,-6.40733724117279,197.84390258789065,-12.01923484802246,-0.0931422591209411,0.2078847789764403,0.9198312091827392,13.507417488098143,-3.64027557849884,-134.87666625976564,-13.983703727722173,-29.101464004516608,21.082408409118653,-0.871399221420288,0.1728176954388617,-0.4367643785476685,155.21809814453124,56.55204696655274,77.49457061767579,198.31219268633183,0.9476186021553272,38.560434664040855,0.9899321599568398,141.71068065643308,60.192322545051574,212.37123687744145
3538.985,-4.292960586547851,193.15793457031253,-12.78385757446289,-0.1692571008205412,0.202560309767723,0.967264919281006,13.383654823303225,0.1966446411609649,-134.22171264648438,-8.689716558456423,-26.970501708984376,23.611358222961425,-0.8745367336273192,0.19090838432312,-0.439661705493927,154.06014404296874,56.86388168334961,76.38006134033203,193.6281080126306,1.0026365589499824,36.88380909604713,0.9972777571701044,140.6764892196655,56.667237042188646,210.6017739868164
3562.856,-1.798277192115784,187.1293835449219,-13.57287769317627,-0.2439477896690367,0.199532452225685,1.0156123399734498,13.348615684509276,3.923763937950135,-133.61753112792968,-4.629486656188968,-22.978071784973142,23.14722695589065,-0.8766135382652284,0.2112994310259818,-0.4475024473667145,153.0344097900391,57.097837371826174,75.32505371093751,187.6295898722696,1.0633871113954458,32.94264782015437,1.0066564386229224,139.68579410552982,53.17407343387604,208.9425848388672
3582.708,0.2545949840545655,179.8863677978516,-14.176395988464355,-0.3128362703323363,0.1969284176826476,1.0551919436454773,13.385512161254884,7.517800768613815,-133.0592218017578,-2.028051195144656,-17.471760005950927,19.571091847419737,-0.877990276813507,0.232743814587593,-0.4617302882671356,152.2244128417969,57.25415313720703,74.46267883300781,180.4442859758424,1.1180685898730711,26.313552125393738,1.0189364398779224,138.838900680542,49.73635236859321,207.5219006347656
3604.971,2.772460894584656,171.5705499267578,-14.643453025817871,-0.3800380927324294,0.1986248540878295,1.0823291778564452,13.500235481262203,10.953588240146637,-132.543115234375,-1.299610080718997,-12.444406204223634,14.026804406642915,-0.8766747355461121,0.2416005432605742,-0.4792950439453124,151.652763671875,57.35905349731445,73.86038238525391,172.2166393183348,1.1641809283047555,18.79636863864516,1.027936356784402,138.1525281906128,46.40546525716781,206.40349761962892
3623.978,5.26108063697815,162.30699920654297,-14.95822452545166,-0.4431568574905394,0.2016575878858565,1.107136468887329,13.68527645111084,14.21161635041237,-132.0660430908203,-1.5448458003997831,-6.810336742401124,8.31827332496643,-0.8675790357589722,0.2521644103527068,-0.491914210319519,151.31164123535157,57.40512908935547,73.53402435302735,163.07970272800765,1.2094647344313665,10.860980904170658,1.0287175819685752,137.62636478424074,43.1935127389431,205.60006744384765
3646.473,7.581251740455627,152.17053924560545,-15.073574180603028,-0.4987083995342255,0.2040941905975341,1.124672818183899,13.929902420043945,17.2759672164917,-131.6260986328125,-1.8597003936767609,-0.979405193328858,3.2626589417457588,-0.8646491765975952,0.2652811920642852,-0.5047535336017608,151.18330993652344,57.38508895874023,73.46540710449219,153.10310588237147,1.2470980131342382,3.881064732404574,1.035745354388525,137.2534075164795,40.10912174224853,205.0915057373047
3656.505,9.770664920806883,141.3730975341797,-15.220903244018556,-0.5427984130382538,0.2076712507009505,1.1292466306686402,14.224043922424318,20.131101837158205,-131.22662841796875,-2.610099973678592,3.036746368408203,-0.7900754165649413,-0.8636187076568603,0.2773184025287628,-0.51796027302742,151.20546875,57.32414001464844,73.59050506591798,142.5254170138335,1.270021818096453,4.081503343438255,1.044521714963672,136.98142482757567,37.19303817749024,204.81713348388672
3686.737,11.89460587978363,130.57318450927733,-15.477168846130372,-0.5752931129932404,0.2157324457168578,1.116481776237488,14.56336780548096,22.77405269622804,-130.86896667480465,-3.750670680999759,5.088216228485107,-3.077058680057525,-0.8623747229576111,0.2891439676284789,-0.5231846487522125,151.28878112792967,57.24452178955079,73.81386474609376,132.02416792928784,1.2743760083518705,7.0303460132235145,1.0492933686544157,136.7254133224487,34.47046909332275,204.68283142089842
3696.765,13.693508319854738,120.17560272216797,-15.953114013671875,-0.5924326264858246,0.2219305860996245,1.0960221648216248,14.9350350189209,25.21062747955322,-130.55639282226562,-5.045601978302005,5.160168304443358,-4.325744023323059,-0.8687204837799072,0.298367651104927,-0.5213347566127777,151.37097778320313,57.17681549072266,74.06582336425781,122.000776663411,1.265501555807695,8.414124886697495,1.056166872524021,136.43594276428223,31.96618801116944,204.62221618652342
3716.895,14.889139938354491,110.674697265625,-16.439879608154296,-0.5932852578163147,0.2295567429065703,1.0682751274108888,15.326555862426758,27.45345771789551,-130.2849249267578,-6.4666719436645534,2.92668909072876,-5.696356551647186,-0.8790167975425721,0.2955945193767547,-0.51481560587883,151.42771484375,57.16834533691407,74.31772369384767,112.8753504733086,1.2433404373705517,9.101199537657816,1.060698712313709,136.10115898132324,29.714887619018562,204.60264862060546
3739.162,15.256508140563962,102.52224060058596,-16.82462459564209,-0.5845847809314728,0.2381102520227431,1.0300407576560977,15.72438591003418,29.524625549316408,-130.04585754394532,-7.554742927551272,-0.8188864135742187,-7.354470109939575,-0.8864650702476501,0.2811566591262817,-0.5023898684978485,151.46042785644528,57.25199295043946,74.56113189697267,105.00780376330044,1.2080644935796183,10.575109751568398,1.0570075532887686,135.7360419464111,27.72736740112305,204.60698944091797
3757.095,14.762487354278562,96.052685546875,-16.773717460632323,-0.5733640027046204,0.2494680428504943,0.9847643542289736,16.12202705383301,31.45504135131836,-129.81935791015624,-8.012708702087405,-5.13427240371704,-9.28358724594116,-0.8875135970115661,0.2591053652763366,-0.4843450582027436,151.4861444091797,57.4414453125,74.79921356201173,98.61747832459116,1.1665082157280875,13.29470744368145,1.0437461907000245,135.3641173553467,25.98640396118164,204.61857147216796
3778.981,13.554662647247316,90.9989422607422,-16.38265697479248,-0.5669635331630707,0.2590266555547714,0.9435889935493468,16.510929527282716,33.272544403076175,-129.5909100341797,-7.658742980957034,-9.190067844390867,-11.266411790847778,-0.885784649848938,0.2329660618305205,-0.4659621095657349,151.5300842285156,57.73191284179687,75.0410595703125,93.45013548202212,1.1308857789238098,16.433068054195463,1.0276226541993796,135.01915470123288,24.459368438720695,204.6319696044922
3801.669,11.441485247612,86.94338470458985,-15.551796379089351,-0.5683280038833618,0.2655925399065017,0.9098820066452028,16.879556617736817,35.00101577758789,-129.34625244140625,-5.7789561653137245,-11.972017002105712,-12.867068843841556,-0.8790741086006164,0.2117742908000945,-0.4493816697597503,151.62839294433593,58.09327331542969,75.2945590209961,89.06131651383943,1.1051793443910969,18.500999597088903,1.009734382781884,134.7488363265991,23.092257537841803,204.64081146240235
3816.577,8.709620275497436,83.48049713134765,-14.354518241882325,-0.5817433679103852,0.2702191340923309,0.8787247514724731,17.22033008575439,36.65550346374512,-129.07516204833985,-2.4149346542358434,-14.01548376083374,-13.77122452735901,-0.8707246446609498,0.1976721286773681,-0.4404235577583312,151.80052795410157,58.49970642089844,75.54892120361328,85.15223473636397,1.087934242216728,19.796775480298752,0.9955945899332144,134.58019786834717,21.84420295715332,204.62408325195312
3838.941,5.626254181861877,80.32331787109374,-13.04861297607422,-0.6043139481544494,0.274372175335884,0.8533240699768067,17.527313003540037,38.24473411560059,-128.7748501586914,1.9761874198913545,-16.116198921203612,-13.76445692062378,-0.8674554634094239,0.1936974519491195,-0.4352443897724151,152.0307244873047,58.94070449829102,75.76503173828125,81.57056105323205,1.0810353402800232,21.286086035390564,0.9896642676780856,134.50341148376467,20.695970382690426,204.53988189697264
3862.061,2.49841516494751,76.969580078125,-11.93675582885742,-0.6318881332874298,0.2717974710464477,0.8414518594741821,17.788722686767578,39.76570419311524,-128.45697387695313,7.095025310516354,-17.891014366149903,-13.056903066635131,-0.8694036436080932,0.198952658176422,-0.4337440168857574,152.3099285888672,59.4017643737793,75.91990570068359,77.92974063512017,1.0868292000444577,23.25748260019033,0.9917553770455116,134.5212059020996,19.63606018066406,204.3768795776367
3884.1,-0.7518387460708617,72.95143402099609,-10.95510940551758,-0.663706340789795,0.2693687134981155,0.8456049680709838,17.992002563476564,41.20416931152344,-128.1343551635742,12.506047801971434,-19.20181678771973,-11.962889337539671,-0.8680783319473268,0.2065035670995711,-0.4364028477668761,152.6386688232422,59.86790161132812,76.00960693359374,73.77324318007646,1.1082027669350671,25.84998492990993,0.9933031557185044,134.64666625976562,18.663732299804686,204.14396209716796
3906.174,-4.126508197784423,67.87371208190919,-10.119634971618652,-0.7033520436286926,0.2757795083522796,0.8526144671440126,18.12333198547364,42.53571914672852,-127.82291473388672,17.49255292892456,-19.369103927612308,-10.211283559799195,-0.8634456992149353,0.2162569218873977,-0.4447332692146301,153.0054266357422,60.30895782470704,76.03097625732421,68.7479154130734,1.1391706913746298,28.025379691781144,0.9950342770494458,134.88209465026856,17.773238677978526,203.85389099121093
3926.396,-7.564682250022888,61.10009243011475,-9.520061073303223,-0.7450196027755738,0.2849123281240463,0.871292519569397,18.16422187805176,43.72784164428711,-127.54091217041017,21.572004680633544,-17.547193527221683,-7.5443992328643805,-0.8578930807113647,0.2356739503145217,-0.4545742750167846,153.38326049804687,60.67919677734376,75.97584197998047,62.29829271618766,1.1812619937568998,28.812728895540086,0.9990798367980024,135.2190386199951,16.95135513305665,203.51675415039062
3936.367,-10.881166315078737,51.83789691925049,-8.847183752059937,-0.7863083481788635,0.2965698981285095,0.9081706404685974,18.09869163513184,44.72847946166993,-127.3008203125,23.42338895797729,-13.564700736999516,-4.651767530441284,-0.8485234832763672,0.2572058463096618,-0.4681108713150024,153.75209838867187,60.93619903564453,75.87127166748046,53.701396608747125,1.237339256267605,27.46443513925447,1.002633899731412,135.65340675354003,16.2077195739746,203.17209197998045
3958.7,-14.256556077003475,39.40973445892335,-7.932292728424073,-0.8293083882331848,0.312992724776268,0.9554316306114196,17.910126876831054,45.47518341064453,-127.11296112060548,22.708455996513365,-7.448689575195314,-1.7061008167266845,-0.8363213515281677,0.2758729141950606,-0.4857434618473052,154.097080078125,61.04280685424804,75.75639434814454,42.65322765312145,1.3032906235101946,23.95971056023096,1.0057265923379877,136.18695320129396,15.567623443603509,202.86935546875003
3981.693,-17.496570339202883,23.647819252014163,-6.460850057601929,-0.8680013704299927,0.3256189000606536,1.0021940684318544,17.5904532623291,45.90269897460938,-126.97882080078124,19.74908701896668,0.4511288070678702,1.14639723777771,-0.8296081471443177,0.2955117046833038,-0.5061495459079742,154.40323547363283,60.97008392333985,75.66346221923828,30.117966605955,1.3652278190635612,19.787475379897984,1.0157579476607157,136.81278221130373,15.06738494873047,202.64228302001953
4002.385,-19.93882556915284,4.717491416931152,-4.349661750793457,-0.8970413088798523,0.3289697873592376,1.054638547897339,17.14952434539795,45.94919509887696,-126.89225799560543,14.161665902137752,9.226077957153322,3.2386217212677004,-0.8295626688003539,0.3144959086179733,-0.5232871496677398,154.6512255859375,60.71404067993164,75.63136474609375,20.945907659784943,1.4230835174166936,17.20935693884895,1.0300055043600485,137.50170124053955,14.76484558105468,202.52362274169917
4023.93,-21.544830245971685,-16.978785743713377,-1.7151587390899656,-0.916633517742157,0.3248645663261413,1.1118010616302492,16.601276245117187,45.55819412231445,-126.85266693115234,6.001634654998776,18.300935630798342,3.881222476959229,-0.8330816626548767,0.3266951882839203,-0.5368766176700592,154.8400714111328,60.286652069091794,75.71867095947266,27.48455284626144,1.477110555423927,19.64707997159782,1.0435474619299896,138.23879516601562,14.728457946777347,202.571337890625
4046.266,-22.36153800964356,-40.715920219421385,1.0205489540100097,-0.928054051399231,0.3121474248170852,1.162765703201294,15.962825088500978,44.692900543212886,-126.86709594726562,-3.047632241249089,27.47772071838379,3.634836874008178,-0.8393395900726318,0.3319974827766419,-0.545104101896286,154.98193237304687,59.69958862304687,75.96040832519532,46.4635993185908,1.5201132910673678,27.88413952870069,1.054443814500079,139.0191072845459,15.006688079833985,202.82750427246094
4056.17,-22.34569480895997,-65.46176898956298,3.6775939273834224,-0.9261040425300596,0.2944293957948684,1.204113154411316,15.261333770751952,43.33588180541992,-126.93213958740236,-11.648290042877202,35.84643947601319,3.316518030166626,-0.849378833770752,0.3330366158485413,-0.546332082748413,155.07234436035156,58.97020263671875,76.34232513427735,69.26830424395285,1.5473350817857845,37.837140165119365,1.0634079816297368,139.81101058959962,15.63432083129883,203.2744647216797
4084.844000000001,-21.46677963256836,-90.4275149154663,5.63316972732544,-0.911694211959839,0.2777933555841445,1.237207465171814,14.52302089691162,41.487331542968754,-127.04965881347655,-19.043675131797794,41.66335693359376,3.432065658569336,-0.8607173442840577,0.3259263432025909,-0.539557455778122,155.09043029785158,58.14636581420899,76.81149688720703,93.11117378036316,1.561741910945799,45.93773991160448,1.0668573363063003,140.56740940093997,16.659034271240238,203.86115570068358
4104.389,-20.33636741638184,-114.94121837615968,6.710714387893677,-0.8833807516098021,0.2616375410556792,1.2607694149017334,13.762693367004394,39.1608341217041,-127.22257263183594,-23.69345620155335,43.86555347442627,4.400296621322632,-0.8730941748619079,0.3094729310274123,-0.5284658479690552,155.02535400390624,57.29087890625,77.29002990722657,116.9191396183105,1.5615233820715015,50.049268313815546,1.0664628852830025,141.26266063690184,18.130044784545902,204.51260253906253
4126.342000000001,-19.141840286254883,-138.27999526977538,7.157279052734376,-0.842813835144043,0.2461528974771499,1.2640807676315309,12.999437408447267,36.385075149536135,-127.43888671875,-24.56865898609162,42.092970085144046,6.3117974090576165,-0.8871097779273986,0.2828903365135192,-0.5142774379253388,154.88072204589844,56.46985015869141,77.69339447021484,139.7819508548665,1.5390992809895423,49.14545677371082,1.0637067188591889,141.88128463745116,20.084775009155273,205.13228118896484
4147.5,-18.12047180175781,-159.7729165649414,7.5146345520019535,-0.787659112215042,0.2332464885711669,1.2507652997970582,12.254128952026369,33.19721183776856,-127.67034454345703,-22.573868198394777,36.01869537353516,8.220287561416626,-0.9024188137054444,0.2511580887436866,-0.497948956489563,154.65790954589843,55.75832473754883,77.95802276611329,160.97268742999904,1.4964039015795811,43.29548555499064,1.060845542074796,142.40378059387206,22.56111289978027,205.6283673095703
4157.05,-17.49395950317383,-178.98869384765626,7.816559066772461,-0.7217859959602355,0.2176400288939475,1.2246561527252198,11.536825141906736,29.642820777893064,-127.89501098632812,-19.23611000061036,26.63845218658447,8.645929412841797,-0.9186198878288268,0.2166583365201949,-0.4795233547687531,154.3817663574219,55.22672576904297,78.08271728515625,180.01136003050766,1.4380976665543284,33.97627346052494,1.058652908590452,142.84494121551515,25.583904991149907,205.97772827148435
4176.627,-17.280059356689456,-195.5900524902344,8.423237743377687,-0.6486748719215394,0.1985966324806213,1.1887458658218386,10.857559814453126,25.77265148162842,-128.08896209716798,-15.24636782884598,16.386959648132326,6.606867742538452,-0.9331953620910644,0.1851680666208266,-0.4608143854141235,154.1147998046875,54.90469985961914,78.13073791503908,196.53249099979573,1.3686988147154877,23.33741373523172,1.0571143242473655,143.25723999023438,29.132048377990724,206.21970001220706
4199.217,-17.54142364501953,-209.33048828125,9.282663955688475,-0.5743887305259705,0.1785461691021918,1.1368943738937378,10.222028732299805,21.6395560836792,-128.2324139404297,-11.122519516944887,7.207666912078858,1.7980114746093745,-0.942928385734558,0.1543159048259257,-0.4440105700492858,153.94334350585936,54.78862991333008,78.2030532836914,210.26916730152053,1.2862075904174797,13.375116746523124,1.0535998886777256,143.72131477355956,33.149073829650874,206.4354672241211
4216.3060000000005,-17.888979797363277,-220.15890563964845,10.209598140716553,-0.4978436976671219,0.1583338367938994,1.0802460741996764,9.636095447540283,17.294905552864076,-128.3159829711914,-6.976052567958834,-0.4036830711364754,-5.120424346923828,-0.945538730621338,0.1298527404665946,-0.4298327016830444,153.94159851074218,54.86497314453125,78.38693054199219,221.12031843508416,1.1999373033640393,8.662968021724282,1.0467384471527932,144.3055030632019,37.57006759166717,206.7029135131836
4239.977,-17.936130294799803,-228.17260559082035,10.713128566741943,-0.4240857231616973,0.1370590648055075,1.022166862487793,9.104487018585203,12.79110697746277,-128.34602966308594,-2.227429475784305,-5.2925827598571775,-12.758965682983398,-0.944024076461792,0.114229176789522,-0.4199031007289885,154.1782098388672,55.0922834777832,78.74769866943359,229.1270691903155,1.115104919997701,13.991571735837192,1.0394942884746263,145.073722820282,42.30117650032043,207.09372833251953
4260.782,-17.296234550476072,-233.36535705566408,10.829055919647216,-0.3549353229999542,0.1223135435581206,0.9652748036384584,8.640064868927002,8.17967408657074,-128.3300115966797,3.9931414008140536,-7.924302158355712,-19.476465682983395,-0.9415287184715272,0.1070625615119933,-0.4165963196754455,154.69102172851564,55.42380493164062,79.29405853271484,234.25588158134585,1.0357099656709354,21.40262737245701,1.035128597494665,146.05095685958864,47.244130845069876,207.62407012939454
4276.119,-16.709860382080073,-235.65129516601564,10.307425603866577,-0.2899845623970031,0.1129412075877188,0.90462993144989,8.238713417053223,3.5134418487548835,-128.28230834960937,11.40275065422058,-8.746963214874267,-23.91990951538086,-0.9363172507286072,0.1077178560197352,-0.419614074230194,155.47043701171876,55.81051864624023,79.98405700683593,236.46774699731984,0.956661944301636,27.905091993912134,1.0316826555726957,147.23172359466554,52.297076797485346,208.2663653564453
4298.578,-15.378179664611816,-235.29981323242183,9.094310607910156,-0.2264931386709213,0.1053297445178031,0.8540987706184389,7.912408065795899,-1.153682646751404,-128.2207244873047,18.836608641147613,-9.07107624053955,-25.12479047775269,-0.9283531427383422,0.1196449941396712,-0.4282986450195312,156.43788330078127,56.21685363769532,80.72149383544921,235.97711118335783,0.889875388420828,32.685736121623606,1.0293659269571755,148.52547523498538,57.37053628444673,208.9422183227539
4322.286,-13.331897830963134,-232.40444396972657,7.285916461944581,-0.1687263748422264,0.1023501184582709,0.8147635316848755,7.674001045227049,-5.767769508361817,-128.16258117675778,25.66916356563568,-8.709661989212035,-23.180650157928472,-0.9235825395584106,0.1372560097277163,-0.4420435214042664,157.50003234863283,56.6018702697754,81.40961730957031,232.9005145021012,0.8383219840129643,35.66660499500832,1.0330761803463586,149.82603130340578,62.36963977813721,209.5721984863281
4344.44,-11.221861290931702,-227.17376770019533,5.070292243957519,-0.1171105984598397,0.1042703807353972,0.7841555380821228,7.5258646392822275,-10.27942888736725,-128.12240112304687,32.059776847362514,-7.136378345489503,-18.49291997909546,-0.9186525297164916,0.1565200996398925,-0.4606449174880981,158.5781640625,56.91651062011719,81.96623779296876,227.50727189559092,0.7996793810491739,37.69277486131634,1.0395262151352451,151.0522994232178,67.19593950748444,210.0886389160156
4356.7390000000005,-9.42373107433319,-220.10017211914064,2.453088493347168,-0.0695123837515711,0.1032306194305419,0.7586904239654542,7.463627166748047,-14.648084383010865,-128.1157653808594,37.86451263427734,-2.57285216331482,-11.505742397308351,-0.9066152000427248,0.1726273010671138,-0.4846325278282165,159.62053100585936,57.082008361816406,82.34385192871093,220.3154786150825,0.7688300798614214,39.65757170325536,1.0424106643024105,152.15690383911132,71.73009274482727,210.45961730957032
4379.192,-6.552447667121887,-211.8664959716797,-0.2277765083312987,-0.0247492264211178,0.0986799353361129,0.7457144618034363,7.511819686889649,-18.84661067485809,-128.15306396484377,44.03832351684569,6.263097686767578,-2.652206630706788,-0.8851409220695494,0.183758252263069,-0.5180187368392944,160.6143084716797,57.00211608886718,82.51701934814454,211.96791872329612,0.752622290653932,44.56045927524001,1.0419140842283916,153.10248878479004,75.84872676372527,210.6700833129883
5567.755,-3.101248183250427,-202.75970397949217,-2.511809177398681,0.0194139994308352,0.0959293943643569,0.737122712135315,7.684277534484863,-22.857117023468017,-128.23734008789063,52.2751626586914,21.950010118484496,7.046238307952882,-0.8550780904293059,0.1929769539833067,-0.5567139565944672,161.62483886718752,56.54554168701172,82.51584411621094,202.79897554842103,0.7435921226201466,57.13269685116114,1.0384262491712977,153.94056133270266,79.40265871047974,210.75318420410156
5567.888,0.5817634725570681,-193.4969995117188,-4.460256385803223,0.0684332443773745,0.0900922159850596,0.7220006942749023,7.990085887908935,-26.676260414123533,-128.3747137451172,62.49338180541992,43.78037607192993,15.975134944915771,-0.8146351623535157,0.2018239212036132,-0.5998921871185303,162.75052673339843,55.60460220336914,82.4106268310547,193.54927319885027,0.7308110007728079,77.95735395064325,1.0316171669173575,154.76044084548948,82.28086261749267,210.7853405761719
5567.923000000001,5.464149489402771,-184.4701086425781,-5.961840343475342,0.1281040616706013,0.0849333581328391,0.6929533326625824,8.459048595428467,-30.30900421142578,-128.57127136230469,73.15642349243163,65.70351038932799,22.657103538513184,-0.7637577474117279,0.2066363549232482,-0.6447496533393859,164.05538818359372,54.19441787719727,82.2656216430664,184.6472893181165,0.7097947923085981,100.90667924592226,1.020650084695368,155.59633958816525,84.50342208862304,210.83689300537108
5567.955000000001,11.831368317604063,-175.6799743652344,-7.101256866455079,0.2018699594587087,0.0837008990347384,0.6477380335330963,9.129702854156497,-33.75857765197754,-128.8369000244141,82.54598220825196,81.5307607269287,26.522490825653072,-0.7066211795806885,0.2105936557054518,-0.6839984512329101,165.54334350585938,52.45456619262696,82.11294586181641,176.2210615060515,0.6836094507219798,119.01490092855433,1.005742044733345,156.41364065170288,86.2131438446045,210.9498458862305
5567.985000000001,18.99765445232391,-166.57660247802733,-7.891520528793334,0.2905933042988181,0.087943900823593,0.5813470011949539,10.023417739868163,-37.01724876403809,-129.17777465820313,88.03744216918945,86.69012063026427,26.718015441894533,-0.6618769371509552,0.210867113471031,-0.7079365563392639,167.16337036132813,50.61747299194336,81.98171997070312,167.84204319558617,0.655852829523317,126.41052403869094,0.9918266921581764,157.13995262145997,87.63472175598145,211.15949462890626
5568.017,26.769916234016414,-156.23536010742183,-8.58271854400635,0.3888088002800941,0.0955338402092456,0.4932806323468685,11.151985588073732,-40.05983375549316,-129.59598937988284,87.2138735961914,76.80884857177735,23.30880424499512,-0.6380878257751466,0.2003562822937964,-0.7170333981513977,168.79291870117189,48.9953645324707,81.87163452148437,158.74438327285054,0.6353147094542186,118.52914967174183,0.9805282287224504,157.64093311309816,89.05519828796386,211.4676239013672
5568.049,35.18787272930145,-143.02669845581056,-9.087408065795898,0.4883396947383881,0.109724370241165,0.3918971056491135,12.514763107299803,-42.82870193481445,-130.07523864746094,79.317647857666,52.69894821166993,18.336412525177003,-0.6272710835933685,0.1774946236610411,-0.7103256821632385,170.2589453125,47.87254837036132,81.74029083251953,147.57169052273264,0.6356873730837784,96.97779348171645,0.9641244362019062,157.7441822052002,90.70125030517576,211.81552947998046
5568.08,42.88789005279541,-125.7237484741211,-9.325627784729004,0.5777332347631454,0.1244175054132937,0.2941305470466613,14.061526756286622,-45.243830261230464,-130.57297607421873,65.50531951904296,24.041774139404296,13.510979652404783,-0.6295119166374207,0.1501624926924704,-0.6915239310264588,171.42600158691408,47.33799880981445,81.56568939208985,133.16455751116376,0.6601274005138121,71.07390773152785,0.9471216260768316,157.36447483062747,92.58182907104492,212.13866546630857
5568.113,49.150205917358406,-103.72277084350586,-9.082715644836426,0.6451163792610168,0.1374559023976325,0.2114576160162686,15.706920928955077,-47.21855194091797,-131.02032653808595,48.10320686340332,-0.9446380233764644,8.843530101776121,-0.6430620086193085,0.1215341579914092,-0.6692131567001343,172.23985412597656,47.31694107055664,81.37322387695312,115.1375336571794,0.6926641258691512,48.91849217013542,0.9360264673548172,156.5329331970215,94.53549301147461,212.39355041503907
5568.146,53.63278861999512,-77.37771347045899,-8.633603610992433,0.6838686668872833,0.1485079841315745,0.1539919172227382,17.353291015624997,-48.67484649658203,-131.3441662597656,29.50603805541992,-17.99365417480469,4.750390434265137,-0.6496996521949768,0.0968009990453719,-0.6507619261741638,172.69868896484374,47.64372299194336,81.19616943359374,94.54271874864436,0.7165504067900239,34.88472561979401,0.92464650328456,155.34539794921875,96.31856948852538,212.54033569335934
5568.178,55.95538070678712,-48.0046452331543,-8.134476451873779,0.6958717298507691,0.156571727991104,0.1353383982926606,18.898942260742185,-49.562743225097655,-131.47271606445312,11.785045700073235,-24.42683898925781,1.318047466278076,-0.6434022879600525,0.0810252532362937,-0.6398635864257812,172.8504296875,48.09947113037109,81.08180145263671,74.17290813463212,0.7259949396958941,27.15317687275841,0.9110197610633368,153.9514874267578,97.66221435546875,212.55451751708983
5568.2080000000005,55.279560546875,-17.64068801879883,-7.631995334625243,0.6860713362693787,0.161231865286827,0.1529706843197345,20.23837505340576,-49.87289093017578,-131.35090454101564,-3.839661102294926,-20.66521945953369,-2.161457786560059,-0.6326911282539368,0.0747359585762023,-0.6394164752960204,172.7786993408203,48.47965301513672,81.09057037353516,58.52581516578776,0.7211723948513061,21.12974662541527,0.902627805995101,152.54032428741453,98.3525439453125,212.44147491455078
5568.240000000001,52.56342193603516,11.68237686157227,-7.627359638214111,0.6632502746582031,0.1648477602005004,0.1951114507764577,21.319776954650884,-49.63205642700196,-130.9645669555664,-17.05566764831544,-11.957193222045898,-5.663185043334961,-0.6194780397415162,0.074525814950466,-0.6471038198471069,172.54694946289064,48.68473495483399,81.24764923095702,54.38352572068236,0.7107349640346938,21.58568816401708,0.8989162878025626,151.22717250823976,98.31679138183596,212.21221618652342
5568.272,48.7261929321289,38.53347457885742,-8.288767833709716,0.6368015909194946,0.170809444785118,0.2527559193968772,22.13452293395996,-48.890624847412106,-130.3288107299805,-28.732603607177737,-2.371770591735841,-8.662372703552247,-0.6102874851226806,0.0781596541404723,-0.6599573588371277,172.17665954589845,48.69776489257812,81.54399261474609,62.67195714974633,0.7061003380650376,30.10356302237782,0.9022768208903528,150.04213661193847,97.58838973999022,211.87280334472658
5568.303,43.63669227600097,62.21009231567383,-9.450211696624754,0.6128936386108399,0.1805252230167388,0.3184104291349648,22.687595672607426,-47.70807189941407,-129.4758126831055,-39.0409952545166,5.916024398803712,-10.878647613525391,-0.6153095841407776,0.0834943714737891,-0.6757406878471375,171.6750653076172,48.54888229370117,81.95503906249999,76.57390547586094,0.7138719561495538,40.95782744543087,0.9177160081503548,148.98746963500977,96.25695419311523,211.43085174560548
5568.335,36.9689892578125,82.71409042358398,-10.894899196624754,0.5913666391372681,0.1950495570898055,0.3733312556147575,22.988840866088868,-46.14017761230469,-128.44952239990235,-48.35633789062501,10.853326683044434,-12.201357803344726,-0.6326193952560425,0.0884193491935729,-0.6893410038948059,171.03265075683595,48.310647277832025,82.4376953125,91.25253832003634,0.7260406724311859,51.03923242493387,0.9397958822088096,148.04380989074707,94.45082489013672,210.88721771240233
5568.365,30.11953926086425,100.26832153320314,-12.666667041778563,0.5709428691864014,0.2104453945159911,0.4165545493364334,23.079735794067386,-44.23730377197266,-127.29974182128908,-56.75899665832519,12.257761764526368,-12.7052290725708,-0.6543262076377868,0.0952344474196433,-0.6971450734138489,170.23617126464845,48.05662826538086,82.94605468749998,105.45789397821213,0.7374148876451238,59.44122534842424,0.9608452733724476,147.15643547058107,92.29393203735353,210.24579650878906
5568.396,23.52610416412353,115.42256484985352,-14.286281261444092,0.5488018846511842,0.227576024532318,0.4557822942733764,22.997752838134765,-42.03873649597168,-126.06057586669922,-64.24769760131836,10.324719963073733,-13.130290260314942,-0.684723777770996,0.1060024106502532,-0.6974479365348816,169.28619140625,47.85972732543945,83.4544464111328,118.6589393427268,0.7488069546363258,66.38351460796923,0.9831158563899848,146.28843856811523,89.89846382141113,209.51502227783203
5568.426,16.24959217071533,128.59299987792969,-15.592548599243162,0.5224258100986481,0.2482565844058989,0.4923387002944945,22.758655319213865,-39.57655258178711,-124.76153106689452,-69.64953002929687,5.315456809997558,-14.221118659973149,-0.7180358910560608,0.1219928070902823,-0.6894696974754334,168.2224853515625,47.787443237304686,83.95934265136718,130.5501299698302,0.7595771551105155,71.28500073887852,1.0029088939496469,145.46383003234865,87.3639958190918,208.7208737182617
5568.456,8.663347206115724,139.92646179199215,-16.648719024658202,0.4886065769195556,0.2662351608276366,0.5178342700004578,22.38268898010254,-36.88419776916504,-123.4302542114258,-72.59413696289062,-2.877887687683105,-15.698414154052736,-0.73858412027359,0.1376170781254767,-0.6719257831573486,167.08552490234374,47.90177062988281,84.44615203857423,141.17948908960383,0.7601117543209486,74.3278626484174,1.0079331431120433,144.7028359222412,84.78596839904785,207.87640625000003
5568.487,3.126723880767823,149.28067321777343,-17.572842025756835,0.448682461977005,0.2800988882780074,0.549471116065979,21.92806739807129,-33.99525604248047,-122.09116424560548,-73.44382644653321,-11.805394439697269,-17.166679458618166,-0.7549066996574402,0.153020275235176,-0.6469640243053436,165.90702087402343,48.21401779174805,84.9017367553711,150.3439409335821,0.7626859421092766,76.3417177211796,1.005913405103095,143.97895347595215,82.20927383422853,206.9929010009766
5568.517,-1.1297045135498045,156.98916381835937,-18.25711208343506,0.4038976907730102,0.2965532666444778,0.5883170127868652,21.43131286621093,-30.938339462280272,-120.75970397949216,-71.8664552307129,-20.13176582336426,-17.995051012039184,-0.7722191143035888,0.1678864368796348,-0.6181938242912292,164.71971496582032,48.70755905151368,85.30698303222657,158.05124463382984,0.7727833409848723,76.77172163968145,1.0033303646236238,143.28840209960939,79.64589851379395,206.06668701171873
5568.547,-5.248506679534912,162.9717272949219,-18.837986907958985,0.3569857782125473,0.3100826573371887,0.628953664302826,20.90461456298828,-27.74698677062988,-119.45249877929687,-67.6651483154297,-27.267856750488285,-17.212539653778077,-0.7807841992378235,0.1764759755134582,-0.5892581951618194,163.54557556152344,49.34384872436523,85.61908691406249,164.14079465690406,0.7868753472229654,74.955852537658,0.9939783479926716,142.64096099853515,77.0908354949951,205.07158569335937
5568.581,-8.205358543395995,167.27305419921873,-19.250527992248536,0.3084597873687743,0.3162734580039978,0.6670168161392211,20.37588020324707,-24.45628913879394,-118.1801010131836,-61.84141471862794,-33.33845672607422,-14.173634157180786,-0.783088767528534,0.1746246311068534,-0.5615150618553162,162.37319458007812,50.08250839233399,85.77618682861328,168.57694207079683,0.8000548566654037,71.67081118906955,0.9792961473981926,141.99731437683104,74.53879753112793,203.9562878417969
5568.613,-9.655719623565671,170.10763671875,-19.44128944396973,0.2604041317105293,0.3204939675331116,0.71382159948349,19.872980957031253,-21.09486026763916,-116.94583557128904,-55.207749938964845,-36.88616859436035,-9.583196601867677,-0.7956594681739807,0.1703881520032882,-0.53449946641922,161.19101135253908,50.86290451049805,85.74322204589843,171.48703952990542,0.8246623375213626,67.08444487364338,0.9735480425949344,141.31803039550783,71.9577647781372,202.68905761718747
5568.643,-11.409157409667968,171.73086669921875,-19.255695228576663,0.212828846015036,0.3209687066078185,0.7596852397918701,19.38636566162109,-17.691912689208984,-115.74819946289062,-47.095313911438,-38.10642250061036,-3.812412748336792,-0.8028654980659485,0.1650962060689925,-0.514116348028183,160.0142791748047,51.62769470214844,85.50226196289063,173.18325914706435,0.8517268880781086,60.70092683951036,0.967556398641906,140.62791351318361,69.31960739135742,201.25046142578125
5568.6720000000005,-13.17297819137573,172.0752478027344,-18.642565078735352,0.1662404639273881,0.3129844105243683,0.8043455529212953,18.9130428314209,-14.277123334407808,-114.5849609375,-38.57881618499757,-38.36703536987305,2.39503791809082,-0.8114060044288636,0.1572659128904342,-0.496934974193573,158.84645935058592,52.35128158569336,85.04787872314452,173.58272809677177,0.8789578497188268,54.46182762208787,0.9643944421020072,139.933416519165,66.62840492010116,199.63283966064452
5568.703,-14.472703704833984,171.53757263183593,-17.57405158996582,0.1176084576174616,0.3049321043491363,0.8410560941696167,18.4604330444336,-10.871796021461488,-113.45069396972656,-29.978248386383065,-38.08433700561524,7.336467161178588,-0.8277608704566954,0.1520853823423385,-0.4836060798168182,157.71924560546876,53.0302017211914,84.4227084350586,173.0417442880101,0.9023251581917696,49.01974961053968,0.970666195258304,139.25881256103514,63.901997742652895,197.87340240478517
