Timestamp (ms),Wrist Gyroscope X (deg/s),Wrist Gyroscope Y (deg/s),Wrist Gyroscope Z (deg/s),Wrist Accelerometer X (g),Wrist Accelerometer Y (g),Wrist Accelerometer Z (g),Wrist Roll (deg),Wrist Pitch (deg),Wrist Yaw (deg),Arm Gyroscope X (deg/s),Arm Gyroscope Y (deg/s),Arm Gyroscope Z (deg/s),Arm Accelerometer X (g),Arm Accelerometer Y (g),Arm Accelerometer Z (g),Arm Roll (deg),Arm Pitch (deg),Arm Yaw (deg),Wrist Gyroscope Magnitude (deg/s),Wrist Accelerometer Magnitude (g),Arm Gyroscope Magnitude (deg/s),Arm Accelerometer Magnitude (g),Difference Roll (deg),Difference Pitch (deg),Difference Yaw (deg)
0.0,9.868733406066896,10.685612678527832,15.996068000793455,-0.7460221648216248,-0.0785178542137146,0.652225136756897,-14.871009826660156,47.256378173828125,-152.36203002929688,-9.170278549194336,12.61366367340088,-2.645158052444458,-0.9039210677146912,-0.0162459723651409,-0.5208874940872192,-165.5397186279297,60.87311553955078,59.70875930786133,21.62055523897441,0.9940381043265004,15.81756558569929,1.0433891938164872,-150.66870880126953,13.616737365722656,212.0707893371582
11.839,9.470370769500732,11.487303018569946,15.53278136253357,-0.7533115595579147,-0.0773152559995651,0.6727776974439621,-14.751689434051514,47.339895248413086,-152.27027893066406,-8.922446489334106,11.984185218811035,-2.5369828939437866,-0.9095115512609482,-0.0105107632698491,-0.52389095723629,-165.62170028686523,60.82182788848877,59.671966552734375,21.5154212138301,1.0129589255008593,15.154769180623068,1.0496587412562082,-150.87001085281372,13.481932640075684,211.94224548339844
34.599,9.43798828125,11.999221007029217,15.162816524505615,-0.7570162249935998,-0.0771630240811241,0.6859309176603953,-14.631316079033745,47.422723134358726,-152.18198988172742,-8.700613445705839,11.320659001668297,-2.373046318689982,-0.9131866925292546,-0.0098897381426973,-0.5264055298434364,-165.6996163262261,60.776777267456055,59.637101067437065,21.51668962755108,1.0244651877888953,14.473746695113144,1.0540922749848798,-151.06830024719235,13.354054133097328,211.8190909491645
57.792,9.828822553157806,12.242157340049744,15.005044996738434,-0.7599744113783041,-0.0759357588055232,0.6945764124393463,-14.49927900234858,47.50382876396179,-152.09048430124918,-8.363381942113241,10.542528077960014,-2.1219335943460464,-0.9158741893867652,-0.011439250675418,-0.5270438951750597,-165.77213064829508,60.74088382720947,59.60272256533305,21.716987463139137,1.0323583380456047,13.62327632998228,1.0567552482397136,-151.2728516459465,13.23705506324768,211.69320686658222
80.493,10.245910634994509,12.271051959991455,14.941082849502564,-0.7624247791369756,-0.0744070578863222,0.6988357210159302,-14.358295157750447,47.58224834442139,-151.99505162556966,-8.038630549112955,9.800349996089937,-1.8278333020210265,-0.9163993765910468,-0.0139199865687017,-0.5271843324104946,-165.8417358907064,60.71206130981445,59.56727845509848,21.881347254243813,1.0369181834036951,12.806538007243375,1.05731022116578,-151.48344073295596,13.129812965393064,211.56233008066815
102.394,10.881756048202517,12.568439388275149,14.657155618667602,-0.7686539222796758,-0.0724894387771685,0.7104018330574036,-14.02438135464986,47.77060527801514,-151.76577794392904,-7.439992376963298,8.331502816677094,-1.219347937107086,-0.9183411266406376,-0.017139196943802,-0.5282693539063136,-166.01485478719076,60.636365509033205,59.479175122578944,22.163269031872925,1.04916840182188,11.236290987033827,1.0595813735754644,-151.9904734325409,12.865760231018065,211.24495306650797
112.592,12.024464864730836,12.328791160583496,14.541840314865112,-0.7704100741942723,-0.0715986250092585,0.7100490796566009,-13.612835944493613,47.981442832946776,-151.4929233296712,-6.930769373575846,6.979543130397796,-0.4042551922798157,-0.9150729860862096,-0.0251573773271714,-0.5272363565365474,-166.2157932027181,60.56395378112793,59.36906922658285,22.54000813015524,1.050156055567184,9.844440495999008,1.0563946417663466,-152.60295725822448,12.582510948181152,210.86199255625405
134.701,13.41247893333435,11.698656730651855,14.48616862297058,-0.7691325694322586,-0.0708846431225537,0.7023357546329498,-13.119367380142211,48.20960552215577,-151.17504653930663,-6.425747489929199,5.95761071920395,0.6447771811485291,-0.9068927317857742,-0.0329229923570527,-0.5236636310815811,-166.4548390197754,60.491030960083,59.22457118988037,22.94781562179505,1.0439660215868691,8.786301491482924,1.0477413559219435,-153.33547163963317,12.281425437927233,210.399617729187
155.42600000000002,14.527909393310546,10.921965293884275,14.166937446594238,-0.7625745034217835,-0.0715496119856834,0.688632197380066,-12.55766716003418,48.45128219604493,-150.8219012451172,-5.995346837043762,5.448294610977173,1.9211215591430664,-0.8944771194458007,-0.0384484980627893,-0.5189592826366425,-166.74664428710938,60.40994827270508,59.030347747802736,23.044556707317405,1.0299774383513358,8.325791608577399,1.034836383806677,-154.1889771270752,11.958666076660151,209.85224899291995
176.786,15.370943565368652,10.178206062316894,13.386318645477294,-0.7517189121246337,-0.0743202608823775,0.6747174429893494,-11.944611015319824,48.703264007568364,-150.44925903320313,-5.502841124534607,5.189704005718232,3.377215204238892,-0.8812477803230285,-0.0394778759963809,-0.5124534273147583,-167.1011669921875,60.319880676269534,58.77338302612304,22.78278542266036,1.0128417704150798,8.283711163758639,1.0201787432524227,-155.15655597686768,11.61661666870117,209.22264205932618
199.351,15.76436168670654,9.425323028564453,12.055489315986632,-0.7383523631095887,-0.0794050922989844,0.6604017519950867,-11.357034225463869,48.93101394653321,-150.1148419189453,-4.961287636756897,4.872723736763001,4.950655698776245,-0.8679973316192626,-0.0364538021385669,-0.5050986123085022,-167.4942510986328,60.24297103881836,58.45920394897461,21.970130546493262,0.9937805868654832,8.536205449570444,1.0049243033903064,-156.1372168731689,11.311957092285148,208.57404586791992
222.064,15.521983642578125,9.116944580078126,10.189441294968129,-0.7276971292495727,-0.0873034107685088,0.6427813684940339,-10.82362937927246,49.14290115356446,-149.83901794433592,-4.087308971881867,4.074706213474274,6.515191974639893,-0.8593662095069885,-0.0320298126339911,-0.4989105391502381,-167.9173028564453,60.1890950012207,58.09035507202149,20.685148502736947,0.9748501859942108,8.703852700049785,0.9942071801264356,-157.09367347717284,11.046193847656241,207.9293730163574
232.019,14.423242416381836,9.544875030517575,7.866841827034951,-0.7213995528221131,-0.0928340451419352,0.6254103708267212,-10.373363418579103,49.354261016845705,-149.63867614746096,-2.333844356536866,2.3573215866088866,7.872424688339234,-0.8569559907913208,-0.0318307578563689,-0.4960846543312072,-168.335390625,60.17472152709961,57.68559509277344,19.000572661935763,0.9592567991351308,8.54276682444302,0.99070013200855,-157.96202720642088,10.820460510253902,207.3242712402344
254.358,12.133638381958008,10.761838188171383,5.318353506028652,-0.7211377906799317,-0.0947511702030896,0.6151490628719329,-10.034934692382812,49.580174407958985,-149.52254150390624,1.1490662407875056,-0.3257436299324036,8.993230142593385,-0.8607142019271852,-0.0370519345998763,-0.4964243602752685,-168.69459472656249,60.21692367553711,57.26584777832032,17.06831056629788,0.95258903360988,9.072191054856004,0.9943032378160368,-158.65966003417967,10.636749267578125,206.78838928222655
279.274,8.654653625488281,12.80167324066162,2.8472162783145905,-0.727776482105255,-0.0968186333775519,0.6072851276397705,-9.83403865814209,49.83916595458985,-149.4933447265625,6.451626162528991,-3.6207068538665768,10.093150386810304,-0.8713240242004396,-0.0451810458302497,-0.4982076466083526,-168.9501934814453,60.32717514038086,56.83969818115234,15.712813486875888,0.9527999170481962,12.514179277660755,1.0047177420500728,-159.11615482330322,10.488009185791007,206.33304290771486
302.09200000000004,4.226601219177246,15.54539394378662,0.6705571523308753,-0.7400111937522889,-0.096246568635106,0.6056752765178681,-9.782732734680176,50.14553588867188,-149.54412109375,12.221555564403534,-7.314832293987274,11.091669483184813,-0.8892213058471681,-0.0521038062870501,-0.4980193424224853,-169.08245727539062,60.51258255004883,56.41792892456054,16.12368064766883,0.9611048379015246,18.052654204497887,1.0205158513365022,-159.29972454071046,10.367046661376953,205.96205001831055
322.616,-1.3895375823974607,18.340170516967778,-1.2522704446315769,-0.7524345588684083,-0.0933036340773104,0.6207391500473023,-9.898382415771485,50.49648773193359,-149.6674755859375,16.88301688671112,-11.255360989570615,11.974934005737303,-0.9080397748947144,-0.0575015868246554,-0.4942388463020324,-169.11092224121094,60.77909774780274,56.004415893554686,18.435315309233168,0.9798879660006934,23.56095190446016,1.0354297187507036,-159.21253982543945,10.282610015869146,205.6718914794922
332.286,-7.476579246520996,20.539869117736817,-2.883075069487095,-0.7605431580543518,-0.0980389039963483,0.6449484264850616,-10.186992988586423,50.87447174072266,-149.85643676757812,19.19278673410416,-14.928406774997711,12.734463539123537,-0.9254102110862732,-0.0591885315626859,-0.4831969964504242,-169.0837628173828,61.12382278442383,55.59889419555664,22.04762078909117,1.0019960053740975,27.44789523970588,1.045641754345148,-158.89676982879638,10.249351043701168,205.45533096313477
354.238,-12.635526885986328,21.6339291381836,-4.365683645606041,-0.7693055582046509,-0.1175505639612674,0.6686929416656494,-10.631335868835448,51.2598518371582,-150.10825073242188,17.480569767951966,-18.55696281433105,13.21949436187744,-0.9399762439727782,-0.0539145725220441,-0.4645175647735595,-169.07919982910155,61.54785278320312,55.205701446533205,25.43113492032836,1.0260601479473028,28.71735049562217,1.0498755585051804,-158.44786396026612,10.288000946044917,205.31395217895508
371.914,-16.22098575592041,21.07065380096436,-6.0125584456324574,-0.7768154096603394,-0.1437194085866212,0.6946913683414458,-11.198025093078613,51.618833312988286,-150.41984313964844,10.819875166416166,-22.50528141021729,12.920801181793212,-0.9466047596931456,-0.0493320951517671,-0.4428034019470214,-169.16965942382814,62.05461624145507,54.85568008422852,27.26249602578628,1.0519950315179056,28.11591174316298,1.046216554763705,-157.9716343307495,10.435782928466786,205.27552322387695
392.887,-17.886965737342834,19.01941699981689,-7.803180570602417,-0.7743985891342163,-0.1695452070236205,0.7092161226272584,-11.847569046020508,51.92229675292968,-150.78858642578126,1.4458395385742189,-26.35714351654053,11.807391057014463,-0.9437400579452516,-0.0542886656336486,-0.4218209946155548,-169.38374755859374,62.64041259765624,54.57827865600586,27.25016317968073,1.063685226310956,28.917191251850245,1.0351451626150048,-157.53617851257323,10.718115844726555,205.36686508178713
414.279,-16.75876809120178,16.218960838317873,-9.444536066055296,-0.7674582123756408,-0.1846848785132169,0.7076839590072632,-12.51302921295166,52.16071289062499,-151.2020458984375,-8.08294506072998,-29.711670837402345,9.858457174301147,-0.9372881269454956,-0.058009686069563,-0.3993596816062926,-169.69619750976562,63.29195449829101,54.40478530883789,25.16168237842198,1.0601496111070596,32.33120107052093,1.0204716124829558,-157.18316829681396,11.13124160766602,205.60683120727538
436.643,-14.465790095329282,13.196173477172852,-11.318221855163577,-0.7715210247039795,-0.1939452570676803,0.6942315816879272,-13.171816787719726,52.33795867919922,-151.6626904296875,-17.6122957611084,-32.91419418334961,7.582218520641328,-0.926919777393341,-0.0520106526836752,-0.3838225901126861,-170.10927612304687,64.00108200073242,54.33509643554688,22.61637069656556,1.0558489206852697,38.09235065483303,1.0045920377926123,-156.93745933532713,11.663123321533206,205.9977868652344
452.443,-11.923389339447022,10.369136238098145,-13.269880161285403,-0.7824481678009033,-0.1957488507032393,0.6696239948272705,-13.816434440612792,52.456268768310544,-152.1694317626953,-27.35967517852784,-35.44155426025391,5.001402754783631,-0.914510736465454,-0.0468817544262856,-0.379604742527008,-170.61991088867188,64.74698410034179,54.37681564331054,20.63433835040889,1.0483029344111665,45.05185483165628,0.9912757167194554,-156.8034764480591,12.290715332031247,206.54624740600585
474.296,-9.370010256767271,8.655907974243163,-14.707141590118407,-0.7912842893600465,-0.1860300779342651,0.6218305039405823,-14.436365547180175,52.54017135620118,-152.70777099609376,-35.74450561523438,-36.52523963928223,2.369760477542877,-0.9069695210456848,-0.0508282054588198,-0.3852047061920166,-171.2004052734375,65.49976272583008,54.5282926940918,19.468483475152368,1.0234310881125612,51.1603222928222,0.9866913824740138,-156.76403972625732,12.959591369628903,207.23606369018557
496.851,-7.349334182739257,8.20406764984131,-15.201167345046995,-0.811780822277069,-0.1702777704596519,0.5766761231422424,-15.02445743560791,52.61953125,-153.25459716796874,-41.41940200805664,-36.20031791687011,-0.2023897743225097,-0.9024737453460692,-0.0599968918133526,-0.3980958068370819,-171.8033905029297,66.22978836059569,54.78087646484374,18.77218494434986,1.0102167953127243,55.00973406232959,0.9881997568748396,-156.7789330673218,13.61025711059569,208.03547363281248
519.0120000000001,-7.389880948066711,8.3313822555542,-15.389390869140628,-0.8412321138381958,-0.1701046031713485,0.5404926061630249,-15.61917324066162,52.70582946777344,-153.80371704101563,-43.554115829467776,-34.55233379364014,-2.024026930332184,-0.8954518032073974,-0.0774693092517554,-0.4237039625644684,-172.3942248535156,66.91001815795899,55.09401229858398,18.99620019998609,1.0142678653539507,55.63201831039866,0.9936601399050664,-156.77505161285399,14.204188690185546,208.8977293395996
542.289,-7.070505819320678,8.816378097534178,-14.426142940521242,-0.8563479065895081,-0.1685582742094993,0.5108601045608521,-16.184044456481935,52.80504486083985,-154.3164990234375,-40.3988136291504,-31.214068470001216,-3.137527551651001,-0.8929329180717469,-0.10471593699418,-0.4458114457130432,-172.89625610351564,67.51171508789062,55.43352111816406,18.32577898590068,1.0112970262769698,51.14905954394588,1.003515056571374,-156.7122116470337,14.706670227050772,209.75002014160157
552.62,-6.376635985374451,9.727734336853027,-12.23502980709076,-0.8556996512413025,-0.1481529358029365,0.488095554113388,-16.680396575927738,52.93196121215821,-154.75420166015624,-30.6488990020752,-26.636240806579583,-3.2971218657493586,-0.8959813761711122,-0.1296260040998458,-0.4561560750007629,-173.2303942871094,68.02125122070314,55.74258819580079,16.88153595496456,0.996196996314871,40.73960415790885,1.013737585445304,-156.54999771118165,15.089290008544928,210.49678985595705
573.954,-6.229772129058838,10.433369636535645,-9.217799453735353,-0.8588718914985657,-0.1260242438316344,0.4931492114067078,-17.096561546325685,53.08941162109376,-155.0906396484375,-16.595340938568114,-21.619397535324094,-2.471390862464905,-0.8942235040664672,-0.1356950595229863,-0.4565137493610381,-173.363095703125,68.43150238037109,55.96563919067383,15.252314234956804,0.9983682590861536,27.36624679149056,1.0131404778013415,-156.2665341567993,15.342090759277326,211.05627883911134
594.201,-6.885307092666625,10.392420120239258,-6.364970650672913,-0.8547032594680786,-0.1200370576977729,0.5043533313274383,-17.448979835510254,53.26344314575196,-155.32682189941406,-2.191314401626587,-16.239631938934327,-0.7015551257133482,-0.8894744253158569,-0.1212295852601527,-0.449270486831665,-173.32937133789062,68.73654266357423,56.05705978393554,13.997239052749176,0.9996493584188312,16.401819530565707,1.0038452749160518,-155.88039150238038,15.47309951782227,211.3838816833496
616.488,-6.4050647830963126,9.969530868530274,-3.045077714920044,-0.8410499453544616,-0.1115556144714354,0.5103839755058288,-17.704103622436527,53.44873428344727,-155.4510711669922,9.079270629882812,-10.785676507949828,1.1270147323608402,-0.8910221409797667,-0.0975711903721093,-0.427372703552246,-173.19047180175784,68.93767333984376,56.01813842773438,12.23474147271373,0.990101746364472,14.143342430689849,0.9930196476648152,-155.48636817932132,15.488939056396482,211.46920959472658
638.905,-6.296986370086669,9.292328052520752,0.1080230951309204,-0.8335565328598022,-0.1045915803313254,0.5166816651821137,-17.872549133300783,53.64172836303711,-155.4724987792969,15.034394884109496,-5.853711318969726,2.217956545352936,-0.8941340041160583,-0.0744005889445542,-0.404298141002655,-173.0103155517578,69.04529113769532,55.8944790649414,11.225465111513335,0.9862635729280588,16.285524154114476,0.984107743984425,-155.137766418457,15.403562774658205,211.3669778442383
662.1080000000001,-6.549889097213745,8.294196434020996,2.870178346633911,-0.8313175249099732,-0.1173497158288954,0.5281981897354127,-17.970472717285155,53.83378723144531,-155.40345458984376,15.33047580718994,-1.4547197628021238,2.277790007591248,-0.8961158013343811,-0.0563625644147395,-0.3870177173614501,-172.83926696777343,69.06455718994141,55.75258438110352,10.951377329514871,0.9918936992779688,15.566888750864948,0.9777438220823658,-154.86879425048826,15.230769958496104,211.1560389709473
672.471,-6.26244854927063,7.283373737335205,5.14226888179779,-0.8192830967903137,-0.136860010921955,0.5326881659030914,-18.000899353027343,54.01723388671875,-155.26490661621094,12.142915029525756,2.4877798652648924,1.5926720499992375,-0.9046493363380432,-0.0466340618580579,-0.3696083366870879,-172.7054132080078,69.0081655883789,55.63689254760743,10.895353325279173,0.98676853282271,12.49704118306204,0.9783534535181232,-154.70451385498046,14.990931701660152,210.90179916381837
694.096,-5.175538759231567,6.720570373535156,7.301651983261109,-0.8080197501182557,-0.1457694473862647,0.5379578924179078,-17.95036506652832,54.19690963745118,-155.06272766113278,7.186189308166503,5.389807558059692,0.4515154266357422,-0.9196918272972108,-0.0438718223571776,-0.3519186067581176,-172.6231561279297,68.90088653564453,55.57106384277344,11.19224683781624,0.9816024360132684,8.994176363970967,0.9857000049593166,-154.67279106140137,14.703976898193353,210.63379150390622
718.866,-4.484887561798096,6.588884716033935,9.034500451087952,-0.80092933177948,-0.1499476155638694,0.5468955862522125,-17.835987167358397,54.37875518798828,-154.80864868164062,1.718234643936157,7.034504928588868,-0.7335095691680908,-0.9319863295555114,-0.0420755130797624,-0.3414131903648376,-172.6009716796875,68.76752655029297,55.55815139770508,12.04781377030145,0.9813597017302907,7.278366998855213,0.9934444291626868,-154.76498451232908,14.388771362304688,210.3668000793457
741.385,-4.143835496902466,6.816246070861817,10.31673409461975,-0.792544641494751,-0.1572611269354819,0.5539261746406556,-17.682906570434568,54.5666096496582,-154.52025634765624,-3.1099232292175296,7.708891324996948,-1.418304762840271,-0.9392165923118592,-0.0402903689444064,-0.3356582939624786,-172.64558349609376,68.62518218994141,55.57729537963867,13.040996338586162,0.9796388506787036,8.432687374291508,0.9982071986363248,-154.9626769256592,14.058572540283215,210.0975517272949
761.441,-3.946083164215088,7.283451347351075,11.270260105133058,-0.7867960071563721,-0.1615628659725188,0.5567408108711243,-17.5063948059082,54.76366394042968,-154.2111065673828,-6.831268320083618,7.539756288528443,-1.354563102722168,-0.942103967666626,-0.0390759139508008,-0.3312851428985596,-172.7665460205078,68.49092987060547,55.59437759399414,13.987101154473924,0.9772977269122756,10.26396575163024,0.9994181601560022,-155.2601512145996,13.72726593017579,209.80548416137697
771.617,-4.240578889846802,7.7611544227600096,11.92715549468994,-0.7907775282859802,-0.1666161829233168,0.5563109707832335,-17.326123123168948,54.97198394775391,-153.88890075683594,-10.023460330963136,6.6990757751464844,-0.9111119461059572,-0.9396618866920472,-0.0414369615167378,-0.3336787700653076,-172.9634051513672,68.37402465820313,55.59786727905273,14.848402792538126,0.981107510860968,12.09038867141512,0.9980095213341872,-155.63728202819826,13.402040710449214,209.48676803588867
793.862,-4.734423694610596,8.089245986938476,12.340953330993653,-0.7988988113403319,-0.1745305627584456,0.5491768431663513,-17.15583869934082,55.19117477416992,-153.56257080078123,-12.387804870605468,5.660028038024903,-0.4667603302001953,-0.9330987405776976,-0.0467741432040928,-0.3421600127220153,-173.21380432128908,68.27390747070312,55.593389434814455,15.496767323382445,0.9850357522282804,13.627600379717377,0.9949545489348206,-156.05796562194826,13.0827326965332,209.15596023559567
811.504,-5.178402671813965,8.222100887298584,12.354289665222169,-0.810511589050293,-0.1872553247213363,0.5389954781532287,-17.00916862487793,55.416926879882816,-153.2478552246094,-13.74524393081665,4.859970664978027,-0.1710919904708862,-0.9263082814216612,-0.0529820989817379,-0.3529503214359283,-173.49009033203123,68.18402526855468,55.58884643554687,15.717737444192831,0.991216282196248,14.580134363280134,0.9926872943906292,-156.4809217071533,12.767098388671862,208.83670166015628
833.954,-5.117722966670991,8.140313835144044,12.028619976043702,-0.8261124992370605,-0.1993043690919875,0.5288198733329772,-16.882933044433592,55.64464294433593,-152.95355224609375,-14.447068138122557,4.439090538024902,-0.1475559973716735,-0.9215939021110534,-0.0583318792283534,-0.3651775884628295,-173.76937377929687,68.09587677001953,55.59498275756837,15.399464153869344,1.0009168553714956,15.114399603183005,0.993021953260912,-156.88644073486327,12.451233825683602,208.54853500366212
857.735,-4.727193939685821,7.952179718017578,11.196998367309572,-0.84146892786026,-0.2106920105218886,0.518801577091217,-16.783248519897462,55.86939147949219,-152.69171020507815,-14.59716993331909,4.428007907867432,-0.512369327545166,-0.9195221710205076,-0.0646141602098941,-0.3794362819194793,-174.02284606933594,67.99986389160156,55.63079498291015,14.524334657690371,1.010750293714716,15.262606147776353,0.9968289245074986,-157.23959754943849,12.130472412109377,208.3225051879883
871.4739999999999,-3.9896058249473576,7.707467613220215,9.907362933158874,-0.8533706951141357,-0.2206237834692,0.5147521305084227,-16.712588272094727,56.08399154663086,-152.47157287597656,-13.88156771659851,4.751285648345947,-1.0343369603157044,-0.9205496907234192,-0.0689959579706191,-0.3905044758319854,-174.23035034179685,67.89153015136718,55.6997575378418,13.17109911649832,1.020728246388238,14.708585606038511,1.0023302454541017,-157.51776206970212,11.807538604736315,208.17133041381837
893.872,-3.2261128354072577,7.301839714050294,8.194617657661437,-0.8614089822769164,-0.2282578796148299,0.519156141281128,-16.67654685974121,56.27834396362304,-152.29991760253907,-12.500684003829956,5.271779918670655,-1.5369234418869018,-0.9238074040412902,-0.0737737341225146,-0.3980083155632019,-174.38047302246096,67.76945709228517,55.79976333618164,11.44012350421612,1.031334181234929,13.653603837109484,1.008599674234205,-157.70392616271974,11.491113128662128,208.09968093872072
916.967,-2.6485296034812924,6.774209594726562,6.374674146175385,-0.8640337371826172,-0.2300180202722548,0.5261629295349122,-16.67497337341309,56.447693786621095,-152.1724822998047,-10.294476251602172,5.68964409828186,-1.996561336517334,-0.9291000151634216,-0.0789885932207106,-0.4015616035461425,-174.45815979003905,67.63838684082032,55.92918670654298,9.671664549792816,1.0374536216412222,11.93040436994449,1.015242708655525,-157.78318641662597,11.190693054199222,208.10166900634766
938.827,-2.625459887981415,6.219431056976318,4.582566093206405,-0.8621663331985474,-0.2254603844881057,0.5339007186889648,-16.712115478515624,56.59103942871093,-152.0829034423828,-7.265528230667114,5.734884896278381,-2.374627137184143,-0.9347574043273926,-0.0821004416048526,-0.4012493216991425,-174.45298706054686,67.508203125,56.082077331542976,8.159305993433875,1.0388518414534125,9.555922733301797,1.0205453961586513,-157.74087158203125,10.917163696289066,208.16498077392578
960.741,-3.16479318857193,5.627069358825684,3.0589819025993346,-0.8580701446533203,-0.2153707352280616,0.5413642406463623,-16.786060104370115,56.70969131469726,-152.02266784667967,-3.873662595748901,5.354679574966431,-2.6385862827301025,-0.9383978056907656,-0.0802597281336783,-0.398033127784729,-174.36928344726564,67.38887664794922,56.24712951660156,7.144032179091611,1.0371808751556588,7.1161782459181175,1.0224785750808816,-157.58322334289554,10.679185333251958,208.2697973632812
981.766,-4.163830850124359,5.082571754455567,1.8954224598407745,-0.8521318912506104,-0.2003345006704329,0.5426207923889159,-16.893274536132814,56.809709472656245,-151.98276611328123,-0.642930021286011,4.690626263618469,-2.8466931724548337,-0.9387195014953612,-0.0757138387858867,-0.3949528264999389,-174.21644653320314,67.28531555175782,56.418399658203136,6.838322110642766,1.0299029063838925,5.524400037589526,1.0212319144208557,-157.32317199707032,10.475606079101574,208.40116577148436
991.262,-5.50008015871048,4.75947099685669,1.1563634109497072,-0.8452969241142274,-0.1825097456574439,0.536089174747467,-17.029724349975588,56.90158111572266,-151.95332092285156,2.1819516849517817,3.923885145187378,-2.9756446456909176,-0.935204496383667,-0.0674840150773524,-0.3918749856948852,-174.0117706298828,67.19883972167968,56.58685852050782,7.364823301366025,1.0174616948358983,5.386301963825934,1.0162320339177244,-156.9820462799072,10.297258605957019,208.54017944335936
1013.513,-6.998833606243133,4.6525223922729495,0.7927329385280609,-0.838571240901947,-0.1648661974072455,0.5267748510837554,-17.190319290161135,56.99296600341796,-151.92615661621093,4.115958976745605,3.2965847158432005,-3.020854043960571,-0.9277106046676636,-0.0575322410464286,-0.3892740583419799,-173.78062805175782,67.12563354492187,56.74476593017579,8.441449044465458,1.0039294461513064,6.077347138505144,1.007715841530092,-156.59030876159667,10.132667541503906,208.67092254638672
1033.653,-8.404408502578736,4.7564955139160165,0.79580961227417,-0.832785816192627,-0.1512010779976844,0.516505161523819,-17.368336791992185,57.09022338867187,-151.89508422851563,4.920315198898315,3.0598642253875736,-3.046523199081421,-0.9191375088691712,-0.0474248848855494,-0.3867398762702941,-173.5489025878906,67.05757873535156,56.88860565185547,9.689770110333315,0.991550081196118,6.546264151167272,0.9983138844142136,-156.18056579589842,9.967355346679682,208.7836898803711
1056.019,-9.509928121566771,5.10517686843872,1.045897799730301,-0.8280184912681581,-0.1428647741675376,0.5064378654956817,-17.55797103881836,57.19889495849609,-151.85681640625,4.402944259643554,3.2008727693557737,-3.114508237838745,-0.9125124406814574,-0.0378917184099554,-0.3838705563545226,-173.34203125,66.98761932373047,57.01932479858399,10.844144315845718,0.9810730233717369,6.271496328843447,0.9906923542444548,-155.78406021118164,9.78872436523438,208.876141204834
1079.7969999999998,-10.148452129364014,5.6326742935180665,1.4998895525932312,-0.8259010910987854,-0.1398431041836737,0.496727534532547,-17.750709381103515,57.32347442626953,-151.8087811279297,2.400714817047118,3.601091022491455,-3.2817554759979246,-0.9079421639442444,-0.0301390484720467,-0.3819574236869812,-173.1836474609375,66.91028564453124,57.14307723999024,11.70332298916981,0.973861873998912,5.43150137524612,0.985473900628603,-155.43293807983397,9.586811218261715,208.95185836791995
1100.978,-10.249935111999513,6.244057292938232,2.048751734495163,-0.8270666766166688,-0.141939322054386,0.4891585433483123,-17.938464965820312,57.46527374267579,-151.75351257324218,-0.9404055309295656,4.103335719108581,-3.616184482574463,-0.9054487538337708,-0.0268640669062732,-0.3819684481620788,-173.0864337158203,66.82248199462892,57.27408416748047,12.175664456089963,0.9713197924708644,5.54964114140073,0.983086476003622,-155.14796875,9.357208251953125,209.02759674072263
1111.331,-9.657083892822266,6.884636936187744,2.6151721310615543,-0.8318978953361512,-0.1485780963301657,0.4833416378498077,-18.11136215209961,57.62443862915039,-151.69600463867187,-4.874751663208008,4.594585056304932,-4.002658824920654,-0.905113890171051,-0.0280746474862097,-0.3857327091693878,-173.05312683105467,66.72270355224609,57.42118957519531,12.14481866193188,0.9735238558212884,7.803505192302047,0.9842809877952556,-154.94176467895505,9.098264923095698,209.11719421386718
1139.305,-8.466080989837646,7.42999885559082,3.1143696784973143,-0.8384698557853699,-0.1558259072899817,0.4793694245815277,-18.25860969543457,57.79819290161133,-151.63916870117188,-8.45211812019348,4.939908800125123,-4.211988615989685,-0.9052317643165588,-0.0334918395802377,-0.3928619813919067,-173.07755310058593,66.61250396728515,57.582290344238274,11.686689386430816,0.9783192002956448,10.657478490359871,0.987373681474908,-154.81894340515137,8.81431106567382,209.22145904541014
1158.592,-6.9045088374614725,7.718151359558105,3.4986257314682008,-0.8475847911834716,-0.1627400648593902,0.4772250282764435,-18.372884063720704,57.9807682800293,-151.58551513671875,-10.805161986351012,5.159617919921876,-4.051039838790894,-0.9047538208961484,-0.0423754477500914,-0.4029220914840697,-173.14616760253907,66.49352569580078,57.74457229614258,10.930804394211965,0.9862190601328996,12.64057381633978,0.9913230385722396,-154.77328353881836,8.512757415771482,209.33008743286132
1180.954,-5.178239018917084,7.668875656127929,3.7674420261383057,-0.8568830704689026,-0.1685257837176322,0.4788926756381988,-18.448616790771485,58.16340911865234,-151.53483337402344,-11.42246307373047,5.290332489013672,-3.462983493804932,-0.904389600753784,-0.053166449703276,-0.4133925163745879,-173.2399713134766,66.3683627319336,57.89033584594726,9.990967550067412,0.9959858086407504,13.055747209310354,0.9958115252999205,-154.7913545227051,8.204953613281262,209.4251692199707
1191.0449999999998,-3.4093998110294343,7.266292715072632,3.991702003479004,-0.8650235533714294,-0.1724054098129271,0.4837935936450958,-18.47968788146973,58.33758285522462,-151.48086364746092,-10.07045864582062,5.444992370605469,-2.4960813236236574,-0.9046033573150634,-0.0628338896483182,-0.4230210399627685,-173.33805175781248,66.23816314697265,57.99960922241212,8.964189967707258,1.0060047785533297,11.717188281634714,1.0006008854709272,-154.85836387634276,7.900580291748035,209.48047286987304
1212.09,-1.7272788953781126,6.4825182223320015,4.14873173713684,-0.8710604405403137,-0.1735327941179275,0.4901535320281982,-18.46280632019043,58.49483993530274,-151.416640625,-7.25602336883545,5.682608470916748,-1.3280757141113282,-0.904832627773285,-0.0687876581773161,-0.429267017841339,-173.42520080566405,66.10376983642578,58.05783782958984,7.887871063348561,1.0144507906588562,9.31158951335556,1.0038545705464632,-154.96239448547362,7.608929901123041,209.47447845458987
1236.027,-0.1788471162319183,5.336586756706238,4.23971661567688,-0.8748630070686341,-0.1734542363882064,0.4976981568336486,-18.397643432617187,58.62704071044923,-151.33686096191406,-3.856784052848816,6.022851753234863,-0.1876243162155153,-0.9052074527740478,-0.0702281402796506,-0.4325239968299865,-173.4947723388672,65.96496459960937,58.06051391601562,6.8180892839624425,1.0213594414180542,7.15435037971922,1.0056885860337703,-155.09712890625002,7.337923889160145,209.39737487792968
1251.0079999999998,1.3511746644973754,3.912418901920319,4.312437887191773,-0.8747948408126831,-0.1725493198633193,0.5048371481895446,-18.28200927734375,58.72817321777344,-151.23609374999998,-0.7869720745086675,6.494407176971436,0.7043082523345945,-0.904958598613739,-0.0682116087526082,-0.4320446670055389,-173.54698181152344,65.82056671142577,58.01533416748048,5.977442192858918,1.024646196250166,6.579718819270409,1.005119636193368,-155.2649725341797,7.092393493652331,209.25142791748047
1273.39,2.8487034451961515,2.288158712387085,4.267401456832886,-0.8724735307693482,-0.1714645236730574,0.5114724659919739,-18.11879531860352,58.793600158691405,-151.11418823242187,1.5203988140821454,7.068966579437256,1.2969955587387083,-0.9034462404251098,-0.0626296444982289,-0.43003178358078,-173.58867736816404,65.66855682373047,57.932294921875005,5.617961979715133,1.025774940344846,7.346026036875394,1.0025292597215838,-155.4698820495605,6.874956665039065,209.04648315429688
1296.398,4.41322616815567,0.4853808951377866,4.019017238616944,-0.8696245980262758,-0.1713090157508849,0.517982382774353,-17.913008728027343,58.81879608154297,-150.97774230957032,2.742770725488662,7.774490680694581,1.672774887084961,-0.9012211179733276,-0.0544793158024548,-0.426640750169754,-173.6353857421875,65.50655578613282,57.8186915588379,5.988710995611568,1.0265960594286805,8.412114622356652,0.9985939259963524,-155.72237701416017,6.687759704589851,208.7964338684082
1311.034,6.093132172822952,-1.587748136520386,3.575364273190498,-0.8695467972755433,-0.1729777622222899,0.5272838020324707,-17.667742004394533,58.79715591430664,-150.83262145996093,3.0425882107019424,8.563254852294921,2.018392863273621,-0.8985854125022887,-0.0467854843288659,-0.4242353916168213,-173.70311767578124,65.33225036621094,57.67696853637696,7.240886237645301,1.0315333958536697,9.309166796001072,0.99479660866233,-156.0353756713867,6.5350944519043,208.5095899963379
1333.539,7.997079524993896,-4.207817990779877,2.9133582937717435,-0.8767269563674928,-0.1773359978199004,0.539242525100708,-17.3833882522583,58.71805191040039,-150.68306884765622,2.9597108602523803,9.524958209991455,2.446946444511413,-0.8946403431892396,-0.0421751933544873,-0.4268334186077117,-173.7991802978516,65.13942413330078,57.506646728515626,9.494560006682564,1.044452350766264,10.269969044777428,0.9921425592305748,-156.4157920455933,6.421372222900388,208.18971557617184
1357.04,10.045331592559815,-7.831285710334778,1.9295464462041856,-0.894349730014801,-0.1833660864830016,0.5586090517044067,-17.05929683685303,58.56076095581055,-150.52948486328123,3.2147134584188466,11.002272205352783,2.921901965141296,-0.8897853255271911,-0.04311107955873,-0.4390002334117889,-173.91622375488282,64.91535034179688,57.30748855590819,12.88258018292272,1.0702937138448192,11.828858245592189,0.993125216495812,-156.85692691802979,6.35458938598633,207.8369734191894
1378.574,12.30385223388672,-12.956043674945832,0.6250296998023988,-0.9220204162597656,-0.1915736287832259,0.5864613676071168,-16.690406837463378,58.29489685058594,-150.37030517578123,4.5671188926696775,13.495443954467774,3.3077612662315365,-0.8850396466255187,-0.0499413844197987,-0.4587087535858153,-174.02708862304686,64.63692932128906,57.08406631469726,17.878325134812215,1.1093957990458656,14.626238993751702,0.9980997137526096,-157.3366817855835,6.342032470703117,207.45437149047848
1401.271,14.566652545928957,-20.0453315448761,-1.0606348317861556,-0.9576276087760924,-0.2000178056955336,0.6234570837020874,-16.273042068481445,57.88077011108398,-150.19982360839842,7.774344249367713,17.094634284973147,3.81764271736145,-0.8808518767356872,-0.0635213284939526,-0.4871171367168426,-174.09943359375,64.28154617309569,56.829917602539055,24.80176665853103,1.1600674527387556,19.16354209852863,1.0085723042031414,-157.82639152526855,6.400776062011708,207.02974121093746
1412.61,16.590440521240236,-29.358394279479977,-3.187539880275726,-0.99477872133255,-0.2081466048955917,0.6684927463531494,-15.80977752685547,57.2727668762207,-150.01600646972656,13.193604060411454,21.66652847290039,3.993303048610687,-0.8822868490219117,-0.0832581406086682,-0.5206921708583832,-174.0741619873047,63.82884948730468,56.56008666992187,33.87208942251069,1.2164671246985514,25.679877597215143,1.027853267119311,-158.26438446044924,6.55608261108398,206.57609313964844
1433.499,18.18612937927246,-40.81177946090698,-5.74489322245121,-1.0256318831443787,-0.2152916729450225,0.7204702782630921,-15.308969688415528,56.42575698852539,-149.82082458496097,20.525978838801382,26.97257846832276,3.597572002410889,-0.8868903398513794,-0.1059669069945811,-0.5513196051120758,-173.89320373535156,63.26639846801758,56.29598098754883,45.04820132594322,1.2717502451433804,34.08486938266423,1.0496460199898958,-158.58423404693605,6.840641479492184,206.1168055725098
1455.813,19.35262191772461,-54.13389663696289,-8.598218530416489,-1.045476098060608,-0.2194312232732772,0.7738572382926941,-14.779770164489747,55.30192581176758,-149.61965759277342,29.631303226947782,32.12884246826172,2.7814503884315487,-0.8954982662200927,-0.12580191090703,-0.5717844104766845,-173.5083703613281,62.59849212646484,56.05182968139648,58.12858248820949,1.319100207952844,43.79512661862059,1.069897508014306,-158.72860019683836,7.296566314697259,205.6714872741699
1478.404,19.792995948791503,-68.89193729400634,-11.761404363512993,-1.0525240135192873,-0.2205114102363586,0.8246759819984437,-14.241963768005371,53.87297607421876,-149.4212158203125,39.44621048927307,35.82913852691651,1.6616433334350584,-0.9051489305496216,-0.1397583116590975,-0.5831809103488922,-172.89923706054688,61.85722106933595,55.83634796142578,72.63740321179056,1.3551835876973548,53.31502366230891,1.08578402380413,-158.6572732925415,7.984244995117187,205.2575637817383
1501.294,19.43698390960693,-84.64252632141113,-15.205384302139285,-1.0465547251701357,-0.2205060571432112,0.8705762457847597,-13.719612197875978,52.12019241333009,-149.23818115234377,48.48798522949219,37.381572799682615,-0.3388729691505434,-0.9152045416831968,-0.147842367440462,-0.5832305741310119,-172.0464971923828,61.08340347290039,55.68970611572265,88.16664515194415,1.3790586331760768,61.22566072720363,1.095269200392826,-158.3268849945068,8.963211059570305,204.92788726806643
1512.075,18.20209609031677,-100.89454681396484,-18.94718923568725,-1.028785481452942,-0.2192192929983138,0.910156981945038,-13.238971633911133,50.035121307373046,-149.08182861328123,55.665019569396975,36.36321083068848,-2.810234694480896,-0.9167389845848084,-0.148806948661804,-0.5741525387763977,-170.97269287109376,60.3279916381836,55.63186981201172,104.25939698084493,1.3909861239618253,66.54904150035905,1.0918814091333384,-157.73372123718264,10.292870330810551,204.71369842529296
1533.86,15.877476634979246,-117.1878727722168,-23.085916404724124,-1.0022705888748171,-0.2179321533441542,0.9429103875160216,-12.83130603790283,47.61852478027344,-148.9647088623047,60.5590072631836,33.102284278869625,-5.537923991680145,-0.9179558181762696,-0.1424033302068709,-0.5601381123065948,-169.7180627441406,59.63494400024415,55.67272872924805,120.4908765235671,1.393241097466733,69.23744064679924,1.08474711220453,-156.88675670623778,12.016419219970707,204.63743759155273
1558.741,12.30088402748108,-133.0101239013672,-27.72900917053223,-0.9657526922225952,-0.2211132466793059,0.9699482846260072,-12.533468322753906,44.87918693542481,-148.90120544433594,62.4181381225586,27.846094386577608,-8.200621280670166,-0.9205898976325988,-0.1343060600757598,-0.5416249525547027,-168.33955200195314,59.04521392822265,55.81863159179689,136.42544761771558,1.386495223663316,68.83806453309079,1.0765135701077606,-155.80608367919922,14.166026992797839,204.71983703613284
1580.915,7.7144360351562495,-147.93502624511717,-32.7395138168335,-0.9187836933135988,-0.2276317232847213,0.9943425464630128,-12.369841308593749,41.83338638305664,-148.89868896484373,61.363040161132815,21.323586745262144,-10.436560559272769,-0.9286532044410706,-0.1287135094404219,-0.5195021176338195,-166.89511413574218,58.58465057373047,56.06983093261719,151.7107783858703,1.3728425897571424,65.79543939975541,1.0718425219486123,-154.52527282714843,16.75126419067383,204.9685198974609
1591.007,2.423017339706421,-161.57010375976563,-37.87900634765625,-0.861754903793335,-0.2343190371990203,1.0138367581367491,-12.351212577819824,38.50630332946778,-148.95554260253903,58.137847137451175,14.02625576257706,-11.803154802322387,-0.9400282788276672,-0.1230065962672232,-0.4942244100570678,-165.4461212158203,58.27041656494141,56.40642562866211,165.9686372898679,1.351070648617225,60.95949133467612,1.0691312151542536,-153.09490863800048,19.76411323547363,205.36196823120113
1621.12,-3.193991088867188,-173.68986694335936,-42.89248901367188,-0.7988081312179565,-0.2411846822500228,1.0267009067535402,-12.47595443725586,34.92966621398925,-149.06407836914065,53.05951225280762,6.996304006576539,-12.12087184906006,-0.95836177110672,-0.1172940105199813,-0.4672657489776611,-164.0532470703125,58.09843460083008,56.79998428344727,178.9361256752409,1.3230189845125089,54.874180127265845,1.0726380794053163,-151.57729263305663,23.16876838684083,205.8640626525879
1641.1039999999998,-8.619228277206421,-184.3034832763672,-47.45926567077637,-0.7324496984481812,-0.2435117614269256,1.0334786796569824,-12.726401138305665,31.1337536239624,-149.20761108398438,45.93182611465454,0.1403495573997496,-11.55612106323242,-0.9758409452438354,-0.1143170848488806,-0.4393927550315856,-162.77118347167968,58.06374633789062,57.23211273193359,190.511015277086,1.2899064772360882,47.36344880024265,1.0762898956493905,-150.044782333374,26.929992713928222,206.43972381591797
1651.047,-13.534844875335692,-193.4785723876953,-51.43681350708008,-0.6676817381381988,-0.2404117661714552,1.0331857371330262,-13.07702537536621,27.14758415222168,-149.3660626220703,37.2058720779419,-5.38338402748108,-10.859362106323244,-0.9842468762397768,-0.1100464051961898,-0.4203977560997008,-161.6425567626953,58.135480346679685,57.69037322998047,200.6561630818804,1.2534231082009135,39.13033971260362,1.0759118913823873,-148.5655313873291,30.987896194458006,207.05643585205078
1673.969,-17.572018632888792,-201.39875,-54.77509414672852,-0.6074734187126161,-0.2322183263301848,1.0247647190093994,-13.498591728210448,22.9973296546936,-149.52108154296872,27.650557289123533,-8.904958498477935,-10.604508743286134,-0.9857644772529603,-0.1061958393454551,-0.4077117705345153,-160.68462341308594,58.27030151367187,58.173484802246094,209.4529619728021,1.2137100291471594,30.924217208284333,1.07202520900419,-147.1860316848755,35.272971858978266,207.6945663452148
1690.86,-20.63136833190918,-208.29592346191407,-57.5645133972168,-0.5536216819286347,-0.2222691518068313,1.014165449142456,-13.966152687072752,18.701794587373733,-149.65946777343748,17.75537801742554,-9.454849543571472,-11.057007942199707,-0.98435213804245,-0.1050381124019622,-0.4035991406440734,-159.9106298828125,58.40861999511719,58.67349670410156,217.08643046666188,1.17661892759752,22.954412496666496,1.0690530403372625,-145.94447719573972,39.70682540774346,208.33296447753904
1713.264,-22.73156147003173,-214.4937365722656,-59.83261306762696,-0.5067839467525482,-0.2113061261177062,1.003828308582306,-14.459446182250977,14.271189177036286,-149.77004333496092,8.32541816711426,-5.758076465129853,-12.765657615661622,-0.9800754475593568,-0.1079675635695456,-0.4073511803150176,-159.32147827148438,58.46514907836914,59.17846328735352,223.8397384337702,1.1441815942988136,16.292024017779315,1.066836380048907,-144.8620320892334,44.19395990133285,208.94850662231443
1735.843,-23.89185565948486,-220.24450744628908,-61.57407943725586,-0.4647234177589416,-0.2021678203344344,0.9929298949241636,-14.963549995422364,9.71514767050743,-149.84279052734374,0.4438443565368651,3.683855113983154,-15.99011013031006,-0.969693706035614,-0.1147189718484878,-0.4211885488033294,-158.90961791992189,58.3231672668457,59.66188308715821,229.93440605019867,1.1147867324409808,16.41497512313357,1.06342189166394,-143.94606792449952,48.608019596338266,209.50467361450194
1751.216,-24.2651286315918,-225.8495483398437,-62.58952178955078,-0.4250549149513244,-0.1931915706396102,0.9845984053611756,-15.469121208190916,5.04077959537506,-149.8629278564453,-5.471316413879395,18.475631461143493,-20.716612854003905,-0.9626094055175782,-0.1294897565245628,-0.4353736877441405,-158.64689514160156,57.87299453735352,60.10851852416992,235.61464977938823,1.0896920131533712,28.29244261868284,1.064394058897187,-143.17777393341063,52.832214941978464,209.97144638061522
1773.192,-24.25368476867676,-231.5994018554688,-62.63724929809571,-0.385148873925209,-0.1833421462774276,0.9709951210021972,-15.979582214355467,0.251379438638687,-149.8088427734375,-10.16860605239868,39.47029203414917,-25.9629504776001,-0.940485897064209,-0.1485206019878387,-0.4547895503044127,-158.55635559082032,56.99099472045898,60.459490051269526,241.1430056300639,1.0605590613905207,48.32576227864609,1.0551803764558882,-142.57677337646484,56.73961528182029,210.26833282470704
1793.588,-23.810927505493165,-237.41509216308592,-61.51353805541992,-0.3372286829352379,-0.1731262040138244,0.944627788066864,-16.50157527923584,-4.645078902244568,-149.65321777343752,-15.02495029449463,65.06558062076569,-30.373909034729003,-0.8980629372596741,-0.1745780342817306,-0.4790652573108673,-158.69207458496095,55.59078674316406,60.64677291870117,246.40779537095412,1.0178494609216866,73.36111546943233,1.0327139246158512,-142.1904993057251,60.23586564540863,210.2999906921387
1815.505,-22.591122512817385,-242.92478881835936,-59.04625473022461,-0.2707441413402557,-0.1619156885147094,0.898569039106369,-17.040694084167477,-9.630817257165909,-149.36481506347656,-21.02440999984741,87.84382918357849,-32.00806594848633,-0.8424016523361206,-0.206723049879074,-0.5108120656013488,-159.09649963378905,53.73717666625977,60.63744766235352,251.0164776194985,0.9523368092738032,95.82839050739636,1.006629986426914,-142.05580554962157,63.36799392342568,210.00226272583006
1838.033,-20.54122413635254,-247.47326049804687,-55.2040811920166,-0.1833158901333808,-0.1538963425159453,0.8317073607444764,-17.608425025939944,-14.67747613668442,-148.91190124511718,-28.34628065109253,99.25310988903048,-29.71848331451416,-0.7877555298805237,-0.2366151750087737,-0.5440556323528289,-159.78371215820312,51.6717643737793,60.444340820312505,254.38641302319743,0.8654628436459427,107.41452276070272,0.9861754646089173,-142.17528713226318,66.34924051046372,209.35624206542968
1861.167,-17.31647083282471,-250.2392651367188,-50.05994956970215,-0.0740096288919448,-0.1501015108823775,0.7360388243198395,-18.21385040283203,-19.740786398649213,-148.26546508789062,-37.10936857223511,95.75494857788088,-23.051889114379883,-0.7302142810821532,-0.2543529123067855,-0.5779787039756774,-160.77054138183593,49.708297119140624,60.08681594848633,255.78418350083768,0.7548251715755294,105.24972686294376,0.9653847329146412,-142.5566909790039,69.44908351778983,208.35228103637695
1881.194,-13.163471632003786,-249.8314617919922,-44.006571006774905,0.0551880267262458,-0.1544996786117553,0.6208590652048588,-18.86816116333008,-24.752051162719727,-147.4111444091797,-46.04929573059083,73.28683563232423,-13.444892120361327,-0.6999157309532166,-0.2593764942884444,-0.6051756489276885,-161.9809143066406,48.23279037475586,59.66826370239257,254.01892563016747,0.6421696410078287,87.59145528195586,0.9609348376868162,-143.11275314331053,72.98484153747559,207.0794081115723
1891.139,-8.866646938323974,-245.09207092285155,-37.326296463012696,0.1920213252305984,-0.1638650441169737,0.4911042532324791,-19.5903736114502,-29.622347564697264,-146.3492254638672,-52.78834884643554,32.52500244140625,-3.7466116905212408,-0.7020661640167235,-0.2439623473584651,-0.6229106187820433,-163.24836303710936,47.60045150756836,59.35223114013672,248.07658709524705,0.552184144620075,62.11700779099075,0.9697588177362644,-143.65798942565917,77.22279907226562,205.70145660400394
1914.251,-5.875609827041626,-234.76565429687497,-30.58804126739502,0.3212472054362297,-0.1761745911836623,0.3604631853103637,-20.408698501586915,-34.243496627807616,-145.10743957519531,-55.3112435913086,-16.23423431396484,2.8136043167114257,-0.7155786156654358,-0.2095298525691031,-0.6245017004013061,-164.38603210449216,47.95018753051757,59.28106002807617,236.8228525646444,0.5139756429476122,57.71308690954597,0.9726036644591745,-143.97733360290525,82.19368415832518,204.3884996032715
1935.553,-5.459600181579591,-217.9825180053711,-24.41069221496582,0.4328064036369324,-0.185201197862625,0.236777050346136,-21.34540100097656,-38.49481742858886,-143.74774047851562,-52.75796417236328,-59.800717163085935,5.740544767379761,-0.7293868255615233,-0.1690510223805904,-0.6129526400566101,-165.24970581054689,49.15984191894531,59.50809844970703,219.4130061881438,0.5269575298726673,79.95300126360523,0.967623030122272,-143.90430480957033,87.65465934753416,203.25583892822266
1956.761,-8.149119482040406,-194.33038208007807,-19.314659233093263,0.5180487957596779,-0.1900974291563033,0.1353452040441334,-22.401515197753906,-42.25560928344727,-142.3654296875,-45.14404567718506,-91.9719696044922,5.591332359313965,-0.7429546213150025,-0.132808437347412,-0.5956683444976807,-165.73244384765624,50.99015045166016,60.032140808105474,195.45782565303503,0.5681812313141259,102.60648639625916,0.961478250924371,-143.33092864990235,93.24575973510744,202.3975704956055
1977.95,-13.221794242858888,-164.49321769714356,-15.335025291442872,0.5711811089515686,-0.1861588352918624,0.06226052749902,-23.54082008361816,-45.42112762451172,-141.07238647460937,-33.84400619506836,-107.7672171020508,3.277923440933228,-0.7337146353721617,-0.1025871042907237,-0.5779169058799744,-165.81499877929687,53.10859786987304,60.779323730468754,165.7347202973763,0.6039696552516713,113.0041354081212,0.9396005695123556,-142.2741786956787,98.52972549438476,201.85171020507812
2000.445,-19.8824999332428,-129.74977256774903,-12.529211559295655,0.5955935204029082,-0.1747046175599097,0.0257293756864964,-24.696472015380856,-47.913809356689455,-139.9896270751953,-20.660571022033693,-106.04268505096437,1.0129312705993654,-0.6983149766921997,-0.085105144381523,-0.5631461215019227,-165.5733740234375,55.17326675415039,61.60107986450196,131.86090560615602,0.621220850998983,108.0413637341434,0.9011216601744104,-140.87690200805665,103.08707611083985,201.59070693969727
2010.525,-26.66442525863648,-92.19253562927246,-10.524800543785096,0.5977775144577027,-0.1612061792612074,0.0231382109969854,-25.78054313659668,-49.69621154785156,-139.22003784179688,-7.710595169067385,-90.91591918945312,0.6946340084075929,-0.658055522441864,-0.0786888246238231,-0.5533744692802429,-165.14335510253906,56.93736419677735,62.32854858398438,96.54649981544924,0.6195649811209205,91.24494592211698,0.8633957985698703,-139.36281196594237,106.63357574462891,201.54858642578125
2033.795,-31.55964686393738,-54.09608268737792,-8.584467153549195,0.5856259846687317,-0.1512329027056693,0.0495097582973539,-26.6984806060791,-50.76945709228515,-138.8226983642578,2.801990394592284,-68.66297870635985,1.8886041831970213,-0.6202724957466126,-0.07959893733263,-0.549789457321167,-164.67104736328125,58.274574890136726,62.84442245483399,63.21463872084081,0.6068611051522963,68.74607349341636,0.83267184844074,-137.97256675720215,109.04403198242187,201.6671208190918
2060.427,-33.942370262146,-17.46477684020996,-6.14263340473175,0.5679205703735352,-0.146327410340309,0.0962122475355863,-27.381710510253907,-51.164329223632805,-138.8096502685547,10.26018169403076,-42.79499015808105,3.907927370071411,-0.5899383187294007,-0.0860228468477724,-0.5486776971817016,-164.28887634277345,59.12063537597656,63.068965606689446,38.66309447310023,0.5943082380769693,44.180928095214696,0.810231056840999,-136.90716583251955,110.28496459960937,201.87861587524412
2070.397,-33.984575538635255,16.32241874694824,-3.002821865081787,0.5525160098075867,-0.1501707640290259,0.1541856778226792,-27.801017837524416,-50.933349761962894,-139.15297241210936,14.67174045562744,-15.930864524841308,6.583347930908204,-0.5748071479797363,-0.0960788249969481,-0.5504119157791137,-164.101689453125,59.46175476074219,62.95351638793945,37.8204926917319,0.5929573531953185,22.63609689159188,0.8016156653989659,-136.30067161560058,110.39510452270508,202.10648880004882
2090.278,-31.39272449493408,46.50229515075684,1.0057727479934688,0.5418379759788513,-0.1657285392284392,0.2135362418368458,-27.95449279785156,-50.13733978271485,-139.78901794433597,16.45620220184326,10.134032821655271,9.400522127151488,-0.5790413069725038,-0.1079998543858527,-0.5554129099845886,-164.1676007080078,59.31351974487304,62.49311111450195,56.1157570057069,0.6055180158388803,21.491277961103247,0.809590207639235,-136.21310791015622,109.45085952758788,202.2821290588379
2112.963,-25.874866409301763,72.8572533416748,6.025623188018798,0.5346728515625,-0.190573994219303,0.2667723237164318,-27.855431137084963,-48.83236740112305,-140.6306719970703,16.78755138397217,33.87579524993897,12.029454975128171,-0.5962976217269897,-0.1234496092796324,-0.5641243100166321,-164.4840069580078,58.71498413085938,61.72338424682617,77.54995945193129,0.627184963285743,39.67491868024344,0.8300884873676416,-136.62857582092283,107.54735153198243,202.35405624389648
2135.37,-18.281019096374514,95.58487846374511,11.786643023490903,0.5262773144245149,-0.2197208362817764,0.3153506895899772,-27.53273529052734,-47.0682389831543,-141.59221496582032,17.092020683288574,54.58171020507813,14.50804370880127,-0.6248794436454773,-0.140908361673355,-0.5751858592033386,-165.00146301269533,57.719905395507816,60.69835418701172,98.02851423894042,0.6516832934786015,59.00664023824422,0.8609112951446468,-137.46872772216798,104.78814437866211,202.29056915283203
2150.426,-8.822426300048829,115.04310905456543,18.072418336868285,0.5135775732994079,-0.2487696197628974,0.3550838041305542,-27.01316856384277,-44.89227951049806,-142.59453125,17.570846176147462,72.23194004058837,16.16508934020996,-0.6550033450126648,-0.1581432354450225,-0.5898370170593262,-165.64019104003907,56.37967727661133,59.502056732177735,116.78768963937596,0.672110672039145,76.0756065421102,0.8955145847992894,-138.62702247619632,101.27195678710939,202.0965879821777
2172.684,1.4929878616333006,131.8398452758789,24.77473917484284,0.4925663733482361,-0.2761930114030838,0.3899744701385498,-26.33194984436036,-42.340722808837896,-143.5706719970703,19.14021327972412,86.67124855041504,16.546612100601198,-0.6874494457244873,-0.1766347196698188,-0.6088785624504089,-166.2910028076172,54.74751602172852,58.2326936340332,134.15573605442358,0.6862829584516729,90.288667404547,0.935157563425232,-139.95905296325682,97.08823883056641,201.80336563110347
2195.419,11.977723388671876,146.41452056884765,31.91360845565796,0.4605831456184386,-0.3005794286727904,0.4244235157966614,-25.522163162231443,-39.44563270568848,-144.46668640136718,22.63406021118164,96.8249935913086,14.687726459503171,-0.7194769883155823,-0.1963360393047332,-0.628085379600525,-166.8145007324219,52.90135116577149,57.01068710327148,150.3301569733834,0.6947086783179234,100.5142247353554,0.9750313949373456,-141.29233757019045,92.34698387145997,201.47737350463865
2217.8740000000003,22.160590400695803,159.30808837890626,38.87818592071533,0.4226369166374206,-0.3156055790185928,0.4543299376964569,-24.605736923217773,-36.23885200500489,-145.25437561035156,26.84842868804932,102.06517684936524,9.941828603744508,-0.7470631647109985,-0.2123004412651061,-0.6455058097839356,-167.1042578125,50.93137832641602,55.9557650756836,165.47408295662052,0.6961641595914815,106.00461501413842,1.00987751727335,-142.49852088928225,87.1702303314209,201.21014068603517
2241.877,30.80544776916504,171.35285095214846,45.30793678283692,0.3813976162672042,-0.3146990731358528,0.478894852399826,-23.6139737701416,-32.74423797607422,-145.92544799804688,30.713229141235352,100.99416984558106,2.8044483566284177,-0.7590917587280274,-0.2217890912294387,-0.6601370859146118,-167.0964782714844,48.95276748657227,55.16772308349609,179.89881677544605,0.6883603184248215,105.59824675469332,1.0301415783070915,-143.4825045013428,81.69700546264649,201.09317108154298
2251.3230000000003,36.3661699295044,183.02028137207031,50.87082901000976,0.3364636695384979,-0.3083912783861159,0.5087035894393921,-22.5981623840332,-28.976304092407226,-146.48855285644532,34.46995300292969,91.16768432617188,-5.603314695358277,-0.771477575302124,-0.2249144530296324,-0.6697196531295776,-166.74800659179687,47.13445663452149,54.7208024597168,193.40828046652769,0.6834415288906989,97.6274626372924,1.046082489177438,-144.14984420776366,76.11076072692872,201.20935531616212
2272.7940000000003,40.51391826629639,194.03500244140625,55.39783760070801,0.2880717858672141,-0.2993910118937492,0.5397751367092132,-21.57232765197753,-24.957352714538576,-146.95767150878905,36.70828498840332,71.22669532775879,-15.401121559143068,-0.788743872642517,-0.2198670345544814,-0.6644956731796265,-166.0382391357422,45.66610702514649,54.700573272705086,205.8151601718374,0.6811589609077597,81.59616939160021,1.054520227017643,-144.46591148376467,70.62345973968506,201.65824478149415
2295.086,43.37139045715332,204.13649291992184,58.45937454223633,0.237166726887226,-0.2751583462953567,0.5629420471191406,-20.545847702026368,-20.71711653709412,-147.35351928710938,34.66954669952393,43.08547409057617,-24.41861393928528,-0.795741000175476,-0.2082921004295348,-0.64581169962883,-165.04596374511718,44.70392318725586,55.13015686035156,216.7262875696016,0.6699730743045457,60.45332292501412,1.045783003227291,-144.5001160430908,65.42103972434998,202.48367614746093
2317.983,42.71271987915039,213.28144470214843,60.274853515625,0.1764726009964942,-0.241208410412073,0.5937259232997893,-19.575747375488284,-16.283796634674072,-147.6944439697266,29.30816482543945,9.834660263061522,-31.27849264144897,-0.7971833229064942,-0.1920586875081061,-0.6178419041633607,-163.85288818359373,44.34300689697265,55.99303543090821,225.7131122908912,0.664706362354216,43.97764397789115,1.026701713404523,-144.27714080810546,60.62680353164673,203.6874794006348
2341.4,39.463810720443725,220.7777911376953,60.85235305786133,0.1053054669499396,-0.2240216413140296,0.6365372538566589,-18.706781768798827,-11.697388582229614,-147.99754638671877,21.71628490447998,-23.898975372314453,-36.62082640647888,-0.8139109492301941,-0.1746408197283744,-0.5852117216587067,-162.51492126464845,44.58861389160156,57.27018737792969,232.38595974993285,0.6829748258127478,48.82461449507306,1.017557471771959,-143.80813949584962,56.286002473831175,205.26773376464845
2351.307,36.722754344940185,225.8004345703125,60.4968098449707,0.0275654354691505,-0.206524604409933,0.679513669013977,-17.924307479858403,-7.012364425659181,-148.27072448730468,12.244927558898926,-52.016275253295895,-40.00363693237305,-0.8182651257514953,-0.1594813886284827,-0.5470503151416779,-161.11611755371092,45.33383697509766,58.88823501586914,236.6310650363544,0.7107398200720992,66.7526936532635,0.997123952493665,-143.1918100738525,52.34620140075684,207.15895950317383
2375.224,32.13298624992371,228.6206494140625,59.14986755371094,-0.0567303958535194,-0.1827387952804565,0.722207944393158,-17.2604838180542,-2.280156278610229,-148.52669372558594,2.9628246092796324,-71.27042785644531,-39.2721907043457,-0.8008183550834657,-0.1501890209317206,-0.5125042343139647,-159.76080505371092,46.43034881591797,60.68738510131836,238.3246461771569,0.7471252371984503,81.42823330531387,0.9625629174431974,-142.5003212356567,48.710505094528195,209.2140788269043
2395.647,25.069227504730225,229.70571105957032,57.03012222290039,-0.1498399272561073,-0.175680474191904,0.7695207953453064,-16.763381271362306,2.4603292846679685,-148.7824786376953,-3.7097816133499153,-80.80990196228028,-35.24791206359863,-0.792975254058838,-0.1393751230835914,-0.483078429698944,-158.50836242675783,47.71215881347656,62.5089144897461,238.00339220655167,0.8034163847478347,88.24068245211662,0.938935539706876,-141.74498115539552,45.25182952880859,211.2913931274414
2417.768,18.416953248977663,228.68473937988284,54.23525756835937,-0.2397984352707862,-0.1834822040796279,0.8246421217918396,-16.42485210418701,7.1640871715545655,-149.05259399414064,-9.048982226848604,-82.35485000610352,-28.39234817504883,-0.7981044864654541,-0.1361272010207175,-0.4616232454776764,-157.43865600585937,49.0544386291504,64.20681411743165,235.7485044612717,0.8781820072203614,87.58042494623345,0.931985733227373,-141.01380390167236,41.890351457595834,213.25940811157227
2440.177,12.974219303131102,225.71862731933592,51.390576171875,-0.3228967067599296,-0.1852618540823459,0.861116578578949,-16.221442031860352,11.794214687347411,-149.34083068847656,-12.574310846328736,-77.90539657592772,-17.961150894165037,-0.7901891541481018,-0.1348185077309608,-0.442636957168579,-156.64702209472654,50.37933532714844,65.61038543701173,231.85819029037617,0.9381396483029334,80.93186671735452,0.9156977695787808,-140.42558006286617,38.585120639801026,214.9512161254883
2451.92,6.0736429882049565,222.1247790527344,48.22177780151368,-0.4102207115292549,-0.1967070445418357,0.8913564896583557,-16.19017017364502,16.336197824478152,-149.66596740722656,-14.629046356678009,-71.24724822998047,-3.920201873779297,-0.810822696685791,-0.1342987617850303,-0.4287812209129333,-156.22863525390625,51.67993621826172,66.56747940063477,227.379960556582,1.0007452648881323,72.83918835614158,0.9269967304610066,-140.03846508026123,35.34373839378357,216.23344680786133
2475.025,0.3940375137329098,217.7738006591797,45.10039688110352,-0.4959820514917374,-0.2184610240161418,0.9209462070465086,-16.314184341430664,20.77751007080078,-150.04138549804688,-16.738432741165163,-63.88447906494141,10.863313369750978,-0.8500519728660583,-0.1307022732496261,-0.4250153231620788,-156.2497698974609,52.9535939025879,67.01030838012696,222.39520974593725,1.0685809892981837,66.92841977365713,0.9593276112614836,-139.93558555603025,32.17608383178712,217.05169387817384
2501.123,-3.1907410907745364,212.15060852050783,42.1798812866211,-0.5779405081272124,-0.2306088435649871,0.9483007693290708,-16.557075004577637,25.09521011352539,-150.46944458007812,-18.309729821681977,-56.7603874206543,25.461221923828127,-0.8796417188644409,-0.1402033433318137,-0.4309945595264434,-156.73635375976562,54.20523864746095,66.90697113037109,216.32661396528067,1.1342266170280209,64.8479884664142,0.9895366801638024,-140.179278755188,29.110028533935562,217.3764157104492
2520.276,-6.129146022796631,205.61513671875,39.64599090576172,-0.6777755641937256,-0.2425989091396331,0.9490633344650268,-16.91151969909668,29.274913711547857,-150.95250061035156,-17.885857186317445,-49.43385856628418,39.4727498626709,-0.8937215757369994,-0.1476847001910209,-0.4454110479354858,-157.68416381835937,55.42095397949218,66.2282179260254,209.49213702127045,1.1911990425448378,65.73970065159801,1.0094255927166322,-140.77264411926268,26.146040267944326,217.18071853637696
2531.654,-8.471083068847658,197.84029541015624,36.90473815917969,-0.7943072497844696,-0.2536016297340392,0.9580899477005004,-17.36886127471924,33.2923787689209,-151.4965362548828,-18.00107070207596,-43.69440338134766,51.6701887512207,-0.9209544801712036,-0.1600944089889526,-0.4713984143733977,-159.08021118164064,56.60568496704102,65.0144027709961,201.4311332315212,1.2701079251578096,70.02176689330139,1.0469020199668582,-141.71134990692138,23.313306198120124,216.5109390258789
2552.794,-8.916112318038941,187.39339477539065,34.486514205932615,-0.9091452813148498,-0.2547147053480148,0.9622017574310302,-17.87894302368164,37.09727401733399,-152.0830157470703,-19.28002212524414,-38.76287162780762,58.18249435424805,-0.9186797738075256,-0.1683935150504111,-0.5116740715503691,-160.80796630859373,57.72530456542969,63.44158935546875,190.74879062890352,1.3480567293927013,72.52228705209112,1.0649597448781862,-142.9290232849121,20.6280305480957,215.52460510253906
2574.923,-8.73982437133789,174.06048889160155,32.114599990844724,-1.02721354842186,-0.2529385203123092,0.9532800698280336,-18.417151107788087,40.634596710205074,-152.68821777343751,-21.599038686752323,-34.154476852417,59.9133805847168,-0.9079823756217956,-0.1841188842058181,-0.5583565545082092,-162.74701416015623,58.74747604370117,61.679184265136726,177.21395502554853,1.4240394870404929,72.26797308865963,1.0817087408000703,-144.32986305236813,18.112879333496096,214.36740203857426
2591.766,-7.786824789047242,158.03606079101564,29.68046241760254,-1.1345827198028564,-0.2586324548721313,0.9386455917358398,-18.94793975830078,43.85262504577637,-153.2855975341797,-25.706128883361817,-29.57451259613037,56.81269721984863,-0.905660126209259,-0.1891864529252051,-0.6124408316612244,-164.78090393066404,59.64067474365235,59.90831588745117,160.98745603294572,1.4950666345262196,69.01550132297004,1.1095474530013054,-145.83296417236326,15.788049697875977,213.19391342163084
2612.682,-4.976273174285889,139.26083663940432,26.994061851501463,-1.20634135723114,-0.2649756437540054,0.9336749029159546,-19.408485946655272,46.69502655029297,-153.84153503417969,-30.39033858299256,-24.397091369628903,49.16322360992432,-0.909763503074646,-0.1979279381036757,-0.6631651699543,-166.76437133789062,60.36851593017578,58.31219146728515,141.9402102698691,1.548295962109388,62.73606062071771,1.1430805495891965,-147.35588539123535,13.67348937988281,212.15372650146483
2635.973,-1.0550885868072508,118.16095344543456,24.3703923034668,-1.2410959553718566,-0.2724134337902068,0.924168872833252,-19.743475494384764,49.11173309326172,-154.31704406738282,-32.14091348648071,-16.648978538513184,38.30237674713135,-0.896873834133148,-0.205160774886608,-0.7048510313034058,-168.53253601074218,60.869716491699215,57.01291046142578,120.6525596582395,1.5711831067267863,52.70008416122785,1.1590032761965092,-148.7890605163574,11.757983398437496,211.3299545288086
2657.52,3.081293659210205,95.69690018177032,21.432608280181885,-1.246369342803955,-0.2866008883714676,0.9169711756706238,-19.925702056884766,51.07411361694336,-154.6836462402344,-29.168369264602667,-7.179601974487307,28.77714359283448,-0.8949160170555114,-0.2199822938442229,-0.730005350112915,-170.01284240722654,61.12387420654297,55.9800700378418,98.11599142191716,1.5736622080064206,41.59885146768952,1.175659261172618,-150.08714035034177,10.049760589599614,210.6637162780762
2680.105,7.110941934585571,72.50804535865782,18.247686729431148,-1.2161196589469911,-0.3022741818428039,0.9198939156532286,-19.935222473144528,52.56571868896485,-154.92059997558596,-20.908177757263186,2.6232087326049807,21.35833839416504,-0.8941612601280212,-0.223899512887001,-0.7339367771148682,-171.1513555908203,61.13951248168945,55.15147720336914,75.10632601789071,1.5545164913701983,30.003528794856685,1.178269300196915,-151.21613311767575,8.5737937927246,210.0720771789551
2689.947,10.305003032684326,49.1189164876938,14.770247173309324,-1.1646907877922057,-0.318256982564926,0.9291718578338622,-19.78013511657715,53.580605773925775,-155.02274230957033,-8.85493787765503,11.500531005859376,16.506277122497558,-0.8896692419052125,-0.2249644976854323,-0.7135849642753601,-171.93144653320314,60.95039443969726,54.45491806030274,52.31654849079135,1.5235328941344823,21.98020297173229,1.1624645742778237,-152.151311416626,7.3697886657714875,209.47766036987306
2712.46,11.906019334793092,25.851938190460203,10.94106952667236,-1.1069693183898923,-0.3303298693895339,0.9437020015716552,-19.49200592041016,54.12221328735352,-154.994453125,4.456346588134766,17.89710750579834,13.73873568534851,-0.8831592416763305,-0.2126101988554,-0.6789495420455932,-172.3718292236328,60.61751159667968,53.8378547668457,30.492343415869502,1.4916676446976511,22.998224718868023,1.134083693322307,-152.87982330322265,6.495298309326159,208.83230789184572
2734.987,11.975518455505371,2.9763067865371697,6.445413074493407,-1.0545792698860168,-0.3417768204212188,0.9640636992454528,-19.12010856628418,54.20037796020508,-154.8556970214844,16.584109325408935,21.025358657836914,12.238023233413696,-0.8835376024246215,-0.1928869661688804,-0.6385780572891235,-172.5168017578125,60.21301193237305,53.276349487304685,13.921738184098547,1.469138403164722,29.442615397912032,1.1070799482725873,-153.3966931915283,6.0126339721679685,208.13204650878907
2757.616,11.297963390350342,-19.66191343307496,1.2685534286499025,-1.0159120750427246,-0.3473360329866409,0.9885552382469178,-18.701475830078127,53.81581985473633,-154.63569763183597,25.772230491638187,20.94376977920532,10.327340698242187,-0.879700973033905,-0.1656341868638991,-0.6007586765289308,-172.40441406250002,59.802939453125,52.79727294921876,22.712200343004405,1.4594386328633115,34.77791429881971,1.0780628336231877,-153.7029382324219,5.9871195983886665,207.43297058105472
2779.897,10.374668960571288,-42.3425257730484,-4.596204853057861,-1.0001530957221985,-0.3459476530551909,1.0154843664169313,-18.26573463439941,52.9629525756836,-154.36432495117188,31.492374362945554,18.7713512134552,7.729807596206665,-0.8755580401420593,-0.1427925285696982,-0.5760547256469727,-172.07752014160158,59.4271957397461,52.43322052001953,43.83660963092358,1.4666950916854833,37.468429308808375,1.0577479070236635,-153.81178550720216,6.464243164062495,206.79754547119143
2789.867,9.760011920928957,-65.35757903099059,-11.095286254882812,-1.0066433858871462,-0.3374446952342986,1.0435651063919067,-17.82931007385254,51.631862792968754,-154.06681884765626,35.09447456359864,15.568462285995484,4.276241359710693,-0.8748230457305908,-0.1248317456245421,-0.5660393190383911,-171.55410400390628,59.10449951171874,52.21494171142579,67.00728577226992,1.488700090673356,38.63011005694956,1.04942786162483,-153.72479393005375,7.472636718749989,206.28176055908204
2812.97,9.663434028625488,-88.711644282341,-18.04163896560669,-1.0273998713493349,-0.3237951833009719,1.0674752640724186,-17.401846885681152,49.81287353515625,-153.76845458984377,37.41403587341309,11.8227698802948,0.0945873355865476,-0.879589319229126,-0.1176986119151114,-0.5674248409271241,-170.83834106445312,58.84307266235352,52.169091796875,91.04196024398584,1.5165412146671189,39.23769762286646,1.0533286684838086,-153.43649417877197,9.030199127197271,205.93754638671876
2835.291,9.860780563354492,-112.23231986999512,-25.03444995880127,-1.0485148406028748,-0.3069734048843383,1.0836305499076846,-16.98766319274902,47.50391998291016,-153.48687316894532,38.93699005126953,7.671477346420289,-4.648241863250733,-0.8893129587173462,-0.1185649722814559,-0.5733571028709411,-169.92766418457032,58.647848968505855,52.31810974121095,115.41253095508849,1.53878887796994,39.95681307797932,1.0647410758523697,-152.9400009918213,11.143928985595693,205.80498291015627
2856.054,9.812434673309328,-135.3267022705078,-31.74118164062501,-1.0561114001274108,-0.2916025835275649,1.092981476783753,-16.597244300842284,44.72056137084961,-153.22896179199216,39.907143936157226,3.810570058822632,-9.81294394493103,-0.905353469848633,-0.1263166543841361,-0.5749948823451996,-168.81517028808594,58.510005645751946,52.68190582275391,139.34526484086848,1.547582587389579,41.272199483196005,1.0799258850795876,-152.21792598724366,13.789444274902337,205.91086761474608
2877.09,9.191253867149353,-157.19926818847657,-37.91794055938721,-1.0396423721313477,-0.2805375969409942,1.090170912742615,-16.2456005859375,41.49465538024902,-152.99882690429686,40.280799636840825,0.6862443447113037,-15.111756896972656,-0.923573877811432,-0.1341133737564086,-0.5658902430534363,-167.5121466064453,58.41540710449219,53.261207580566406,161.9686984664265,1.5323283669691654,43.027653284802376,1.0914242401463554,-151.2665460205078,16.920751724243168,206.26003448486327
2897.201,7.547832822799684,-176.96275817871097,-43.47052375793457,-0.993134717941284,-0.2735506349802016,1.074948856830597,-15.95507781982422,37.87317573547363,-152.7999169921875,39.83059852600097,-1.6723460292816164,-19.56634430885315,-0.9399189639091492,-0.1363617210090159,-0.5439004492759705,-166.06776489257814,58.35114929199219,54.01769744873047,182.38002631408688,1.4888457148676597,44.40850312489394,1.0944724192026,-150.1126870727539,20.477973556518563,206.81761444091796
2919.789,4.628545174598695,-194.05565490722657,-48.4167756652832,-0.9206734871864318,-0.2723597300052642,1.0536136198043822,-15.751751861572265,33.911769752502444,-152.63302978515625,38.03725372314453,-2.269034662246704,-22.32167170524597,-0.9541739630699156,-0.1327431899309157,-0.5098662889003754,-164.57808959960937,58.28898376464844,54.87044952392578,200.05800358328148,1.425454717756358,44.16150152354569,1.089968962324444,-148.8263377380371,24.377214012146,207.50347930908202
2939.909,0.9811468696594244,-208.28534179687503,-52.72732559204102,-0.8316221296787262,-0.274545572400093,1.0305584716796874,-15.648184204101565,29.66432048797608,-152.49363403320314,34.563573112487795,-1.0865618801116943,-22.8547674369812,-0.96011568069458,-0.1256792233884333,-0.4705573260784149,-163.16248901367186,58.20493988037109,55.71903396606446,214.85789983314552,1.3524131770456276,41.45071287227878,1.076587936321601,-147.5143048095703,28.540619392395012,208.21266799926758
2949.966,-3.066707978248596,-219.83442443847656,-56.41549072265625,-0.7370336413383484,-0.2761499595642089,1.0070309472084047,-15.64913528442383,25.17939739227295,-152.37589355468748,30.18710636138916,2.2514898014068607,-21.37868934631347,-0.9658868384361268,-0.1166955545544623,-0.433739641904831,-161.92599487304688,58.06412719726562,56.46211685180664,226.97860352794984,1.2781192108982775,37.05912782251949,1.065216087973065,-146.27685958862304,32.88472980499267,208.8380104064941
2972.153,-7.432376117706298,-229.18917236328124,-59.49182968139648,-0.646312005519867,-0.2755966216325759,0.987516746520996,-15.75690948486328,20.496244570016863,-152.26954101562498,25.01081375598908,7.904437999725343,-19.16504386901856,-0.9761099600791928,-0.1125138594210147,-0.4038537299633026,-160.93185729980468,57.82395599365234,57.04344482421875,236.9012341507768,1.2119661839316371,32.485686868676176,1.0623313315218033,-145.1749478149414,37.32771142363548,209.31298583984375
2989.703,-11.741796469688415,-237.04545471191403,-61.74656555175782,-0.5661846101284027,-0.2712741374969482,0.9729549384117128,-15.96469352722168,15.642417995929716,-152.1549871826172,19.18771807670593,16.885963726043702,-17.776585197448732,-0.98288761138916,-0.1163572257757186,-0.3875504398345947,-160.20570007324218,57.41902862548828,57.448081512451175,245.2367340782192,1.1579274513546625,31.13376426374692,1.0629216358831437,-144.24100654602051,41.77661062955856,209.60306869506837
3012.127,-15.524819269180298,-243.89697082519533,-63.10988235473633,-0.4961049705743789,-0.2624240589141845,0.9576013016700744,-16.25896327972412,10.63773872256279,-152.00917785644532,13.567723689079283,29.32698272705078,-18.115942153930668,-0.9758798217773436,-0.1274557821452617,-0.387173935174942,-159.728369140625,56.775368957519525,57.6926382446289,252.4076259582415,1.1099489994976444,37.045140060478914,1.057586903773534,-143.46940586090088,46.13763023495673,209.70181610107423
3033.0840000000003,-19.020488381385803,-249.9933270263672,-63.76071517944335,-0.4322117096185683,-0.2484072148799895,0.9368859148025512,-16.63595817565918,5.503032212257385,-151.8121875,9.112398285865783,46.037943134307866,-20.1689155960083,-0.9652184772491454,-0.1412023666501044,-0.398153566122055,-159.46184326171874,55.80087753295898,57.79043701171876,258.6964849706557,1.0612578968805142,51.081436617199024,1.0536180899104093,-142.82588508605957,50.29784532070159,209.60262451171874
3049.6850000000004,-21.99673227310181,-255.36126403808595,-63.80393295288086,-0.3685685975849628,-0.232843848466873,0.9058215761184693,-17.092323341369628,0.2586922180652621,-151.54616577148437,4.342728018760679,67.31632579803467,-22.569001607894897,-0.9385262966156006,-0.1565612383186816,-0.422399845123291,-159.42121276855468,54.40975677490235,57.720594787597655,264.12908446833205,1.0052720013291716,71.13161631208192,1.041040181713969,-142.32888942718506,54.151064556837085,209.26676055908203
3073.019,-23.959941482543947,-259.80260253906255,-63.24677474975586,-0.2991304445266723,-0.2154450106620788,0.8575757575035095,-17.62017761230469,-5.069878554344177,-151.19378845214845,-1.7029801607131971,91.23888465881348,-23.55348566055298,-0.8879300832748414,-0.170639755129814,-0.4529291450977325,-159.65631164550783,52.55944198608398,57.44007507324219,268.46159054539515,0.9334515281039644,94.24542907735062,1.0112776914844863,-142.03613403320313,57.62932054042816,208.63386352539064
3094.405,-24.75393306732177,-262.8753393554688,-62.35961517333984,-0.2183662788569927,-0.1995141065120696,0.789884420633316,-18.213968887329106,-10.44942276120186,-150.74455383300784,-10.202695183753969,106.0498480606079,-21.38532711982728,-0.828929922580719,-0.1895821648836135,-0.4933413279056548,-160.20259887695312,50.43678131103516,56.960810852050784,271.30227210276246,0.8434495292537596,108.66461005641456,0.9830828447345368,-141.988629989624,60.88620407223702,207.7053646850586
3118.191,-23.73740646362305,-264.14423339843745,-61.01918731689453,-0.1258611425757408,-0.1881483590602874,0.6958227024972439,-18.856829376220706,-15.838238017559052,-150.18813659667967,-20.50518131732941,106.22373649597166,-15.732329368591309,-0.7786243915557861,-0.2009303125739097,-0.5353581714630126,-161.0672265625,48.34241470336914,56.32262191772461,272.1377991460975,0.7317172032541792,109.32269134714906,0.966042082617982,-142.2103971862793,64.1806527209282,206.51075851440427
3129.585,-20.52835433959961,-262.8236688232422,-58.824647979736326,-0.0211587871611118,-0.1795700842142104,0.57982116907835,-19.52571563720704,-21.18029061675072,-149.51271118164064,-32.52255866527558,89.22421325683594,-7.898933362960816,-0.7335993552207947,-0.2045421631634234,-0.575641963481903,-162.21607604980468,46.61867401123047,55.61905822753906,270.10744794533406,0.6073596113755115,95.29464938657428,0.9546565773162824,-142.69036041259764,67.79896462798119,205.1317694091797
3153.264,-17.219392013549804,-257.75746948242187,-55.94931228637695,0.0957457265257835,-0.1700589975714683,0.4480416034162043,-20.22927238464356,-26.399460906982423,-148.7221014404297,-43.3267901468277,53.059916076660144,0.0808997726440427,-0.6978168058395385,-0.1964594159275292,-0.6012733769416809,-163.51026000976563,45.63157592773437,55.00875381469727,264.3212932788739,0.4887009158930707,68.5023502024761,0.9418462031762588,-143.28098762512207,72.03103683471679,203.73085525512698
3174.427,-15.008566818237304,-247.64042175292963,-52.80001739501953,0.2204925633966922,-0.1667469304800033,0.3117679449915885,-20.9814119720459,-31.39975933074951,-147.8455401611328,-49.516233110427855,-0.7484419250488316,6.946461896896362,-0.6800994634628296,-0.1766092911362647,-0.6199744987487793,-164.75185302734377,45.71280700683594,54.64792053222656,253.65109382934017,0.4166782462068611,50.00670794649889,0.9370669671997208,-143.77044105529788,77.11256633758545,202.49346069335934
3197.007,-14.141360244750976,-231.49423187255857,-49.41995544433594,0.3419191032648086,-0.1647482499480247,0.1793805123865604,-21.77725624084473,-36.06921981811523,-146.9346844482422,-48.39439744472504,-51.69503814697266,11.97887659072876,-0.6712690949440002,-0.1387377791851758,-0.6154852759838105,-165.79791259765625,46.79954544067383,54.54019470214844,237.13264105971976,0.419795220628359,71.81843884011178,0.921234223285826,-144.02065635681151,82.86876525878907,201.47487915039062
3220.641,-15.859943313598633,-208.28550674438475,-46.13436828613281,0.4514081721007823,-0.158637848496437,0.0747799265384674,-22.611436080932616,-40.2792985534668,-146.071875,-41.518375434875495,-90.33648880004884,15.485400171279906,-0.6634446620941162,-0.1054492987692355,-0.6009759306907655,-166.58063415527346,48.64329452514649,54.620207977294925,213.92234586138085,0.4842802310935751,100.61935363506016,0.9013603294697028,-143.96919807434085,88.92259307861329,200.69208297729494
3229.568,-20.67681488037109,-177.92417961120603,-43.41237258911133,0.537454991042614,-0.152732522189617,0.0056084735691547,-23.46339881896973,-43.90435165405273,-145.36615478515623,-30.066392250061035,-112.27098876953126,18.28167816162109,-0.6553174638748169,-0.0809503240138291,-0.5871073198318482,-167.0944775390625,50.91613952636719,54.772003631591794,184.30729355544688,0.5587634076304514,117.6562051853953,0.8835660351198443,-143.63107872009277,94.82049118041992,200.138158416748
3251.9840000000004,-25.440649795532227,-141.45535186767577,-40.5827825164795,0.5901100742816925,-0.1494509717822074,-0.0256710979342459,-24.252361679077147,-46.83400756835938,-144.9137390136719,-16.688218421936035,-114.9468751335144,21.01786674499512,-0.6450479769706725,-0.0714967112243174,-0.5851999831199646,-167.41569763183594,53.24486755371093,54.843384704589845,149.34458634582893,0.6092819527973403,118.03826269294365,0.8738751012321254,-143.16333595275879,100.07887512207031,199.75712371826174
3275.489,-28.759521636962887,-100.61402687072754,-36.63325570344925,0.6067178678512574,-0.1396481633186339,-0.0189228697121142,-24.8908861541748,-48.98299575805664,-144.77702392578124,-4.33401653289795,-97.7214832687378,23.500965652465823,-0.6293602108955383,-0.0783778711408376,-0.5893398261070252,-167.66506286621092,55.24404067993164,54.69662612915039,110.8705908316751,0.6228693728916083,100.601030701221,0.8657706372815521,-142.7741767120361,104.22703643798829,199.47365005493162
3295.533,-30.647243347167965,-57.487911224365234,-30.826012825965883,0.5960905969142913,-0.1279005211591719,0.0228026705980301,-25.32613418579101,-50.29713989257812,-144.97435180664064,4.701713142395017,-70.5580230140686,24.805682678222656,-0.6133939290046692,-0.1022990006208419,-0.607179970741272,-167.92506591796874,56.71661666870117,54.307521972656254,72.0718844520361,0.6100840145658843,74.93905931661992,0.869128709994774,-142.59893173217773,107.0137565612793,199.2818737792969
3317.078,-31.0753392791748,-14.798549728393557,-22.69651805639267,0.5708621966838836,-0.1195013958215712,0.0865703880786896,-25.5496021270752,-50.768596191406246,-145.46841674804688,11.26004009246826,-38.85555458068848,24.03727584838868,-0.6011623191833496,-0.1271879372745751,-0.6297913646697998,-168.21384948730469,57.56586212158203,53.71702178955078,41.228700164614935,0.5896258672227227,47.05670254988532,0.8798920777042566,-142.6642473602295,108.33445831298827,199.18543853759766
3336.744,-29.94309860229492,25.142009735107425,-12.268131837844848,0.546268401145935,-0.1160735148191451,0.1600463986396789,-25.588227386474607,-50.43250610351562,-146.1791485595703,15.970535621643062,-6.367686977386474,21.41656581401825,-0.595991027355194,-0.1468425267934798,-0.6461410236358642,-168.52120056152344,57.7653973388672,52.98546020507812,40.97824869632345,0.5809449859070457,27.464062641028228,0.8912161661393918,-142.93297317504883,108.19790344238282,199.16460876464842
3357.763,-27.93619510650634,60.60272483825683,-0.4651034379005423,0.5308831322193146,-0.1221368500590323,0.235356264412403,-25.49715522766113,-49.35975433349609,-147.01419250488283,19.254985923767087,24.02411308288574,17.581934232711795,-0.6053522610664368,-0.1567610812187194,-0.651331238746643,-168.82029724121094,57.35131958007812,52.179089660644536,66.73333182194793,0.5934196503449256,35.45471624068021,0.9029162636315428,-143.3231420135498,106.71107391357421,199.19328216552736
3379.208,-24.90714195251464,90.327900390625,11.48076189994812,0.5293948340415955,-0.1382536357641219,0.3055465593934058,-25.326649169921872,-47.65272735595703,-147.88692321777344,21.897202835083007,49.49407690048218,13.447520432472228,-0.6304517531394958,-0.1530088213086127,-0.6511823225021361,-169.07693908691405,56.4185319519043,51.35333450317383,94.3996991680836,0.6266830603016766,55.76725693463297,0.9191950443590254,-143.7502899169922,104.07125930786134,199.24025772094728
3399.315,-21.242547913789743,114.0771869659424,22.25394123315811,0.5396295249462127,-0.1617878046631812,0.363008367717266,-25.11813575744629,-45.42971588134766,-148.73566467285156,24.725677413940428,69.00394519805909,9.511817417144774,-0.6641950798034668,-0.1362423211336135,-0.6454042792320251,-169.25187438964844,55.08435348510742,50.55007629394531,118.15281769107789,0.6701868343709542,73.91466868661514,0.9360896098953444,-144.13373863220215,100.51406936645509,199.28574096679688
3409.274,-16.904596388339993,132.42454589843751,31.14029973506928,0.5509612214565277,-0.1909027332067489,0.4082346445322036,-24.887460403442383,-42.80349517822266,-149.52931518554686,27.086171340942386,83.0761358833313,6.181909079551697,-0.7039584040641784,-0.116915974318981,-0.6368000698089599,-169.3379431152344,53.4611784362793,49.78857513427735,137.08298217886136,0.7117988803665055,87.59863601155249,0.9564209892156476,-144.450482711792,96.26467361450196,199.31789031982422
3431.763,-11.360754665136334,146.05191345214843,38.25262762784958,0.5525998497009278,-0.2224193599820136,0.4502052211761474,-24.624695281982422,-39.86845359802246,-150.25046264648438,28.615631408691407,90.72743637084962,3.13117021560669,-0.7462211537361145,-0.1032582676410674,-0.6309868144989013,-169.32695434570311,51.68460693359375,49.09957656860352,151.4050583369994,0.7466737619325862,95.18469571450946,0.9826762641841732,-144.7022590637207,91.55306053161621,199.3500392150879
3449.326,-5.070372490882871,155.94608886718748,43.92646224975586,0.5409932208061219,-0.2468634000420569,0.4915174508094787,-24.31799880981445,-36.70323188781738,-150.89087829589843,29.206039161682128,90.37815454483032,-0.8284342336654664,-0.7766353106498718,-0.0983361849188804,-0.6320287847518922,-169.1881610107422,49.90910461425781,48.55111938476563,162.09387834199126,0.7714950470928212,94.98362935644464,1.006127623995871,-144.87016220092775,86.61233650207518,199.44199768066406
3471.675,0.2947640168666865,163.20592437744142,48.60391357421875,0.5104260474443436,-0.2654087322950363,0.531238284111023,-23.98145957946777,-33.36045875549316,-151.44818115234375,28.460530738830563,82.35741413116456,-6.347215776443482,-0.7969843530654908,-0.1057544761896132,-0.6333827519416808,-168.88798400878906,48.27979537963868,48.227525329589845,170.28975615829302,0.7830649140354442,87.36722852660944,1.0234948845610197,-144.90652442932128,81.64025413513184,199.6757064819336
3494.091,4.694600481987002,168.5441247558594,53.08619674682617,0.4585336104035377,-0.2795620942115783,0.5766366648674011,-23.630788574218748,-29.87287712097168,-151.9137414550781,25.558877639770508,67.18411863327027,-13.028463444709775,-0.8068707132339478,-0.1235013660788535,-0.6336748552322387,-168.42086364746095,46.93029449462891,48.19882141113281,176.7690740724941,0.7879834260053102,73.05274041720978,1.033361871491106,-144.7900750732422,76.80317161560059,200.1125628662109
3516.731,9.027806507349016,172.2708386230469,57.64936050415039,0.391668450385332,-0.2894035828113555,0.6267385411262512,-23.262147293090816,-26.265770797729488,-152.27744201660158,20.40942630767822,42.90692726135254,-20.47859722137452,-0.8058034372329711,-0.1458573901653289,-0.635262234210968,-167.77966857910155,46.02800064086914,48.54021347045899,181.88510630823927,0.7937000741491448,51.73897982541629,1.0364128829462815,-144.51752128601075,72.29377143859863,200.81765548706056
3530.552,12.893463094234471,174.88299499511717,62.17401138305664,0.3150348255783318,-0.2926804262399673,0.6695155608654022,-22.876275253295898,-22.56365617752075,-152.53513671875,13.574894943237306,11.652879199981692,-27.80496051788331,-0.7922987675666808,-0.1675329911708831,-0.6349975705146789,-166.96512329101563,45.69840591430664,49.29896408081055,186.05351654963425,0.7957134279827713,33.06332100334667,1.0290901587217172,-144.08884803771974,68.26206209182739,201.83410079956056
3552.057,15.473662184476854,176.69078002929686,66.45683135986329,0.2305485302209853,-0.2928410565853118,0.7095242369174957,-22.48780342102051,-18.783923997879025,-152.68906982421873,6.3224494552612285,-18.67758201599121,-33.14323181152344,-0.7900120401382447,-0.1836907505989074,-0.6266618895530701,-166.02257690429687,45.92980987548829,50.4237858581543,189.40849084229035,0.8014568934025167,38.56551895139997,1.0249714333761726,-143.53477348327635,64.71373387336732,203.11285568237304
3574.55,17.77586978912354,177.857666015625,70.29499862670897,0.1460858883708715,-0.2918774604797363,0.7478560900688171,-22.091739807128903,-14.946950383186335,-152.74605712890624,-1.5811397552490256,-43.42519533157348,-36.074775543212894,-0.7817398881912231,-0.1893050968647003,-0.6136194920539856,-165.0347216796875,46.61840805053711,51.81794021606446,192.06956484361208,0.8159793319504026,56.47687157593037,1.011673145594352,-142.9429818725586,61.565358433723446,204.5639973449707
3596.558,20.61406700134277,178.54396240234374,73.13794174194337,0.0669676546752452,-0.2901322054862975,0.7744680547714233,-21.664287185668947,-11.074513454437255,-152.72301330566407,-8.432556266784669,-63.18199352264404,-36.011758728027345,-0.7740302705764771,-0.1904022562503814,-0.6035810828208923,-164.05408325195313,47.67441696166993,53.37725845336914,194.04134814753604,0.8297361817436181,73.21146820938354,0.999842988920346,-142.3897960662842,58.748930416107186,206.1002717590332
3619.275,22.7135662651062,179.11281066894531,74.7632406616211,-0.0076762970536947,-0.2828469061851501,0.7932185101509095,-21.20848991394043,-7.181699557304381,-152.6412890625,-12.718601799011232,-74.38094472885132,-32.44415181159973,-0.7712461304664612,-0.1856087219715118,-0.5851314449310303,-163.13435424804686,48.951324768066414,54.95501388549805,195.4145521511545,0.842173914771169,82.1395809415435,0.9857230844808612,-141.92586433410642,56.1330243253708,207.59630294799803
3629.255,23.59110195159912,179.3976336669922,75.06828643798829,-0.0757325737178325,-0.2760626673698425,0.8093439531326293,-20.73943359375,-3.2825118350982647,-152.52342346191406,-15.818892250061037,-75.03123077392578,-26.502932834625245,-0.7839509320259094,-0.171742598414421,-0.5606504988670349,-162.36108032226562,50.26211410522461,56.40423248291015,195.8961425994472,0.8584775206781078,81.1315499192873,0.9789808812302128,-141.62164672851563,53.544625940322874,208.9276559448242
3651.669,23.812414340972904,179.61287414550782,74.21075592041015,-0.1403021860867737,-0.2715274167060851,0.818555519580841,-20.26455879211426,0.6121686124801649,-152.3905926513672,-18.719017486572262,-71.45227584838867,-20.03101735115052,-0.7787988948822021,-0.1502653876319527,-0.5375269973278046,-161.77588928222656,51.52625442504883,57.667847595214845,195.7933909248085,0.8737533863053513,76.53150328916136,0.9581454368968032,-141.5113304901123,50.91408581256867,210.05844024658205
3675.021,23.527636566162112,179.9788366699219,72.31512084960937,-0.2057707253098487,-0.2676944857835769,0.8186698460578918,-19.790707321167,4.499320459365846,-152.2636700439453,-20.171663970947268,-66.90624729156494,-13.192626135349272,-0.7827376818656921,-0.1361365998536347,-0.5200940775871277,-161.37105712890624,52.73038223266602,58.72004440307618,195.3852810089374,0.8855632365663827,71.11531015431173,0.949583751953134,-141.58034980773925,48.23106177330017,210.98371444702147
3695.121,21.815641012191776,180.25385192871093,69.68774368286134,-0.2726708772033452,-0.2616190445423126,0.8261142206192016,-19.3469214630127,8.375130944252016,-152.15694885253907,-22.03725521087647,-59.87762840270996,-6.824892344474793,-0.8025106287002564,-0.121709222011268,-0.4982239818572999,-161.17508911132813,53.836166687011726,59.539329071044925,194.48330249026176,0.9084374701933784,64.1681397258483,0.9523988555207382,-141.82816764831543,45.46103574275971,211.696277923584
3716.615,19.393986830711366,180.04881408691406,66.84253265380859,-0.3410683721303938,-0.2617134600877761,0.8329977488517761,-18.9501132965088,12.231243553161622,-152.07339599609375,-25.9343295288086,-51.44377902984619,-2.0569871783256533,-0.8201386451721191,-0.1064936457574366,-0.4831357300281523,-161.22592224121095,54.81015853881836,60.13802658081054,193.03270798201385,0.9373936308994848,57.64792316495255,0.9578039609029112,-142.27580894470216,42.57891498565674,212.21142257690428
3736.547,16.581928596496585,179.6117852783203,63.96787277221679,-0.4166827929019927,-0.2612537670135498,0.8422495198249816,-18.609789428710943,16.06257625102997,-152.0155029296875,-29.14237133026124,-43.891317939758295,1.7926577186584471,-0.8237756085395814,-0.1026233356073497,-0.4790946674346924,-161.49948913574218,55.66458908081055,60.53567367553711,191.3824509035436,0.9753267833525272,52.71564491624897,0.9584724840079109,-142.88969970703124,39.60201282978058,212.5511766052246
3759.173,13.185686879158022,178.4693359375,61.12174896240234,-0.4945686602592468,-0.2576786112785339,0.8506963443756105,-18.33923660278321,19.8574656867981,-151.9818908691406,-31.10932525634766,-36.12905036926269,5.884308269023896,-0.8399418663978577,-0.1119453971087931,-0.4808367359638213,-161.99010498046874,56.39829513549805,60.71194595336914,189.1058814650416,1.017192556380102,48.03877061598116,0.974288498091866,-143.65086837768553,36.54082944869995,212.69383682250975
3769.132,8.662664194107059,176.10420654296874,58.37617736816407,-0.5704840612411498,-0.2559270071983337,0.8694703197479248,-18.162656860351564,23.59599517822266,-151.9684014892578,-32.924301109313966,-29.09109512329101,11.092481231689453,-0.8536265778541565,-0.1175299845263361,-0.481660053730011,-162.73551330566406,57.030056304931634,60.62319793701172,185.72967290443336,1.070947867109436,45.31384511255386,0.9871616073576586,-144.57285644531248,33.434061126708976,212.5915994262695
3799.042,4.089124331474308,172.35184692382813,55.97353927612305,-0.6490998947620392,-0.2588919818401336,0.88412180185318,-18.081264648437504,27.25451725006104,-151.9667236328125,-33.237949981689454,-21.9320320892334,16.92849278688431,-0.8527812886238099,-0.1229761181026696,-0.491515930891037,-163.7371014404297,57.54916900634765,60.23624877929687,181.25925403947969,1.1269547870936598,43.27065077606353,0.991941007404256,-145.65583679199221,30.29465175628661,212.20297241210938
3809.114,-0.7300245761871306,167.19322509765624,53.543408966064455,-0.7301512670516968,-0.2578884160518646,0.8933157873153688,-18.09899482727051,30.80355667114258,-151.97760009765625,-31.242108230590823,-15.282458457946776,22.24607045650482,-0.8538197422027588,-0.1354549697414039,-0.5104867529869079,-164.92054748535156,57.95542373657226,59.58349609375,175.55911852747673,1.182218424732847,41.2857180386462,1.003968588143049,-146.82155265808106,27.151867065429677,211.56109619140625
3839.03,-5.8382444524764985,160.26826110839843,50.96305221557617,-0.8047552227973938,-0.2610412609577178,0.901298966407776,-18.224836120605467,34.20660987854004,-152.00261779785154,-28.870110855102546,-9.956189327239992,26.82424237966537,-0.8586181402206421,-0.1417283561825752,-0.5302695786952972,-166.24590759277345,58.26708328247069,58.70488204956055,168.27725130903522,1.2361688134675632,40.64663560430055,1.0190671537008036,-148.021071472168,24.06047340393065,210.7074998474121
3849.126,-10.24755712509155,151.53964294433595,48.368168182373054,-0.8683726906776428,-0.2712351977825165,0.9111415028572084,-18.44189315795898,37.42709281921387,-152.03642822265624,-26.94471290588379,-5.293287506103516,29.70686473846436,-0.8669547343254089,-0.1457859885692596,-0.5529162681102753,-167.65874633789062,58.48666961669922,57.67502502441407,159.4012405975787,1.2875630084231768,40.45410064248356,1.0385472860555511,-149.21685317993163,21.05957679748535,209.71145324707032
3871.369,-13.23815638065338,141.23047515869138,45.82989486694336,-0.9246484875679016,-0.2825387436151504,0.9111857056617736,-18.717488632202148,40.43020477294922,-152.07180786132812,-24.75125328063965,-0.7075670814514166,29.210093688964843,-0.875883891582489,-0.146856854557991,-0.5789801037311554,-169.04739990234376,58.59820434570313,56.6196743774414,149.0693635909923,1.328556493871292,38.29301194023829,1.0601686129012176,-150.32991127014162,18.167999572753914,208.69148223876954
3888.98,-15.279826507568355,129.53765686035155,42.93127891540528,-0.9660106205940244,-0.2931540834903717,0.9079976344108582,-19.030812377929685,43.182045516967776,-152.1088244628906,-23.53900802612305,1.922041158676148,26.445771446228022,-0.8840275740623473,-0.1486070749163627,-0.6016896057128907,-170.33849975585937,58.63186965942383,55.64713989257813,137.31923518678616,1.3577833184507928,35.45642351472664,1.0796384561697914,-151.30768737792968,15.449824142456052,207.75596435546873
3911.5,-15.887504520416256,116.56308639526368,39.68295822143555,-0.9894713187217712,-0.3073689979314803,0.9107865357398988,-19.350669860839844,45.652682342529296,-152.14079895019532,-22.84475410461426,2.7005362415313727,23.390246162414552,-0.889375684261322,-0.1456133863329887,-0.6159294056892396,-171.52085815429686,58.62799880981446,54.78371658325195,124.15354639751595,1.379514880364648,32.806695987716644,1.0915866428402992,-152.17018829345702,12.975316467285161,206.92451553344728
3934.186,-14.893592567443845,102.46892913818358,36.20367210388184,-1.003213572502136,-0.3183922314643859,0.9112988781929016,-19.636786041259764,47.8182878112793,-152.15607971191406,-21.700531816482545,3.207305154800415,19.87272857666016,-0.894772036075592,-0.1441256061196326,-0.6278156781196594,-172.565185546875,58.59153915405274,54.05286758422851,109.69232613130464,1.3922200725837173,29.59941263869582,1.102516082683178,-152.92839950561523,10.773251342773442,206.20894729614258
3949.027,-13.16939279079437,87.39686935424804,32.15089385986328,-1.013967957496643,-0.3273898053169249,0.9096214532852172,-19.87444061279297,49.656259765625,-152.15689025878905,-19.110302104949955,2.9797110462188723,16.718344306945802,-0.8891197657585144,-0.1349206563830375,-0.6354964470863342,-173.4549267578125,58.539206237792975,53.44229705810547,94.04959146849028,1.4009733372666586,25.56531558238624,1.101178130749362,-153.58048614501953,8.882946472167973,205.59918731689453
3972.428,-10.94848205566406,71.24605226516725,27.402549209594724,-1.0180146002769468,-0.3348236095905303,0.912452166080475,-20.05241943359375,51.141985473632815,-152.14226196289064,-15.289255056381228,2.680552644729614,14.531885089874269,-0.8803090047836305,-0.13007496625185,-0.6411962747573853,-174.19097717285155,58.4784831237793,52.92105850219726,77.11529631583089,1.4074905084231348,21.26316925873365,1.0968117903775991,-154.1385577392578,7.336497650146484,205.0633204650879
3994.232,-8.184287858009338,54.0352275466919,22.25221116065979,-1.01898894071579,-0.3427726662158966,0.9197367691993714,-20.153679962158204,52.25697509765625,-152.1033221435547,-9.173217926025393,3.2570907878875737,12.203743968009949,-0.8735789895057678,-0.1229922002553939,-0.6434784173965454,-174.73014648437498,58.39650833129883,52.48755661010743,59.00804424232447,1.4148311866166718,15.61050717803989,1.091939469881341,-154.57646652221678,6.139533233642581,204.59087875366214
4016.461,-5.017290163040159,35.8072015953064,16.722559680938723,-1.0198799180984497,-0.3516451334953308,0.9285980010032654,-20.167387466430664,52.98636932373047,-152.035712890625,-2.069940805435183,4.565033864974976,9.937467355728147,-0.8686319494247436,-0.1160001578927039,-0.6451597452163697,-175.06051330566407,58.280747985839845,52.133405456542974,39.83682829932136,1.4234126579171305,11.130024553995224,1.0882134887237034,-154.89312583923342,5.294378662109374,204.16911834716797
4038.847,-1.3501476621627782,16.572021102905275,10.78047308921814,-1.0180017256736755,-0.3609770166873932,0.9421237802505494,-20.083563079833983,53.31229568481446,-151.9359637451172,5.311889648437498,6.201485605239869,7.725032199621201,-0.8640659666061401,-0.1054456022381781,-0.6421464657783508,-175.1802392578125,58.126874694824224,51.85456665039062,19.815988044307502,1.43325822424457,11.240583518410382,1.0817027563938264,-155.0966761779785,4.814579010009766,203.7905303955078
4048.958,2.8766722965240503,-3.6592967796325695,4.5688472366333,-1.0161061930656434,-0.3691317808628082,0.9617293095588686,-19.89113265991211,53.21657485961914,-151.79800048828128,12.18100914955139,7.924297857284546,5.164007470607758,-0.8625686883926391,-0.099718406498432,-0.6369724082946778,-175.08743469238283,57.93509353637696,51.66473953247071,6.522274257857453,1.446946209122468,15.42201198251745,1.0768947728161309,-155.19630203247073,4.718518676757817,203.462740020752
4071.885,7.681985964775087,-25.002031021118164,-1.796399374008179,-1.0209866309165956,-0.3773322892189025,0.9879758048057556,-19.57979194641113,52.68134002685548,-151.6196838378906,18.076760272979733,9.404141321182252,2.208129760026932,-0.8616467595100403,-0.0975502431392668,-0.6298876118659973,-174.78877502441406,57.71087173461914,51.57888977050781,26.217198825482736,1.4699964448525644,20.495925765689687,1.0717787046274676,-155.20898307800294,5.02953170776366,203.1985736083984
4093.651,13.09544996261597,-47.67544763565064,-8.327040824890137,-1.0330890631675718,-0.3787391543388366,1.0182554340362548,-19.140629425048825,51.6806364440918,-151.4032000732422,22.430275602340696,10.01931749343872,-1.007556290626526,-0.8637320613861084,-0.101435066461563,-0.6271995162963867,-174.30411071777343,57.46919128417969,51.60970565795899,50.13759792692936,1.4991866089350283,24.58697127159156,1.0722412880582333,-155.1634812927246,5.78855484008789,203.0129057312012
4114.823,18.45178894519806,-71.63949825286866,-15.05161644935608,-1.0527078795433045,-0.3738632547855377,1.0508098149299625,-18.58272785186768,50.186104736328126,-151.16021667480467,26.305862464904784,9.541034755706786,-5.565195809602737,-0.8677708578109741,-0.1059470933675765,-0.6271029829978942,-173.60208618164063,57.22571792602539,51.80721435546875,75.49329362890079,1.5336782192117542,28.530705365120426,1.0758760149496265,-155.01935832977296,7.039613189697263,202.96743103027342
4136.429,23.52995547294617,-96.70384916305542,-21.907563915252688,-1.0748164916038514,-0.3640039789676665,1.0838055539131164,-17.92167366027832,48.17753921508789,-150.90743835449217,29.078013534545896,7.536384658813477,-11.97035394191742,-0.8775383210182189,-0.115175471305847,-0.627900264263153,-172.64583923339845,57.0040397644043,52.24269943237304,101.9079712496068,1.5691921061555285,32.33600683967659,1.085171708029534,-154.72416557312013,8.826500549316407,203.1501377868652
4158.805,27.9000929260254,-122.35946380615236,-28.708347806930544,-1.08836266040802,-0.3478886115550994,1.11401908159256,-17.180581130981444,45.647731475830085,-150.66038940429686,30.26253784179687,4.599879512786865,-19.731648968458178,-0.8953724718093872,-0.1256765699386595,-0.6246840286254882,-171.42394287109374,56.81699523925781,52.968541107177735,128.74169022509238,1.5958064672047447,36.41864988124629,1.0989616003870966,-154.2433617401123,11.169263763427722,203.6289305114746
4168.709,30.75187553405762,-147.68825897216797,-35.29795738220215,-1.0821706914901732,-0.3261225759983062,1.1323272275924685,-16.40145782470703,42.60686820983887,-150.4372723388672,30.00118560791016,1.6602996826171874,-28.060750830173493,-0.9152785992622376,-0.1315425223112105,-0.6182050061225891,-169.95866271972656,56.65915008544922,53.99545745849609,154.93045369599898,1.5998794612230436,41.11244908868184,1.112302017906319,-153.55720489501954,14.052281875610348,204.43272979736327
4196.365,31.232524375915528,-171.56061096191405,-41.57031871795654,-1.051507818698883,-0.3083262884616851,1.13915988445282,-15.64633602142334,39.08736801147461,-150.2588635253906,29.33915962219238,0.0252106285095215,-34.62719537854194,-0.9277915930747984,-0.1346983590722083,-0.6005983853340149,-168.3247052001953,56.5112059020996,55.24435134887696,179.26685474685462,1.5806388060806311,45.38534546189981,1.1133998870948585,-152.67836917877196,17.423837890624988,205.50321487426757
4216.443,29.70051218032837,-193.1830081176758,-47.0747486114502,-0.9924303221702576,-0.2922538328170775,1.1323322415351869,-14.958295364379882,35.13891586303711,-150.12928100585935,28.32929618835449,0.6430632400512696,-37.68903172492981,-0.9427584576606752,-0.139491656422615,-0.5713759100437164,-166.64573425292969,56.343448638916016,56.5739698791504,201.04185386630084,1.533788301030926,47.1532147920053,1.111180391421908,-151.6874388885498,21.204532775878903,206.70325088500977
4238.694,25.784808807373047,-211.8862603759765,-51.61855148315429,-0.9096546661853788,-0.278094806075096,1.1089604377746582,-14.382868728637694,30.8190259552002,-150.04569091796876,27.49137138366699,4.558715229034424,-35.74447011947632,-0.9463805937767028,-0.1425304889678954,-0.5383958005905151,-165.08796081542968,56.11363357543945,57.77973571777344,219.60218249955523,1.461027578599439,45.323553801707455,1.0980989056802095,-150.70509208679198,25.29460762023925,207.8254266357422
4258.792,20.06737981796265,-227.35271728515627,-55.166543273925775,-0.8120443904399872,-0.2691656363010406,1.074234414100647,-13.95062614440918,26.189259567260745,-150.00032958984374,27.91402000427246,11.265485572814942,-29.556442728042605,-0.9392836594581604,-0.1437219041585921,-0.5058936297893524,-163.7697131347656,55.78394271850586,58.68830123901368,234.80908263203213,1.3732610124257352,42.186336469599816,1.0764934478767303,-149.81908699035642,29.594683151245118,208.6886308288574
4271.94,13.61125453948975,-239.71853759765628,-57.66844619750977,-0.7087725460529327,-0.2627249073982238,1.034475212097168,-13.668200912475584,21.30730871200561,-149.97808044433594,29.673847274780268,18.87342992782593,-19.71115776062012,-0.9300224828720094,-0.1476141887903213,-0.4721300017833709,-162.7675305175781,55.35969650268555,59.172233428955074,246.932973101878,1.2812188975539045,40.31467858722917,1.0533938038376756,-149.09932960510253,34.052387790679944,209.15031387329103
4291.047,7.296755466461185,-249.488471069336,-59.01330764770508,-0.6087759864330292,-0.250738832950592,0.992387878894806,-13.52175724029541,16.222464332580568,-149.95514709472656,31.08727149963379,25.75100620269776,-9.253512258529664,-0.93367595911026,-0.1515912240743636,-0.4448480677604675,-162.0932092285156,54.85838272094726,59.22401580810547,256.47672470689207,1.190928992922863,41.41449334305661,1.0452848890264554,-148.5714519882202,38.63591838836669,209.17916290283202
4314.148,1.4355999374389676,-257.1541284179688,-59.23840591430665,-0.5187465393543242,-0.2359844744205474,0.9490618062019348,-13.498332939147948,10.975910358428958,-149.90772399902343,30.45529026031494,32.86365928649902,-0.5493397521972654,-0.923570523262024,-0.1520375868678092,-0.4308717453479766,-161.73556030273437,54.26773452758789,58.904955291748045,263.8929620979948,1.1070252735375594,44.80900111252728,1.030411762451442,-148.2372273635864,43.29182416915893,208.81267929077148
4328.67,-2.873244552612302,-263.3003204345703,-58.302884063720704,-0.4406166172027587,-0.2187703984975814,0.9130450177192688,-13.569007873535156,5.603914794921879,-149.809541015625,28.079442234039306,38.75461421966553,4.448694181442261,-0.9182467889785768,-0.1517429971694945,-0.4252538108825683,-161.61116271972656,53.59062194824219,58.35764083862305,269.6934195811129,1.0371377415734002,48.06418707738486,1.0232516339247133,-148.0421548461914,47.98670715332031,208.16718185424804
4351.077,-5.426711835861203,-268.52104125976564,-56.19543701171875,-0.3741392987966537,-0.1937643617391586,0.8811479878425598,-13.706524238586423,0.1321140098571803,-149.6329766845703,22.09758026123047,46.38765037536622,5.669369640350342,-0.917125759124756,-0.1514200448989867,-0.4330431807041167,-161.69822387695314,52.77659149169922,57.69558822631837,274.3919203284169,0.9767019091121032,51.693896282517365,1.0254628634922425,-147.99169963836673,52.64447748184204,207.32856491088867
4374.692999999999,-6.461460990905759,-273.1665466308594,-53.20597503662109,-0.3160494178533554,-0.1647824089229106,0.8465651893615723,-13.894085998535155,-5.420603942871091,-149.3545983886719,11.28419912338257,59.00962043762208,3.1315172672271734,-0.9051522946357728,-0.1481423592567443,-0.4550303030014037,-162.02217590332032,51.70151229858399,57.004293823242186,278.3749062971805,0.9185385656871882,60.16040936066937,1.023864938231654,-148.12808990478516,57.12211624145508,206.35889221191408
4388.527,-6.091697683334348,-277.13895751953123,-49.753353424072266,-0.2566226616501807,-0.1374061700701713,0.7971249759197235,-14.121044273376466,-11.035618190765378,-148.9595080566406,-3.916620140075684,69.11634986877442,-1.2638122367858884,-0.8660681414604188,-0.1477558141946791,-0.4972138059139251,-162.60557189941406,50.4034846496582,56.36609176635742,281.635414556867,0.8486129113328383,69.23876770909726,1.0095183876841705,-148.4845276260376,61.43910284042358,205.32559982299802
4411.096,-4.68144420623779,-279.98646240234376,-46.38862457275391,-0.184927864074707,-0.1098482304811477,0.7193814092874526,-14.383442497253418,-16.68817386627197,-148.44487609863282,-20.848332271575927,69.77756317138672,-6.011122422218323,-0.8230939292907715,-0.1445490649342536,-0.5417990529537201,-163.41820373535157,49.06184280395508,55.86676147460938,283.8419270266235,0.7508492263294104,73.07321584149554,0.9959539459183024,-149.03476123809816,65.75001667022705,204.3116375732422
4434.727,-3.545539445877073,-280.3554168701172,-43.153090209960936,-0.0893180057406425,-0.0853799305856227,0.6098035103082656,-14.70424789428711,-22.329953250885005,-147.81281311035156,-38.70618732452392,60.15309150695801,-9.478836479187011,-0.7694045448303223,-0.1396383889019488,-0.5850131332874298,-164.4585302734375,47.8821076965332,55.53654495239258,283.6792551686649,0.6221959176019835,72.15546892678869,0.9765872205693988,-149.7542823791504,70.2120609474182,203.34935806274413
4456.929,-4.030660858154294,-276.24860229492185,-40.150967636108405,0.0357576519250869,-0.0720616689324378,0.4599886494874954,-15.126294898986815,-27.87434974670409,-147.07716430664064,-53.40124528884887,35.16068283081055,-9.759470191001892,-0.7080966258049012,-0.1338822466135024,-0.6182775914669036,-165.64886657714845,47.176017150878906,55.394950256347656,279.18029425259795,0.4669700755485878,64.67776954980525,0.949522231200871,-150.52257167816163,75.05036689758299,202.47211456298828
4479.125,-6.66070334434509,-265.3453857421875,-37.38266403198243,0.1833674857020378,-0.0709216873347758,0.2913830453157425,-15.685689010620118,-33.19030342102051,-146.26979919433592,-60.61755088806152,-8.13116577148437,-6.386658544540405,-0.6632202577590942,-0.1229871016740798,-0.6395559358596802,-166.83046691894532,47.32094482421875,55.45927001953125,268.0485073150748,0.3515076096538662,61.49303001019415,0.9295260795553728,-151.1447779083252,80.51124824523926,201.72906921386718
4488.529,-10.967039203643797,-245.7462203979493,-34.636496810913094,0.3378447896242141,-0.0787609112262725,0.123144040107727,-16.386411895751955,-38.10935096740722,-145.44298645019532,-58.86848913192749,-52.879106445312495,-0.811667447090149,-0.6407838606834412,-0.0989012806117534,-0.6330295634269715,-167.879892578125,48.35568618774414,55.65874145507812,248.4173256842286,0.3681125339179254,79.13505996191081,0.9061522209825248,-151.49348068237305,86.46503715515135,201.10172790527344
4511.047,-17.45075680732727,-216.1433850860596,-31.62138786315918,0.4756233087182044,-0.0902522902190684,-0.0045090682804584,-17.21615333557129,-42.43902259826661,-144.67125427246094,-49.98075485229493,-87.91303497314455,6.087839307785035,-0.6311704039573669,-0.0831867107748984,-0.6209525132179261,-168.74197021484378,50.09934982299805,55.87758987426759,219.14014693798453,0.4841315310766251,101.31060833511934,0.8893132920140747,-151.5258168792725,92.53837242126465,200.54884414672853
4531.187,-25.587619152069088,-177.30651641845705,-28.650232925415043,0.569439617395401,-0.1040945574641227,-0.0855505427718161,-18.13005657196045,-46.00564216613769,-144.05080444335937,-35.198473129272465,-108.0183853149414,13.640096135139467,-0.6285579156875609,-0.0749672959744929,-0.611213595867157,-169.38886108398438,52.264926605224616,55.99669372558594,181.41985245556907,0.585163267918984,114.42445673567828,0.879935911650433,-151.25880451202394,98.2705687713623,200.0474981689453
5730.996,-33.038539485931395,-131.58353446960447,-25.40023477554321,0.6061856654286385,-0.1113056801259516,-0.1005350326001643,-19.037106285095213,-48.679300994873046,-143.67041076660158,-18.3499991607666,-108.92375862121582,19.39053861618042,-0.6203296589851379,-0.0736916515231131,-0.6081384801864624,-169.84173950195313,54.46873748779296,55.93805313110352,138.0251555388718,0.6244656180922838,112.14767340073804,0.8718209428571453,-150.80463321685792,103.14803848266601,199.6084638977051
5731.119,-39.35802295684815,-82.27814620971681,-21.273118553161623,0.5955625545978546,-0.1053559411317109,-0.0664542043209075,-19.86059337615967,-50.39012786865234,-143.58615966796873,-3.685837783813476,-89.85159149169922,22.231782603263856,-0.5975015056133269,-0.0854829321801661,-0.6133492088317871,-170.1736767578125,56.30737121582031,55.66239700317383,93.65518078438689,0.6084494983503528,92.63447550171897,0.8605304369276491,-150.31308338165283,106.69749908447265,199.24855667114255
5731.153,-45.61101364135742,-32.84129127502441,-15.773146724700933,0.5515711534023284,-0.0931578901410102,0.0122927175462246,-20.580794219970706,-51.12992126464844,-143.80939453125,7.204993591308595,-59.64360862731935,22.67892165184021,-0.5664757323265076,-0.1106150725483893,-0.6317779088020324,-170.44632751464843,57.55427230834961,55.18708419799805,58.37556968117768,0.5595178644742013,64.21530557452755,0.8557299665431892,-149.86553329467773,108.68419357299805,198.99647872924805
5731.185,-49.62135314941406,13.195280609130862,-8.557660369873046,0.4977763974666596,-0.0897726652771233,0.1031931334733962,-21.188487014770505,-50.955924377441406,-144.2914318847656,14.82879722595215,-24.751604766845706,21.39697952270508,-0.5387396705150604,-0.1307243984937667,-0.6523088526725769,-170.69604431152342,58.10899337768554,54.5499885559082,52.05408408317896,0.5162260126164725,35.921663357890395,0.8560584911226841,-149.5075572967529,109.06491775512694,198.8414204406738
5731.215999999999,-49.80097244262696,53.771044692993165,0.3327168846130369,0.4594096744060515,-0.0925098764896392,0.1970782227814197,-21.67030601501465,-49.96159271240234,-144.95146606445311,19.595811462402345,9.545916061401368,18.804462051391603,-0.5295864701271056,-0.1416115029156207,-0.6695974349975586,-170.9364489746094,57.97622528076172,53.80635482788087,73.29101448426312,0.5083848464310138,28.78763855135684,0.8653764337298644,-149.26614295959473,107.93781799316406,198.757820892334
5731.251,-47.06030516982078,88.03987762451172,10.01093864440918,0.4480581438541412,-0.1051469083875417,0.2762845918536186,-22.03673828125,-48.26231994628906,-145.70670532226563,22.88092552185059,39.89672622680664,15.669885363578796,-0.5496478164196015,-0.1385864725708961,-0.6798689389228821,-171.15281127929688,57.23315231323242,53.0088298034668,100.32901508216744,0.5367915315214995,48.58838157071025,0.8851783473326748,-149.1160729980469,105.49547225952148,198.71553512573243
5731.28,-41.41662812948227,116.00615257263183,19.48559152603149,0.4567254722118378,-0.1335442966222762,0.3413019679486752,-22.286976776123044,-45.97857727050781,-146.49058044433593,26.26683296203613,65.81553596496582,12.531868925094605,-0.594346580505371,-0.122731322646141,-0.6824153542518616,-171.3109210205078,55.96843460083007,52.19348068237305,124.70947356732732,0.5855930920469462,71.96303931162836,0.9132368537436456,-149.02394424438475,101.94701187133788,198.68406112670897
5731.31,-32.007253113985065,138.00825790405275,27.90986324310303,0.4779261648654938,-0.1741967497020959,0.3863504475355148,-22.390928649902342,-43.23081954956054,-147.25380920410157,30.2671615600586,86.47813293457031,9.763411602973935,-0.6552276742458344,-0.1015642388164996,-0.6773378205299377,-171.377177734375,54.28808959960937,51.38300903320312,144.3942657028421,0.6387680290846641,92.140614014022,0.9478529014695404,-148.98624908447266,97.51890914916991,198.63681823730468
5731.34,-20.64715200901032,154.91783813476565,34.812569332122806,0.4978787159919738,-0.2091415961086749,0.4223834347724914,-22.32278129577636,-40.1219059753418,-147.97722717285154,34.3982373046875,100.82829093933104,6.686720066070556,-0.7197218585014343,-0.0845442646741866,-0.6671322798728943,-171.31337280273436,52.31876190185547,50.61998931884766,160.11794540880322,0.6855882066013885,106.74406404413304,0.9849937893928384,-148.990591506958,92.44066787719726,198.5972164916992
5731.37,-10.025121735334396,167.69001312255858,40.232592620849616,0.5037422168254851,-0.2389013268798589,0.4559150028228759,-22.10364547729492,-36.73664459228515,-148.6490313720703,38.35015335083008,109.2600941467285,2.3428266859054565,-0.7718071734905243,-0.0742949084937571,-0.655438597202301,-171.07532165527343,50.17687759399414,49.96625030517578,172.73999269378064,0.7202003573979912,115.8187863511976,1.0152860686437335,-148.9716761779785,86.9135221862793,198.6152816772461
5731.4,-0.6383066225051873,177.17912109375,44.68939933776856,0.4902554535865783,-0.2659281885623931,0.4913205134868622,-21.76333084106445,-33.139734191894526,-149.2564862060547,40.90085571289063,111.32878768920898,-3.370731296539308,-0.8045185065269471,-0.0779216828942298,-0.6445195317268372,-170.64978881835935,47.98292877197265,49.481252441406255,182.72928282042977,0.743279259912754,118.6521841175675,1.0337926498030443,-148.8864579772949,81.12266296386719,198.73773864746096
5731.429,7.625259341001512,184.0229479980469,48.523643798828125,0.4550119680166243,-0.2864655411243438,0.5332350873947143,-21.327927932739257,-29.38053928375244,-149.78663024902343,40.932399597167965,102.23977020263672,-10.336664271354678,-0.8195340132713318,-0.0907031376659869,-0.6387295317649841,-170.03784545898438,45.949716796875,49.24351699829101,190.4655716328412,0.7572569284720169,110.61319349936925,1.0429949534105074,-148.70991752624514,75.33025608062744,199.03014724731443
5731.458,13.772552874088287,188.8421875,51.86395233154296,0.3995546427369117,-0.2886104369163512,0.5829075264930725,-20.83436706542969,-25.49750251770019,-150.23400024414062,38.17740489959717,79.13897384643556,-18.69719910621643,-0.8187066006660462,-0.1076653093099593,-0.6343069219589234,-169.22223205566405,44.34168060302734,49.364348602294925,196.31842639931503,0.7633616975405174,89.8336055201621,1.041257695312724,-148.38786499023436,69.83918312072754,199.59834884643556
5731.487999999999,16.854662395715714,192.28600036621097,54.536755065917966,0.3291810122132301,-0.2886819350719452,0.6380694758892058,-20.338598022460936,-21.51811609268189,-150.60134521484378,31.778678131103515,45.9099853515625,-27.434928269386297,-0.8108910870552064,-0.1246471059322356,-0.6294088077545166,-168.228876953125,43.34860931396484,49.91534896850586,200.5797677594327,0.7738411041681201,62.21162614726714,1.0340390241000663,-147.89027893066407,64.86672540664674,200.51669418334964
5731.518999999999,19.11741370201111,194.441083984375,56.66693862915039,0.2491351896524428,-0.2905513966083526,0.6907258677482606,-19.848790588378908,-17.47059245109558,-150.89393005371093,21.82045658111572,7.167418670654302,-34.95005733489991,-0.7990712928771972,-0.1417474392056464,-0.6245559954643249,-167.12833679199218,43.07585525512695,50.90049728393554,203.43046129150008,0.7896775805167642,41.82117553969031,1.0240495393740616,-147.27954620361328,60.54644770622254,201.79442733764648
5731.548,20.51467574119568,195.40100830078129,58.15246368408204,0.161486857831478,-0.2823748356103897,0.7428554439544677,-19.3681664276123,-13.381863813400267,-151.1209552001953,11.052345771789549,-34.340856323242186,-39.71868093490601,-0.7870514893531799,-0.1556191557645797,-0.6191330695152283,-165.9578887939453,43.58169097900391,52.28351272583008,204.90025621813376,0.8109548468632934,53.65652220636018,1.0134066934361978,-146.589722366333,56.963554792404175,203.4044679260254
5731.581,19.046360206604007,195.4949291992188,58.93418579101562,0.071381584405899,-0.2677252125740051,0.7858626675605774,-18.941664581298827,-9.278840875625608,-151.29610595703124,1.4265927886962868,-69.66051315307617,-40.87666801452637,-0.7795540356636048,-0.1695392408967017,-0.6027887916564941,-164.75386108398436,44.75440353393555,53.96440475463868,205.0713764389785,0.833278016213988,80.7807170536661,0.9999011831525848,-145.81219650268554,54.03324440956116,205.26051071166992
5731.61,15.372678270339966,194.7090173339844,59.07424987792969,-0.0144698813557624,-0.2654580265283585,0.8296381664276122,-18.60628730773925,-5.184486494064329,-151.43351379394534,-7.448737754821778,-89.60867431640625,-37.8340902709961,-0.7801181316375733,-0.1775998452305793,-0.5832698333263397,-163.63378173828124,46.3126205444336,55.74678817749024,204.05314912299025,0.8711927619695603,97.55314753260274,0.9901160047207396,-145.027494430542,51.49710703849793,207.18030197143557
