Timestamp (ms),Wrist Gyroscope X (deg/s),Wrist Gyroscope Y (deg/s),Wrist Gyroscope Z (deg/s),Wrist Accelerometer X (g),Wrist Accelerometer Y (g),Wrist Accelerometer Z (g),Wrist Roll (deg),Wrist Pitch (deg),Wrist Yaw (deg),Arm Gyroscope X (deg/s),Arm Gyroscope Y (deg/s),Arm Gyroscope Z (deg/s),Arm Accelerometer X (g),Arm Accelerometer Y (g),Arm Accelerometer Z (g),Arm Roll (deg),Arm Pitch (deg),Arm Yaw (deg),Wrist Gyroscope Magnitude (deg/s),Wrist Accelerometer Magnitude (g),Arm Gyroscope Magnitude (deg/s),Arm Accelerometer Magnitude (g),Difference Roll (deg),Difference Pitch (deg),Difference Yaw (deg)
0.0,0.2509726285934448,-1.600594162940979,-0.0537763684988021,-0.8626871109008789,0.3441700637340545,0.3650972247123718,41.74278259277344,59.44331741333008,-67.4284896850586,0.277361512184143,0.4625803828239441,-0.2772514522075653,-0.9786741137504578,0.1547756493091583,0.0002599350409582,88.12657928466797,80.70068359375,-31.77638816833496,1.6210431309970612,0.9979870077199826,0.6064473487169558,0.9908373176816369,46.38379669189453,21.25736618041992,35.65210151672363
22.494,-0.252274215221405,-1.6481021642684937,-0.1410927921533584,-0.8562819361686707,0.3411090672016144,0.3681422472000122,41.708274841308594,59.42285919189453,-67.46603393554688,0.1181878969073295,0.5156481862068176,0.0493763796985149,-0.9821686148643494,0.1670474857091903,0.0035946816205978,88.19873046875,80.69728088378906,-31.7368278503418,1.6732573620126998,0.992523482900731,0.5313186028983837,0.9962795653039714,46.490455627441406,21.27442169189453,35.72920608520508
45.71,-0.967841625213623,-1.536105394363403,0.0378081202507019,-0.8559647798538208,0.339001327753067,0.3721916079521179,41.66209411621094,59.401023864746094,-67.49922943115234,-1.3404083251953125,0.8833765387535095,-0.234607845544815,-0.9833294749259948,0.1609515249729156,0.0113495206460356,88.25669860839844,80.70330810546875,-31.68321990966797,1.815975398524272,0.9930378631243248,1.6223715445804063,0.9964793330863588,46.5946044921875,21.302284240722656,35.816009521484375
67.13199999999999,-0.775371253490448,-1.5578982830047607,0.415324866771698,-0.8618794083595276,0.3401376605033874,0.3839595019817352,41.62141036987305,59.37104034423828,-67.52820587158203,-1.318162441253662,0.5926470160484314,-0.6211329698562622,-0.9887644052505492,0.1557928621768951,0.0185642167925834,88.25236511230469,80.72006225585938,-31.692731857299805,1.7890618731300096,1.0029729018318236,1.573082602219408,1.0011349035673782,46.63095474243164,21.349021911621094,35.83547401428223
87.424,-0.4473760724067688,-1.6557639837265017,0.4436104297637939,-0.8687442541122437,0.3307012617588043,0.3761706352233886,41.58416748046875,59.347450256347656,-67.5603256225586,-0.7510406970977783,0.1751895099878311,-0.1141678839921951,-0.9925380945205688,0.1492884457111358,0.009718875400722,88.24137878417969,80.73046875,-31.72493553161621,1.771578373474676,1.0027882380574034,0.7796074645885251,1.0037496528698893,46.65721130371094,21.383018493652344,35.83539009094238
97.438,-0.574432373046875,-1.891897439956665,0.8314480185508728,-0.8663041591644287,0.3463251888751983,0.3840849697589874,41.556400299072266,59.3067626953125,-67.58071899414062,-0.8249082565307617,-0.1687686890363693,0.3492845594882965,-0.9954830408096312,0.1588813066482544,0.0111145107075572,88.18531036376953,80.72611999511719,-31.80164337158203,2.1448902727344863,1.008932751292073,0.9115679928500172,1.0081434850705109,46.62891006469727,21.419357299804688,35.779075622558594
119.895,-1.5066828727722168,-1.7965699434280396,0.352791279554367,-0.8629831075668335,0.3362429141998291,0.3838218450546264,41.4923095703125,59.27665328979492,-67.61931610107422,-0.0234256982803344,-0.8839980363845825,0.0442447140812873,-0.9955427646636964,0.1644496768712997,0.0124553628265857,88.05406188964844,80.72409057617188,-31.970020294189453,2.3711217867633407,1.0025559086836209,0.8854145280013502,1.009110612648808,46.56175231933594,21.44743728637696,35.649295806884766
144.917,0.4384388923645019,-2.277163505554199,0.5678489208221436,-0.8632652163505554,0.3377237915992737,0.3855292201042175,41.46253204345703,59.23575592041016,-67.6634750366211,1.045031189918518,-0.8254279494285583,0.2833910584449768,-0.9896013736724854,0.1570110321044922,0.0067826593294739,87.97257995605469,80.7211685180664,-32.10968017578125,2.3874996733496268,1.0039506824177804,1.361518262678438,1.0020026683819596,46.510047912597656,21.48541259765625,35.553794860839844
168.14,-0.1483164727687835,-2.728740930557251,0.376064658164978,-0.8641384840011597,0.3424121439456939,0.3838059306144714,41.41169738769531,59.19042205810547,-67.72010040283203,2.1318392753601074,-1.546234130859375,0.8876931071281433,-0.9884359836578368,0.1632438898086547,0.0056706620380282,87.83389282226562,80.70186614990234,-32.328304290771484,2.7585230594130925,1.0056283549244966,2.779132550967149,1.0018415132931184,46.42219543457031,21.511444091796875,35.39179611206055
187.409,-0.2141387015581131,-3.337977409362793,0.6659332513809204,-0.8585547208786011,0.3296834826469421,0.3831546902656555,41.34403991699219,59.135284423828125,-67.7918930053711,0.8638355135917664,-1.10116708278656,0.6333152651786804,-0.979970395565033,0.1493951976299286,0.0118214376270771,87.70105743408203,80.6952133178711,-32.47584915161133,3.4104861331218017,0.996300619364316,1.5361865003518798,0.9913630251559432,46.35701751708984,21.55992889404297,35.316043853759766
198.331,0.1370069831609726,-3.6490578651428223,0.6642924547195435,-0.8550555109977722,0.3378843069076538,0.3813418447971344,41.28558349609375,59.07304000854492,-67.86393737792969,1.410135269165039,-0.3880044221878052,0.2967415153980255,-0.9818217158317566,0.1589281857013702,0.0064074350520968,87.68502044677734,80.69075775146484,-32.51614761352539,3.711560141233452,0.9953428225166486,1.4923419299681848,0.9946220916072048,46.3994369506836,21.61771774291992,35.3477897644043
219.576,0.5200330018997192,-4.074035167694092,0.8899925351142883,-0.8516374230384827,0.3364652693271637,0.3841424882411957,41.22869491577149,59.00041580200195,-67.94223022460938,2.08561372756958,0.5704035758972168,-0.0102625666186213,-0.9815528392791748,0.1559460312128067,0.011662078090012,87.7777099609375,80.69489288330078,-32.45567321777344,4.2024140185412735,0.9930058554989318,2.1622326841245862,0.9939321631848992,46.549015045166016,21.694477081298828,35.48655700683594
237.42,0.1377575546503067,-3.7479567527771,0.770597517490387,-0.848278820514679,0.341380774974823,0.3862998485565185,41.1717643737793,58.93159103393555,-68.01276397705078,1.530121088027954,0.5605460405349731,0.3556843400001526,-0.9901362061500548,0.1663494110107422,0.0189627557992935,87.83468627929688,80.686279296875,-32.41557693481445,3.828835005391724,0.9926456386097584,1.6679309809787184,1.0041919235785302,46.66292190551758,21.754688262939453,35.59718704223633
259.906,0.4489153325557709,-2.954696655273437,0.8497868776321411,-0.8462737798690796,0.3359686434268951,0.3831222057342529,41.13883590698242,58.87663650512695,-68.06205749511719,1.5740437507629397,-1.5490241050720217,0.5861054062843323,-0.991031289100647,0.1753556579351425,0.0236792471259832,87.62480163574219,80.66632080078125,-32.6505241394043,3.1070717786822177,0.987844554768961,2.284865193985361,1.006704191652548,46.485965728759766,21.789684295654297,35.41153335571289
282.475,0.773645281791687,-2.4208083152771,0.4977144300937652,-0.8515037298202515,0.3396724760532379,0.3809032142162323,41.12031173706055,58.83598327636719,-68.10364532470703,1.7985159158706665,-2.4651033878326416,0.912850260734558,-0.9891794919967652,0.1641641557216644,0.0279439892619848,87.29788208007812,80.64501190185547,-33.03715133666992,2.58970260363557,0.9927352373549528,3.1850729679031247,1.0030986013082956,46.17757034301758,21.80902862548828,35.06649398803711
297.494,1.0759191513061523,-2.115506172180176,0.1312206983566284,-0.8646876811981201,0.3392272591590881,0.3829346895217895,41.10366821289063,58.80837631225586,-68.1496353149414,1.916311383247376,-2.471376180648804,1.8985991477966309,-0.990473449230194,0.1622566729784011,0.0141260344535112,87.03094482421875,80.60538482666016,-33.36489486694336,2.3770122541453107,1.004688457090813,3.658500822448429,1.0037750875596383,45.927276611328125,21.797008514404297,34.78474044799805
321.328,1.183924674987793,-2.252017974853516,0.3353655934333801,-0.8633807897567749,0.3379667401313782,0.3785001039505005,41.09370803833008,58.77794647216797,-68.1910629272461,1.9388474225997925,-3.037407398223877,1.4062659740447998,-0.9931184649467468,0.1604777723550796,0.0059288833290338,86.72663879394531,80.57666778564453,-33.73838806152344,2.566268239363766,1.0014540599780912,3.8681464580161866,1.0060181670803767,45.632930755615234,21.79872131347656,34.452674865722656
342.244,0.6735418438911438,-2.215632677078247,0.3766759932041168,-0.8617490530014038,0.3372326493263244,0.3784402906894684,41.07496643066406,58.747657775878906,-68.23072052001953,2.804307460784912,-2.269539594650269,0.7651426196098328,-0.9861424565315248,0.1420846730470657,0.0112401200458407,86.5089340209961,80.57142639160156,-34.04463195800781,2.346182341393249,0.9997771470370772,3.687871138562548,0.9963891504766432,45.43396759033203,21.823768615722656,34.18608856201172
363.274,0.5740861892700195,-2.078898668289185,0.3542909026145935,-0.8546713590621948,0.3368389010429382,0.378625750541687,41.05646896362305,58.71798706054688,-68.2677001953125,3.977208137512207,-1.239613056182861,0.9949801564216614,-0.9895972013473512,0.1708589196205139,0.0088641485199332,86.45514678955078,80.54685974121094,-34.20867156982422,2.185615855863189,0.993620166980466,4.283084240337237,1.0042778323040802,45.39867782592773,21.828872680664062,34.05902862548828
384.966,0.944761037826538,-1.8572173118591309,-0.0806467533111572,-0.855701744556427,0.3387294411659241,0.3828718662261963,41.03807830810547,58.69570541381836,-68.31281280517578,3.257472515106201,-0.8993606567382812,0.4127700328826904,-0.9860094785690308,0.1745559424161911,0.0092071676626801,86.42337799072266,80.53223419189453,-34.34539794921875,2.085265801015296,0.9967717772374086,3.4044611728740586,1.0013836631367348,45.38529968261719,21.83652877807617,33.96741485595703
408.022,1.273843765258789,-2.732071876525879,-0.156474232673645,-0.8654687404632568,0.3347668349742889,0.3869145214557647,40.999629974365234,58.66411590576172,-68.38719940185547,1.532674789428711,-0.7009425163269043,0.2285133898258209,-0.9797109365463256,0.1484425961971283,0.0053815385326743,86.38773345947266,80.53609466552734,-34.450462341308594,3.0185060646424304,1.0053893879642366,1.7007735859527933,0.9909075055277364,45.38810348510742,21.871978759765625,33.936737060546875
417.431,2.467756509780884,-4.418503761291504,0.180441066622734,-0.8693175315856934,0.3289448320865631,0.3687097430229187,40.96599960327149,58.61280059814453,-68.48672485351562,2.1217103004455566,0.8377874493598938,-0.4203829765319824,-0.9773966073989868,0.1494625508785247,-0.0101710297167301,86.59571838378906,80.55464172363281,-34.29900360107422,5.064144217796038,0.9999322716457985,2.319539664735143,0.9888107160198372,45.62971878051758,21.94184112548828,34.187721252441406
439.824,2.4841532707214355,-5.0811285972595215,0.1365409642457962,-0.8644337058067322,0.3459401428699493,0.378002256155014,40.925254821777344,58.54220199584961,-68.59732818603516,3.002991199493408,1.9577348232269287,-0.6524366140365601,-0.9840806722640992,0.1440867781639099,-0.0052469344809651,86.93294525146484,80.58238220214844,-34.02668380737305,5.657519662293866,1.0048909989854231,3.643673327515205,0.9945869994559876,46.0076904296875,22.040180206298828,34.57064437866211
459.725,2.3145034313201904,-4.838292121887207,-0.1583558171987533,-0.8583552837371826,0.3447941541671753,0.397525429725647,40.86509704589844,58.47123718261719,-68.72234344482422,3.996270656585693,2.092726945877075,-0.0414579920470714,-0.9976305961608888,0.164175659418106,0.0114275543019175,87.25343322753906,80.58672332763672,-33.79083633422852,5.365731390514198,1.006818389356272,4.511253040541221,1.0111137634010443,46.38833618164063,22.11548614501953,34.9315071105957
482.262,2.298438310623169,-4.388951301574707,-0.1366485357284546,-0.8566211462020874,0.348512589931488,0.3981297016143799,40.818241119384766,58.40544128417969,-68.8323745727539,4.149974346160889,1.864235639572144,0.1404160410165786,-1.0012410879135132,0.1894614100456237,0.0115790721029043,87.55103302001953,80.5731430053711,-33.58454513549805,4.956247069875687,1.0068605031328255,4.55163467978475,1.0190747847599193,46.732791900634766,22.167701721191406,35.24782943725586
504.722,1.0245836973190308,-3.844956874847412,-0.1822556555271148,-0.8588318824768066,0.3530712723731994,0.3937462568283081,40.76398086547852,58.34990692138672,-68.92372131347656,3.022083282470703,0.6583936214447021,-0.4306710064411163,-1.0047626495361328,0.1645409911870956,0.0126760220155119,87.66954803466797,80.58424377441406,-33.5367546081543,3.983300421286339,1.008606781902734,3.122810759994428,1.0182251230537571,46.90556716918945,22.234336853027344,35.386966705322266
527.321,1.4060205221176147,-4.399805068969727,-0.3198564648628235,-0.869916558265686,0.3592469990253448,0.4071982800960541,40.698577880859375,58.284759521484375,-69.03588104248047,3.2090210914611816,0.5837150812149048,0.6535607576370239,-0.9931247234344482,0.1666061282157898,0.0036175872664898,87.8181381225586,80.57130432128906,-33.46589660644531,4.630063337759229,1.0254870374445098,3.32651188565493,1.0070091385848672,47.11956024169922,22.286544799804688,35.56998443603516
537.4440000000001,1.76614248752594,-7.398778438568115,0.3367260694503784,-0.8689271211624146,0.3692266643047333,0.4026819765567779,40.60581207275391,58.16455459594727,-69.1926040649414,4.761673927307129,2.754716396331787,1.2067099809646606,-0.970211386680603,0.1553964465856552,-0.0318494848906993,88.3795166015625,80.55378723144531,-33.010887145996094,7.614103106414586,1.0264090051090136,5.63188689449419,0.9830933730546402,47.773704528808594,22.389232635498047,36.18171691894531
559.812,-2.3240885734558105,-9.696771621704102,1.1889307498931885,-0.8674402832984924,0.3452303111553192,0.3886483311653137,40.397254943847656,58.01166915893555,-69.38697814941406,4.184804916381836,5.395656585693359,-0.6081042289733887,-0.9727597832679749,0.1401334106922149,-0.0288428794592618,89.21968841552734,80.58219146728516,-32.271854400634766,10.042027878312002,1.0112784671627053,6.855325880817412,0.9832247354655456,48.82243347167969,22.57052230834961,37.1151237487793
582.326,-0.3990407586097717,-11.623038291931152,2.8471691608428955,-0.8392144441604614,0.3619224727153778,0.3868339359760284,40.24699401855469,57.79636001586914,-69.56409454345703,3.640236616134644,7.1498703956604,-2.512791872024536,-0.9802600741386414,0.1478345841169357,-0.0155525458976626,90.20765686035156,80.64292907714844,-31.38895606994629,11.973329732918264,0.9924259436182992,8.407502143223098,0.9914669731742056,49.96066284179688,22.846569061279297,38.17513847351074
607.7719999999999,-0.5207850933074951,-11.166230201721191,3.066558122634888,-0.8249716758728027,0.3857688009738922,0.4177596867084503,40.11028289794922,57.56395721435547,-69.72242736816406,5.67275857925415,6.448654174804688,-1.9040383100509644,-0.9811986684799194,0.1873007416725158,0.0128417890518903,91.04988098144533,80.66622924804688,-30.692853927612305,11.591362851310445,1.0019575787606767,8.797197988613716,0.99899815135159,50.939598083496094,23.102272033691406,39.02957344055176
628.203,0.8279931545257568,-10.993973731994627,3.1553003787994385,-0.8249631524085999,0.3634296953678131,0.4366134107112884,39.97845077514648,57.33514404296875,-69.89730072021484,3.285214424133301,6.011258125305176,-0.067447230219841,-0.9828335046768188,0.1918683052062988,0.0221902094781398,91.7479248046875,80.64879608154297,-30.07093811035156,11.467735241283751,1.001636968527031,6.85072311441977,1.001632442493123,51.769474029541016,23.31365203857422,39.82636260986328
637.618,0.119774654507637,-12.091976165771484,4.276596546173096,-0.8283346891403198,0.3622050583362579,0.42765012383461,39.84586334228516,57.08196258544922,-70.05895233154297,1.9340786933898928,5.012311935424805,1.1293479204177856,-0.979847252368927,0.178238570690155,0.0012147517409175,92.35847473144533,80.61386108398438,-29.50926971435547,12.826515956415744,1.0001077391627962,5.489932427232477,0.995927257222332,52.51261138916016,23.53189849853516,40.5496826171875
659.4910000000001,-3.548387289047241,-11.265377044677734,5.4968132972717285,-0.8309431672096252,0.3657342493534088,0.4265611171722412,39.69207000732422,56.82838821411133,-70.16055297851562,1.0718743801116943,4.641138553619385,0.7685988545417786,-0.9881966710090636,0.1435588896274566,0.0157299563288688,92.85537719726562,80.6068115234375,-29.04149055480957,13.027460563628177,1.0030864743209806,4.824917197199865,0.9986937703373202,53.163307189941406,23.77842330932617,41.119062423706055
677.766,-3.329618215560913,-10.874900817871094,6.714025497436523,-0.8228667378425598,0.3577421307563782,0.4332586526870727,39.5712776184082,56.56512451171875,-70.2249755859375,1.830588340759277,2.61077880859375,0.4276401400566101,-0.9990920424461364,0.163086399435997,0.0107903154566884,93.1363296508789,80.597900390625,-28.80585670471192,13.20711791573605,0.9963945807229118,3.217156469634892,1.0123727148969617,53.5650520324707,24.03277587890625,41.41911888122559
699.806,-2.658735036849976,-10.628705978393556,6.883018493652344,-0.828455924987793,0.3822608590126037,0.4395707547664642,39.489933013916016,56.29830932617188,-70.26425170898438,0.7242432832717896,1.0088316202163696,1.4196771383285522,-0.98883318901062,0.2001132518053054,0.005268570035696,93.2066421508789,80.54894256591797,-28.761276245117188,12.93886418335368,1.0127610934600482,1.886200611919484,1.008892534944742,53.71670913696289,24.250633239746094,41.50297546386719
717.195,-1.9761391878128047,-11.030881881713867,6.099011421203613,-0.833674967288971,0.3584437370300293,0.4341166913509369,39.38335418701172,56.04853057861328,-70.3452377319336,-1.2184290885925293,1.2376768589019775,2.222219705581665,-0.9801974296569824,0.1838767230510711,-0.00300347013399,93.28986358642578,80.49211883544922,-28.647172927856445,12.75866064655318,1.0059588288840673,2.8204031397772464,0.9972996897718364,53.90650939941406,24.443588256835938,41.69806480407715
739.876,0.3553520143032074,-12.827264785766602,6.829868793487549,-0.8439436554908752,0.3474636971950531,0.4305047392845154,39.30233383178711,55.77207565307617,-70.44983673095703,-0.6295199394226074,3.923768758773804,2.330252170562744,-0.972926914691925,0.1493202298879623,-0.0238458253443241,93.77532958984376,80.44857788085938,-28.13922882080078,14.536578162500703,1.0091116117943473,4.606770214029819,0.984607503410417,54.47299575805664,24.676502227783203,42.31060791015625
762.064,-1.7819175720214844,-13.595735549926758,7.270800590515137,-0.8418788313865662,0.3635545372962951,0.4497187733650207,39.17722702026367,55.46854782104492,-70.55690002441406,-0.4487555921077728,4.107607364654541,1.7908207178115845,-0.9919397234916688,0.1396538764238357,-0.0212074667215347,94.2740478515625,80.42259979248047,-27.62602424621582,15.520431585624689,1.0213612697975545,4.50342743773622,1.0019467934404886,55.09682083129883,24.954051971435547,42.93087577819824
784.389,-2.5891189575195312,-13.849842071533203,7.261860847473144,-0.8321394324302673,0.346825510263443,0.4495443999767303,39.021881103515625,55.16592788696289,-70.67698669433594,2.929544687271118,3.526206016540528,1.2571450471878052,-1.001392126083374,0.1685077846050262,-0.0048328302800655,94.70693969726562,80.39306640625,-27.249313354492188,15.851065748102288,1.007389764254781,4.753606485130408,1.0154823582430124,55.68505859375,25.22713851928711,43.42767333984375
808.0730000000001,-2.4558746814727783,-13.172036170959473,6.774382591247559,-0.8191031217575073,0.3651066720485687,0.451530396938324,38.88700866699219,54.87247085571289,-70.781494140625,4.490942001342773,2.846229314804077,2.39082145690918,-1.0094263553619385,0.1736137270927429,0.0056807091459631,95.0379867553711,80.34029388427734,-27.006954193115234,15.0141971757654,1.0040480593111842,5.829717712779243,1.0242634249013878,56.150978088378906,25.467823028564453,43.774539947509766
817.716,-3.788972139358521,-11.532218933105469,6.021876335144043,-0.8164035677909851,0.3513349592685699,0.4579740762710571,38.7266845703125,54.61738586425781,-70.87950134277344,3.994263648986816,1.338722825050354,3.304865837097168,-1.004721760749817,0.1883574724197387,0.004902777262032,95.16828918457033,80.26349639892578,-26.96124267578125,13.550327597135029,0.9998456349069216,5.354293520263924,1.0222369545097878,56.44160461425781,25.64611053466797,43.91825866699219
839.613,-3.623908281326294,-11.235015869140623,5.641198635101318,-0.8210206031799316,0.3484890460968017,0.465165764093399,38.56337738037109,54.3737907409668,-70.98352813720703,3.546898126602173,0.1364018023014068,3.2397732734680176,-0.9974843859672546,0.1654576510190963,-0.0056202858686447,95.1915512084961,80.20248413085938,-27.01531982421875,13.0836315620693,1.0059317244127424,4.805748915168452,1.0111295278758667,56.628173828125,25.82869338989257,43.96820831298828
861.976,-3.0202674865722656,-12.566069602966309,5.42825984954834,-0.825084388256073,0.3464739918708801,0.4521918892860412,38.39430236816406,54.1209716796875,-71.11315155029297,4.854836463928223,1.2811237573623655,2.8924992084503174,-0.9737509489059448,0.1463333368301391,-0.0325363129377365,95.46926879882812,80.15423583984375,-26.84479141235352,14.017636246930437,1.0026395062647993,5.79458944568561,0.985222293506726,57.07496643066406,26.03326416015625,44.26836013793945
884.851,-0.9699637293815612,-14.037185668945312,4.948110103607178,-0.8264991044998169,0.3495293259620666,0.4396310448646545,38.24424743652344,53.85758590698242,-71.27525329589844,8.179587364196777,2.32108998298645,3.433849573135376,-0.977318525314331,0.1468812078237533,-0.0384286753833293,95.93812561035156,80.09310913085938,-26.549877166748047,14.915334549991792,0.9992732234255473,9.169756324383414,0.989041127671676,57.693878173828125,26.23552322387696,44.72537612915039
907.748,-0.168231263756752,-14.437952041625977,5.110252380371094,-0.8174189329147339,0.3571381270885467,0.4524921774864197,38.10857391357422,53.578407287597656,-71.43966674804688,7.965993404388428,2.710223436355591,3.6919078826904297,-0.9871035814285278,0.1540565490722656,-0.0252536255866289,96.38732147216795,80.02375793457031,-26.26249122619629,15.31657403943471,1.0002352345294474,9.188718398558244,0.9993721260803462,58.27874755859375,26.445350646972656,45.177175521850586
916.94,-1.757055163383484,-13.499334335327148,4.72491455078125,-0.8046947717666626,0.3469758927822113,0.4661219716072082,37.93655014038086,53.31489562988281,-71.60404205322266,7.879848003387451,2.0820322036743164,2.600758552551269,-0.9990972876548768,0.1901880353689193,-0.0050624962896108,96.69200897216795,79.96019744873047,-26.10029983520508,14.409860785458664,0.9925702183198954,8.555162634473684,1.0170508875496365,58.75545883178711,26.645301818847656,45.50374221801758
941.964,-0.0030427426099777,-12.084961891174316,4.103182792663574,-0.8016156554222107,0.3561064898967743,0.4708578884601593,37.817420959472656,53.078243255615234,-71.74918365478516,5.427774429321289,1.5822772979736328,3.36808180809021,-1.0059914588928225,0.1888173073530197,0.0046006916090846,96.8478546142578,79.88517761230469,-26.037403106689453,12.762539802070298,0.9955433904605774,6.580905087392235,1.0235682474972714,59.03043365478516,26.806934356689453,45.7117805480957
963.047,-0.0413408279418945,-11.019943237304688,3.009849786758423,-0.7970385551452637,0.3498950600624084,0.4640755355358124,37.6938705444336,52.8765983581543,-71.89952087402344,6.313424110412598,-0.6757683753967285,4.3014092445373535,-1.000041365623474,0.1598552614450454,-0.0230228826403617,96.8559799194336,79.81121826171875,-26.174673080444336,11.423662011645913,0.9864396150434028,7.669296472566232,1.0129987614478109,59.162109375,26.934619903564453,45.7248477935791
984.443,-0.2234170138835907,-10.730846405029297,3.283108711242676,-0.787359356880188,0.3494691848754883,0.4578172564506531,37.58290100097656,52.67710494995117,-72.03192138671875,7.255272388458252,-2.437548875808716,4.171864032745361,-0.9787414073944092,0.1661354601383209,-0.0214597005397081,96.68714904785156,79.73926544189453,-26.518781661987305,11.224071566960912,0.9755306803726496,8.716941634564007,0.9929734399323148,59.104248046875,27.06216049194336,45.513139724731445
1006.712,-2.500234603881836,-11.31741428375244,3.33060359954834,-0.7818647623062134,0.3333454430103302,0.4653346240520477,37.40394592285156,52.4694938659668,-72.18572235107422,6.997073173522949,-1.9048863649368288,2.639665603637696,-0.945078670978546,0.1578243672847747,-0.0259603764861822,96.61277770996094,79.69843292236328,-26.745014190673828,12.059351536540277,0.9690036136431924,7.717218382162366,0.9585176922700588,59.208831787109375,27.228939056396484,45.44070816040039
1017.303,-0.7446328401565552,-12.331838607788086,3.518010377883911,-0.787200927734375,0.3398456871509552,0.4463787376880646,37.267520904541016,52.25248336791992,-72.33891296386719,5.019913673400879,-0.9676916599273682,0.5436189770698547,-0.9427237510681152,0.146738588809967,-0.0251494422554969,96.62958526611328,79.70393371582031,-26.812583923339844,12.845431815788494,0.9666614552990904,5.141155709499622,0.9544070298984816,59.362064361572266,27.45145034790039,45.526329040527344
1044.64,-0.337980568408966,-12.68957805633545,2.43276309967041,-0.7884721159934998,0.3521663248538971,0.4615028798580169,37.11503982543945,52.03597259521485,-72.52405548095703,3.3843181133270264,0.4926896691322326,0.5545016527175903,-0.9616314172744752,0.1656160354614257,-0.0388471148908138,96.80736541748048,79.6957778930664,-26.683712005615234,12.925090267056946,0.9791293613091228,3.464653559178691,0.976561699139699,59.692325592041016,27.65980529785156,45.8403434753418
1066.851,-1.5403335094451904,-11.88723850250244,1.575400710105896,-0.7794645428657532,0.3378393054008484,0.4531645774841308,36.93077087402344,51.848480224609375,-72.71742248535156,2.967740774154663,0.8414931297302246,-0.5824644565582275,-0.9689212441444396,0.1937967836856842,-0.0277054514735937,96.98050689697266,79.69488525390625,-26.583925247192383,12.08970446012219,0.9628387737025428,3.1392452648872404,0.9885004616906764,60.04973602294922,27.846405029296875,46.13349723815918
1086.676,-1.0254977941513062,-10.636521339416504,1.439910054206848,-0.7818264961242676,0.3452227115631103,0.476103127002716,36.76921463012695,51.67414093017578,-72.89270782470703,4.2201738357543945,0.7003567814826965,-2.4372620582580566,-0.9833288192749025,0.169175699353218,-0.0038408963009715,97.12077331542967,79.74845123291016,-26.546010971069336,10.782419621489316,0.9783177286355902,4.923475720055809,0.997782910533458,60.351558685302734,28.07431030273437,46.346696853637695
1096.659,-1.218236804008484,-9.092406272888184,0.141890600323677,-0.7912962436676025,0.3465864658355713,0.4895564317703247,36.59745788574219,51.53930282592773,-73.07414245605469,5.939284324645996,2.4816689491271973,-2.5440523624420166,-0.9768935441970824,0.1609995663166046,0.0078059528023004,97.4561538696289,79.8038330078125,-26.32889747619629,9.174752622515628,0.992943816854983,6.921414702565837,0.9901024138679916,60.85869598388672,28.26453018188477,46.7452449798584
1119.341,1.8915696144104004,-8.511689186096191,-0.9189225435256958,-0.8124970197677612,0.3446799516677856,0.4939728379249573,36.474212646484375,51.43342208862305,-73.27229309082031,6.459485054016113,4.746722221374512,-2.7462046146392822,-0.99545419216156,0.1890081018209457,-0.0121740289032459,98.1052474975586,79.84083557128906,-25.781152725219727,8.767628359360774,1.0114172436837514,8.473367618332997,1.0133120537256617,61.63103485107422,28.407413482666016,47.491140365600586
1136.595,3.4551262855529785,-9.162919044494627,-2.375055313110352,-0.8147236704826355,0.37301105260849,0.5015466809272766,36.3618392944336,51.32558822631836,-73.50564575195312,7.397581100463867,7.931195259094238,-2.7765674591064453,-1.0014222860336304,0.1726657003164291,-0.0410601422190666,99.21795654296876,79.87435150146484,-24.784912109375,10.076600161037211,1.0268695037646989,11.19541831423855,1.0170280105826166,62.85611724853516,28.548763275146484,48.720733642578125
1161.145,5.309201240539551,-11.213418960571287,-2.7236032485961914,-0.8326091170310974,0.3616940379142761,0.5555877685546875,36.21622467041016,51.179805755615234,-73.81231689453125,5.587501049041748,10.842490196228027,-3.7153725624084473,-0.9923276305198668,0.1493404954671859,-0.0405306033790111,100.63939666748048,79.92440032958984,-23.46079444885254,12.7022201702541,1.0643017839849815,12.750833498475346,1.0043203869731137,64.42317199707031,28.74459457397461,50.35152244567871
1182.701,6.756457805633545,-17.61208152770996,-0.9598990082740784,-0.85067218542099,0.3864056766033172,0.5855500102043152,36.048248291015625,50.90145111083984,-74.1879653930664,6.037818431854248,10.643844604492188,-5.984661102294922,-0.979375422000885,0.114854596555233,-0.0906006097793579,102.28461456298828,80.02566528320312,-21.92772483825684,18.88799999799064,1.1026428834443471,13.622145495109727,0.9902405092005014,66.23636627197266,29.12421417236328,52.26024055480957
1205.088,4.101068019866943,-25.678911209106445,-0.5121711492538452,-0.8515315055847168,0.3800883591175079,0.5286210179328918,35.75072479248047,50.51033401489258,-74.6771011352539,0.5017203688621521,9.660897254943848,-8.57452392578125,-0.9373480677604676,0.1050175279378891,-0.12125064432621,103.91517639160156,80.1713638305664,-20.295209884643555,26.00937444605072,1.071920354476218,12.926991902716882,0.9509741321707906,68.1644515991211,29.661029815673828,54.38189125061035
1226.777,3.452757835388184,-34.71200180053711,1.6362675428390503,-0.862557053565979,0.4352133274078369,0.6057401895523071,35.36853790283203,49.91573333740234,-75.2645034790039,1.720245122909546,15.980524063110352,-9.179182052612305,-0.9547419548034668,0.1331899315118789,-0.1327497661113739,106.32302856445312,80.2681655883789,-17.892396926879883,34.921654845411815,1.1403229754103392,18.50928890502125,0.9730849184530138,70.9544906616211,30.35243225097656,57.37210655212402
1236.906,0.8466996550559998,-45.61851119995117,3.121112823486328,-0.8499426245689392,0.4397611618041992,0.6473349332809448,34.82176208496094,49.11149978637695,-75.9997329711914,-7.502833843231201,14.94179344177246,-12.727812767028809,-0.9477973580360411,0.1504530012607574,-0.1424667239189148,108.59737396240234,80.40940856933594,-15.445843696594238,45.73299475939525,1.1553505356974398,21.01301798334241,0.9701817896212326,73.7756118774414,31.297908782958984,60.55388927459717
1259.213,-2.4760587215423584,-55.6039924621582,6.381325721740723,-0.8465213775634766,0.4541063904762268,0.6761703491210938,34.170745849609375,48.097267150878906,-76.79680633544922,-15.48012351989746,18.1298828125,-14.822522163391112,-0.9661597609519958,0.1427592635154724,-0.1187388077378273,111.12559509277344,80.56053161621094,-12.598389625549316,56.02371071690291,1.1747414173229167,28.071943970279047,0.9838413466943228,76.95484924316406,32.46326446533203,64.1984167098999
1281.72,-5.4731059074401855,-63.5085563659668,10.111327171325684,-0.8035548329353333,0.4791495501995086,0.7428302764892578,33.46276092529297,46.87699890136719,-77.60099792480469,-10.040563583374023,21.903139114379883,-11.765998840332031,-1.0296903848648071,0.1312992721796035,-0.0912572219967842,113.99989318847656,80.61966705322266,-9.516632080078123,64.54092157018543,1.1946051568025438,26.814159484241703,1.0420315101399278,80.5371322631836,33.74266815185547,68.08436584472656
1306.189,-7.197119235992432,-70.36475372314453,14.375362396240234,-0.7621040344238281,0.5032140612602234,0.7571250796318054,32.77424240112305,45.47876739501953,-78.35823822021484,-7.269363403320312,19.26396751403809,-10.603169441223145,-1.0467525720596311,0.1810422539710998,-0.0651431009173393,116.4326400756836,80.63894653320312,-6.923527240753174,72.17789229285593,1.186282148960588,23.15969107891415,1.0642889027108742,83.65839767456055,35.160179138183594,71.43471097946167
1326.49,-7.2302703857421875,-76.8572006225586,18.64953994750977,-0.7456948161125183,0.5115766525268555,0.7631335854530334,32.14018249511719,43.92475128173828,-79.06375122070312,-5.037602424621582,17.624916076660156,-8.142853736877441,-1.0298970937728882,0.2041860371828079,-0.0405997112393379,118.46807098388672,80.60559844970703,-4.769987106323242,79.41732454345792,1.183276932689076,20.05794535534599,1.0507275089646115,86.32788848876953,36.68084716796875,74.29376411437988
1337.697,-3.510380744934082,-84.30369567871094,23.34718132019043,-0.7173659205436707,0.5050506591796875,0.7499931454658508,31.630970001220703,42.19967269897461,-79.72291564941406,-9.439702987670898,16.04025650024414,-5.175348281860352,-0.9933478832244872,0.1804581880569458,-0.0735054537653923,120.16856384277344,80.5234375,-2.8694088459014893,87.54728295990093,1.1542009142870515,19.31792046074376,1.0122787296375548,88.53759384155273,38.32376480102539,76.85350680351257
1358.8929999999998,0.7321062088012695,-91.86940002441406,28.867280960083008,-0.6938773393630981,0.5089704394340515,0.7738536596298218,31.25746726989746,40.28636169433594,-80.32759857177734,-9.453407287597656,21.6781063079834,-0.821599006652832,-0.9574880003929138,0.1583013236522674,-0.0877918824553489,122.18513488769533,80.30082702636719,-0.6068087220191956,96.3007920547653,1.1573098793416443,23.66394361413936,0.9744485592331358,90.92766761779784,40.01446533203125,79.72078984975815
1383.232,2.640043020248413,-98.96967315673828,35.49324035644531,-0.6830962896347046,0.5426766872406006,0.8397080898284912,30.989727020263672,38.17568206787109,-80.85063934326172,-4.854433059692383,24.82944107055664,3.5584611892700195,-0.9730386734008788,0.1481105834245681,-0.0781708434224128,124.18547821044922,79.96876525878906,1.541558861732483,105.17478853271236,1.2108791037550142,25.548567674975835,0.987345778143341,93.19575119018556,41.79308319091797,82.3921982049942
1401.729,0.2844046354293823,-107.93538665771484,42.03211212158203,-0.6891580820083618,0.5363116264343262,0.8739359974861145,30.712066650390625,35.859622955322266,-81.32750701904297,-3.0151798725128174,25.16700553894043,4.128445625305176,-0.9602676033973694,0.1381327956914901,-0.0981609672307968,126.13394165039062,79.6111831665039,3.607715129852295,115.8310279171704,1.235448562404816,25.68099571164962,0.9751051814382692,95.421875,43.75156021118164,84.93522214889526
1424.404,2.1538326740264893,-118.82131958007812,48.52392578125,-0.7080254554748535,0.5511906743049622,0.9276623725891112,30.498401641845703,33.30628967285156,-81.78019714355469,-1.666581392288208,33.87580108642578,7.525157451629639,-0.944259762763977,0.1741736233234405,-0.1180487424135208,128.42694091796875,79.0586166381836,6.000028610229492,128.36555751120713,1.2906078732747572,34.74155131044128,0.9674184493910128,97.92853927612305,45.75232696533203,87.78022575378418
1446.713,3.835155487060547,-132.28289794921875,54.43260955810547,-0.7587783336639404,0.5797936320304871,0.9797811508178712,30.32792091369629,30.490741729736328,-82.2497787475586,-10.198578834533691,48.815059661865234,9.709017753601074,-0.9252604842185974,0.1710143387317657,-0.1833284348249435,131.40809631347656,78.24105834960938,9.274568557739258,143.09571094466287,1.368165311239443,50.805374575682464,0.9586251523529205,101.08017539978027,47.75031661987305,91.52434730529784
1456.483,2.541879653930664,-146.4638671875,59.47726821899414,-0.7823309898376465,0.560560405254364,0.956241250038147,30.13327980041504,27.42264938354492,-82.75810241699219,-15.226862907409668,61.430294036865234,11.141284942626951,-0.9383441209793092,0.1754446923732757,-0.2122969478368759,134.61154174804688,77.19439697265625,12.919001579284668,158.10019284772196,1.3567118610352775,64.26248213094149,0.9779266452649906,104.47826194763184,49.77174758911133,95.67710399627686
1484.879,2.282351016998291,-159.90875244140625,65.81596374511719,-0.7344309091567993,0.5793613791465759,1.0462267398834229,29.946102142333984,24.052579879760746,-83.27388000488281,-21.38016128540039,76.2730484008789,12.991290092468262,-0.9773020148277284,0.1500506401062011,-0.2371333986520767,137.92405700683594,75.88282012939453,16.793285369873047,172.93859984754798,1.4034381921618782,80.27118304360049,1.0167923443549831,107.97795486450195,51.83024024963379,100.06716537475586
1506.2530000000002,-0.7055230140686035,-172.53565979003906,69.41384887695312,-0.7227481007575989,0.580803632736206,1.0596692562103271,29.712474822998047,20.45381736755371,-83.8301773071289,-21.45132064819336,80.18277740478516,17.188385009765625,-1.0445537567138672,0.1851758807897567,-0.255731999874115,140.5083770751953,74.41837310791016,19.94145774841309,185.97670305126923,1.4080470906562883,84.76365688867409,1.0912293586826416,110.79590225219728,53.964555740356445,103.771635055542
1526.381,-2.3233933448791504,-185.91256713867188,72.40567779541016,-0.6661362648010254,0.5433998107910156,1.0670496225357056,29.466670989990234,16.543212890625,-84.4393310546875,-20.17348861694336,72.676025390625,19.88015365600586,-1.0753544569015503,0.1862649917602539,-0.2654221355915069,142.18064880371094,73.02506256103516,22.187471389770508,199.5281006618841,1.3702612067063582,77.99996678808982,1.1231788660740691,112.7139778137207,56.48184967041016,106.626802444458
1536.312,-0.8091646432876587,-197.108627319336,74.87797546386719,-0.5714190602302551,0.5293412208557129,1.0086016654968262,29.288463592529297,12.375232696533203,-85.08686828613281,-23.356674194335938,48.24417495727539,19.993595123291016,-1.1107230186462402,0.2334924787282943,-0.2507346570491791,142.52452087402344,72.01762390136719,23.08444595336914,210.8534489182008,1.2743622680126778,57.20820301917062,1.1623649297956595,113.23605728149414,59.642391204833984,108.17131423950195
1558.881,-0.0476847514510154,-203.37405395507807,75.20667266845703,-0.4292359948158264,0.4964462518692016,0.9434576630592346,29.166179656982425,8.093153953552246,-85.76966857910156,-17.817392349243164,13.444275856018066,25.47888946533203,-1.1102683544158936,0.2219727337360382,-0.210161417722702,141.38136291503906,71.5205307006836,22.26195526123047,216.8341571566136,1.1492670630561477,33.87302513514532,1.1515795825034596,112.21518325805664,63.42737674713135,108.03162384033205
1581.426,0.4189956486225128,-205.88345336914065,77.52796173095703,-0.2781562805175781,0.4747119545936584,0.9027043581008912,29.09326171875,3.833018302917481,-86.42298889160156,-9.17380714416504,-15.824363708496094,28.14704704284668,-1.1444532871246338,0.2159279286861419,-0.1621308773756027,139.20960998535156,71.45954132080078,20.17163848876953,219.99717447893144,1.0571648472966964,33.56822130422352,1.1758761066522485,110.11634826660156,67.6265230178833,106.5946273803711
1622.614,0.2292153537273407,-207.1700897216797,78.6310043334961,-0.1401177644729614,0.4273366034030914,0.8377264142036438,29.058813095092773,-0.4863238036632538,-87.06243896484375,-11.09315299987793,-22.368711471557617,19.93986892700196,-1.01645028591156,0.271382600069046,-0.1011337786912918,137.09471130371094,71.55201721191406,18.18503189086914,221.59046337209884,0.9508076070286176,31.953335807118982,1.0569047925628434,108.03589820861816,72.03834101557732,105.24747085571288
1622.6560000000002,-2.85828185081482,-204.4210205078125,80.94086456298828,-0.0272808503359556,0.4152944684028625,0.7645139694213867,29.022550582885746,-4.806135654449463,-87.6318130493164,-12.55380916595459,-19.16361618041992,21.01726531982422,-1.0470187664031982,0.2505701184272766,-0.0673089325428009,135.04837036132812,71.56439971923828,16.299428939819336,219.88075622209007,0.8704569775247447,31.089672742078577,1.078686318560306,106.02581977844238,76.37053537368774,103.93124198913574
1638.788,-4.323922634124756,-200.32872009277344,80.59976196289062,0.0676553770899772,0.3871736526489258,0.7743311524391174,28.97622871398925,-9.064427375793455,-88.16413116455078,-10.666220664978027,-20.01272201538086,19.290342330932617,-0.9530186653137208,0.261213093996048,-0.0324015244841575,133.05331420898438,71.59068298339844,14.431076049804688,215.978272123446,0.8683717066973047,29.7723800355881,0.988699507282284,104.07708549499512,80.6551103591919,102.59520721435548
1667.952,-12.72727870941162,-195.155990600586,79.95536041259766,0.0819499567151069,0.4038266837596893,0.649651050567627,28.84915351867676,-13.205368995666504,-88.66771697998047,-9.136482238769531,-28.130300521850582,30.53111457824707,-0.9618151187896729,0.2780965566635132,-0.0941516458988189,130.19248962402344,71.53356170654297,11.625740051269531,211.28346823486075,0.7693102582349838,42.508094200270016,1.0056294297533022,101.34333610534668,84.73893070220947,100.29345703125
1684.56,-13.74700164794922,-190.1136016845703,76.31330871582031,0.1548173427581787,0.2987023890018463,0.6664620637893677,28.683534622192383,-17.25330924987793,-89.169921875,0.4565056562423706,-34.48966979980469,34.52900314331055,-0.9654691815376282,0.2636089026927948,-0.076066106557846,127.11930847167967,71.46210479736328,8.391107559204102,205.31897790254132,0.7465676186953845,48.80571460786626,1.0036963916666766,98.4357738494873,88.71541404724121,97.5610294342041
1704.972,-19.96571350097656,-181.3344573974609,72.24320220947266,0.1476980745792389,0.4093166589736938,0.708405613899231,28.451547622680664,-21.092634201049805,-89.66555786132812,8.021493911743164,-34.37903594970703,34.32194519042969,-0.9968331456184388,0.2275390326976776,-0.1438987553119659,124.40541076660156,71.3403549194336,5.357572078704834,196.2139022106064,0.831380395698472,49.236758616527965,1.0325488769956022,95.9538631439209,92.4329891204834,95.02312994003296
1716.612,-23.1047477722168,-176.06802368164062,64.0242919921875,0.1759652197360992,0.2385338842868805,0.6312330365180969,28.20163917541504,-24.7600326538086,-90.2472152709961,17.81999397277832,-32.62743377685547,46.037357330322266,-0.9405794739723206,0.2800526320934295,-0.1525837779045105,121.65276336669922,70.92315673828125,2.073658227920532,188.7667563366956,0.697364552369575,59.17381084578483,0.9931772414227572,93.45112419128418,95.68318939208984,92.32087349891664
1738.618,-21.260400772094727,-169.13397216796875,60.97135925292969,0.2069129049777984,0.3879359364509582,0.7258857488632202,28.03279685974121,-28.296817779541016,-90.82565307617188,11.591734886169434,-16.891536712646484,37.75198745727539,-0.9479926228523254,0.2781474590301513,-0.1867056638002395,119.9880599975586,70.44465637207031,0.0912508219480514,181.0409120377356,0.8486562092149867,42.952356014079136,1.0054427019191343,91.95526313781738,98.74147415161131,90.91690389811993
1761.231,-34.275115966796875,-165.24847412109375,53.5665168762207,0.1679299473762512,0.3281151950359344,0.6356245279312134,27.69282341003418,-31.717918395996094,-91.51561737060548,10.872615814208984,-10.173506736755373,39.535003662109375,-0.9318532943725586,0.3035958111286163,-0.1960860192775726,118.6833038330078,69.83948516845703,-1.4604281187057495,177.0627388925677,0.7347643084330088,42.24607116086887,0.9994852203629412,90.99048042297365,101.55740356445312,90.05518925189972
1783.836,-31.507827758789062,-162.92550659179688,51.799129486083984,0.225701630115509,0.2966791987419128,0.6477644443511963,27.451459884643555,-35.08466339111328,-92.22154998779295,9.1721773147583,24.19503402709961,36.70025634765625,-0.8883821964263916,0.2201525568962097,-0.2059878259897232,119.1787109375,68.98365783691406,-1.0656193494796753,173.84077117807337,0.7473677462725801,44.9047583697937,0.938147674777959,91.72725105285645,104.06832122802734,91.1559306383133
1807.915,-30.20964431762696,-159.3683624267578,47.8493766784668,0.2770857512950897,0.2589214444160461,0.6117547750473022,27.306373596191406,-38.3539924621582,-92.98915100097656,7.370441436767578,34.9489631652832,43.62412643432617,-0.9228515625,0.1769731342792511,-0.2852831482887268,119.82258605957033,67.88088989257812,-0.4613338410854339,169.11670645120122,0.7197643591776627,56.38100602560421,0.9820188243424058,92.5162124633789,106.23488235473631,92.52781715989111
1817.141,-32.672889709472656,-152.82733154296875,47.13020706176758,0.367744505405426,0.303705096244812,0.5953370332717896,27.11684799194336,-41.46787643432617,-93.71562957763672,3.7052197456359854,58.98671340942383,21.148653030395508,-0.9729159474372864,0.2341463565826416,-0.2706623077392578,121.84584045410156,66.91327667236328,1.7127805948257446,163.23286251915374,0.7628230397187855,62.772816865335976,1.0366523245087809,94.7289924621582,108.38115310668944,95.42841017246246
1841.386,-38.0137939453125,-147.80905151367188,41.82864761352539,0.4270102381706238,0.2134734094142913,0.509130597114563,26.88371467590332,-44.47135162353516,-94.51150512695312,-7.404362678527832,96.64451599121094,7.9706339836120605,-0.953831672668457,0.277717113494873,-0.3247964084148407,125.24633026123048,65.74026489257812,5.636317253112793,158.24727486015192,0.6979416916531967,97.254912801109,1.0451862809244152,98.36261558532716,110.21161651611328,100.14782238006592
1861.067,-34.09968948364258,-139.54266357421875,38.773231506347656,0.528243899345398,0.1868179440498352,0.4473956823348999,26.74609565734864,-47.3293571472168,-95.29627990722656,-19.61631393432617,122.61195373535156,-10.034348487854004,-0.9057971239089966,0.2198323607444763,-0.3175852298736572,129.3679962158203,64.41948699951172,10.636902809143066,148.78947295327472,0.7170114768862134,124.57599737006214,0.9847106553430828,102.62190055847168,111.74884414672852,105.93318271636964
1883.549,-31.6570987701416,-130.361083984375,34.4226188659668,0.6011711359024048,0.2118687331676483,0.3374603390693664,26.7783432006836,-50.02467346191406,-96.16468048095705,-27.640914916992188,139.45350646972656,-12.04210376739502,-0.8561021089553833,0.2535786926746368,-0.3673141896724701,133.465087890625,62.75406646728516,15.793828010559082,138.49585123647347,0.7212312910440475,142.6755511897367,0.965470190255078,106.6867446899414,112.77873992919922,111.95850849151611
1903.732,-28.0808048248291,-120.15333557128906,31.66010284423828,0.7121440172195435,0.210709199309349,0.332933098077774,26.86856460571289,-52.474754333496094,-96.99845886230467,-41.55447006225586,158.58004760742188,-10.514049530029297,-0.8814927935600281,0.2944187223911285,-0.3935809731483459,137.10499572753906,60.65864181518555,20.90291976928711,127.38805972548874,0.8138746314579667,164.27096736443423,1.0092660261878856,110.23643112182616,113.13339614868164,117.9013786315918
1927.515,-26.955774307250977,-107.83072662353516,27.227352142333984,0.774359941482544,0.1847996711730957,0.2401410490274429,26.993072509765625,-54.64418029785156,-97.8238525390625,-36.362491607666016,174.2019500732422,1.9401694536209104,-0.7003518342971802,0.3387592434883117,-0.3760550022125244,140.2053680419922,57.97573471069336,25.38442039489746,114.43516975714104,0.8315359047368514,177.96717243004875,0.864099462759502,113.21229553222656,112.61991500854492,123.20827293395996
1937.156,-20.416168212890625,-95.13658905029295,25.33206558227539,0.8342540264129639,0.2335418313741684,0.165536880493164,27.191368103027344,-56.56907272338867,-98.55886840820312,-36.33997344970703,135.45985412597656,12.888053894042969,-0.7471078634262085,0.3553721904754638,-0.4109808206558227,141.7602996826172,55.709320068359375,28.11865234375,100.54602949538122,0.8820000149610264,140.8405754153682,0.9237774560485534,114.56893157958984,112.27839279174805,126.67752075195312
1958.462,-17.68389320373535,-80.57440948486328,23.200782775878903,0.8818882703781128,0.2050849199295044,0.1952936202287674,27.346866607666016,-58.21427154541016,-99.16361236572266,-31.87070274353028,85.67911529541016,9.583694458007812,-0.7422663569450378,0.4042272567749023,-0.426752507686615,142.3730926513672,54.23151779174805,29.66166877746582,85.69265933607768,0.9262431343416524,91.9157205848657,0.9468245468876668,115.02622604370116,112.4457893371582,128.82528114318848
1987.291,-12.270285606384276,-65.79910278320312,19.51255989074707,0.9126121401786804,0.2043471932411193,0.1025512814521789,27.5311279296875,-59.56241607666016,-99.665771484375,-24.41873550415039,48.18154144287109,14.937583923339844,-0.7163602113723755,0.4090029001235962,-0.4432036280632019,142.30955505371094,53.24872970581055,30.212871551513672,69.71959430050322,0.9408163790636932,56.043438446437065,0.9364212624003002,114.77842712402344,112.8111457824707,129.87864303588867
1996.092,2.4786932468414307,-48.83370208740234,18.45137596130371,0.950896680355072,0.1789619475603103,0.1237528398633003,27.80000305175781,-60.59907531738281,-99.91926574707033,-23.43078994750977,16.887855529785156,14.516083717346191,-0.7351033091545105,0.4183003902435303,-0.4413162469863891,141.75369262695312,52.77815628051758,30.13020896911621,52.26210534066225,0.9754725217857788,32.325195567053,0.9539979672210802,113.95368957519533,113.3772315979004,130.04947471618652
2019.389,12.933185577392578,-29.232227325439453,17.564716339111328,0.956226646900177,0.2095620185136795,0.149539902806282,27.991493225097656,-61.280399322509766,-99.8430404663086,-18.20331573486328,-15.044581413269045,4.432693958282471,-0.7840762734413147,0.3992378413677215,-0.4499596357345581,141.01995849609375,52.955074310302734,29.679861068725582,36.47341036507128,0.9902766393169112,24.028085844931457,0.988245986758334,113.0284652709961,114.2354736328125,129.52290153503418
2036.147,17.143924713134766,-12.333303451538086,16.43250274658203,0.9175349473953248,0.1867537945508957,0.2200963199138641,28.025218963623047,-61.66337585449219,-99.4886245727539,-14.309926986694336,-27.108089447021484,1.6000359058380127,-0.7819413542747498,0.3904120326042175,-0.4585753381252289,140.23138427734375,53.34712600708008,29.05615997314453,26.75914189793425,0.9618678440984112,30.694993707968266,0.986987931772144,112.2061653137207,115.01050186157228,128.54478454589844
2058.48,26.28802299499512,1.702881097793579,14.803741455078123,0.909276247024536,0.1435683071613311,0.2208247780799865,28.03780174255371,-61.78414535522461,-98.90584564208984,-13.410565376281738,-31.07413673400879,-1.325321078300476,-0.7802855372428894,0.3736890256404876,-0.4363566040992737,139.44288635253906,53.8403549194336,28.410978317260746,30.217721920876382,0.9466566087226512,33.87036630206394,0.9689665079122248,111.40508460998537,115.6245002746582,127.3168239593506
2081.619,29.650856018066406,16.3826904296875,13.842056274414062,0.8682987093925476,0.1912135183811187,0.2548999786376953,27.954578399658203,-61.70771789550781,-98.12222290039062,-12.196248054504396,-29.995338439941406,-6.784882545471191,-0.800609827041626,0.3656829595565796,-0.4507052004337311,138.8168182373047,54.38335800170898,27.93085479736328,36.59464892881369,0.924921216890362,33.083280156137306,0.9888555505045674,110.86223983764648,116.0910758972168,126.0530776977539
2101.41,32.13825225830078,30.09197235107422,12.646431922912598,0.8651809692382812,0.1442798525094986,0.2870377898216247,27.65902328491211,-61.37384414672852,-97.05754852294922,-7.55293083190918,-26.1843376159668,-9.043298721313477,-0.801895022392273,0.3471267223358154,-0.4350484013557434,138.39675903320312,54.90302276611328,27.58923721313477,45.80749172981264,0.922900578696285,28.71319474216424,0.9761145935899628,110.73773574829102,116.2768669128418,124.64678573608398
2116.115,30.13037872314453,41.812461853027344,10.706534385681152,0.8422630429267883,0.1581160128116607,0.2680259644985199,27.23336410522461,-60.7911376953125,-95.87984466552734,-6.669321537017822,-26.38902473449707,-11.738794326782228,-0.7773997187614441,0.348637580871582,-0.4298784732818603,138.03741455078125,55.44821548461914,27.302520751953125,52.63792897486336,0.89791181339434,29.64219574269967,0.954302880283563,110.80405044555664,116.23935317993164,123.18236541748048
2139.154,31.1860580444336,51.05183410644531,7.842638492584228,0.8231345415115356,0.1556251347064972,0.3130704164505005,26.79094886779785,-60.01770782470703,-94.6553726196289,-4.869171142578125,-38.95434188842773,-18.1518497467041,-0.7601579427719116,0.3619821965694427,-0.4135023355484009,137.57574462890625,56.253814697265625,26.85776329040528,60.33545359494829,0.8943057316367324,43.25088702909055,0.9380060714603322,110.7847957611084,116.27152252197266,121.51313591003418
2161.623,29.41782569885254,59.6694450378418,2.333115816116333,0.7890182137489319,0.1738259494304657,0.3287909626960754,26.411636352539062,-59.02341842651367,-93.52964782714844,-4.432048320770264,-43.090030670166016,-20.3168888092041,-0.7659018039703369,0.376803308725357,-0.4108920097351074,137.05426025390625,57.13702392578125,26.33858299255371,66.56796954529636,0.8722778797341877,47.84526900707167,0.947321777674064,110.6426239013672,116.16044235229492,119.86823081970216
2183.37,26.00752830505371,66.40015411376953,-3.205778121948242,0.7630192637443542,0.1682797372341156,0.3204312622547149,26.081933975219727,-57.86531066894531,-92.52850341796876,1.2880176305770874,-47.9463005065918,-17.044214248657227,-0.7821087837219238,0.3551054894924164,-0.387024313211441,136.44444274902344,58.05574417114258,25.58213233947754,71.38381474982741,0.8445073478891165,50.90198386152756,0.9421156390058618,110.36250877380373,115.92105484008788,118.11063575744627
2206.6910000000003,26.62515640258789,73.70024871826172,-9.076940536499023,0.7627803087234497,0.1094101145863533,0.2914837300777435,25.863109588623047,-56.48116302490234,-91.63604736328124,-0.6185238361358643,-47.74262619018555,-19.071176528930664,-0.7542848587036133,0.3520154356956482,-0.3744255602359772,135.80760192871094,58.98251724243164,24.8467960357666,78.88609804077677,0.8238732532678039,51.41449894212035,0.9127184753227866,109.94449234008788,115.46368026733398,116.48284339904784
2216.115,31.5260066986084,83.68209075927734,-13.66622829437256,0.7447434067726135,0.1816077530384063,0.3684413135051727,25.78233528137207,-54.89702606201172,-90.7763442993164,-9.062857627868652,-51.71683883666992,-26.646146774291992,-0.8174535632133484,0.3547972738742828,-0.378457248210907,135.05389404296875,60.07655715942383,24.177221298217773,90.4618549887108,0.8505134445688406,58.87940170856204,0.9681638922631822,109.27155876159668,114.97358322143556,114.95356559753418
2239.6310000000003,25.870925903320312,92.55900573730467,-20.71776580810547,0.735456109046936,0.11738882958889,0.3633612394332886,25.66191864013672,-53.07259750366211,-90.00786590576172,-17.898189544677734,-51.46525192260742,-25.206562042236328,-0.8217570781707764,0.3319229185581207,-0.3445506393909454,134.03701782226562,61.15201187133789,23.41560745239257,98.31429280757196,0.8286779929316356,60.03655648372721,0.9508799411558864,108.3750991821289,114.224609375,113.4234733581543
2261.723,28.982873916625977,101.17877197265624,-25.5261287689209,0.7241767644882202,0.1673866808414459,0.3579080104827881,25.70668601989746,-51.04186630249024,-89.32990264892578,-6.929149627685547,-55.23590087890625,-22.938798904418945,-0.881314754486084,0.3273361325263977,-0.3298947215080261,133.0154571533203,62.25279998779297,22.40669250488281,108.29928036828932,0.8249535933102484,60.20968655992641,0.9963408891594604,107.30877113342284,113.2946662902832,111.7365951538086
2280.841,27.619857788085938,108.04550170898438,-31.481014251708984,0.6753815412521362,0.1797077357769012,0.40728560090065,25.78921699523925,-48.84203338623047,-88.73084259033203,-0.2596215605735779,-57.8418197631836,-21.47781181335449,-0.9035230278968812,0.3504415154457092,-0.250145673751831,131.84701538085938,63.37134552001953,21.1132869720459,115.87813099155744,0.8088984220921531,61.701214875893655,1.0008676115174229,106.05779838562012,112.21337890625,109.84412956237792
2303.483,29.772235870361328,114.9781265258789,-36.876991271972656,0.6865097880363464,0.1301740705966949,0.4292410016059875,25.997562408447266,-46.45792007446289,-88.21576690673828,-2.245358467102051,-58.95491409301758,-25.27008628845215,-0.8535314798355103,0.300423264503479,-0.2613647580146789,130.67007446289062,64.5420913696289,19.8510684967041,124.36345159810656,0.8200541538124991,64.18177927875392,0.9418501269613946,104.67251205444336,111.0000114440918,108.06683540344238
2326.048,33.837398529052734,120.2669906616211,-39.91838455200195,0.666141927242279,0.2258388251066208,0.4837413132190704,26.31756019592285,-44.00657653808594,-87.72042846679688,-7.105026245117188,-68.86982727050781,-25.82412910461425,-0.9325296878814696,0.3077081441879272,-0.2524411678314209,128.94874572753906,65.84000396728516,18.11054801940918,131.15866729750613,0.8536708383624847,73.89465576227533,1.0139144263674231,102.6311855316162,109.8465805053711,105.83097648620604
2336.004,32.356422424316406,125.39079284667967,-44.32260513305664,0.6130172610282898,0.2448027729988098,0.5917114615440369,26.62964057922364,-41.378787994384766,-87.25509643554688,11.01161766052246,-70.458251953125,-21.716886520385746,-0.9520212411880492,0.3112969398498535,-0.1841737031936645,127.17137908935548,67.08128356933594,15.939652442932127,136.87323452231485,0.8864767417756168,74.54692583823216,1.0184155249117055,100.54173851013184,108.4600715637207,103.194748878479
2363.375,27.15487289428711,128.75808715820312,-48.378536224365234,0.5820435285568237,0.2532107234001159,0.5286208391189575,26.915184020996094,-38.69187545776367,-86.86298370361328,22.893329620361328,-62.32884979248047,-9.73671531677246,-0.8991566896438599,0.2797451019287109,-0.1794340014457702,125.44647216796876,67.99925994873047,13.579949378967283,140.20169363369524,0.8260328874388227,67.11030980944714,0.95861182731033,98.53128814697266,106.69113540649414,100.44293308258057
2383.889,32.88215637207031,131.80210876464844,-47.66815185546875,0.5488234758377075,0.2498498708009719,0.5558968782424927,27.27940368652344,-35.95827102661133,-86.40592193603516,13.348097801208496,-57.82573699951172,-3.301938056945801,-0.9485200643539428,0.3061980903148651,-0.183195486664772,123.37120056152344,68.71851348876953,11.061728477478027,143.9627895805077,0.8201545615367837,59.4381221892081,1.0134141154181842,96.091796875,104.67678451538086,97.46765041351318
2405.663,33.954429626464844,132.83242797851562,-49.14785003662109,0.4917215704917907,0.3709023892879486,0.7647244334220886,27.71540260314941,-33.12702178955078,-85.97455596923828,24.289873123168945,-50.79851531982422,-14.885546684265137,-1.0006780624389648,0.2820335030555725,-0.0927358567714691,121.9587860107422,69.54017639160156,9.037032127380373,145.64638127035045,0.9819175853090506,58.24145083295485,1.043790889318132,94.24338340759276,102.66719818115234,95.01158809661864
2425.754,19.343891143798828,131.4528350830078,-53.39204406738281,0.4513714909553528,0.3075509667396545,0.6637352108955383,27.89927673339844,-30.302959442138672,-85.62799072265625,26.59872436523437,-43.112525939941406,-5.7330708503723145,-0.974246859550476,0.2657157778739929,-0.1629102230072021,120.65380859375,70.1120376586914,7.096849918365479,143.1947776479189,0.8595744587714894,50.980880064542056,1.0228888300863406,92.75453186035156,100.41499710083008,92.72484064102171
2435.99,22.09746551513672,135.63845825195312,-51.12611389160156,0.4156772792339325,0.3723306059837341,0.556317150592804,28.192684173583984,-27.459657669067383,-85.23089599609375,26.72091484069824,-24.08031845092773,-10.33462619781494,-1.0037431716918943,0.2974869906902313,-0.181588128209114,120.33257293701172,70.54034423828125,6.275163650512695,146.62867680237895,0.7879761751901107,37.425573145517774,1.0625314643127155,92.13988876342772,98.00000190734865,91.50605964660645
2459.646,27.7426872253418,134.81617736816406,-54.62515258789063,0.3376350104808807,0.4532512426376343,0.8719415664672852,28.596981048583984,-24.5263900756836,-84.87561798095703,42.37345504760742,-16.84499168395996,-18.11086654663086,-0.8441710472106934,0.4081698954105377,-0.0485073924064636,120.82917022705078,71.03084564208984,5.99228572845459,148.0843194598866,1.039093924815465,49.06390653600832,0.9389251235249394,92.2321891784668,95.55723571777344,90.86790370941162
2475.777,10.542789459228516,133.16737365722656,-60.20686721801758,0.3009041547775268,0.352752149105072,0.7464700937271118,28.68001747131348,-21.582496643066406,-84.6238021850586,24.602123260498047,-19.710479736328125,6.490965843200684,-1.0360722541809082,0.3109175264835357,-0.1572357267141342,120.12864685058594,71.1355972290039,4.789127826690674,146.52496946443298,0.8787462602421634,32.185402249133666,1.0930866836227906,91.44862937927246,92.71809387207033,89.41293001174927
2498.723,23.23624610900879,132.4745330810547,-57.69423675537109,0.2516881823539734,0.4116273522377014,0.7829190492630005,29.03516960144043,-18.663881301879883,-84.33570861816406,21.54896545410156,-12.758244514465332,-0.5255575180053711,-0.9917657375335692,0.2680639028549194,-0.1891728341579437,119.97444915771484,71.2772445678711,4.247622966766357,146.34906902015706,0.9196446356858438,25.048092261441376,1.0446261988590295,90.9392795562744,89.94112586975098,88.58333158493042
2520.647,18.23554992675781,134.76266479492188,-60.16550064086914,0.1452572345733642,0.5287252068519592,0.7782803177833557,29.341053009033203,-15.688902854919434,-84.06616973876953,25.636871337890625,8.028295516967773,-4.004793167114258,-0.9223796725273132,0.3601020872592926,-0.0192219950258731,120.96349334716795,71.27535247802734,4.830838203430176,148.70574491634872,0.9520348006273246,27.16138930936133,0.9903672342282268,91.62244033813477,86.96425533294678,88.8970079421997
2543.175,25.78452682495117,131.09080505371094,-63.56444549560547,0.140784204006195,0.3501017689704895,0.9489386081695556,29.80185890197754,-12.76165008544922,-83.87260437011719,12.650313377380373,17.330652236938477,0.8414936065673828,-0.9251196384429932,0.3824881613254547,-0.1417132914066314,121.94377136230467,71.0427017211914,5.663121223449707,147.9529645677317,1.0212129664319276,21.473007404495608,1.0110520243530114,92.14191246032716,83.80435180664062,89.5357255935669
2555.623,18.40333366394043,128.77410888671875,-62.57583618164063,0.0098201753571629,0.5588171482086182,0.8881576657295227,30.12906265258789,-9.895017623901367,-83.6657485961914,-0.3727620840072632,11.152968406677246,-2.323245048522949,-0.9634920954704284,0.2821041941642761,-0.2265347391366958,122.62860870361328,70.94834899902344,6.433874130249023,144.35092338930966,1.0493793785710546,11.398470222231603,1.029183065559672,92.4995460510254,80.8433666229248,90.09962272644044
2578.04,13.459155082702637,124.43862915039062,-62.65959167480469,-0.0213209688663482,0.4592837989330292,0.8260488510131836,30.37346076965332,-7.115179061889648,-83.49373626708984,6.098394393920898,16.566455841064453,0.2117384076118469,-0.9413018226623536,0.2257861942052841,-0.1551174968481063,123.55609130859376,70.7922134399414,7.367491722106934,139.97266057777833,0.945385051677863,17.654537843597108,0.9803519595887986,93.18263053894044,77.90739250183105,90.86122798919678
2600.924,19.35895347595215,124.05377960205078,-63.88117218017578,-0.0471320487558841,0.5245376825332642,0.8180868625640869,30.74340438842773,-4.275396823883057,-83.33055877685547,13.230213165283203,12.4990816116333,-11.33600616455078,-0.952411949634552,0.3254887759685516,-0.1039058044552803,124.61505889892578,70.8426742553711,8.308427810668945,140.87197546833627,0.9729477504559254,21.442262410851985,1.01184380281133,93.87165451049805,75.11807107925415,91.6389865875244
2623.726,21.82725143432617,126.99256134033205,-65.75410461425781,-0.086986131966114,0.4836924374103546,0.9573157429695128,31.132923126220703,-1.346604347229004,-83.1506576538086,28.259769439697266,0.9739686250686646,-6.885909557342529,-1.0109241008758545,0.3357457816600799,-0.0824390947818756,125.25096130371094,70.95913696289062,8.482627868652344,144.66216441965068,1.07609404463535,29.102902503004177,1.0684048726876192,94.11803817749023,72.30574131011963,91.63328552246094
2646.378,14.370570182800291,125.61298370361328,-64.24459838867188,-0.1063291206955909,0.5109759569168091,0.9305750131607056,31.39574432373047,1.524210810661316,-82.94562530517578,38.71734237670898,-25.55576705932617,-20.49869728088379,-1.118646502494812,0.3122194111347198,-0.2198887467384338,125.49772644042967,71.59054565429688,8.002264976501465,141.81855796906393,1.06694524956719,50.71810742643261,1.1820330025745414,94.10198211669922,70.06633484363556,90.94789028167725
2655.575,7.678125381469727,123.306884765625,-62.66986846923828,-0.2469968199729919,0.5543674826622009,0.9738694429397584,31.55584716796875,4.313287734985352,-82.72686767578125,-8.376093864440918,-17.067928314208984,-18.16384506225586,-0.979642927646637,0.1379406750202179,-0.2132504284381866,125.18412017822266,72.11459350585938,7.926436424255371,138.53177922025083,1.1474983341172185,26.294455552654785,1.0120294663408658,93.6282730102539,67.80130577087402,90.65330410003662
2677.992,6.364745140075684,116.40145874023438,-63.052513122558594,-0.2833447158336639,0.4592015743255615,0.7310120463371277,31.697185516357425,6.955657958984375,-82.58143615722656,-5.612215518951416,-0.5455752015113831,-3.6548197269439697,-0.8797411918640137,0.1089406311511993,-0.2438910007476806,125.26593780517578,72.1833267211914,8.178955078125,132.5346331666671,0.9085862236155294,6.719547794913144,0.9193995029494209,93.56875228881836,65.22766876220703,90.76039123535156
2698.164,23.19393348693848,112.01309967041016,-60.9000358581543,-0.3555736243724823,0.5539661645889282,0.9249032735824584,32.1824951171875,9.53307819366455,-82.42915344238281,5.660425186157227,10.461419105529783,-2.728943586349488,-0.9161431789398192,0.2412685304880142,-0.2869608402252197,126.17854309082033,72.06781768798828,9.057528495788574,129.59053752452084,1.1352344160314638,12.203640280142016,0.9898865348839572,93.9960479736328,62.53473949432373,91.4866819381714
2721.23,10.84844207763672,106.14913940429688,-63.603118896484375,-0.3889743685722351,0.5940422415733337,0.8630395531654358,32.413856506347656,12.039678573608398,-82.3674087524414,5.62621021270752,23.41446113586425,0.6966221332550049,-0.848585844039917,0.2579792737960815,-0.2429348826408386,127.48944854736328,71.73081970214844,10.373706817626951,124.22030922979148,1.1175976532310878,24.09100483659851,0.919602412794252,95.07559204101562,59.69114112854004,92.74111557006836
2741.202,9.974265098571776,104.18226623535156,-62.5087890625,-0.3460722863674164,0.5096860527992249,0.7818315029144287,32.6357421875,14.539450645446776,-82.298583984375,9.597339630126951,11.516098022460938,2.862379312515259,-0.9886707067489624,0.2719034552574157,-0.1997645795345306,128.1083221435547,71.53946685791016,10.920380592346191,121.90479593621563,0.9953925852441636,15.26180385693806,1.044656471095174,95.47257995605467,57.00001621246338,93.2189645767212
2762.8,15.112797737121582,107.03495025634766,-60.786277770996094,-0.3665987253189087,0.5859078168869019,0.8548662662506104,32.99402618408203,17.03481674194336,-82.15044403076172,3.235793352127075,-4.320287227630615,-3.8302290439605713,-1.0339937210083008,0.2338470220565796,-0.2073230445384979,128.14266967773438,71.67008972167969,10.97469997406006,124.01551837199511,1.0993083864266129,6.61860218445686,1.0801899321906467,95.14864349365234,54.63527297973633,93.12514400482178
2785.514,6.620055198669434,109.01509857177734,-62.33113479614258,-0.3613187670707702,0.5061823129653931,0.7210318446159363,33.194358825683594,19.58246803283692,-81.99179077148438,13.399447441101074,-13.490535736083984,8.961483001708984,-1.0133954286575315,0.1865989565849304,-0.1680707484483719,127.46421813964844,71.73724365234375,10.05092716217041,125.75089348558386,0.9521862771258556,21.02017896601521,1.0440484863772197,94.26985931396484,52.15477561950684,92.0427179336548
2795.735,18.141876220703125,108.3186264038086,-59.46949768066406,-0.427068144083023,0.528296172618866,0.8505990505218506,33.618255615234375,22.069360733032227,-81.78450012207031,10.437262535095217,-6.251133918762207,-2.4705612659454346,-0.9913980960845948,0.2850420176982879,-0.1848744004964828,127.41606903076172,71.84647369384766,9.866822242736816,124.8946502185169,1.0885783345459958,12.414378658055805,1.0479969850780126,93.79781341552734,49.77711296081543,91.65132236480711
2823.281,19.05940628051757,105.3887939453125,-60.04421615600586,-0.4267748892307281,0.5284802317619324,0.8190374374389648,34.06613540649414,24.4926700592041,-81.59695434570312,10.765792846679688,-15.48992919921875,0.2116156816482544,-0.9489348530769348,0.3068093657493591,-0.0964575558900833,126.6685562133789,72.03414916992188,8.949196815490723,122.78178509372847,1.0640725940308924,18.864914084382907,1.001954790588855,92.60242080688477,47.54147911071777,90.54615116119383
2845.538,12.290801048278809,107.80828857421876,-55.04900741577149,-0.5266900658607483,0.5421553254127502,0.6839461326599121,34.50035858154297,26.95126342773437,-81.24090576171875,11.246078491210938,-18.3907470703125,2.596035957336426,-0.9958671927452089,0.248431921005249,-0.1476829797029495,125.8307113647461,72.22804260253906,7.913525104522705,121.67203496766238,1.0193709505034243,21.712513947640165,1.0369571579648422,91.33035278320312,45.27677917480469,89.15443086624146
2865.648,15.592244148254396,111.24285888671876,-51.74708557128906,-0.5680944919586182,0.4773820042610168,0.6373329162597656,35.05656051635742,29.442710876464844,-80.7580795288086,8.622050285339355,-20.6898193359375,-8.004322052001953,-1.0079987049102783,0.1433818489313125,-0.142881378531456,125.2972183227539,72.66424560546875,7.246376037597656,123.67640274519432,0.9781708316721388,23.80078878501337,1.028121992778488,90.24065780639648,43.22153472900391,88.00445556640625
2875.534,20.40736198425293,110.43177795410156,-49.20250701904297,-0.6128730177879333,0.5293729901313782,0.760144829750061,35.74249649047852,31.842573165893555,-80.20664978027344,9.335375785827637,-28.749908447265625,-5.72711992263794,-0.9754157662391664,0.1628641039133072,-0.1918508261442184,124.2895736694336,73.1188735961914,6.042449951171875,122.60719677987623,1.1107066493043398,30.76534380430436,1.0073566264554197,88.54707717895508,41.27630043029785,86.24909973144531
2898.092,19.73275756835937,109.50216674804688,-47.40004348754883,-0.6807191371917725,0.5119910836219788,0.6679733991622925,36.49169921875,34.230316162109375,-79.57476043701172,22.35309219360352,-35.650169372558594,0.1870322525501251,-0.9662064909934998,0.2687964737415313,-0.1684034168720245,122.73886108398438,73.49494934082031,4.027442932128906,120.94159899054678,1.0824517889661167,42.07885796895333,1.016939643414508,86.24716186523438,39.26463317871094,83.60220336914062
2915.513,17.657413482666016,107.96005249023438,-44.10908508300781,-0.7251515984535217,0.5262125134468079,0.7077986001968384,37.2622299194336,36.52814865112305,-78.853271484375,14.65222454071045,-26.26813507080078,-10.443591117858888,-0.9787999987602234,0.2229825556278228,-0.171657845377922,121.95027160644533,73.95804595947266,2.9297919273376465,117.95239960022865,1.1418070364506905,31.83977386110417,1.0184483656853296,84.68804168701172,37.42989730834961,81.78306341171265
2938.074,12.679699897766112,105.11124420166016,-42.69633483886719,-0.752993106842041,0.502783477306366,0.5966960191726685,38.00834655761719,38.7816162109375,-78.07252502441406,4.748941421508789,-25.497425079345703,-13.150556564331056,-0.9380276799201964,0.1876747608184814,-0.2004365026950836,121.15469360351562,74.45196533203125,2.01718807220459,114.15833502548602,1.084359711212299,29.07934435735166,0.9773906771385622,83.14634704589844,35.67034912109375,80.08971309661865
2960.355,18.402305603027344,105.1019058227539,-41.16761779785156,-0.7751537561416626,0.4820321798324585,0.5006755590438843,38.96864318847656,40.997440338134766,-77.18577575683594,0.1478907018899917,-28.488733291625977,-9.118415832519531,-0.9978142380714417,0.2605917751789093,-0.1578864604234695,119.71729278564452,74.88301086425781,0.5463579297065735,114.3670766183705,1.0411024846183328,29.91279498000557,1.0432973983356992,80.74864959716797,33.88557052612305,77.73213368654251
2975.676,22.48204231262207,107.90218353271484,-42.377079010009766,-0.750258207321167,0.4793594479560852,0.7225112915039062,40.0477409362793,43.21107482910156,-76.23187255859375,1.2526792287826538,-36.10285186767578,3.101576566696167,-1.0838992595672607,0.2505856454372406,-0.1010126173496246,117.20020294189452,75.1836166381836,-2.07208251953125,118.08530926027512,1.146601685132277,36.257480544415145,1.1170650471004258,77.15246200561523,31.97254180908203,74.1597900390625
2999.326,15.182157516479492,104.2349624633789,-43.915958404541016,-0.749497652053833,0.5411340594291687,0.6670420169830322,41.02944946289063,45.3502082824707,-75.2669448852539,-0.2014831602573394,-26.772645950317383,-11.956719398498535,-0.9796305298805236,0.2323810756206512,-0.1302611231803894,115.8015594482422,75.63030242919922,-3.4949300289154053,114.122901773424,1.1399639701013762,29.321976492374183,1.015206826017646,74.77210998535156,30.28009414672852,71.7720148563385
3020.201,11.635128021240234,101.02491760253906,-43.00460052490234,-0.836602509021759,0.4000417590141296,0.3956893980503082,42.01007461547852,47.46404266357422,-74.2486343383789,-0.7221941947937012,-31.430078506469727,-20.239442825317383,-0.8530086278915405,0.2132313549518585,-0.1114441901445388,114.23171997070312,76.24959564208984,-5.107538223266602,110.4119823523556,1.008219850422534,37.38992438153807,0.8862906619777657,72.22164535522461,28.785552978515625,69.1410961151123
3042.808,16.074905395507812,98.91835021972656,-39.88597869873047,-0.8125821948051453,0.4701944589614868,0.3808866739273071,43.257568359375,49.51242446899414,-73.05796813964844,-3.362788200378418,-20.752649307250977,-8.88272476196289,-0.950866997241974,0.1107941716909408,-0.1027330160140991,113.01252746582033,76.6305923461914,-6.305246829986572,107.86164234992243,1.0131373603454958,22.822874423418657,0.9627966906382692,69.75495910644531,27.118167877197266,66.75272130966187
3065.188,19.570837020874023,103.10246276855467,-41.450958251953125,-0.843941330909729,0.4875329136848449,0.4317747354507446,44.70861053466797,51.59314727783203,-71.71173095703125,4.274433612823486,-28.4336166381836,-2.2974300384521484,-1.0104914903640747,0.2596451640129089,-0.0421733595430851,110.80042266845705,76.87724304199219,-8.661515235900879,112.83313977127456,1.0659994062462137,28.844748614248804,1.0441682122860518,66.09181213378906,25.28409576416016,63.05021572113037
3076.243,13.8404541015625,108.53543853759766,-42.288719177246094,-0.8586935997009277,0.5147692561149597,0.4777953624725342,46.25433349609375,53.70063018798828,-70.10227966308594,3.5788586139678955,-24.85152816772461,-2.489875555038452,-1.0060113668441772,0.3512874841690063,-0.0708494409918785,108.82205963134766,77.04316711425781,-10.758103370666504,117.302324605858,1.109337862695016,25.23105549773057,1.0679332423154273,62.56772613525391,23.34253692626953,59.34417629241944
3097.696,11.092133522033691,106.74352264404295,-42.55312347412109,-0.8965696692466736,0.429482638835907,0.404076874256134,47.86463928222656,55.799686431884766,-68.39397430419922,-11.773158073425291,-29.16828727722168,-7.386708736419678,-0.983601212501526,0.2649032771587372,-0.056798618286848,106.31989288330078,77.34776306152344,-13.072100639343262,115.44688549256638,1.073112589238963,32.31036520476192,1.0202309417593671,58.45525360107422,21.548076629638672,55.32187366485596
3121.534,13.134149551391602,102.38591003417967,-42.85169982910156,-0.9286217093467712,0.3971256017684936,0.2732608914375305,49.67522048950195,57.85482025146485,-66.5109634399414,-19.834980010986328,-28.12623786926269,-24.512733459472656,-0.9070262908935548,0.1676578521728515,-0.0602632574737072,104.0752410888672,77.9849624633789,-14.986722946166992,111.76604420041392,1.046287980165758,42.25382574832396,0.9243578895474822,54.400020599365234,20.130142211914062,51.524240493774414
3143.11,12.851313591003418,101.63198852539062,-41.847843170166016,-0.964484453201294,0.4286023378372192,0.3068219125270843,51.690696716308594,59.818016052246094,-64.45427703857422,-16.973552703857422,-22.80059814453125,-7.08283805847168,-0.9715800881385804,0.1036748215556144,-0.0389973632991313,101.82213592529295,78.28147888183594,-16.96526336669922,110.6592035514184,1.0991223364454508,29.29394753360432,0.9778737805239714,50.131439208984375,18.463462829589844,47.489013671875
3165.23,6.527431011199951,100.97964477539062,-40.537391662597656,-0.9947972893714904,0.4317563474178314,0.3660549223423004,53.78449630737305,61.68486785888672,-62.13643264770508,-3.596344470977783,-23.082250595092773,-5.199635028839111,-0.9990323781967164,0.1953403055667877,-0.0546910800039768,99.6997299194336,78.47300720214844,-19.090784072875977,109.0081471146854,1.1445660298329143,23.932408790627907,1.0194187765076304,45.91523361206055,16.78813934326172,43.0456485748291
3175.625,0.8607445359230042,99.1869659423828,-39.31951522827149,-0.9708916544914246,0.4136418998241424,0.2570688426494598,56.09185409545898,63.47924041748047,-59.56187438964844,-3.50024938583374,-26.70833396911621,-8.600729942321777,-1.0111459493637085,0.2384996712207794,0.0067745074629783,97.03353118896484,78.70613098144531,-21.77410888671875,106.69966903321586,1.0861927158254905,28.276481476832064,1.038914875260924,40.94167709350586,15.226890563964844,37.78776550292969
3197.667,0.0169405788183212,98.59015655517578,-39.17582702636719,-0.9753642678260804,0.401289701461792,0.2543708384037018,58.6711311340332,65.20226287841797,-56.66206741333008,-7.632252216339111,-29.53971672058105,-7.80181884765625,-1.010390043258667,0.2209250181913375,0.0137030137702822,93.9015884399414,78.90899658203125,-24.839630126953125,106.08847571606032,1.0849301373274696,31.491499093527345,1.0343518143095618,35.2304573059082,13.70673370361328,31.82243728637696
3223.219,2.3162221908569336,97.16509246826172,-40.11993408203125,-0.9810921549797058,0.4143921732902527,0.2609440088272095,61.57934188842773,66.84455871582031,-53.53905487060547,-3.8388073444366455,-33.610355377197266,-5.3355913162231445,-0.9671724438667296,0.225845992565155,-0.0142288347706198,90.43730926513672,79.01996612548828,-28.32381248474121,105.14765423132272,1.0965192499859528,34.24705775833816,0.9932932136442956,28.857967376708984,12.175407409667969,25.21524238586425
3243.6,6.771453857421875,91.94214630126952,-38.22843551635742,-1.0237562656402588,0.383870005607605,0.276834100484848,64.7559814453125,68.3393783569336,-50.252174377441406,0.5308516025543213,-31.527307510375977,2.6119680404663086,-0.9274178743362428,0.1830986440181732,-0.0607127025723457,87.43449401855469,78.95419311523438,-31.420026779174805,99.80292648943488,1.1278608920581146,31.63977400870874,0.9472671530953064,22.678512573242188,10.61481475830078,18.8321475982666
3266.428,8.409717559814453,79.60712432861328,-32.82986831665039,-1.0374895334243774,0.3757652044296264,0.2760547697544098,67.88187408447266,69.55754089355469,-47.079376220703125,-6.780559539794922,-8.074357986450195,-4.823636531829834,-0.9000625610351562,0.1173683702945709,-0.1923955827951431,86.44794464111328,79.04236602783203,-32.31695938110352,86.5206209351028,1.1374490128042365,11.594770974765275,0.9278491301940476,18.566070556640625,9.484825134277344,14.76241683959961
3275.258,6.151427745819092,62.23230743408203,-27.07353973388672,-1.031647562980652,0.3452529013156891,0.1419438570737838,70.6604995727539,70.50840759277344,-44.31695556640625,-11.969682693481444,2.65248966217041,-2.667526960372925,-0.8877324461936951,0.0806167796254158,-0.1764276325702667,86.4637222290039,79.09950256347656,-32.103328704833984,68.14452806795624,1.097107250286772,12.546900225747654,0.9086774294085682,15.80322265625,8.591094970703125,12.213626861572266
3298.163,8.456113815307617,46.49424743652344,-22.37556266784668,-1.017686128616333,0.4130135178565979,0.2123433500528335,72.85147094726562,71.17611694335938,-42.18321228027344,-6.174740314483643,18.845348358154297,-5.281085014343262,-0.9696044921875,0.121723361313343,-0.1758925020694732,88.26854705810547,79.22367095947266,-30.18779945373535,52.28658250688064,1.1186397635619976,20.52229109091428,0.992918737986074,15.417076110839844,8.047554016113281,11.995412826538086
3325.389,6.732697486877441,31.85995101928711,-19.675296783447266,-0.995690643787384,0.4276862144470215,0.2549975514411926,74.32050323486328,71.68557739257812,-40.80483627319336,-12.065229415893556,22.921852111816406,-7.634234428405762,-0.9767861366271972,0.2154881805181503,-0.1289588063955307,90.8302993774414,79.3658218383789,-27.3928279876709,38.04606415804281,1.1132560834752994,27.004862532551083,1.0085517767556946,16.509796142578125,7.680244445800781,13.41200828552246
3335.089,-1.5410103797912598,20.48036003112793,-15.134967803955078,-0.9767177104949952,0.4942146837711334,0.3130720257759094,75.25224304199219,72.08589935302734,-39.84476852416992,-23.39912796020508,24.993003845214844,-10.71763038635254,-0.9895507097244264,0.2861977517604828,-0.0618808008730411,93.2217254638672,79.50835418701172,-24.54347038269043,25.512489302731783,1.1385252447675538,35.87529834863317,1.0319636591205912,17.969482421875,7.422454833984375,15.301298141479492
3357.744,-16.56609344482422,9.58976936340332,-8.973499298095703,-0.9524513483047484,0.495604932308197,0.369454950094223,75.35603332519531,72.30851745605469,-39.44148635864258,-36.38209915161133,26.635543823242188,-14.576315879821776,-0.9868124723434448,0.2244444191455841,-0.0206919945776462,95.50704193115234,79.73680877685547,-21.53840065002441,21.14054914421196,1.1354667674418617,47.38753336127422,1.0122264131595171,20.15100860595703,7.428291320800781,17.903085708618164
3375.037,-28.31720733642578,0.6452546119689941,-2.506193161010742,-0.963637113571167,0.5247767567634583,0.354737639427185,74.788818359375,72.36019134521484,-39.50157165527344,-40.83837127685547,20.77448272705078,-14.796088218688965,-1.0089174509048462,0.1972346603870391,0.0106636676937341,97.06195831298828,79.98108673095703,-19.192758560180664,28.43521740744548,1.1531807854440324,48.14847793750132,1.0280708379323895,22.27313995361328,7.6208953857421875,20.308813095092773
3397.63,-29.8440055847168,-9.057099342346191,3.400019407272339,-0.979530930519104,0.499193400144577,0.3542852997779846,73.7056655883789,72.24504852294922,-40.0283203125,-33.583839416503906,17.294775009155273,-10.149834632873535,-1.0162665843963623,0.184751883149147,-0.007854139432311,98.4326400756836,80.13481903076172,-17.186697006225586,31.372852114647845,1.1550727112309,39.11524837765321,1.032953395073576,24.726974487304688,7.8897705078125,22.84162330627441
3420.238,-32.158042907714844,-20.37645721435547,9.664222717285156,-0.9946337938308716,0.4883210062980652,0.3237923681735992,72.03706359863281,71.93928527832031,-41.11299896240234,-25.67352294921875,13.56747817993164,-3.48761248588562,-1.003964900970459,0.159183382987976,-0.0441895425319671,99.57664489746094,80.16828155517578,-15.555283546447754,39.27769001598972,1.154380910579266,29.246703842291154,1.0174662586392262,27.539581298828125,8.228996276855469,25.55771541595459
3440.687,-35.797813415527344,-33.53510665893555,16.684635162353516,-1.0075210332870483,0.4205200672149658,0.2354363203048706,69.6331787109375,71.34419250488281,-42.886749267578125,-20.29369163513184,15.902715682983398,-1.050869107246399,-0.9789558053016664,0.1379784792661667,-0.1273941099643707,101.3170394897461,80.13866424560547,-13.441933631896973,51.81181211326174,1.116855416052131,25.803771277784005,0.9968057928844776,31.6838607788086,8.794471740722656,29.444815635681152
3455.587,-36.20512771606445,-46.706809997558594,22.5463981628418,-1.0276023149490356,0.4254147708415985,0.2297301292419433,66.80357360839844,70.51663970947266,-45.10173416137695,-20.878793716430664,18.5893611907959,-3.00984787940979,-0.9910169839859008,0.1283652484416961,-0.119005873799324,103.3403091430664,80.1314468383789,-11.012469291687012,63.25090863538621,1.1356584773691194,28.11667762720768,1.0063571421492226,36.53673553466797,9.61480712890625,34.08926486968994
3478.557,-27.64686393737793,-59.5071907043457,26.527149200439453,-1.0235726833343506,0.4159395396709442,0.3393882215023041,63.81620788574219,69.50183868408203,-47.64115905761719,-19.0234432220459,23.19173240661621,-3.697598457336426,-0.99656480550766,0.1182914525270462,-0.0859285071492195,105.80206298828124,80.10853576660156,-8.172454833984375,70.77530978948542,1.1558075547531503,30.22284034292928,1.0072328368646308,41.98585510253906,10.606697082519531,39.46870422363281
3500.5440000000003,-22.759685516357425,-72.03019714355469,30.934057235717773,-1.0386639833450315,0.4516890347003937,0.4060750305652618,60.8066635131836,68.28230285644531,-50.32949447631836,-20.271812438964844,18.46318626403809,-1.7979670763015747,-1.0367592573165894,0.2052056938409805,-0.0867901295423507,107.5346450805664,80.01614379882812,-6.0458197593688965,81.62884589656714,1.203221835247067,27.478506367497467,1.060429941581424,46.72798156738281,11.733840942382812,44.28367471694946
3522.406,-31.25662612915039,-82.8182601928711,33.785030364990234,-1.0484020709991455,0.4258477389812469,0.3975846767425537,57.431915283203125,66.78941345214844,-53.23445510864258,-25.116792678833008,11.382301330566406,-5.011040210723877,-1.028512716293335,0.1860403716564178,-0.0126205598935484,108.28763580322266,80.04322814941406,-4.794820308685303,94.74845209878046,1.1994026740220394,28.02714009749808,1.0452792478544568,50.85572052001953,13.253814697265623,48.43963479995728
3545.0020000000004,-33.64542388916016,-91.8852767944336,38.27134323120117,-1.0290071964263916,0.3638579249382019,0.4037755727767944,54.167022705078125,65.08910369873047,-55.99919128417969,-24.193553924560547,13.486363410949709,-7.899587154388428,-1.0037914514541626,0.1025000438094139,-0.0401961356401443,109.56049346923828,80.14373779296875,-3.047032594680786,105.06956911014412,1.1637367026131231,28.803012459855665,1.0098115003869716,55.39347076416016,15.05463409423828,52.9521586894989
3554.928,-25.52754592895508,-101.63130950927734,43.80048370361328,-1.0321595668792725,0.4474879801273346,0.4272913932800293,51.34406661987305,63.10991287231445,-58.5263900756836,-7.084089279174805,14.520827293395996,-6.553918838500977,-0.9913343787193298,0.0674294084310531,-0.0395548716187477,111.29036712646484,80.22096252441406,-1.1300530433654783,113.57403332802762,1.2034021765935268,17.43538351575931,0.994411968663379,59.9463005065918,17.11104965209961,57.39633703231812
3577.293,-26.812294006347656,-111.7478256225586,46.213623046875,-1.0142536163330078,0.4871048033237457,0.4909566938877105,48.64424514770508,60.90076446533203,-60.95718765258789,8.239480972290039,15.359429359436035,-1.234841227531433,-0.9708060026168824,0.1352327466011047,-0.07623241096735,113.20629119873048,80.13630676269531,0.6679945588111877,123.86353214877754,1.2276074140126396,17.47357862023251,0.983139649771152,64.56204605102539,19.23554229736328,61.62518221139908
3597.371,-33.971961975097656,-118.82286071777344,48.34904479980469,-0.9954893589019777,0.4282419085502624,0.4783923625946045,46.03547668457031,58.55262756347656,-63.17034149169922,15.780353546142578,14.261063575744627,-2.638626337051392,-1.0035549402236938,0.1721055060625076,-0.0251501202583313,114.97394561767578,80.07293701171875,2.1640329360961914,132.70492290283124,1.1845883033842133,21.432681617083432,1.018516250146959,68.93846893310547,21.520309448242188,65.33437442779541
3619.855,-32.30524826049805,-125.98909759521484,50.99196243286133,-0.979417622089386,0.4676280319690704,0.5439538359642029,43.70317459106445,56.0107307434082,-65.15521240234375,18.182485580444336,14.34838581085205,-2.684568166732788,-0.9792956113815308,0.1366289556026458,-0.047624334692955,116.87384796142578,80.0122299194336,3.737939834594727,139.7034788785996,1.2140101442750235,23.317072361297026,0.9899269888406632,73.17067337036133,24.00149917602539,68.89315223693848
3639.855,-32.81413269042969,-133.09658813476562,51.39215087890625,-0.9832719564437866,0.4924712777137756,0.5591312050819397,41.558082580566406,53.33580017089844,-66.97158813476562,23.382797241210938,16.140579223632812,0.4058974683284759,-0.9797307252883912,0.16982302069664,-0.0545058026909828,118.8152313232422,79.85294342041016,5.249197006225586,146.3988464753081,1.2336852938242446,28.415458068677065,0.9958328348471126,77.25714874267578,26.51714324951172,72.22078514099121
3663.187,-28.90160369873047,-140.40798950195312,53.58811569213867,-0.9528365135192872,0.4739178121089935,0.6171678900718689,39.65604019165039,50.49320983886719,-68.63562774658203,23.59623908996582,18.01749038696289,3.899487257003784,-1.003090262413025,0.1635405123233795,-0.0659324079751968,120.7156753540039,79.60907745361328,6.709407806396484,153.04049253636467,1.2301998693974605,29.943587959739663,1.018470743880369,81.05963516235352,29.115867614746094,75.34503555297852
3685.444,-26.60991477966309,-148.27308654785156,55.97847366333008,-0.9509662985801696,0.4760344922542572,0.6513673663139343,37.96427154541016,47.48638916015625,-70.15463256835938,25.053102493286133,22.112728118896484,2.311079978942871,-0.9707334637641908,0.1532718539237976,-0.0558470971882343,122.98908996582033,79.34696197509766,8.520676612854004,160.70651907338342,1.2470866789240385,33.49584720630911,0.9843447653851842,85.02481842041016,31.860572814941406,78.67530918121338
3694.902,-23.03126335144043,-156.15524291992188,59.70090866088867,-0.9388231635093688,0.4996171593666076,0.6344709396362305,36.543243408203125,44.31016159057617,-71.49528503417969,23.54347038269043,29.439775466918945,5.301936149597168,-0.9555505514144896,0.1314619481563568,-0.093581274151802,125.67945098876952,78.9377670288086,10.80406379699707,168.75751087841687,1.2383697394228343,38.067123665147456,0.9690802624104335,89.1362075805664,34.62760543823242,82.29934883117676
3723.334,-21.752290725708008,-161.54722595214844,63.2359733581543,-0.9143354296684264,0.52558833360672,0.6971463561058044,35.31619644165039,40.98725128173828,-72.67017364501953,23.38278579711914,37.528079986572266,6.292269706726074,-0.9523462653160096,0.1553028970956802,-0.1471883654594421,128.79920959472656,78.36760711669922,13.54526424407959,174.84123281195264,1.2642252236852562,44.66211053202373,0.9760875031646932,93.48301315307616,37.38035583496094,86.21543788909912
3746.22,-19.05297470092773,-167.58139038085938,67.11134338378906,-0.8898025751113892,0.5088715553283691,0.7071906924247742,34.28195571899414,37.53123474121094,-73.70819854736328,13.339677810668944,49.341217041015625,8.257966995239258,-0.9462636709213256,0.2077551931142807,-0.150907427072525,132.01629638671875,77.5665054321289,16.593996047973633,181.5226450273161,1.24531825568784,51.77544516540176,0.980484679491273,97.7343406677246,40.03527069091797,90.30219459533691
3764.756,-15.365145683288574,-174.88356018066406,71.558837890625,-0.8692178726196289,0.5211629867553711,0.7639111280441284,33.43236541748047,33.903167724609375,-74.63970947265625,9.16716766357422,53.65548706054688,6.627053737640381,-0.9752086997032166,0.1914936453104019,-0.1951689422130584,135.20985412597656,76.6979751586914,19.71884155273437,189.58115571857184,1.2691378098515642,54.834898522001176,1.0128142673637988,101.7774887084961,42.79480743408203,94.35855102539062
3774.768,-14.100940704345703,-180.00115966796875,75.29786682128906,-0.7721816301345825,0.5038900971412659,0.7672971487045288,32.712974548339844,30.14389419555664,-75.46498107910156,-3.3719162940979004,61.73157501220703,5.435482501983643,-0.9713367819786072,0.2005244940519333,-0.1782720386981964,138.19857788085938,75.70378112792969,22.88965606689453,195.6246987432764,1.1995476707177732,62.06207894529087,1.0077133206031124,105.48560333251952,45.55988693237305,98.3546371459961
3797.271,-8.787275314331055,-180.4365234375,78.6335220336914,-0.6928775906562805,0.5326148271560669,0.7839099168777466,32.22480010986328,26.33320045471192,-76.14865112304688,-6.5140533447265625,65.80584716796875,12.760109901428224,-1.079616665840149,0.2084630131721496,-0.1906587928533554,140.49002075195312,74.53726196289062,25.43553352355957,197.02229819257607,1.1739985807143951,67.34732969590205,1.1159658365348424,108.26522064208984,48.20406150817871,101.58418464660645
3814.901,-7.186323165893555,-179.61557006835938,79.12798309326172,-0.580965518951416,0.5074389576911926,0.7852285504341125,31.83384704589844,22.521791458129883,-76.76144409179688,-5.689916133880615,55.59780883789063,14.72899055480957,-1.0784695148468018,0.202775239944458,-0.1708602160215377,141.9075927734375,73.50639343261719,27.072315216064453,196.40426156281305,1.100726626556326,57.79649345720632,1.1105888104097552,110.07374572753906,50.984601974487305,103.83375930786131
3837.162,3.51826286315918,-179.59291076660156,80.41767883300781,-0.4984334111213684,0.459416389465332,0.7143681645393372,31.71356010437012,18.69312286376953,-77.31599426269531,-6.290448188781738,34.90406799316406,18.811073303222656,-1.0475473403930664,0.2824507653713226,-0.1643810123205185,142.0032196044922,72.72942352294922,27.35235023498535,196.8069989611233,0.984794983099907,40.146234938115725,1.097339957549597,110.28965950012208,54.03630065917969,104.66834449768066
3859.649,14.353171348571776,-177.44215393066406,84.21630096435547,-0.4061474204063415,0.5379167795181274,0.8307380676269531,31.878660202026367,14.844945907592772,-77.76973724365234,-16.702699661254883,26.16859436035156,23.48489761352539,-1.0143628120422363,0.2751287519931793,-0.1872075498104095,141.35369873046875,72.02759552001953,27.10926818847656,196.9368347146715,1.0697831209149091,38.92705900384048,1.0675553434523075,109.47503852844238,57.18264961242676,104.8790054321289
3882.202,6.587772369384766,-175.7728271484375,81.7353744506836,-0.3697760701179504,0.4745852649211883,0.7579809427261353,31.908689498901367,11.047887802124023,-78.24861145019531,-9.965072631835938,7.954342365264893,27.34971237182617,-1.0404367446899414,0.2320138663053512,-0.1493945270776748,140.05770874023438,71.58782958984375,26.031219482421875,193.9591630863022,0.9677296240418554,30.175834733164137,1.0764096704228003,108.149019241333,60.53994178771973,104.2798309326172
3895.159,14.797571182250977,-175.58250427246094,83.96611785888672,-0.3427338004112243,0.4800712168216705,0.7419072985649109,32.13447189331055,7.181947708129883,-78.69109344482422,-2.5165107250213623,-25.394311904907227,30.126205444335938,-0.9895645976066588,0.1925829648971557,-0.2061540931463241,137.62786865234375,71.59847259521484,23.53797721862793,195.1883522851069,0.9478192184318928,39.48154198897501,1.028992614806341,105.4933967590332,64.41652488708496,102.22907066345216
3917.232,19.798736572265625,-174.7527313232422,81.84616088867188,-0.2469204813241958,0.4364435374736786,0.7091857194900513,32.486080169677734,3.3547613620758057,-79.17484283447266,0.8651584386825562,-39.34591293334961,30.23353385925293,-0.9004949927330017,0.226645678281784,-0.182911604642868,134.61830139160156,71.75222778320312,20.35207748413086,193.98273409508795,0.8685603434583763,49.62777380964559,0.9464228180544084,102.13222122192384,68.39746642112732,99.52692031860352
3939.7,29.15033912658692,-170.95013427734375,82.34780883789062,-0.1880978196859359,0.5200427770614624,0.7749809622764587,33.05665588378906,-0.3635033667087555,-79.64106750488281,-3.7720656394958496,-27.80693626403809,31.529504776000977,-0.9515895247459412,0.2399927824735641,-0.1887963861227035,131.9651641845703,71.67945098876953,17.661514282226562,191.9761763892558,0.9520613276650548,42.20857560971242,0.9993814260124122,98.90850830078124,72.04295435547829,97.30258178710938
3962.027,20.88432502746582,-167.25830078125,78.16069030761719,-0.1265141069889068,0.449884831905365,0.7607489824295044,33.49442672729492,-4.016170024871826,-80.16877746582031,2.6886653900146484,-22.48211669921875,28.731977462768555,-0.9370908737182616,0.270397812128067,-0.1743617504835128,129.7875518798828,71.534912109375,15.386981010437012,185.7971682277401,0.8928276404285687,36.581430012750914,0.9907856995543362,96.29312515258788,75.55108213424683,95.55575847625732
3982.813,16.68904685974121,-163.19696044921875,78.944580078125,-0.0536516495048999,0.5043851733207703,0.7880229949951172,33.86473846435547,-7.531585216522217,-80.66590118408203,-8.604629516601562,-15.359658241271973,23.18354034423828,-0.96621572971344,0.2962207496166229,-0.1906354427337646,127.97941589355467,71.35201263427734,13.66557502746582,182.0549886947952,0.9371569469419168,29.11074188851203,1.0284266823042894,94.11467742919922,78.88359785079956,94.33147621154784
4004.483,10.600919723510742,-159.7341766357422,74.402099609375,-0.0650247558951377,0.5170958042144775,0.7276665568351746,34.16796112060547,-11.010225296020508,-81.22688293457031,-15.451970100402832,-9.22305679321289,21.24022674560547,-0.9737836718559264,0.2649409770965576,-0.1914722919464111,126.4704132080078,71.12845611572266,12.442709922790527,176.53061805467675,0.895050226273251,27.83837978042737,1.0271854747324365,92.30245208740234,82.13868141174316,93.66959285736084
4014.717,5.723115921020508,-157.71817016601562,73.49887084960938,-0.0084086973220109,0.4516079127788543,0.7518888115882874,34.4094123840332,-14.44284439086914,-81.80323791503906,-21.317716598510746,-3.105593681335449,27.52408790588379,-0.879807710647583,0.2302371561527252,-0.2195373326539993,125.05387115478516,70.70972442626953,11.446163177490234,174.0972695722976,0.8771300918716526,34.9523270775894,0.935557265065623,90.64445877075195,85.15256881713867,93.2494010925293
4037.929,-1.8327438831329343,-154.67127990722656,69.34635925292969,0.0314699187874794,0.5159335732460022,0.7082720994949341,34.54871368408203,-17.77634048461914,-82.43598175048828,-9.978208541870115,1.61354398727417,23.58114051818848,-0.9649166464805604,0.2621919810771942,-0.2150397449731826,124.22039794921876,70.30406188964844,10.833642959594728,169.5154309197755,0.8768279048444114,25.656156338050103,1.0227662790269367,89.67168426513672,88.08040237426758,93.269624710083
4059.45,-2.3934247493743896,-153.877197265625,65.82548522949219,0.0946315675973892,0.4123586118221283,0.6857134103775024,34.73491668701172,-21.05535888671875,-83.14122772216797,-13.029539108276367,9.874269485473633,18.00401496887207,-0.9129780530929564,0.2567387521266937,-0.2399837225675583,123.94879913330078,69.8842544555664,10.879210472106934,167.3825403859467,0.8057280183171968,24.31901811844444,0.978282116452284,89.21388244628906,90.93961334228516,94.0204381942749
4079.401,-2.71876072883606,-148.57156372070312,63.97345352172852,0.17391899228096,0.4802894294261932,0.7209843397140503,34.9512825012207,-24.22356414794922,-83.84294128417969,-10.99392318725586,6.481281757354736,17.653213500976562,-0.9969921112060548,0.1858195215463638,-0.2424519062042236,123.64527893066406,69.55890655517578,10.835798263549805,161.78227332378654,0.8835972894975788,21.783234543486937,1.0427392249344452,88.69399642944336,93.782470703125,94.67873954772948
4102.094,-19.423568725585938,-144.77821350097656,60.57161331176758,0.2330324649810791,0.4859649837017059,0.6826853156089783,34.89228439331055,-27.257463455200195,-84.58458709716797,-5.227559566497803,18.367855072021484,21.531551361083984,-0.9165316820144652,0.2399963587522506,-0.2034609615802765,123.7778549194336,69.01364135742188,11.152826309204102,158.1357848994408,0.8697846487881281,28.780430555901447,0.9690329918211116,88.88557052612305,96.27110481262208,95.73741340637208
4125.409000000001,-24.30606460571289,-141.68275451660156,57.70356750488281,0.2847024500370025,0.4358171820640564,0.6007075905799866,34.78398132324219,-30.19259262084961,-85.35514068603516,-4.075723171234131,28.02851104736328,21.58230972290039,-0.9477587342262268,0.3005411326885223,-0.2237600535154342,124.29409790039062,68.33863830566406,11.857378959655762,154.9015474642498,0.7948847153013697,35.60905845253285,1.019136964440516,89.51011657714844,98.53123092651369,97.21251964569092
4134.468,-23.531557083129883,-138.23207092285156,55.6061897277832,0.365466445684433,0.3675970137119293,0.5356019139289856,34.718387603759766,-33.077632904052734,-86.12985229492188,-17.575551986694336,39.66874313354492,18.47726058959961,-0.9088118076324464,0.3113155961036682,-0.2560658156871795,125.08528900146484,67.56317901611328,13.145254135131836,150.84391915625596,0.7453607835240149,47.15843899375947,0.9941961597356316,90.36690139770508,100.64081192016602,99.27510643005373
4162.718,-17.532419204711914,-133.34837341308594,52.12063980102539,0.4480250775814056,0.408890962600708,0.5884636640548706,34.82514190673828,-35.84071731567383,-86.93598937988281,-17.39192008972168,54.830711364746094,20.23014068603516,-0.9560813903808594,0.2324061393737793,-0.2680919766426086,126.40125274658205,66.62315368652344,14.991415977478027,144.2419339455548,0.8451081429919143,60.97658883004309,1.0197928939698309,91.57611083984376,102.46387100219728,101.92740535736084
4181.946,-24.994813919067383,-128.1763916015625,47.74243927001953,0.507813036441803,0.4152629375457763,0.5168666839599609,34.88346862792969,-38.494747161865234,-87.81587219238281,-10.523785591125488,68.80960083007812,15.43914031982422,-0.969338357448578,0.2765046060085296,-0.2849539220333099,128.3123321533203,65.55905151367188,17.335508346557617,139.04412463062727,0.8351458293418925,71.30132034806853,1.0475067474948334,93.42886352539062,104.05379867553712,105.15138053894044
4204.314,-29.5148868560791,-122.2274398803711,48.36472702026367,0.5732307434082031,0.3605274260044098,0.4090401828289032,34.83565902709961,-41.0947380065918,-88.62625885009766,-21.308311462402344,82.69012451171875,7.232056617736816,-0.8944454789161682,0.2960041761398315,-0.2829312086105346,130.46734619140625,64.39861297607422,20.25421714782715,134.721276810983,0.791130445159576,85.69716140027305,0.9837180774244274,95.63168716430664,105.49335098266602,108.8804759979248
4215.01,-27.12259101867676,-116.56256866455078,46.152122497558594,0.6688563227653503,0.2841647565364837,0.4020765721797943,34.805206298828125,-43.567718505859375,-89.39424896240234,-21.93396377563477,85.41431427001953,-4.315029621124268,-0.8785165548324585,0.3409823477268219,-0.270231693983078,132.71258544921875,63.324798583984375,23.308364868164062,128.26724355140004,0.8305323348651026,88.2911282619024,0.9803496656851326,97.90737915039062,106.89251708984376,112.7026138305664
4236.685,-26.86618423461914,-108.5281219482422,44.44072341918945,0.6871288418769836,0.4158553183078766,0.4168362915515899,34.85053253173828,-45.90310287475586,-90.16646575927734,-24.174718856811523,88.46802520751953,2.7122488021850586,-0.92082417011261,0.3155775070190429,-0.2971221208572387,134.63259887695312,62.08197784423828,26.031219482421875,120.31260535356184,0.9048945712394524,91.75164744836545,1.0177366407389656,99.78206634521484,107.98508071899414,116.19768524169922
4254.892,-41.02752685546875,-99.95954895019533,39.71384048461914,0.735461950302124,0.2840944528579712,0.3267390727996826,34.54997634887695,-47.99831008911133,-90.87775421142578,-22.74964141845703,94.51913452148438,-0.1228700578212738,-0.8893117904663086,0.3382026553153991,-0.352727323770523,136.6107177734375,60.72768020629883,28.803653717041016,115.11888859887624,0.8534473388445653,97.21845541053378,1.0147280727658488,102.06074142456056,108.72599029541016,119.6814079284668
4276.761,-35.8736686706543,-88.37322235107422,39.05819320678711,0.7856104969978333,0.2939525842666626,0.3661680817604065,34.25494766235352,-49.924076080322266,-91.42830657958984,-21.62845802307129,80.33470153808594,-1.0242542028427124,-0.8833152055740356,0.3288633823394775,-0.3844872117042541,138.12033081054688,59.55773162841797,31.0393180847168,103.0644894674349,0.9152437046439204,83.20158390524273,1.0179525001718766,103.86538314819336,109.48180770874023,122.46762466430664
4299.539000000001,-38.32126998901367,-78.30437469482422,32.41333770751953,0.7567736506462097,0.3008755445480346,0.3069577515125274,33.906288146972656,-51.58414077758789,-91.967529296875,-22.72589111328125,78.96638488769531,4.958741188049316,-0.8176542520523071,0.3282526731491089,-0.4017643332481384,139.2920684814453,58.28973388671875,32.93301773071289,93.00924304207628,0.8703192016915945,82.3209887166961,0.9683609207310436,105.38578033447266,109.87387466430664,124.90054702758788
4314.555,-37.276214599609375,-69.23172760009766,30.383272171020508,0.8161321878433228,0.1949623823165893,0.3215139210224151,33.50092697143555,-53.073204040527344,-92.39701080322266,-19.62991714477539,61.16880798339844,5.838618278503418,-0.7771980166435242,0.3625520169734955,-0.4288877546787262,140.01516723632812,57.242958068847656,34.265106201171875,84.29526385977188,0.898584041680964,64.50617164754617,0.9588667416276032,106.51424026489258,110.316162109375,126.66211700439452
4336.909000000001,-31.93103408813477,-58.99801635742188,24.873611450195312,0.7808512449264526,0.2682107388973236,0.2906907796859741,33.20478439331055,-54.36237716674805,-92.81084442138672,-14.500154495239258,45.54267883300781,5.229540824890137,-0.7852798104286194,0.3620349764823913,-0.4047857522964477,140.47471618652344,56.47240829467773,35.20314025878906,71.54756053579696,0.8753095432802493,48.08053840080722,0.9547697157564304,107.26993179321288,110.83478546142578,128.01398468017578
4359.234,-27.558549880981445,-49.70430374145508,19.494239807128903,0.7887131571769714,0.1973212659358978,0.3032569885253906,32.96002578735352,-55.44203567504883,-93.18551635742188,-16.185546875,35.44744873046875,9.429081916809082,-0.7802859544754028,0.3519782125949859,-0.423346072435379,140.60044860839844,55.80571365356445,35.74674987792969,60.08341591174072,0.86773782180109,40.09240744749471,0.9549642558439624,107.64042282104492,111.24774932861328,128.93226623535156
4381.9,-16.95978546142578,-41.66349029541016,4.870442390441895,0.7628677487373352,0.1897041052579879,0.2480425983667373,33.18404006958008,-56.21343612670898,-93.8602294921875,-13.183406829833984,22.251855850219727,10.590981483459473,-0.7796756029129028,0.3307663798332214,-0.4078785181045532,140.5139617919922,55.33152770996094,35.960350036621094,45.24601590827572,0.8243057565126101,27.94845600749445,0.9400347490049183,107.32992172241212,111.54496383666992,129.8205795288086
4404.3150000000005,-14.168700218200684,-28.370643615722656,12.219281196594238,0.9025110006332396,0.1701301634311676,0.2667727172374725,33.072601318359375,-56.841983795166016,-94.06189727783205,-15.541976928710938,8.948099136352539,3.0775532722473145,-0.7475282549858093,0.313468337059021,-0.4348849952220917,140.33631896972656,55.14531707763672,36.10773849487305,33.98464826954998,0.956367116454446,18.19595721994576,0.9198836064470308,107.2637176513672,111.98730087280272,130.16963577270508
4414.366,-8.703509330749512,-11.083874702453612,13.675932884216309,0.8373281955718994,0.2420085817575454,0.2586759924888611,32.7303581237793,-57.17658615112305,-93.86170959472656,-12.942831993103027,-8.435073852539062,-0.5246105194091797,-0.7989214062690735,0.3307657241821289,-0.4431317448616028,139.96484375,55.283321380615234,35.958003997802734,19.63757860184712,0.9091754120267932,15.457767856212431,0.9716208730738398,107.2344856262207,112.45990753173828,129.8197135925293
4436.777,-5.4504008293151855,3.5473594665527344,3.1696105003356934,0.8191980123519897,0.2114511579275131,0.311269998550415,32.49106216430664,-57.18962478637695,-93.70259857177734,-6.511364459991455,-13.45200538635254,-1.2061381340026855,-0.7931014895439148,0.3338227570056915,-0.4463826715946197,139.644287109375,55.50047302246094,35.71296310424805,7.23443564550679,0.901490980336416,14.993634824271032,0.9693838740723963,107.15322494506836,112.69009780883788,129.4155616760254
4459.215,-10.10401725769043,15.438458442687988,5.429391860961914,0.8347245454788208,0.193562775850296,0.3032490611076355,31.891366958618164,-57.02072525024414,-93.22982788085938,-2.196239948272705,-16.85205841064453,-4.067662239074707,-0.7702232599258423,0.3417665958404541,-0.425074815750122,139.38827514648438,55.80078506469727,35.44904708862305,19.233186418536828,0.9089508281982904,17.474587797065723,0.943788575449059,107.4969081878662,112.8215103149414,128.67887496948242
4481.548,-10.547757148742676,27.98923683166504,5.726622581481934,0.8196749687194824,0.2078444957733154,0.3072251975536346,31.10400390625,-56.66549682617188,-92.5341339111328,-4.23248815536499,-16.385046005249023,-10.3804349899292,-0.7677009105682373,0.3603862226009369,-0.4238723516464233,139.2240753173828,56.16628646850586,35.35148620605469,30.454010663271035,0.8996964548004055,19.852886922550542,0.9481090064007102,108.1200714111328,112.83178329467772,127.8856201171875
4504.036,-2.3462164402008057,38.308685302734375,0.0530892126262187,0.7901290059089661,0.1799547225236892,0.2899436950683594,30.47753143310547,-56.05016326904297,-91.83438110351562,-3.637538909912109,-20.897306442260746,-15.716235160827637,-0.7788592576980591,0.3607551455497741,-0.4286941289901733,139.1060028076172,56.667755126953125,35.29399490356445,38.38050181632208,0.8606711883449816,26.3994157793939,0.9594501938992216,108.62847137451172,112.7179183959961,127.12837600708008
4514.173000000001,8.564874649047852,48.13384628295898,-6.418211460113525,0.7801005244255066,0.1658648401498794,0.2688670754432678,30.097702026367188,-55.16524124145508,-91.16861724853516,-2.9351789951324463,-28.680927276611328,-20.903610229492188,-0.7691362500190735,0.3527397215366363,-0.4033447802066803,138.9523468017578,57.35777282714844,35.18128204345703,49.30940756176411,0.8416397552779403,35.611399660870745,0.9373808692111876,108.85464477539062,112.52301406860352,126.3498992919922
4536.772,14.76791763305664,60.54463195800781,-8.681675910949707,0.8146060109138489,0.1879345476627349,0.2970620095729828,29.75533866882324,-54.02914047241211,-90.38613891601562,-5.480175495147705,-37.97237777709961,-28.85450935363769,-0.7996744513511658,0.3358681797981262,-0.3898105919361114,138.74366760253906,58.30549621582031,35.06245040893555,62.92150146627249,0.8872137198858623,48.005379985409455,0.950914801614885,108.98832893371582,112.33463668823242,125.44858932495116
4561.593,15.384833335876465,72.63426971435547,-15.716412544250488,0.7691565752029419,0.1810371726751327,0.3101905286312103,29.468395233154297,-52.63410949707031,-89.6439208984375,-8.179701805114746,-46.962921142578125,-32.724273681640625,-0.8473421335220337,0.3499036431312561,-0.3783602118492126,138.34918212890625,59.44328308105469,34.79682540893555,75.89094713450021,0.8488783535469816,57.821289953230256,0.9917548591404928,108.88078689575195,112.077392578125,124.44074630737305
4581.845,23.595882415771484,84.62287902832031,-20.341175079345703,0.7560012340545654,0.1552574783563614,0.2884295284748077,29.335678100585938,-50.959774017333984,-88.8747787475586,-4.479411602020264,-56.76568984985352,-28.01943016052246,-0.8379204273223877,0.3347108066082001,-0.3488619327545166,137.6450958251953,60.664283752441406,34.09247589111328,90.17516690103346,0.8239140388255329,63.46256486268477,0.9673916552822138,108.30941772460938,111.6240577697754,122.96725463867188
4605.543,30.829910278320312,97.43834686279295,-24.961275100708008,0.7319821715354919,0.1809086948633194,0.3345407545566559,29.328533172607425,-49.02727890014648,-88.06336975097656,-4.0980753898620605,-64.56056213378906,-26.7352294921875,-0.8537554740905762,0.298896849155426,-0.3487308621406555,136.69813537597656,61.981689453125,33.099365234375,105.2035173450796,0.8248899149476254,69.99737781468505,0.9694591018624926,107.36960220336914,111.00896835327148,121.16273498535156
4614.245999999999,30.49096298217773,108.36739349365234,-31.645580291748047,0.682758092880249,0.2067777812480926,0.3968451917171478,29.36117935180664,-46.88867568969727,-87.29277801513672,1.5566329956054688,-68.1158447265625,-30.51120376586914,-0.907731294631958,0.2971921861171722,-0.3194829523563385,135.7657470703125,63.40697860717773,32.01176071166992,116.93858878997167,0.8163343496389078,74.65336539191362,1.007158704271396,106.40456771850586,110.295654296875,119.30453872680664
4636.631,28.859786987304688,117.21405029296876,-37.08087158203125,0.6303794980049133,0.2250742018222808,0.3652663230895996,29.42191505432129,-44.50557327270508,-86.57142639160156,10.37533950805664,-73.02824401855469,-28.89470291137696,-0.8755660057067871,0.2826741635799408,-0.2909237742424011,134.70462036132812,64.86402893066406,30.5989990234375,126.28147895997378,0.7625327498634135,79.21916403672627,0.9649648467816848,105.28270530700684,109.36960220336914,117.17042541503906
4664.169,37.466190338134766,123.3534164428711,-42.76940155029297,0.609507143497467,0.1889031082391739,0.4174543917179107,29.7165641784668,-41.9609260559082,-85.91585540771484,15.346460342407228,-69.50656127929688,-22.49103546142578,-0.8449450731277466,0.2774613201618194,-0.2566628456115722,133.49497985839844,66.16159057617188,28.933069229125977,135.82710508419123,0.7625296790561229,74.64933075413899,0.9256310156354002,103.77841567993164,108.12251663208008,114.84892463684082
4674.186,43.51860046386719,129.09515380859375,-48.893856048583984,0.5655426979064941,0.2634572386741638,0.4817381501197815,30.19650650024414,-39.28709030151367,-85.32703399658203,11.578668594360352,-60.126495361328125,-20.47422218322754,-0.8978003263473511,0.2862046062946319,-0.2223330736160278,132.28016662597656,67.29631805419922,27.36442947387696,144.74127428794398,0.7882384823427492,64.5635716550905,0.968189288454084,102.08366012573242,106.58340835571288,112.69146347045898
4696.701,42.80673599243164,133.53411865234375,-55.15773010253906,0.5196117162704468,0.2743789851665497,0.5349125862121582,30.70782470703125,-36.45600128173828,-84.79718780517578,10.975178718566896,-61.12397384643555,-12.536294937133787,-0.9782038927078248,0.2762754261493683,-0.242844820022583,130.66293334960938,68.31251525878906,25.3778133392334,150.685608737691,0.7946141441446437,63.3541902121322,1.0450763481270433,99.95510864257812,104.76851654052734,110.17500114440918
4714.228999999999,42.48794174194336,137.5791015625,-60.711204528808594,0.4919825494289398,0.2813934981822967,0.560916543006897,31.255756378173828,-33.504920959472656,-84.31798553466797,-2.25872015953064,-48.41944885253906,-24.109249114990234,-0.942961812019348,0.3257924914360046,-0.2038150280714035,129.45465087890625,69.3055191040039,24.13574981689453,156.26607032734358,0.7974061060593137,54.13687040115428,1.0182623886163324,98.19889450073242,102.81044006347656,108.4537353515625
4736.714,41.48270797729492,141.4784393310547,-64.964111328125,0.424923688173294,0.3758376836776733,0.6474185585975647,31.83741950988769,-30.389877319335938,-83.86984252929688,-3.3921685218811035,-38.20062255859375,-11.717604637145996,-1.027126669883728,0.2150453329086303,-0.1734198778867721,128.17955017089844,70.02135467529297,22.893451690673828,161.11269229124522,0.86079317798153,40.10108015474705,1.063629703063281,96.34213066101074,100.4112319946289,106.7632942199707
4758.899,30.963268280029297,140.9873504638672,-70.466064453125,0.3681164681911468,0.3864146173000335,0.6985467076301575,32.259239196777344,-27.21235084533692,-83.50972747802734,18.642108917236328,-18.95207977294922,-31.820531845092773,-0.9461091160774232,0.2803916931152344,-0.1827174425125122,128.77444458007812,70.7586669921875,23.13494873046875,160.6288368037145,0.8790867382446329,41.46390960229024,1.003557484597242,96.51520538330078,97.9710178375244,106.6446762084961
4779.473,32.48139953613281,139.9048614501953,-69.06471252441406,0.3155151903629303,0.44015634059906,0.6670709848403931,32.756744384765625,-24.069828033447266,-83.1391830444336,30.1301498413086,-13.73622226715088,-18.7729434967041,-0.8688859343528748,0.2336906641721725,-0.0910806208848953,129.2959747314453,71.26123809814453,23.06500625610352,159.36858564128687,0.859227058661006,38.06485438252359,0.9043615277853638,96.53923034667967,95.3310661315918,106.20418930053712
4794.088000000001,24.465633392333984,140.08644104003906,-65.98709106445312,0.2835364937782287,0.4951964318752289,0.7226755023002625,33.091522216796875,-20.95538711547852,-82.69721221923828,36.87184524536133,-11.92540454864502,-10.999671936035156,-0.9908868670463562,0.1806701719760894,-0.1281844079494476,129.8763885498047,71.64276123046875,22.90219497680664,156.77077013174636,0.9207998322496298,40.28325989970421,1.0153471016200142,96.7848663330078,92.59814834594728,105.59940719604492
4816.394,22.3191032409668,141.58985900878906,-63.45331954956055,0.2583223879337311,0.4866012632846832,0.716469407081604,33.37822341918945,-17.86542510986328,-82.18297576904297,43.39604949951172,0.99236261844635,-21.1889762878418,-0.9444981813430786,0.185712456703186,-0.1267565935850143,131.58441162109375,72.00080108642578,23.80058860778809,156.75507744717024,0.903791821617069,48.30294620266224,0.9708929730677796,98.2061882019043,89.86622619628906,105.98356437683104
4839.105,19.52723693847656,141.27964782714844,-59.71354293823242,0.1877770125865936,0.6005319952964783,0.785941481590271,33.6443977355957,-14.794918060302734,-81.60540008544922,47.25921249389648,2.2652926445007324,-10.257465362548828,-0.9872891306877136,0.2404602169990539,-0.173605129122734,132.99554443359375,72.13497924804688,24.36754608154297,154.6187539816908,1.0067784743005908,48.412604887285084,1.0308732630110524,99.35114669799805,86.92989730834961,105.9729461669922
4862.174999999999,12.359445571899414,137.9350128173828,-59.13291931152344,0.1565952599048614,0.5576156377792358,0.8701208829879761,33.754302978515625,-11.797035217285156,-81.04164123535156,49.44224166870117,2.084490776062012,-18.790584564208984,-1.0249537229537964,0.2231852114200592,-0.1873006969690323,134.85757446289062,72.39635467529297,25.362213134765625,150.58394935078388,1.0452595973883188,52.93360398920922,1.065562444851802,101.103271484375,84.19338989257812,106.4038543701172
4884.446,9.898173332214355,136.30517578125,-58.33151626586914,0.0562068447470665,0.58806973695755,0.8520819544792175,33.86203384399414,-8.811750411987305,-80.48833465576172,44.48677062988281,5.039945125579834,-13.916142463684082,-0.942172348499298,0.3029153347015381,-0.2029670923948288,136.45635986328125,72.48749542236328,26.1972770690918,148.59219552166047,1.0368359957441995,46.884249263630224,1.0102683182547292,102.59432601928712,81.29924583435059,106.68561172485352
4895.282,15.792829513549805,130.75015258789062,-58.199127197265625,0.0337841436266899,0.5659109354019165,0.8327051997184753,34.116580963134766,-5.938193321228027,-79.98918151855469,46.49810028076172,4.115330696105957,-15.19581413269043,-0.9269033670425416,0.3198037445545196,-0.2006228268146515,138.15818786621094,72.60986328125,27.09775161743164,143.98664615971938,1.0073700932657506,49.09095684149332,1.0008365528421683,104.04160690307616,78.54805660247803,107.08693313598631
4917.576999999999,16.879241943359375,127.9430694580078,-58.4798698425293,-0.0251969546079635,0.6545103788375854,0.9560666680336,34.4178352355957,-3.107295036315918,-79.51325225830078,32.02824401855469,-6.954358100891113,-18.834327697753903,-1.0437195301055908,0.2237529307603836,-0.2652539610862732,139.42698669433594,72.95271301269531,27.81601524353028,141.6835664702094,1.1589142316204877,37.80083876495195,1.0998979477295403,105.00915145874023,76.06000804901123,107.32926750183104
4936.401,3.428370475769043,121.3986358642578,-60.075103759765625,-0.1093036234378814,0.6292768716812134,0.9302194118499756,34.47100067138672,-0.3522247970104217,-79.13058471679688,44.25088882446289,0.8318160772323608,-7.757473945617676,-0.9620655179023744,0.2025390714406967,-0.2084860205650329,140.6925811767578,73.0412368774414,28.21842384338379,135.4931754944447,1.1283815035315223,44.93341164165319,1.0050166948702228,106.2215805053711,73.39346167445183,107.34900856018066
4958.646,9.200389862060549,114.91658020019533,-57.4849739074707,-0.1760952025651931,0.6098124980926514,0.8702935576438904,34.66636657714844,2.277439594268799,-78.7740707397461,44.02042770385742,3.809883832931519,-19.54137420654297,-0.9136695861816406,0.2668955624103546,-0.2498535215854644,142.62451171875,73.17772674560547,29.32887840270996,128.82154246733896,1.0771683618046604,48.31333745386582,0.984099657654817,107.95814514160156,70.90028715133667,108.10294914245604
4978.685,11.24700164794922,110.34660339355467,-56.972442626953125,-0.1616452932357788,0.5601909160614014,0.8668411374092102,34.89427947998047,4.794131755828857,-78.45195007324219,26.20821189880371,7.516246795654297,2.123215675354004,-1.0232462882995603,0.0965177714824676,-0.2908104956150055,143.51345825195312,73.04209899902344,29.76187515258789,124.69453534716304,1.0446801523757816,27.34725546795965,1.0681382827567854,108.61917877197266,68.24796724319458,108.21382522583008
