Timestamp (ms),Wrist Gyroscope X (deg/s),Wrist Gyroscope Y (deg/s),Wrist Gyroscope Z (deg/s),Wrist Accelerometer X (g),Wrist Accelerometer Y (g),Wrist Accelerometer Z (g),Wrist Roll (deg),Wrist Pitch (deg),Wrist Yaw (deg),Arm Gyroscope X (deg/s),Arm Gyroscope Y (deg/s),Arm Gyroscope Z (deg/s),Arm Accelerometer X (g),Arm Accelerometer Y (g),Arm Accelerometer Z (g),Arm Roll (deg),Arm Pitch (deg),Arm Yaw (deg),Wrist Gyroscope Magnitude (deg/s),Wrist Accelerometer Magnitude (g),Arm Gyroscope Magnitude (deg/s),Arm Accelerometer Magnitude (g),Difference Roll (deg),Difference Pitch (deg),Difference Yaw (deg)
0.0,0.436901,0.485467,-0.320709,-0.963014,0.237149,-0.090926,109.331894,75.237747,-65.365074,1.427295,1.525219,-0.087882,-0.991543,0.123719,-0.027427,104.985069,82.769119,-111.872734,0.7276090671308323,0.9959433467185772,2.090738448708972,0.9996079992372008,-4.34682500000001,7.531372000000005,-46.50765999999999
19.986,2.071758,0.472086,-0.2410505,-0.965435,0.2394265,-0.088299,109.3884775,75.23758699999999,-65.3465765,1.3062985,1.1118640000000002,-0.071726,-0.991831,0.124732,-0.029091,105.0448835,82.7673415,-111.824211,2.138492867771658,0.9985922598980276,1.7169164058492334,1.0000665431190066,-4.343594000000003,7.529754500000003,-46.47763449999999
39.972,2.541131666666667,0.3100203333333333,-0.1580233333333333,-0.9666686666666668,0.2436026666666666,-0.0856253333333333,109.424291,75.23604066666667,-65.34806566666667,1.2558526666666667,0.994445,-0.0359943333333333,-0.9921736666666666,0.1255813333333333,-0.0313593333333333,105.11265533333334,82.76434566666667,-111.76755266666667,2.564845829342185,1.0005609766679224,1.602305329963952,1.0005811630725747,-4.31163566666667,7.528305000000003,-46.419487
59.958,2.078483,0.2494394999999999,-0.13447525,-0.966117,0.24216775,-0.084563,109.4460145,75.2359905,-65.34980775,1.19298125,0.788436,0.022029,-0.991464,0.12505775,-0.0307307499999999,105.15118375,82.7617855,-111.73950575,2.09771190546076,0.999589004440356,1.4301471482992798,0.9997923199978208,-4.294830750000003,7.525795000000002,-46.389698
79.944,1.8346186,0.2955408,-0.048059,-0.9666164,0.2410984,-0.0825646,109.4640474,75.23508,-65.350325,1.22081,0.672768,0.0505478,-0.9911214,0.122771,-0.0309151999999999,105.185507,82.7605132,-111.7167724,1.858891992400742,0.9996462456312634,1.3948293508558098,0.9991747082317486,-4.2785404000000025,7.525433200000004,-46.3664474
99.93,1.8842536,0.1800694,0.0746172,-0.9678642,0.241948,-0.0788162,109.4993958,75.2333604,-65.3580506,1.3489546,0.7024206,0.0743586,-0.9899704,0.121072,-0.0335025999999999,105.3188566,82.75645899999999,-111.6094696,1.894308407959264,1.0007556833353883,1.5226957718334546,0.9979089368609344,-4.180539200000001,7.5230986,-46.251419
119.916,1.289489,-0.1539558,0.1522912,-0.9685484,0.2424702,-0.0792158,109.4973922,75.2321778,-65.3935426,1.8113668,1.3605074,0.1477606,-0.988627,0.1202842,-0.037617,105.5728422,82.74703059999999,-111.3900254,1.307546128850558,1.001575231323259,2.270212162884641,0.9966276499212932,-3.924549999999999,7.5148528,-45.9964828
139.902,0.3992212,-0.524011,0.2427018,-0.9703774,0.2436574,-0.07922,109.4483794,75.2314088,-65.459697,2.4657242,2.6447376,0.134684,-0.9870546,0.119342,-0.0411968,106.0419066,82.7301148,-110.966919,0.7020464787844748,1.0036319222730614,3.618366010117744,0.9950962127731168,-3.4064728000000004,7.498706000000001,-45.507222
159.888,-0.6431925999999999,-1.1276994,0.2862654,-0.9746478,0.245947,-0.0758778,109.3265394,75.23376160000001,-65.57923739999998,2.9905908,4.5583442,0.1605831999999999,-0.9869462,0.1216668,-0.0464503999999999,106.8097778,82.6985442,-110.2528534,1.329417367380267,1.0080603659437664,5.454165577138314,0.9955015075713548,-2.516761599999998,7.464782600000004,-44.673616
179.875,-0.9742922,-2.2148624,0.3594696,-0.9755908,0.2474654,-0.0753468,109.1179058,75.2410904,-65.7822784,3.2224258,7.2075944,0.2046052,-0.9864832,0.123884,-0.0523516,107.9666122,82.64571839999999,-109.1507248,2.446237751167854,1.0093035586542038,7.89780402132669,0.9956088787072964,-1.1512935999999967,7.404628,-43.3684464
199.861,-0.3846395999999998,-3.5225286,0.6980872,-0.9787736,0.2503246,-0.0755026,108.8199354,75.2490096,-66.09141220000001,3.833734,10.0833716,0.3031921999999999,-0.9879448,0.1251642,-0.0596468,109.534674,82.566716,-107.6454436,3.611575985426578,1.0130946688384457,10.791840654706842,0.997626556161633,0.7147386000000042,7.317706400000003,-41.5540314
219.847,-1.2862513999999998,-4.904038,0.839607,-0.9759058,0.2576486,-0.068334,108.3840438,75.2592788,-66.5245864,5.021915399999999,12.1789294,0.387339,-0.9908838,0.1260378,-0.0617856,111.3743256,82.4664336,-105.8890502,5.138965974191205,1.011654321945792,13.179377341735933,1.000776544738455,2.9902818000000027,7.207154800000003,-39.3644638
239.833,-4.031445799999999,-6.527972199999999,0.9565834,-0.9720232,0.2616698,-0.052583,107.7412446,75.2758484,-67.11386259999999,5.8810654,14.1308272,0.5046302,-0.987209,0.130622,-0.0632984,113.4219086,82.33962700000001,-103.9385298,7.73188386381133,1.008000574136384,15.314106543774894,0.9978228319734722,5.680664000000005,7.063778600000004,-36.8246672
259.819,-7.0670964,-9.4319462,1.5651538,-0.9699844,0.2628122,-0.0350238,106.7805178,75.2962326,-67.968019,6.256111,17.130643600000003,0.294325,-0.977516,0.133348,-0.071144,115.8067414,82.17677619999999,-101.6532974,11.889287912412664,1.0055678272889603,18.23964095590061,0.9891312795054052,9.026223600000003,6.880543600000001,-33.6852784
279.805,-9.8616696,-13.9830106,2.4534808,-0.964843,0.2710882,-0.0298478,105.4051258,75.31264039999999,-69.1944046,6.3879702,21.6931034,-0.3604006,-0.9629844,0.1329034,-0.0922504,118.7168274,81.957077,-98.8381654,17.28573633882124,1.002647354752946,22.61695795175956,0.9764795976747698,13.311701600000005,6.644436600000003,-29.643760800000003
299.791,-13.6639886,-18.9929486,3.3696156000000004,-0.960779,0.273895,-0.0341814,103.5910296,75.32238939999999,-70.80154279999999,5.7838042000000005,25.2006154,-0.6379984000000001,-0.9519762,0.1329476,-0.1088692,121.892447,81.67933339999999,-95.7397586,23.63876033710176,0.9996414987243976,25.86368978937571,0.9673604563040812,18.301417400000005,6.356944000000001,-24.9382158
319.777,-16.623215599999998,-23.9313582,4.384297200000001,-0.9668342,0.269383,-0.0272928,101.342418,75.3225588,-72.8013596,4.1589968,28.6028592,-0.5874311999999999,-0.948446,0.1356618,-0.1227447999999999,125.2268204,81.3394318,-92.4448274,29.46630726980764,1.004032105019795,28.9096157742051,0.965929720436368,23.88440240000001,6.016872999999999,-19.6434678
339.763,-17.2120464,-29.7006096,5.787741200000001,-0.9822358,0.2702178,-0.0146536,98.6383834,75.295743,-75.2629364,2.1283434,30.8458886,-0.4747162,-0.9537904,0.1267729999999999,-0.1413604,128.5894058,80.9525832,-89.0782838,34.81204820296477,1.018832446593374,30.922872515703908,0.9725072150628604,29.951022400000006,5.656840199999996,-13.815347399999997
359.749,-16.905799199999997,-35.1640602,6.823628600000001,-0.9926346,0.2666956,-0.0147304,95.5664504,75.233449,-78.1154786,-0.1934484000000001,31.1164162,-0.7739326,-0.9689878,0.121537,-0.1564519999999999,131.7496292,80.545413,-85.86714939999999,39.60907829791906,1.0279430805548917,31.126640536434824,0.9890327735832822,36.1831788,5.311963999999994,-7.751670799999997
379.735,-15.8783368,-39.06995740000001,7.6778886,-1.0064078,0.2651016,-0.0005384,92.258386,75.12256479999999,-81.2338608,-2.3014524,28.5091408,-0.7693726,-0.9901886,0.1241871999999999,-0.1512426,134.33533640000002,80.15386799999999,-83.1916594,42.86645686461688,1.0407381073536033,28.612230365725093,1.0093414923942046,42.0769504,5.031303199999996,-1.957798599999998
399.721,-14.1418658,-42.891063,8.6406786,-1.0166108,0.275576,0.031305,88.7358428,74.94364780000001,-84.60230100000001,-4.5604946,25.7879638,-0.8506304,-1.0054328,0.1196718,-0.149909,136.4508362,79.791516,-80.9453824,45.98148518962471,1.0537645151919095,26.201922830665374,1.023566882676496,47.7149934,4.847868199999996,3.656918600000003
419.707,-12.2780924,-47.3982384,10.0785626,-1.0210108000000002,0.2810476,0.049996,85.0228836,74.67748099999999,-88.2003052,-6.048584400000001,23.0670078,-1.1938478,-1.0066558,0.1144213999999999,-0.1575574,138.2233398,79.46384259999999,-79.0166152,49.989218642506216,1.0601652735297455,23.876714486267765,1.0253158004958085,53.2004562,4.786361600000001,9.183690000000002
439.699,-9.0358248,-51.978253800000005,11.6540854,-1.0168606,0.2800962,0.060206,81.23028120000001,74.3083526,-91.9551208,-6.741386199999999,21.0313654,-1.7909758,-1.0040590000000005,0.1198628,-0.1611619999999999,139.7519592,79.16430799999999,-77.32012019999999,54.02964653247329,1.0564488267411725,22.15789278794473,1.0239505635277713,58.521678,4.855955400000002,14.6350006
459.684,-4.5609132,-56.841191,13.9642412,-1.0179758,0.2993168,0.0908636,77.41884,73.7982896,-95.8296738,-6.5829504,19.5411788,-1.9911554,-0.996272,0.1149372,-0.163927,141.10982040000002,78.8839736,-75.7996856,58.70879794211591,1.064951393234846,20.71611944089382,1.0161892142986166,63.6909804,5.085684000000003,20.0299882
479.666,-2.6039984,-62.76949139999999,16.6444616,-1.0213334,0.3085822,0.1260397999999999,73.5531464,73.131151,-99.8129548,-6.190781200000001,18.9081054,-2.3875116,-0.9899662,0.1119648,-0.1748206,142.4016508,78.60923299999999,-74.353679,64.99098368416769,1.0743513947012124,20.038523731151383,1.0114995975114571,68.8485044,5.478082000000001,25.4592758
499.651,-1.190813,-69.27684459999999,19.4480758,-1.0221358,0.3050596,0.1562404,69.6860976,72.29843,-103.8478074,-6.260415,18.383953,-3.4849318000000005,-0.9835084,0.1201964,-0.1814092,143.66381819999998,78.3460068,-72.93460259999999,71.96476141596011,1.0780695783603025,19.730871078821767,1.0072960067865653,73.9777206,6.047576800000002,30.9132048
519.637,-0.7950738000000002,-76.43035119999999,22.3921576,-1.0342378,0.3125718,0.1977374,65.84589980000001,71.27847299999999,-107.8853608,-7.874701399999999,18.7180652,-4.7120046,-0.9767634,0.1098472,-0.1904508,144.9730926,78.0862228,-71.4342866,79.64696760634409,1.0983847397259487,20.8465794393477,1.001201605146556,79.1271928,6.807749799999999,36.4510742
539.624,-1.0967306,-84.987529,25.4703452,-1.0467142,0.3161582,0.228999,62.0663184,70.0498916,-111.8765428,-8.826532199999999,19.7353276,-6.2304762,-0.9717362,0.1040314,-0.20593,146.3907166,77.815683,-69.8030886,88.7289208101957,1.1171424107560683,22.49910353404608,0.998749688098274,84.32439819999999,7.765791399999998,42.0734542
559.609,-1.3908304,-93.6407044,28.497206800000004,-1.0505868,0.3296305999999999,0.2471202,58.45393899999999,68.6061004,-115.7148788,-11.042221799999998,21.1447804,-7.2750474,-0.9643996,0.1090308,-0.2217606,147.83749699999998,77.5168152,-68.09458179999999,97.8907897870464,1.1284756754306404,24.939100126445343,0.9955561599132216,89.383558,8.9107148,47.620297
579.596,-2.3818638,-101.6307054,31.3999358,-1.0525616,0.3422526,0.2775562,55.0585808,66.9516624,-119.3339324,-13.723611,22.6304044,-7.954088999999999,-0.964913,0.1073116,-0.2296168,149.27146,77.19072120000001,-66.3421876,106.39750713013656,1.1410785284807352,27.63585052077792,0.9976456043634933,94.2128792,10.239058800000002,52.99174479999999
599.582,-2.8257262,-109.62644500000002,34.315568799999994,-1.0546631999999998,0.3528056,0.3109956,51.914732400000005,65.08782740000001,-122.7119628,-15.7393262,24.941889,-8.331549599999999,-0.9622522,0.097168,-0.2402364,150.73697520000002,76.82007300000001,-64.5145988,114.90648560443805,1.154774662020673,30.647005316271727,0.9965362233826726,98.8222428,11.732245600000002,58.19736399999999
619.568,-0.9533452,-117.1491866,37.6943306,-1.0441612,0.3689896,0.3465328,49.111859200000005,63.01347059999999,-125.801306,-16.4290698,27.2503218,-8.5935084,-0.968311,0.1041898,-0.2424952,152.18532720000002,76.40317999999999,-62.6862534,123.06788105551377,1.160392570628337,32.95971418743946,1.0036362035957451,103.073468,13.389709400000005,63.11505259999999
639.554,-0.9614244,-123.10623619999998,41.130616,-1.030998,0.3875166,0.3936894,46.6519836,60.7488734,-128.5658918,-18.4256538,28.9298716,-7.830778,-0.9735466,0.0978032,-0.2401316,153.5028412,75.94737239999999,-60.948362,129.799065099663,1.1696654799351478,35.18185999681121,1.007482820508797,106.8508576,15.198499000000004,67.61752980000001
659.54,-1.272134,-128.3451934,44.6853662,-1.0100568,0.3815816,0.4374064,44.502262,58.3186556,-131.02870620000002,-19.8685058,30.857492200000003,-7.7832644,-0.9826724,0.0899126,-0.2358304,154.752942,75.4572464,-59.2467156,135.90764859354115,1.1649650704831285,37.51695020011624,1.014566557168469,110.25068000000002,17.138590800000003,71.7819906
679.526,0.8156522,-132.9398834,49.0628542,-0.986144,0.3981846,0.4758046,42.7159704,55.725641800000005,-133.1813292,-21.705339,32.841729,-7.3764974,-0.9839092,0.0773176,-0.2349706,155.9161836,74.9273666,-57.594066,141.70688603299214,1.1650841093218636,40.05138722574499,1.0145277265697374,113.2002132,19.2017248,75.58726320000001
699.512,2.6055912,-136.6289764,53.6764826,-0.9559982,0.423363,0.5075108,41.271993,52.9873192,-135.03786599999998,-22.7774128,34.8184868,-7.2635182,-0.9897026,0.0810944,-0.2332804,156.9908968,74.3583038,-56.005478800000006,146.81767973211325,1.1622116848013877,42.23619601177537,1.0200525884395764,115.7189038,21.370984600000003,79.03238719999999
719.498,4.7259758,-139.3666778,58.0339166,-0.9135788,0.4427636,0.5249892,40.1423216,50.1328652,-136.62976659999998,-24.9342258,35.9698692,-6.438826400000001,-0.9901274,0.0909616,-0.2359302,157.8884462,73.7576554,-54.550448,151.04085938648174,1.1429258459808491,44.2380559238291,1.021904760815488,117.7461246,23.6247902,82.0793186
739.484,8.5456132,-141.1436766,62.19993,-0.8662154000000001,0.4706609999999999,0.5573074,39.3245864,47.179512800000005,-137.9836394,-25.959248,36.066569400000006,-5.9137086000000005,-0.9955618,0.1036732,-0.2332898,158.6318544,73.1522248,-53.2288064,154.47781795822434,1.1324497490895216,44.829141575723206,1.027772134668731,119.307268,25.972712,84.75483299999999
759.47,12.6803588,-142.824298,65.7423096,-0.8226804,0.5050794,0.5882208,38.7788238,44.1422324,-139.1502104,-24.182425,33.6879672,-4.072865999999999,-1.0008579999999998,0.1075915999999999,-0.2359644,159.17207660000005,72.578778,-52.1530274,157.73909746803992,1.1304476769851668,41.668417901365736,1.0339109664869213,120.3932528,28.4365456,86.997183
779.456,16.4433134,-144.19928879999998,68.52587439999999,-0.7681014,0.5201122,0.6102770000000001,38.443116,41.0437964,-140.1789672,-18.000346999999998,29.7646832,-1.098873,-1.004927,0.1177563999999999,-0.2320123999999999,159.5082276,72.0615722,-51.417163,160.4980152783236,1.1103758273664823,34.80167208607799,1.0380629069684166,121.0651116,31.017775800000003,88.7618042
799.442,21.8080498,-144.9705048,70.9847396,-0.7117466,0.5331545999999999,0.6298857999999999,38.321972,37.9006976,-141.1061462,-10.822183999999998,24.6403824,2.826305,-1.0163509999999998,0.1224434,-0.2345604,159.6174712,71.6160124,-51.0689292,162.88299958597864,1.0897674849041696,27.06023117604709,1.0502287001661683,121.2954992,33.7153148,90.03721700000001
819.428,26.3631368,-144.95090639999998,73.3820526,-0.6629688,0.5584212000000001,0.6593054,38.381286,34.7265978,-141.949112,-2.461301,18.9956978,6.994110799999999,-1.0271563999999995,0.1198856,-0.2349283999999999,159.537796,71.2524626,-51.0964514,164.5925450678318,1.089057150406736,20.391471830257927,1.060478279020782,121.15651,36.52586480000001,90.8526606
839.414,28.4026616,-144.4546052,75.1697692,-0.6106994,0.5713672000000001,0.6710562,38.5536774,31.5438052,-142.7174378,6.796215200000001,13.6376428,12.6089296,-1.0328118,0.1117094,-0.2420201999999999,159.245761,70.95080399999999,-51.54652080000001,165.3007512113398,1.0722549407462014,19.77773869386637,1.0666550433367106,120.6920836,39.4069988,91.170917
859.401,29.311947,-142.9644868,76.868843,-0.5556052,0.5781276,0.6770424,38.8123398,28.3694954,-143.4303102,13.3645696,9.2935658,16.7307104,-1.0340319999999998,0.1291996,-0.2373926,158.75575239999998,70.7012694,-52.3429808,164.94500218884122,1.0494355966644928,23.343066558634536,1.0687703028241942,119.9434126,42.331774,91.0873294
879.387,30.4483696,-140.8874818,78.225476,-0.5014228000000001,0.5893434000000001,0.6814541999999999,39.1537414,25.216082,-144.092569,14.8866722,5.5701834,20.7650196,-1.0276282,0.1376736,-0.2507602,158.0225524,70.4809888,-53.430875400000005,163.99881351604378,1.0310820986619058,26.15006675494869,1.0667025899829063,118.868811,45.2649068,90.6616936
899.373,30.0006662,-138.60484019999998,78.9228272,-0.4482488,0.5948900000000001,0.6805747999999999,39.5341254,22.095835,-144.7102052,15.990473400000004,1.9377578,24.3166126,-1.0000962000000002,0.1426644,-0.2533898,157.0686158,70.29064159999999,-54.7779024,162.29650135647535,1.0089614250289651,29.16758120218485,1.041514249074798,117.5344904,48.19480660000001,89.9323028
919.359,30.0404572,-136.2361788,78.7302262,-0.3825382,0.5807132,0.6663558,39.9475294,19.0185148,-145.3169954,15.517272,-0.2988586000000001,25.345399800000003,-0.9806642,0.1627136,-0.2517749999999999,155.999118,70.122151,-56.2359148,160.19105468256888,0.9631164765006984,29.719763421107817,1.025460208594951,116.0515886,51.1036362,89.08108059999999
939.345,31.3612008,-133.6368472,77.9039522,-0.3207818,0.586707,0.6505981999999999,40.4251166,15.994857,-145.9124574,11.012545,-2.1942424,24.8561714,-0.9593416,0.1898275999999999,-0.2476004,154.8080812,69.97764120000001,-57.724431,157.83332225342645,0.9329544924075772,27.274898785388014,1.0087996735192175,114.3829646,53.982784200000005,88.18802639999998
959.331,31.1772564,-131.0528628,76.0684008,-0.2660836,0.5890388,0.6445136,40.9257918,13.0385252,-146.5182436,5.9816126,-3.1962802000000003,25.8921054,-0.9409012,0.1901128,-0.2491438,153.4733582,69.829245,-59.2611452,154.7038324185164,0.9127787084936634,26.765593930606133,0.9917210182121382,112.5475664,56.7907198,87.25709839999999
979.317,29.8584748,-128.47937640000004,73.73010280000001,-0.2181074,0.5857384000000001,0.6442859999999999,41.4184738,10.158205999999998,-147.1485964,2.5356952000000006,-3.6319098,26.466893,-0.9299206,0.1960223999999999,-0.2473492,152.0615784,69.66883700000001,-60.8083322,151.11123960981092,0.8976440056978713,26.834994764599603,0.9820176833167312,110.6431046,59.510631,86.34026420000001
999.303,26.6839384,-126.2312776,70.741791,-0.183134,0.5876011999999999,0.6603114,41.8625504,7.3618696,-147.8074372,-1.3741487999999995,-2.5666048000000004,27.129065000000004,-0.9385162,0.196576,-0.2526087999999999,150.61494739999998,69.4696748,-62.31307,147.14200286441306,0.9026762305319666,27.284829354389405,0.9915976942671256,108.752397,62.1078052,85.4943672
1019.289,22.3728262,-124.1183716,67.45560320000001,-0.1527228,0.587496,0.6564232000000001,42.2430192,4.652816799999999,-148.4976074,-2.8946802,-1.070367,29.1390806,-0.931709,0.1801582,-0.2731586,149.17219540000002,69.20828259999999,-63.7900498,143.02507445859604,0.8940733868951027,29.302062678048067,0.9874989916259156,106.9291762,64.55546580000001,84.7075576
1039.275,19.826724,-121.1505386,64.57478180000001,-0.1205748,0.5791976,0.6594668,42.5910294,2.036891,-149.20636280000002,-2.8283142,1.1954692,30.487396,-0.9324718,0.1661646,-0.2897052,147.8125518,68.8824174,-65.18784639999998,138.70996515088555,0.8859484197982634,30.641635443998197,0.9904763677117392,105.2215224,66.8455264,84.01851640000001
1059.261,17.73611,-116.96049639999998,62.1589554,-0.0778596,0.5780882,0.6597062,42.921734,-0.4829617999999998,-149.8949766,-2.1408119999999995,3.9556994,29.147669,-0.9389552,0.1629822,-0.312225,146.66843260000002,68.51113439999999,-66.37611,133.6340639675592,0.8806022681153167,29.49266420478261,1.0028382300993914,103.7466986,68.9940962,83.51886660000001
1079.247,15.3281506,-112.5131728,59.1810288,-0.0465282,0.5805898,0.6654052,43.2273256,-2.8888104,-150.5727446,-1.708277,6.858160000000001,25.613307,-0.9365284,0.1571678,-0.3270704,145.82272039999998,68.1217728,-67.25923900000001,128.04905475701634,0.8843152545593229,26.570548815757988,1.0043715487405844,102.59539479999998,71.01058320000001,83.3135056
1099.233,14.5345646,-107.9879728,56.9326776,-0.0059428,0.580504,0.65493,43.5450068,-5.1963846,-151.23439939999997,-1.7009946,10.637303800000002,21.4464574,-0.928987,0.1607139999999999,-0.3428132,145.2939058,67.7069382,-67.80499239999999,122.93895076935809,0.8751877031744905,23.999919786798003,1.0031783121954143,101.748899,72.9033228,83.429407
1119.219,13.640985999999998,-103.4081312,54.82124259999999,0.0310483999999999,0.5930712,0.663522,43.869375000000005,-7.4065398,-151.8718444,-2.8405822,14.452219200000002,16.9252842,-0.9252044,0.1695688,-0.346834,145.0411042,67.2773316,-68.0283688,117.8333006307498,0.8904823950511318,22.43659493529656,1.002522111112169,101.1717292,74.6838714,83.8434756
1139.205,10.3470718,-99.71919540000002,52.02255340000001,0.0676956,0.5992419999999999,0.6594713999999999,44.1554034,-9.5230688,-152.5134308,-4.1358078,19.3671572,12.2604494,-0.9126584,0.1822536,-0.3566802,145.076767,66.8124238,-67.910095,112.94833282662294,0.8936309060464056,23.291850584657567,0.99668575532891,100.9213636,76.3354926,84.6033358
1159.191,8.4123824,-96.8116928,49.1785706,0.0960012,0.6049486,0.6619645999999999,44.4271892,-11.552146,-153.169165,-5.836612199999999,24.5372944,9.6052492,-0.8969077999999999,0.1872624,-0.3655722,145.30943299999998,66.28802959999999,-67.5396284,108.91190865421736,0.9018736999694358,26.98899165659141,0.986485601297576,100.8822438,77.8401756,85.6295366
1179.177,7.0932938,-94.4223496,47.0028586,0.1292736,0.6145607999999999,0.6493548,44.704687,-13.5142548,-153.83793020000002,-8.362145000000002,30.826725400000004,7.873575600000001,-0.8963344,0.2051116,-0.3762002,145.6840972,65.6739336,-66.95401139999998,105.71264653526242,0.9033594505160388,32.896894391673904,0.993485136052855,100.9794102,79.1881884,86.8839188
1199.163,4.4453158,-91.5867676,44.7079222,0.1704376,0.6214926000000001,0.6402042,44.9573656,-15.4075726,-154.514746,-12.8216626,36.9716408,6.5504958,-0.8893804,0.2146919999999999,-0.387634,146.1344114,64.9680276,-66.182762,102.01321061225056,0.9083850753101133,39.67626810195588,0.993655004880547,101.1770458,80.37560020000001,88.331984
1219.15,2.2878168,-88.5544938,42.4485,0.2104538,0.6181677999999999,0.6309928,45.1879702,-17.230941800000004,-155.194162,-18.0297188,43.397436600000006,5.102037600000001,-0.8808263999999999,0.2215301999999999,-0.401827,146.64219659999998,64.1652902,-65.22714920000001,98.22936236245556,0.9080606502558736,47.26985351288818,0.9931745639000223,101.4542264,81.39623200000001,89.9670128
1239.136,2.1646682000000004,-85.24035799999999,40.8788756,0.2486106,0.6256736,0.6174540000000001,45.43986,-18.9886602,-155.8642456,-23.0238762,49.0104042,3.1913106,-0.8825602,0.2280421999999999,-0.4153882,147.18768300000002,63.286258,-64.10997,94.5604932871256,0.9135229205035418,54.24300008725528,1.0017300576024062,101.747823,82.2749182,91.7542756
1259.122,0.6109858000000001,-82.0757858,39.3346534,0.2903514,0.630753,0.604033,45.6824342,-20.6857998,-156.5261658,-26.923878,54.1270576,-0.2682486,-0.8731874,0.2421133999999999,-0.427278,147.8062682,62.3499726,-62.8104424,91.01660769570252,0.920330998923735,60.45416055412567,1.001819156965128,102.123834,83.0357724,93.7157234
1279.108,-1.7032066,-78.6751922,37.278418,0.3350738,0.6262828,0.5821814,45.9009736,-22.3170256,-157.1839478,-29.1645888,58.31948620000001,-4.4662298,-0.8588304000000001,0.2486326,-0.4401918,148.52608019999997,61.37782059999999,-61.3323976,87.07678926678423,0.9183897753831104,65.35811287920946,0.9965824835577636,102.6251066,83.6948462,95.8515502
1299.094,-2.8750127999999995,-75.1705552,34.8564564,0.3794684,0.6229296,0.5608926000000001,46.118483,-23.8761512,-157.84075,-28.9331138,61.133147400000006,-8.8675972,-0.8468222000000001,0.2592932,-0.4480197999999999,149.35405580000003,60.39408960000001,-59.71932399999999,82.90868844965232,0.9201293723653649,68.21305641367586,0.9925031703582212,103.2355728,84.27024079999998,98.121426
1319.08,-4.308718799999999,-71.674701,32.175716800000004,0.4177457999999999,0.6222968000000001,0.5347432000000001,46.3338378,-25.3575526,-158.5018584,-27.4655704,61.966776200000005,-12.7119116,-0.834807,0.2667692,-0.4543618,150.25509019999998,59.4254136,-58.0384074,78.68357244514688,0.9207144783558692,68.96253770377405,0.987174340538124,103.9212524,84.7829662,100.463451
1339.066,-6.1110272000000005,-67.7993912,29.3889908,0.4600343999999999,0.6060274,0.5176724,46.5233602,-26.7587328,-159.1565154,-23.5334254,58.8686242,-14.5045556,-0.8175506,0.2671908,-0.455999,151.1622802,58.5215166,-56.4265674,74.14725133659549,0.9202638602356826,65.03629109513919,0.9735065460314072,104.63892,85.2802494,102.729948
1359.052,-7.761973,-63.2748902,26.3677662,0.4939322,0.5980366,0.4946619999999999,46.6918264,-28.0628824,-159.79926139999998,-18.95672,53.046219,-13.927224,-0.818418,0.2643406,-0.4571916,151.992163,57.7136446,-54.999809600000006,68.9870933512396,0.9199496113268378,58.027804987786126,0.9740164960835724,105.3003366,85.776527,104.7994518
1379.038,-8.6215636,-57.7905548,23.821999,0.5284842,0.58266,0.4703478,46.8322256,-29.2558226,-160.40059200000002,-14.8723418,44.4954262,-11.5648186,-0.8110312000000001,0.2582952,-0.4580642,152.66383960000002,57.032551,-53.8466632,63.09966100825462,0.9165234739025946,48.31950468068335,0.9665975527788804,105.83161400000002,86.2883736,106.5539288
1399.024,-8.1653218,-50.6895598,21.769144,0.5568408,0.5728218,0.4469314,46.9454092,-30.3107978,-160.92077639999997,-10.9020126,33.1433938,-8.809676,-0.8084292,0.2516836,-0.4577422,153.14585559999998,56.5286118,-53.006837,55.76737023841152,0.9153929032966336,35.985397351389814,0.9625125077537642,106.2004464,86.8394096,107.91393939999998
1419.01,-7.4749488,-41.7536688,19.7600546,0.5792202000000001,0.564905,0.4345221999999999,47.0145866,-31.2063388,-161.324707,-7.7037976000000015,19.892275,-5.663950600000001,-0.8140542,0.246411,-0.4596682,153.4071106,56.235093600000006,-52.5043552,46.79426755081968,0.918380771470026,22.071054314115383,0.9667975359659746,106.392524,87.4414324,108.8203518
1438.996,-7.299288399999999,-31.13827,17.318469599999997,0.5929046,0.5572366000000001,0.4161443999999999,47.0170524,-31.9110954,-161.5888854,-5.514345199999999,7.671033199999999,-3.2810034000000003,-0.8173716000000001,0.2424812,-0.4667754,153.480661,56.1380758,-52.2802996,36.37032937746644,0.9139062614579682,10.000886793233729,0.9719942072281914,106.4636086,88.04917119999999,109.3085858
1458.982,-5.072828,-18.887482,14.866187399999998,0.6023424000000001,0.5415097999999999,0.3960468,46.9678122,-32.4003418,-161.6789824,-3.7774678,-3.4858226,-1.8068358,-0.815442,0.2405474,-0.4663054,153.39779979999997,56.227239,-52.2861246,24.565709597522854,0.9016109460981716,5.448383043332145,0.9696645982399892,106.4299876,88.6275808,109.3928578
1478.969,-1.3820862,-5.4607692,11.9568958,0.6027068,0.5338293999999999,0.3965318,46.8938154,-32.664257,-161.5843962,-2.0099658,-14.159831400000002,-0.8553438,-0.816848,0.2432406,-0.4658362,153.17583340000002,56.4966604,-52.5006028,13.217318929796493,0.8974780128124811,14.327330554216791,0.9712929577747386,106.28201800000002,89.1609174,109.08379340000002
1498.954,1.355756,7.2152318,8.0606102,0.580333,0.5307397999999999,0.4172982,46.7926832,-32.701734,-161.3347746,0.0706605999999998,-23.330749,0.3675824,-0.8132664000000001,0.2429954,-0.4690535999999999,152.8339418,56.911759,-52.90896,10.902801523260491,0.8902858607864553,23.33375149096654,0.9697733144725524,106.0412586,89.613493,108.4258146
1518.94,2.6469518,18.409493,3.4765202000000004,0.5612198,0.5243064000000001,0.4374622,46.65038499999999,-32.5204162,-160.9647948,3.3033074,-30.0236976,2.0701988,-0.8093482,0.2431519999999999,-0.4684868,152.4067414,57.4227218,-53.4946968,18.92094022636244,0.8838767116639289,30.275732533279225,0.9662542552151996,105.7563564,89.943138,107.470098
1538.927,5.0052432,27.858910400000003,-0.8590267999999999,0.5392644000000001,0.5162248,0.4579803999999999,46.5027494,-32.1495258,-160.5016814,5.7064164,-34.726168,4.340114,-0.8110848,0.2426326,-0.4645153999999999,151.8809662,57.9898942,-54.2514504,28.318002669847548,0.8758083032413886,35.45851832250481,0.9656623054727568,105.3782168,90.13942,106.250231
1558.913,7.3622856,36.188588200000005,-5.2993228000000006,0.5217352,0.5190110000000001,0.4855422,46.3706236,-31.606873200000003,-159.9721618,8.1651112,-38.2341568,6.7416556,-0.8114096,0.2347776,-0.4659242,151.2748626,58.5877176,-55.160797200000005,37.30817587746347,0.8816639184070538,39.67328707511344,0.9646716646504964,104.904239,90.1945908,104.8113646
1578.899,7.4702684,42.9473856,-10.0292334,0.4996888,0.5210551999999999,0.5182584,46.218296,-30.8977642,-159.4047516,11.3882874,-40.8061502,8.975507400000001,-0.8120124000000001,0.2289154,-0.4615522,150.60840739999998,59.2011728,-56.21365519999999,44.73106708356958,0.8886952162935502,43.30582775028568,0.9616635749760724,104.3901114,90.098937,103.19109640000002
1598.885,6.247075199999999,48.498501,-14.510551,0.4857051999999999,0.5257812000000001,0.5245626,46.0413932,-30.043282,-158.8234986,14.1344876,-41.9023332,10.5868104,-0.8197624000000001,0.2246294,-0.455356,149.9052764,59.811732600000006,-57.3690704,51.00673130210421,0.8874239871105807,45.47163755313772,0.964270629301816,103.8638832,89.8550146,101.4544282
1618.871,6.4315416,53.88763659999999,-18.2542018,0.4779566,0.5189594,0.5231272,45.864489,-29.0656536,-158.22088019999998,15.992041,-42.378193,11.0380382,-0.8329792000000001,0.222301,-0.443039,149.183725,60.4231774,-58.5827484,57.25782033086234,0.8783071431519613,46.62075615641159,0.9693067820636768,103.319236,89.488831,99.6381318
1638.857,6.5772418,59.59195940000001,-21.9998938,0.4623346,0.5345190000000001,0.5306348,45.6944886,-27.9493644,-157.597101,18.9436136,-43.4601732,10.2698048,-0.8392606,0.223702,-0.4281616,148.4811494,61.055651,-59.8342408,63.8627987332077,0.8837630534759868,48.508927440525895,0.968361138847961,102.7866608,89.00501539999999,97.7628602
1658.843,4.3015304,64.1164406,-25.9046914,0.4361402,0.545209,0.536624,45.494079,-26.705600800000003,-156.97447219999998,23.0216798,-44.5077782,9.7451128,-0.8396658,0.2281514,-0.4125286,147.806357,61.7034812,-61.1373176,69.28545414100053,0.8805886923604231,51.04808796222291,0.962949408239893,102.312278,88.409082,95.8371546
1678.829,2.1580218,68.3078622,-29.721684400000004,0.4249768,0.5556124,0.5290488,45.2768532,-25.352594,-156.36247880000002,27.2638402,-44.940173400000006,9.0111628,-0.8496767999999999,0.2364447999999999,-0.3980874,147.171509,62.359381000000006,-62.4798836,74.52516098605,0.8770422181134955,53.33045305152872,0.9676416619513856,101.8946558,87.711975,93.8825952
1698.815,1.816844,73.3358894,-33.2926136,0.4108316,0.5582916,0.546018,45.057210600000005,-23.878067400000003,-155.7384034,30.870939,-45.1984926,7.807227399999999,-0.8661764,0.2449634,-0.3800907999999999,146.5806398,63.0293358,-63.8426286,80.55961591596792,0.8823875398673307,55.28898088886506,0.977106769755056,101.5234292,86.9074032,91.8957748
1718.801,1.9982098,77.4702118,-36.6649006,0.3717078,0.5912881999999999,0.5657594,44.8648026,-22.2776752,-155.1184114,34.3893254,-45.4461878,6.985881999999999,-0.8810966,0.2488531999999999,-0.3700404,146.03047180000002,63.706868,-65.229715,85.73179978718255,0.8988170685564666,57.41762999582862,0.9875165979941604,101.1656692,85.98454319999999,89.8886964
1738.787,-2.7275842,80.77976079999999,-40.6876076,0.3571586,0.5996672,0.5660722,44.6092362,-20.577638200000003,-154.5250856,37.9050706,-44.781225,6.0251906,-0.8859904000000001,0.255559,-0.3571448,145.53938599999998,64.3771928,-66.619394,90.48917550008332,0.8986660959013865,58.97843174803767,0.9888588370137572,100.9301498,84.954831,87.9056916
1758.773,-4.974892,85.5758042,-44.2917672,0.3396836,0.59663,0.5637288,44.3292008,-18.763775000000003,-153.93130200000002,38.5942292,-44.8699472,4.0887272,-0.9000228,0.2629548,-0.3387412,145.0587706,65.0688224,-68.0014574,96.48693412368016,0.888336909600406,59.32574803058905,0.9969613171735,100.7295698,83.8325974,85.9298446
1778.759,-2.6833318,89.93153079999999,-46.770079800000005,0.2908822,0.6055416,0.6162226000000001,44.0951708,-16.833005800000002,-153.322287,36.7440992,-44.3110962,2.2992588,-0.9256562,0.2635014,-0.3186449999999999,144.552246,65.7738006,-69.36119699999999,101.40177940292078,0.911604835637767,57.60979659306629,1.0138081793048428,100.4570752,82.60680640000001,83.96108999999998
1798.745,-5.270152,91.9700166,-49.648285,0.2354642,0.6378864,0.6345664,43.844266,-14.813559,-152.74289259999998,35.701700200000005,-40.848521,1.8608324,-0.9265352,0.2531005999999999,-0.3116346,144.09648120000003,66.42266079999999,-70.6379914,104.64803227461378,0.9300628821727916,54.28329174137297,1.0097739917806163,100.2522152,81.23621979999999,82.1049012
1818.731,-13.245625,94.8837266,-53.0657434,0.222491,0.6210232,0.6126736,43.459295,-12.7079248,-152.1887178,34.4640004,-37.635818,-0.1013014,-0.9181826,0.250805,-0.3002251999999999,143.7341002,67.0367432,-71.78025219999999,109.51868004015944,0.9003005054737001,51.031680180785415,0.9980468955328704,100.2748052,79.744668,80.4084656
1838.717,-9.909171,99.5120728,-54.6428582,0.1796372,0.5950126,0.629424,43.1407472,-10.5050386,-151.6084108,29.644931199999995,-35.4876784,-1.3886958,-0.932871,0.2543972,-0.2789494,143.3245574,67.6335052,-72.86108240000002,113.95914292028108,0.8845813074888029,46.261493059557615,1.006369219406675,100.1838102,78.13854380000001,78.7473284
1858.703,-3.5664240000000005,101.4474594,-55.6157594,0.1067531999999999,0.6219818,0.6963426,42.9637216,-8.241032,-151.0273074,25.5454,-31.7617752,-1.2697754,-0.9403232,0.2449049999999999,-0.2766833999999999,142.909259,68.16561440000001,-73.85679,115.74722066858068,0.9397609386520808,40.77977629391535,1.010316724259675,99.9455374,76.4066464,77.1705174
1878.689,-9.5372358,101.9097502,-58.7075502,0.0651371999999999,0.6510936,0.6875043999999999,42.7125588,-5.9254768,-150.4996402,24.8715932,-26.1577518,-2.6151408000000003,-0.9305652,0.233154,-0.2853766,142.701062,68.61580219999999,-74.6155684,117.99632410807008,0.9491196082708228,36.189267593314376,1.0008757080649924,99.9885032,74.541279,75.88407179999999
1898.675,-13.2153102,103.7908842,-61.3747934,0.0455931999999999,0.6055826,0.6550502,42.4058778,-3.5559248,-149.998221,21.297639600000004,-23.4244008,-5.609663200000001,-0.942406,0.2362066,-0.271347,142.59866040000003,69.0609742,-75.1800734,121.30151413561464,0.8932523662599725,32.152143421364045,1.008737736544321,100.1927826,72.61689900000002,74.81814759999999
1918.662,-5.935725600000001,107.1497146,-61.8425888,0.0041631999999999,0.5995482,0.6932834,42.2536478,-1.133484,-149.4690034,16.022969600000003,-21.0399132,-8.816569000000001,-0.9534174,0.2369324,-0.2526138,142.57537259999998,69.5122436,-75.543823,123.85798305618349,0.9165791013726202,27.877327547629445,1.0143744046174272,100.3217248,70.6457276,73.92518039999999
1938.648,-4.187963800000001,107.3618942,-64.1748994,-0.0796872,0.6441627999999999,0.7521189999999999,42.1668108,1.3373376,-148.97798160000002,12.6920578,-18.0005108,-11.0067346,-0.954014,0.2185068,-0.2585064,142.6973666,69.94049079999999,-75.6839812,125.15004226927864,0.9934680432246824,24.622244552727004,1.012281330798509,100.5305558,68.6031532,73.29400039999999
1958.633,-12.153148600000003,106.2011902,-67.2427772,-0.1093074,0.6371568,0.7146184,41.9469904,3.8269706,-148.5531676,9.983972400000004,-12.4637204,-12.2239532,-0.9503564,0.204594,-0.2655918,143.0214938,70.2920548,-75.5529418,126.2853234004613,0.9636370442752604,20.11091899762734,1.0077574093422486,101.0745034,66.4650842,73.0002258
1978.62,-13.313327600000004,107.5954422,-68.848896,-0.1293242,0.5949854,0.6621124,41.7222872,6.3521314,-148.14142740000003,5.747842400000001,-9.3739168,-13.2354508,-0.9558618,0.2159431999999999,-0.2488865999999999,143.37977619999998,70.6073136,-75.29129780000001,128.4297253536629,0.8995138715731738,17.207125451619763,1.0110627013123563,101.657489,64.25518220000001,72.8501296
1998.606,-7.884808800000002,111.3546448,-69.3503776,-0.1724758,0.5925076,0.6936844,41.624142600000006,8.9397578,-147.69290139999998,1.2260722,-7.331553599999999,-14.6404892,-0.95776,0.2137634,-0.2462308,143.7880556,70.9047334,-74.88083040000001,131.4210865942346,0.9284455850758084,16.419465741753065,1.0117453314190288,102.163913,61.9649756,72.812071
2018.592,-6.3970996000000016,111.5709396,-71.2778718,-0.27182,0.6330612,0.7534278,41.5760424,11.574007599999998,-147.270535,-2.4511492,-5.4725352,-13.206478800000005,-0.9637862,0.1835341999999999,-0.2456273999999999,144.16813059999998,71.1574618,-74.42704180000001,132.55011299450635,1.0209339083203577,14.504063437904192,1.0113859112677217,102.5920882,59.58345419999999,72.8434932
2038.578,-18.106685,109.9906006,-73.04611059999999,-0.303743,0.6200268,0.7051702,41.304989,14.2170906,-146.899243,-2.4811012,0.1585315999999998,-13.1567316,-0.9652876,0.1708734,-0.2551302,144.7730774,71.3139254,-73.73782220000001,133.27234722861817,0.986893131871572,13.389569889555023,1.012950782858358,103.46808839999998,57.0968348,73.1614208
2058.564,-18.2257836,112.3330428,-73.0299714,-0.3112992,0.5515190000000001,0.642725,41.0497018,16.904438199999998,-146.5052612,-3.147111,0.1025167999999999,-16.1416702,-0.9704684,0.1848804,-0.2335954,145.46903379999998,71.50763420000001,-72.93365200000001,135.2193344726466,0.9023169204368496,16.445921506141616,1.0151632817452965,104.419332,54.603196,73.57160920000001
2078.55,-7.003783600000003,116.6112412,-71.0409112,-0.380647,0.5553980000000001,0.6845112,41.0616448,19.6401346,-146.02044080000002,-9.4257328,-2.7127076000000003,-15.4449642,-0.9624592,0.1634476,-0.2325208,145.94265140000002,71.7426622,-72.2345538,136.7261702200661,0.9601638713982316,18.29617830256841,1.0035480815800706,104.8810066,52.10252760000001,73.785887
2098.536,-4.667108000000002,116.056398,-70.2798822,-0.4864936,0.6098366000000001,0.7211048,41.1546524,22.3696716,-145.516553,-11.4273752,-5.1352796000000005,-12.761785400000004,-0.969317,0.1343154,-0.246937,146.22134100000002,71.987523,-71.7045748,135.75761951310113,1.0623412041917415,17.883488673281967,1.0092541578488343,105.0666886,49.6178514,73.8119782
2118.522,-14.427842000000002,114.8079392,-69.8805748,-0.5014082,0.5759862,0.6721498,41.0718132,25.0662114,-145.01675140000003,-7.543386600000001,-5.6954516,-12.6068634,-0.9776134,0.137763,-0.2535444,146.5632904,72.2385864,-71.190532,135.17514661544206,1.017327695119778,15.756708257477566,1.019309259645923,105.4914772,47.172375,73.8262194
2138.508,-11.3911904,116.5293258,-68.0967658,-0.5321796,0.5381606000000001,0.616288,41.0867448,27.7528282,-144.4582094,-6.908652399999999,-8.8073166,-14.7102866,-0.9641534,0.1590495999999999,-0.243981,146.89383859999998,72.5551422,-70.699211,135.447452920133,0.9760342499075122,18.484881269047985,1.007181851679586,105.8070938,44.802314,73.75899840000001
2158.505,-5.6336862000000005,119.2717178,-66.0721854,-0.5960748,0.5626945999999999,0.6408828,41.2885926,30.458915,-143.8012178,-9.8045274,-12.44684,-12.5261246,-0.9757052000000002,0.150534,-0.252613,146.9566408,72.9060912,-70.43116599999999,136.46616712832113,1.040510040028466,20.197930117159927,1.0190556659143015,105.6680482,42.4471762,73.37005180000001
2178.48,-6.236383200000001,119.2613082,-65.3286008,-0.6638548,0.5813136,0.6863528,41.5304666,33.1399258,-143.0999208,-6.975946400000001,-15.340608400000002,-12.6010906,-1.012603,0.1380231999999999,-0.2507368,146.9888398,73.3122634,-70.255638,136.12486250306517,1.1179037807860923,21.042470828475253,1.052275715875587,105.4583732,40.172337600000006,72.8442828
2198.466,-11.683597,115.611682,-64.8621136,-0.6985596,0.5641366,0.6622049999999999,41.6742892,35.7519396,-142.4210236,-0.857883,-15.6540324,-12.9044412,-0.9909668,0.1340077999999999,-0.2594071999999999,147.1240418,73.72480300000001,-70.0978392,133.07765114543778,1.115684131032041,20.305400668447696,1.0330853713875343,105.4497526,37.9728634,72.3231844
2218.452,-11.586313,113.2185148,-63.8022076,-0.7101962,0.5106617999999999,0.5606593999999999,41.846743200000006,38.311348,-141.7356232,3.4111816,-17.578467,-11.714170800000002,-0.9540458,0.1588914,-0.2602634,147.15907,74.1402282,-70.1298934,130.47373849585702,1.038986563571464,21.39767416122229,1.001592183910777,105.3123268,35.8288802,71.6057298
2238.438,-2.0636274,113.8377578,-60.6497778,-0.7485882,0.5020008,0.5638318,42.3111024,40.8395272,-140.932663,3.5848642,-19.7195828,-7.912834399999999,-0.9665738,0.1253638,-0.2560868,146.9624634,74.5609206,-70.4124664,129.0026713140734,1.0631535143482902,21.54822835827393,1.0077506846096014,104.651361,33.7213934,70.52019659999999
2258.424,-0.8849544000000001,111.7538926,-58.6890174,-0.8225058000000001,0.5455278,0.6318569999999999,42.8678056,43.27949,-140.0662812,8.823573,-21.1031342,-6.9419482000000015,-0.9919688,0.106237,-0.2465056,146.764862,75.0024002,-70.8060592,126.23041004021144,1.1719042793912309,23.90373105523533,1.0276445938036167,103.89705640000004,31.7229102,69.260222
2278.41,-11.087036800000002,105.1922258,-58.255107800000005,-0.8371397999999999,0.5326006000000001,0.5714438,43.2249154,45.608652600000006,-139.24471739999998,16.9892272,-19.4033874,-6.148905400000001,-0.9704578,0.1213239999999999,-0.2590856,146.7204468,75.38984680000002,-71.20806739999999,120.7558873867124,1.1449953975553089,26.512908574236963,1.0117475983090842,103.4955314,29.7811942,68.03665
2298.397,-12.658265200000002,102.700812,-55.4107002,-0.8367302000000001,0.4749279999999999,0.5024222,43.604364,47.862320800000006,-138.3712066,18.876803,-19.4940844,-6.018435600000001,-0.95967,0.1387762,-0.2446594,146.692865,75.76460879999999,-71.6310334,117.37987118747044,1.0854041182107612,27.795225941993703,1.0000417814245564,103.088501,27.902288,66.7401732
2318.383,-7.716497799999999,101.8448504,-51.0668702,-0.8525121999999999,0.4927168,0.4928905999999999,44.212297,50.0394946,-137.35398560000002,16.3698348,-19.3844264,-5.714519200000002,-0.9855998,0.1065583999999999,-0.2324132,146.6412536,76.148471,-72.0299576,114.1916946337142,1.1011303463802276,26.00736833905877,1.0182227427752926,102.4289566,26.1089764,65.324028
2338.369,-8.8971394,100.4539004,-48.8749024,-0.874574,0.5003206,0.5061658,44.915036,52.147711400000006,-136.2214844,19.336757,-21.7495024,-5.115573400000001,-1.0021478,0.120057,-0.2143016,146.433606,76.56745140000001,-72.64741819999999,112.06650382556636,1.1275656084459122,29.548606010020883,1.0318134870490887,101.51857,24.41974,63.5740662
2358.355,-12.1344468,97.1170182,-46.4562622,-0.8887425999999999,0.4834156,0.487853,45.662558,54.169663400000005,-134.9949492,21.003122,-22.773686,-2.966800600000002,-0.9973332,0.1370496,-0.1984646,145.9601076,76.9744522,-73.5680312,108.33810188846908,1.1231894768858548,31.121918539409496,1.0260820153065542,100.2975496,22.8047888,61.426918
2378.341,-11.807774,92.8790818,-43.312980800000005,-0.9009134,0.4521976,0.4515542,46.4776542,56.082959800000005,-133.7146422,19.731776,-22.841225200000004,-1.8793064000000013,-0.9683404,0.1495323999999999,-0.1947446,145.32323920000002,77.3696198,-74.628314,103.15988400840384,1.1045491475180993,30.24229398204396,0.9989837476911624,98.845585,21.28666,59.0863282
2398.327,-10.6413926,90.3483736,-40.3631264,-0.8796968,0.4256402,0.380281,47.430497,57.9028876,-132.3224792,15.177992800000002,-22.897623600000003,-0.7218792000000015,-0.977229,0.13839,-0.1692159999999999,144.4608826,77.76382459999999,-75.82525619999998,99.52512155940774,1.048641825766682,27.48078859027742,1.0013802300809618,97.0303856,19.860937,56.497223
2418.313,-6.8658338,89.1956956,-37.7059654,-0.9248646,0.4144888,0.4023436,48.630712200000005,59.6570874,-130.7568466,12.792763,-24.172402400000003,-0.1251088000000014,-0.9871506,0.1307268,-0.1639486,143.39757079999998,78.1711932,-77.17888020000001,97.08115993375375,1.0904383825414254,27.349140300446965,1.0091753795850154,94.7668586,18.514105800000003,53.5779664
2438.299,-6.754239,83.9786012,-35.0011618,-0.9518636,0.4280408,0.398428,49.931559,61.2685948,-129.108957,10.5446284,-24.1638106,0.4132543999999986,-0.9815958,0.1283228,-0.168766,142.1825104,78.5604616,-78.6410308,91.23106122000084,1.117142833595418,26.36758824780678,1.004230560346318,92.2509514,17.2918668,50.4679262
2458.285,-8.1935948,78.4612292,-33.230358,-0.9491134,0.4007934000000001,0.3250374,51.2532806,62.7572362,-127.4306108,9.2819264,-22.6288848,-0.2113490000000014,-0.9641052,0.1533752,-0.1729468,140.96131580000002,78.9122484,-80.08036340000001,85.60114588093833,1.080324445220916,24.45946142879048,0.9914299694241244,89.7080352,16.155012199999998,47.3502474
2478.271,-4.322615599999999,76.1420374,-30.5678884,-0.9471426,0.3773284,0.2786,52.8017578,64.1662214,-125.6076632,4.612658,-22.2611542,0.4785823999999986,-0.9789876,0.1400856,-0.1538566,139.5414458,79.242154,-81.62559660000001,82.16258677940476,1.0569171141491276,22.739055416941387,1.0008559085326318,86.73968799999999,15.075932600000002,43.9820666
2498.257,0.5908398000000006,74.0601662,-28.6813994,-0.962664,0.3826432,0.2923928,54.61405559999999,65.5039214,-123.622771,4.497809200000001,-22.2908708,2.109903999999999,-0.9923578,0.1363924,-0.1487785999999999,137.9227446,79.5461258,-83.36975079999999,79.42216303263974,1.076397391716498,22.83779550462595,1.012675644921196,83.30868899999999,14.042204400000005,40.2530202
2518.243,0.5243006000000007,69.08170559999999,-27.3350658,-0.9787724,0.385252,0.291952,56.4722518,66.7222458,-121.6150638,5.6095462,-20.5636438,2.778915999999999,-0.9790122,0.1481262,-0.1479962,136.3079192,79.8008864,-85.1305724,74.29510590889927,1.0916274478088943,21.49541413972452,1.001153901300754,79.8356674,13.0786406,36.4844914
2538.229,-1.0804015999999992,62.616027,-25.8016434,-0.9737276,0.3584674,0.2611104,58.2591072,67.82259839999999,-119.682857,5.502689599999999,-17.420650600000002,2.7034963999999984,-0.9643494,0.1477546,-0.1514048,134.89110999999997,79.99917740000001,-86.68707260000001,67.73225898360968,1.0699639979236124,18.46801432060419,0.9872814191326402,76.6320028,12.176579,32.995784400000005
2558.216,1.910957400000001,55.7600554,-23.5595646,-0.9685436,0.340824,0.2231274,60.04402,68.79722919999999,-117.8491184,4.7173918,-13.467902,1.9570711999999983,-0.9470341999999998,0.1258336,-0.1600636,133.8506896,80.1430754,-87.8456648,60.56309619345148,1.0507252451082156,14.40375983409126,0.9686734366666404,73.80666959999999,11.345846200000002,30.0034536
2578.201,3.8304332000000008,49.4458868,-21.2053894,-0.9787306,0.3471054,0.2122694,61.7881576,69.6419496,-116.1242298,5.9408298,-9.184805200000005,1.3780473999999987,-0.9552822,0.1252372,-0.1592676,133.214267,80.23223399999999,-88.6176726,53.937338454392695,1.059931150717763,11.025113147317894,0.9765319279524044,71.4261094,10.590284400000002,27.5065572
2598.187,1.9470078000000008,41.641312000000006,-18.6984846,-0.9979508,0.3526762,0.2315036,63.2778174,70.3393038,-114.651224,6.8897706,-4.533846600000001,-0.2610632000000015,-0.9563114,0.1325219999999999,-0.1676268,133.1060394,80.272183,-88.8714568,45.68832488493141,1.0834575294306832,8.251839668058885,0.9798940342364576,69.82822200000001,9.932879200000002,25.7797672
2618.173,0.2708748000000007,31.493030200000003,-16.246203400000002,-0.9972252,0.3499342,0.2303862,64.3652572,70.8836962,-113.5806826,4.701483999999999,0.6579397999999987,-1.8223678000000012,-0.9568604,0.1345014,-0.1758328,133.5182586,80.2575788,-88.5515196,35.43759937198849,1.081660688476345,5.08506253463582,0.9821352377579984,69.1530014,9.373882600000002,25.029163000000004
2638.159,-1.539399799999999,21.443025,-14.058396599999998,-0.9895932,0.356963,0.2131532,65.02011239999999,71.2885256,-112.9343324,1.8396164,6.051446399999999,-3.5015988000000013,-0.9588456,0.149855,-0.1782735999999999,134.4061158,80.1828642,-87.68799279999999,25.68679792924288,1.0733832360929996,7.229480353897046,0.9867233057556308,69.3860034,8.894338599999998,25.2463396
2658.145,-5.3322818,12.453031,-11.432297600000002,-0.9888928,0.3635796,0.2207432,65.2029464,71.557274,-112.7056764,-2.5923712,9.773192599999998,-4.698439200000001,-0.9667564,0.1498958,-0.1666886,135.547757,80.0760252,-86.4745484,17.725931250474208,1.076488112230804,11.149484873812815,0.992407062232308,70.3448106,8.518751199999997,26.231128
2678.132,-9.2842192,2.5809538000000005,-8.383180200000002,-0.9907438,0.3724084,0.249906,64.83426060000001,71.6749544,-112.9724122,-6.5335774,13.108865199999997,-5.832624200000001,-0.9656472,0.1431896,-0.1681174,136.9392364,79.9358976,-84.9263108,12.772460958525382,1.0875266904609744,15.765452278066348,0.9905762144321656,72.10497579999999,8.260943199999996,28.0461014
2698.118,-11.9458016,-8.1700716,-5.1786348,-0.9888314,0.3832982,0.261771,63.9220758,71.6301346,-113.7553742,-9.696564,15.974263799999996,-6.768437200000001,-0.9688156,0.1469678,-0.1634008,138.48763739999998,79.763191,-83.15207380000001,15.37109313638624,1.0923502662562956,19.87491382342148,0.9934299283194764,74.5655616,8.133056399999996,30.603300399999995
2718.104,-13.8111392,-17.5107204,-1.8482862,-0.98636,0.3899906,0.2605154,62.6016312,71.4338348,-114.9267226,-12.1886758,16.906575999999998,-6.456635600000001,-0.9821434,0.150543,-0.1511344,139.9348146,79.5722686,-81.4274216,22.378316666046693,1.0921845042507792,21.819355468768297,1.0050425164518764,77.33318340000001,8.138433799999996,33.49930099999999
2738.09,-13.8755894,-25.781271800000003,2.1366396,-0.9941788,0.3892736,0.2810446,60.9887888,71.0794768,-116.39683519999998,-13.3652892,16.278426599999996,-5.265492000000001,-0.9957094,0.1377912,-0.1414848,141.1654878,79.3812942,-79.8980926,29.355939528537597,1.1040432460803151,21.710447576530708,1.01510668044144,80.17669900000001,8.3018174,36.4987426
2758.076,-13.614041599999998,-34.72217,6.419489799999999,-1.0037004,0.3948402,0.3038481999999999,59.1202448,70.546707,-118.1361432,-13.494600600000002,15.431896599999998,-3.9682456000000017,-1.0018204000000002,0.1340736,-0.1483844,142.20141,79.18378279999999,-78.5640426,37.84416820974844,1.1205520983601966,20.88048493614388,1.0215859113341768,83.0811652,8.6370758,39.5721006
2778.062,-13.5263484,-43.6850224,10.6687462,-1.0049586,0.3896402,0.3100224,57.068281,69.83230719999999,-120.07476160000002,-13.5888122,13.9154522,-3.1298492000000016,-1.0061332,0.1344888,-0.1504802,143.0224458,78.9973388,-77.4462996,46.95918896879182,1.1215503384475258,19.700040176408127,1.0261752014445291,85.95416479999999,9.1650316,42.628462
2798.048,-12.589997599999998,-52.6584154,15.1773248,-1.0088136,0.3907672,0.3228924,54.931251,68.923416,-122.1287366,-14.5279438,12.344718399999998,-2.2855664000000013,-1.0019098,0.1287048,-0.1603828,143.6491578,78.8214402,-76.507994,56.22960021280303,1.129009914092237,19.20096448619355,1.022795588284834,88.7179068,9.8980242,45.6207426
2818.034,-12.773145199999998,-62.35601899999999,19.8045454,-1.0118846,0.3963268,0.3471082,52.7173938,67.80079479999999,-124.2743224,-14.3931378,11.573650799999998,-1.7615078000000015,-0.9921572,0.126044,-0.1722132,144.1847076,78.645781,-75.66570579999998,66.660680782072,1.1408196521022245,18.553024505443588,1.0148499326018996,91.4673138,10.844986200000005,48.6086166
2838.02,-15.0478876,-72.6137964,24.353673,-1.012253,0.3936286,0.3641478,50.4308306,66.45826559999999,-126.470073,-14.9183084,11.611310599999998,-1.416967600000001,-0.982344,0.1227046,-0.1808058,144.677487,78.4615724,-74.856372,78.05321093609035,1.145514395802951,18.95748550168594,1.0063532632782586,94.2466564,12.003306800000002,51.61370099999999
2858.006,-17.250740599999997,-82.99166500000001,28.9056364,-1.0174618,0.3837234,0.3792466,48.1303674,64.893669,-128.657654,-15.586501800000002,12.294405799999996,-1.8557078000000016,-0.9746772,0.1106215999999999,-0.1889416,145.24202259999998,78.2705964,-73.96090380000001,89.55858600050428,1.1516510520892862,19.938282367733127,0.99896532011725,97.1116552,13.376927400000003,54.6967502
2877.992,-17.341326599999995,-93.7536516,33.616715799999994,-1.0211776,0.383175,0.3959568,45.9078468,63.092884000000005,-130.7851854,-16.3680446,13.577724999999996,-2.4618116000000017,-0.9621082,0.1047759999999999,-0.203303,145.90965260000002,78.05849780000001,-72.94445019999999,101.09674761217605,1.1603484643989497,21.40859679094145,0.9889197684808612,100.0018058,14.965613800000003,57.8407352
2897.978,-15.830376199999998,-104.2115022,38.4280958,-1.0272017999999998,0.385429,0.4200396,43.837775400000005,61.05662220000001,-132.805594,-17.789554200000005,15.0663698,-2.7217194000000013,-0.957828,0.1114977999999999,-0.2118786,146.6055358,77.817511,-71.868611,112.19338905759156,1.174790329178956,23.47065176081453,0.9872987279070098,102.7677604,16.760888800000004,60.936982999999984
2917.964,-13.4667162,-114.4803482,43.4785714,-1.0343913999999998,0.3858207999999999,0.4515247999999999,41.96077340000001,58.7857658,-134.6964294,-21.2072854,17.135066199999997,-2.428215200000001,-0.9580146,0.1139892,-0.225042,147.284201,77.5316208,-70.73944700000001,123.19695101823535,1.1927690066067442,27.372535081225973,0.9906711933299566,105.3234276,18.74585500000001,63.9569824
2937.95,-10.966013199999995,-124.2549896,48.708677,-1.0323166,0.3866912,0.4807465999999999,40.2999404,56.2867446,-136.4347502,-25.6827096,19.3422364,-2.657873600000001,-0.959994,0.1067858,-0.2361394,147.97789,77.208139,-69.5027772,133.9107579736931,1.2026325042192068,32.26124568929405,0.9943608516781018,107.6779496,20.921394400000004,66.931973
2957.936,-8.594102399999997,-132.7897324,54.29109659999999,-1.021834,0.3947438,0.5305632000000001,38.8689132,53.569045200000005,-137.99447300000003,-30.3695848,21.389484,-2.828959800000001,-0.967861,0.098769,-0.2373876,148.6469024,76.85438839999999,-68.1940828,143.71671717985984,1.2171543453435476,37.25351956876911,1.001430528452054,109.7779892,23.2853432,69.8003902
2977.922,-8.2673782,-140.5755814,60.166053,-1.0071702,0.4076633999999999,0.579939,37.633094,50.643756,-139.3670866,-34.304066600000006,24.043404,-3.8074520000000014,-0.9773486,0.0852036,-0.2371444,149.3795624,76.46962119999999,-66.73770320000001,153.1332673257143,1.231629206859191,42.0636535733257,1.0093103614975325,111.7464684,25.8258652,72.6293834
2997.909,-8.736638999999998,-147.351764,65.4636558,-0.9764358,0.4170242,0.6059791999999999,36.5669082,47.542305,-140.5606504,-37.0958012,26.451298599999998,-5.335510600000002,-0.9887747999999998,0.0773888,-0.235502,150.2057006,76.062111,-65.1253474,161.47557538410845,1.2225166034618589,45.8719667951898,1.0193752123160928,113.6387924,28.519806,75.435303
3017.895,-6.693899999999999,-152.37375820000003,70.691018,-0.9280878,0.4265468,0.6220929999999999,35.717539200000004,44.2965348,-141.57079760000002,-37.1911336,27.7904722,-6.857252800000002,-0.9970192,0.0742738,-0.2352911999999999,151.1198974,75.6473648,-63.41759979999999,168.10648563062162,1.1959468373418944,46.93093520818789,1.0270958238317007,115.4023582,31.35083,78.1531978
3037.881,-3.650403799999998,-156.6368624,75.83835,-0.8878644,0.4610506,0.6655522,35.085767399999995,40.9144708,-142.4147948,-34.57816559999999,28.0452092,-7.136244200000002,-1.0045438,0.079125,-0.2289705999999999,152.02754520000002,75.23273619999999,-61.766913,174.06862853812024,1.201595014750211,45.09001304740132,1.033342415372465,116.9417778,34.3182654,80.6478818
3057.867,-1.7672333999999985,-160.676462,78.57644660000001,-0.8174544000000001,0.4675432,0.664454,34.5966492,37.4369894,-143.1628632,-28.2469608,26.691179,-6.0536872000000015,-1.0049902,0.0977674,-0.2227344,152.8447602,74.8307358,-60.3361094,178.86952371773725,1.1525308924543411,39.33137373093167,1.0340088875547249,118.248111,37.3937464,82.8267538
3077.853,6.083991400000001,-163.5155154,80.9733568,-0.7476119999999999,0.484295,0.6800522,34.350849999999994,33.8843402,-143.83530880000004,-21.1956026,23.0659082,-2.485228400000002,-1.0016942,0.1291903999999999,-0.2107321999999999,153.32813119999997,74.4583618,-59.3910746,182.56785927249905,1.1206856581101767,31.423972550715487,1.0317409994192537,118.97728120000002,40.5740216,84.44423420000001
3097.839,14.183332000000002,-165.98257159999997,82.8706438,-0.6779548,0.5063344,0.710091,34.3290924,30.2641668,-144.46262819999998,-13.0389276,18.8300994,3.6049521999999983,-1.0123794,0.1429842,-0.206465,153.3967042,74.1077102,-59.043686,186.0616150241576,1.1046386122834018,23.18581369579698,1.0430648720089273,119.06761179999998,43.8435434,85.4189422
3117.825,20.716753800000003,-168.2546112,84.08884900000001,-0.6093594,0.5185592,0.7309412,34.4737472,26.5922478,-145.079132,-4.9670064,14.515669999999997,9.390581999999998,-1.0207856,0.1439339999999999,-0.1968364,153.1119782,73.7888076,-59.23111719999999,189.23459674229176,1.0837423864232865,17.987741893446906,1.0495069346547072,118.638231,47.1965598,85.84801480000002
3137.811,26.785839200000005,-168.9438538,85.4471848,-0.5199632000000001,0.522539,0.7430711999999999,34.7715332,22.8905626,-145.6865966,2.9140934,9.018512999999995,15.205827599999996,-1.0347562,0.1482538,-0.1892744,152.4566864,73.51975999999999,-59.968885,191.2085989402396,1.0466917139944694,17.91766474951505,1.0623202818115824,117.68515320000002,50.6291974,85.7177116
3157.797,31.200265,-168.6740082,87.2615038,-0.4503,0.5442132,0.7644678,35.2029366,19.169365000000003,-146.266693,5.933742999999999,3.5925763999999973,21.065765,-1.0397802,0.1557198,-0.1756864,151.3463562,73.2938872,-61.2443084,192.45505351577887,1.0408405806323464,22.178421184004755,1.0659536723371423,116.1434196,54.1245222,85.0223846
3177.783,30.7540518,-167.4450042,88.41604320000002,-0.3702464,0.5436592,0.7600748,35.6599602,15.454624999999998,-146.8281096,6.500615999999999,-0.9728196000000026,23.5296388,-1.046253,0.1491408,-0.16824,149.99342040000002,73.1255218,-62.7874174,191.83596594173724,1.005167361215355,24.4304786775058,1.0701369145271271,114.3334602,57.6708968,84.0406922
3197.769,30.5943114,-165.1031676,89.4233796,-0.2971182,0.5424298000000001,0.7386018,36.156644400000005,11.770165,-147.375891,4.31819,-4.669612600000002,22.874528,-1.0210424,0.1639046,-0.1613296,148.5140596,73.0157302,-64.41615440000001,190.24092267616757,0.9633493300265072,23.74228459801126,1.0466229217512295,112.3574152,61.2455652,82.9597366
3217.755,29.170272,-161.5217194,89.8560166,-0.2142934,0.5385380000000001,0.7295864,36.657428800000005,8.1316348,-147.9061706,-0.4056504000000004,-7.596225800000002,22.7212504,-1.0023822,0.172993,-0.1542754,146.8619296,72.9470718,-66.1265952,187.12101518991872,0.931794587767347,23.96085178767871,1.0288331020972254,110.2045008,64.815437,81.7795754
3237.741,26.9793362,-157.8290406,88.4785034,-0.1500402,0.5355672,0.6991804,37.1482276,4.574706600000001,-148.4393586,-5.9532422,-9.088508600000004,21.767602,-0.9810294,0.1920098,-0.1578172,145.1046726,72.8907394,-67.83017420000002,182.93806657558423,0.8934190053250716,24.328390372043497,1.0120240686743769,107.956445,68.3160328,80.60918439999999
3257.727,25.729584400000004,-153.6706238,86.5766494,-0.0924352,0.5347430000000001,0.6895854,37.6452002,1.1127332,-148.9795074,-9.2230754,-8.801046200000004,19.4734302,-0.9767118,0.188457,-0.167819,143.4630924,72.8363372,-69.347055,178.2475479601567,0.8775091829383895,23.275266224103465,1.008784019435895,105.8178922,71.723604,79.6324524
3277.713,23.816969800000003,-149.4181854,83.53215639999999,-0.0429534,0.5280982,0.6606558,38.1392698,-2.2384624000000004,-149.5382934,-10.2264248,-7.486005600000003,19.5977436,-0.9684818,0.1993308,-0.1837752,141.8798984,72.73549779999999,-70.7833832,172.83131467276684,0.846875899697494,23.338628885275742,1.005715212619815,103.7406286,74.97396020000001,78.7549102
3297.699,24.1472402,-143.98078,80.3070786,0.0175302,0.5056404,0.6504914,38.6563766,-5.470242600000001,-150.1137938,-10.605692,-5.848734800000004,21.338314399999994,-0.9696584,0.19113,-0.1900147999999999,140.32699300000002,72.57721080000002,-72.18389440000001,166.62167053523223,0.8240865145712313,24.535934116981203,1.006416272627584,101.6706164,78.04745340000001,77.9298994
3317.685,23.3169126,-138.3735244,75.7880586,0.0459978,0.5173954000000001,0.6420222000000001,39.1927504,-8.5407444,-150.7079924,-9.2100926,-3.616859200000003,22.397094,-0.9737946,0.1930203999999999,-0.2085792,138.9047822,72.35507179999999,-73.4804154,159.48272788747525,0.825836728923363,24.48545069664913,1.0144151420784095,99.7120318,80.8958162,77.227577
3337.672,19.839596,-132.48515460000002,70.5078104,0.0793568,0.5045466,0.635863,39.6857414,-11.4409998,-151.34328580000002,-7.677973,1.550505799999997,22.591047,-0.962673,0.1747792,-0.2239634,137.8028808,72.0470182,-74.47883759999999,151.3845338409161,0.8155896811796971,23.910473482990074,1.003716433172836,98.1171394,83.488018,76.8644482
3357.658,18.7333366,-125.7913894,65.816749,0.1112784,0.4863285999999999,0.6238188000000001,40.184462,-14.1737766,-152.00069860000002,-6.806329600000001,7.485939599999997,21.5405244,-0.9411716,0.1773682,-0.2524538,137.0700012,71.6485534,-75.11158739999999,143.20005585292324,0.798779246549358,23.798310985145136,0.9904526137843443,96.8855392,85.82233,76.8891112
3377.644,18.93449,-118.2656814,61.4403284,0.1448162,0.4895956,0.6229476,40.7121034,-16.727420000000002,-152.6611968,-7.8080452,14.619890599999996,19.4870852,-0.9300366,0.1674162,-0.2701754,136.7486022,71.1691284,-75.2934982,134.61129322039162,0.8054435397143366,25.582284116029797,0.9828484156405604,96.0364988,87.8965484,77.36769860000001
3397.63,14.787879,-110.8289018,56.139589,0.1784876,0.4960566,0.6148966,41.187626,-19.0943374,-153.3353638,-9.4433426,22.0487876,15.252174799999995,-0.9217554,0.1740198,-0.2914685999999999,136.8861144,70.6286194,-74.9568556,125.11346966894337,0.8099554323843257,28.424542040649367,0.9822778899105692,95.6984884,89.72295679999999,78.37850820000001
3417.616,12.6337102,-103.3528658,51.281063,0.2184959999999999,0.4905022,0.6035842,41.6404856,-21.2853698,-154.0143952,-12.8577392,29.6366262,9.6483722,-0.9033052,0.1855516,-0.309612,137.4603026,70.0408418,-74.08327019999999,116.06538211241264,0.8078655808428034,33.7156070086759,0.9727534482866662,95.819817,91.3262116,79.931125
3437.602,12.9845554,-95.8192706,46.677829,0.2588926,0.4930241999999999,0.5950194,42.1217012,-23.3035324,-154.69035359999998,-17.7901396,35.6704248,4.236852799999999,-0.8951366000000001,0.1993687999999999,-0.3299632,138.3258972,69.421892,-72.7905914,107.37202157640944,0.8149517326178035,40.08514929557842,0.9746246274475318,96.204196,92.7254244,81.89976220000001
3457.588,11.8209588,-88.4498904,41.480912,0.3098735999999999,0.5068596,0.5757256,42.6084222,-25.1466602,-155.3719668,-21.9550782,41.653062,-0.709842800000002,-0.8913601999999999,0.2103816,-0.3403281999999999,139.4319366,68.7669404,-71.1445588,98.40622053038646,0.8272776248542444,47.09041207660717,0.9770397676030592,96.8235144,93.9136006,84.22740800000001
3477.574,9.3586868,-81.3809634,35.8088646,0.361037,0.5053302000000001,0.5516844,43.0751916,-26.8232142,-156.0638552,-24.9650676,45.6410838,-5.634740600000002,-0.8874008,0.2247729999999999,-0.3470822,140.69541320000002,68.100522,-69.25482339999999,89.4020190290676,0.830699707237459,52.32698569897258,0.9790143691113424,97.6202216,94.9237362,86.8090318
3497.56,9.1051232,-74.0465272,30.6451492,0.4087098,0.513394,0.5342422000000001,43.5568962,-28.3278816,-156.75607,-25.6586792,48.3256754,-9.438175600000005,-0.8844388000000001,0.228324,-0.3505874,142.0741914,67.42922519999999,-67.21588080000001,80.65306335383535,0.8461866390536311,55.52312923288018,0.9784044996626908,98.5172952,95.7571068,89.54018920000001
3517.546,7.195270200000001,-66.8676766,24.8674966,0.453706,0.5181932,0.5064164,44.0280616,-29.6615448,-157.4519196,-24.497276000000003,49.1809602,-11.350223200000002,-0.8776113999999999,0.2307255999999999,-0.349039,143.4663058,66.7564316,-65.17630100000001,71.70390836128954,0.8548864820262396,56.104464566592014,0.9722470341566076,99.4382442,96.4179764,92.2756186
3537.548,4.830128200000002,-59.2038444,19.656921,0.5038426,0.5186868,0.4784642,44.4650032,-30.8302066,-158.123172,-21.6022072,48.019156,-12.1924964,-0.876835,0.2372091999999999,-0.3399298,144.8010896,66.10469359999999,-63.248884,62.56852142545873,0.8670763246396709,54.047679573947306,0.9698763275375268,100.3360864,96.9349002,94.874288
3557.518,3.941261800000001,-51.0714638,14.85316,0.5450928,0.5133998,0.44496,44.876538800000006,-31.8168986,-158.76394340000002,-18.1930286,44.14875719999999,-11.330402600000005,-0.8735904,0.2346848,-0.335786,145.98273020000002,65.5000138,-61.5534928,53.33333217825837,0.8710309505705753,49.07623737638263,0.9648779094368364,101.1061914,97.3169124,97.2104506
3577.504,5.390034000000002,-41.302908,11.2958198,0.5902322000000001,0.5136010000000001,0.42713,45.270256,-32.603168,-159.33017560000002,-14.193180800000002,38.447189,-9.4086982,-0.873452,0.2325392,-0.3270184,146.9608368,64.967328,-60.16072240000001,43.1575974856304,0.8914034294402507,42.049450948162125,0.961214809384042,101.6905808,97.570496,99.1694532
3597.49,4.945391200000001,-31.3748414,7.6693292,0.6054478,0.527892,0.42539,45.613134,-33.197580599999995,-159.8013518,-10.720652,29.8495868,-6.681625600000002,-0.8794684,0.2321168,-0.3264648,147.6628418,64.54794240000001,-59.1434882,32.675008452549235,0.9089519537845993,32.41256441712709,0.9663964719926496,102.0497078,97.745523,100.6578636
3617.476,2.259022800000001,-21.0258792,4.508771,0.6286198000000001,0.5270934,0.412829,45.8303536,-33.590959,-160.14892260000002,-6.9956826,20.6153668,-4.175976800000003,-0.8784566,0.231387,-0.3261612,148.111212,64.256607,-58.4856726,21.62220608713073,0.9183779660448088,22.166905638194592,0.965197943552513,102.2808584,97.847566,101.66325000000002
3637.463,2.577557000000001,-9.9382744,1.5907654,0.6391778,0.5172677999999999,0.3978195999999999,45.972689,-33.771746799999995,-160.349414,-2.986686400000001,10.988187799999997,-1.408241000000002,-0.8800488,0.2316457999999999,-0.3284304,148.31433099999998,64.098506,-58.1872374,10.389592518274313,0.9134411152744548,11.47360926187112,0.9674772321265448,102.341642,97.8702528,102.1621766
3657.449,5.065402800000001,1.5701935999999996,-0.711451,0.6388062,0.5218066,0.4065769999999999,46.0798356,-33.762163599999994,-160.3878174,0.8939875999999991,1.0605261999999969,1.096364799999998,-0.8865143999999999,0.2331608,-0.3257388,148.2803772,64.0852232,-58.237204,5.350698645329394,0.9195979262106893,1.7680343391798778,0.972819359331135,102.2005416,97.8473868,102.1506134
3677.434,3.9693072000000016,11.7991522,-4.3584448,0.6143333999999999,0.5366784,0.4264815999999999,46.1104072,-33.567161,-160.31399240000002,4.700788399999999,-8.470626200000003,2.793542799999998,-0.8867478,0.2369154,-0.3331574,148.0540254,64.21055279999999,-58.586026,13.189823098183831,0.9204975755104844,10.082301382974666,0.976444786322688,101.9436182,97.7777138,101.7279664
3697.42,1.7475492000000012,21.2380174,-8.2244692,0.6022968000000001,0.5328212,0.4286152,46.0410636,-33.183121,-160.1233156,8.738430399999999,-15.461399800000004,4.169275199999999,-0.8770009999999999,0.237989,-0.3365438,147.7029388,64.4328772,-59.1632028,22.841830156773163,0.9112468689278004,18.242749390495376,0.96903624671136,101.6618752,97.6159982,100.9601128
3717.407,3.2227544000000017,30.2088512,-11.4087688,0.5834694,0.5236324,0.438279,45.953968,-32.6431266,-159.8438082,12.0979214,-21.568155,5.900984399999998,-0.8796692,0.2428902,-0.3343915999999999,147.2058136,64.7353362,-59.9748194,32.45182340452249,0.8981736540931937,25.4237414475849,0.9719214437572824,101.2518456,97.3784628,99.8689888
3737.392,5.6358038000000015,38.4106842,-14.4869996,0.5570256,0.5348037999999999,0.4596378,45.87557,-31.9523916,-159.480707,14.305687,-26.218369800000005,7.734536599999998,-0.8782694,0.2370184,-0.3392742,146.5797028,65.0883454,-60.9790064,41.436893013287374,0.8986431609591429,30.852530721616027,0.9708974424214742,100.7041328,97.040737,98.5017006
3757.379,4.581252600000001,45.7422492,-18.3436554,0.5322236,0.542279,0.4805252,45.7494492,-31.099204800000003,-159.0513246,17.045139999999996,-28.9459672,9.364868199999998,-0.8760688,0.2307188,-0.3442632,145.87999559999997,65.4591858,-62.125313000000006,49.49576679569533,0.8990177651598438,34.872719583744065,0.969146458426754,100.1305464,96.5583906,96.9260116
3777.365,3.3737692000000017,52.7492086,-21.8423752,0.5157811999999999,0.5349717999999999,0.4863958,45.5738428,-30.0982,-158.5494478,20.2229122,-30.800178200000005,10.863563999999998,-0.8800604,0.2259474,-0.3396378,145.12463659999997,65.8384582,-63.401146,57.19222570348838,0.8881474806169974,38.41398414357407,0.970006376475825,99.5507938,95.9366582,95.1483018
3797.351,3.7345404000000015,59.8868254,-24.9658826,0.4918036,0.5340968,0.4930974,45.3836038,-28.9475014,-157.9890412,22.5825378,-32.5014218,11.421082199999995,-0.8933562,0.2257614,-0.330935,144.31975699999998,66.23538980000001,-64.7796838,64.98979875708417,0.8776532450973791,41.19168060578618,0.9790666392199256,98.9361532,95.1828912,93.2093574
3817.337,3.5008702000000014,66.6749296,-28.2525908,0.4657033999999999,0.53853,0.5116974,45.1719026,-27.644500800000003,-157.3729126,25.204390799999995,-33.200964000000006,10.849096799999996,-0.8979168000000002,0.2211234,-0.3218606,143.539392,66.64592139999999,-66.186004,72.49835319670682,0.8767716047171691,43.07282469845913,0.9791549333900944,98.3674894,94.2904222,91.1869086
3837.323,1.3623182000000014,73.0828566,-31.9842868,0.4436384,0.5447835999999999,0.5149222,44.9214546,-26.195122200000004,-156.72925719999998,28.1566768,-33.622621200000005,9.855389399999998,-0.8957736000000001,0.223071,-0.310106,142.8024748,67.06793660000001,-67.604326,79.78693152264266,0.8710620373063906,44.94894665066113,0.9738258287465784,97.8810202,93.2630588,89.12493119999999
3857.309,-0.7650163999999986,79.3507324,-35.6657072,0.4179308,0.5441514,0.5183692,44.633812600000006,-24.6021756,-156.06156,30.922863,-34.8154168,9.218394399999998,-0.9056108,0.2285794,-0.2941116,142.05569139999997,67.5118942,-69.0863388,87.00095776820397,0.8599264661697765,47.469100459019046,0.9792247425568658,97.4218788,92.1140698,86.9752212
3877.295,-2.829622599999998,85.596016,-39.3081094,0.383302,0.5529692,0.5344068,44.3132796,-22.856903,-155.3726042,32.975876,-35.388230199999995,7.8819523999999985,-0.9106144,0.2317838,-0.2766484,141.325595,67.9767592,-70.58779159999999,94.23275536528186,0.8592356994671951,49.00877889002575,0.979528791129878,97.0123154,90.8336622,84.7848126
3897.281,-4.674712599999998,91.0118226,-42.9772126,0.3457862,0.5563928,0.5501064,43.9709472,-20.9706256,-154.6775054,34.8125722,-34.5311418,6.283244599999998,-0.9042986,0.2324012,-0.2693722,140.6752226,68.43896000000001,-72.03824019999999,100.7573599978288,0.8554286032879893,49.43474587671458,0.9717652277460024,96.7042754,89.4095856,82.63926519999998
3917.267,-6.838138199999999,96.6301576,-47.1264488,0.3129699999999999,0.5692687999999999,0.550598,43.6176054,-18.9386596,-153.9873474,34.8959668,-34.317463,5.393635799999998,-0.9075292,0.2438883999999999,-0.2616838,140.0091888,68.89880339999999,-73.5010164,107.72673608878232,0.8515722782931816,49.23929399175127,0.9754840909464596,96.3915834,87.837463,80.48633099999998
3937.253,-9.221273,102.107483,-51.3844206,0.265291,0.5677424,0.5676134,43.2371748,-16.7520084,-153.3031738,33.703525400000004,-34.024062400000005,4.382183399999998,-0.9232238,0.2555311999999999,-0.2486188,139.30434559999998,69.3614164,-74.9727922,114.67924241436862,0.8455150615443346,48.09124637539325,0.9896715044767734,96.0671708,86.11342479999999,78.3303816
3957.239,-8.800870799999998,106.5497818,-55.2697416,0.2121978,0.5766834000000001,0.6110588,42.8847036,-14.4302502,-152.63474739999998,31.157435,-31.6318664,2.859408799999998,-0.9210978,0.2548882,-0.2400702,138.6471222,69.800311,-76.33465900000002,120.35387681747802,0.866593622880898,44.491987440573965,0.985404918088052,95.7624186,84.2305612,76.30008839999999
3977.225,-9.815689999999998,109.0198242,-59.8947446,0.1481415999999999,0.5999844000000001,0.6387715999999999,42.547305,-11.9973846,-152.02095359999998,27.923290599999994,-27.45060100000001,3.436043799999997,-0.9201478,0.255626,-0.2478997999999999,138.0304504,70.1559172,-77.5824312,124.77600037456816,0.8887948980841868,39.30715011532594,0.9866463077318436,95.4831454,82.1533018,74.4385224
3997.211,-12.6596612,111.4098098,-63.7432768,0.1095566,0.5947015999999999,0.63483,42.1897328,-9.472911,-151.4523378,24.322594,-22.668729400000004,3.849180399999998,-0.927694,0.2529358,-0.2408596,137.4786072,70.4335722,-78.6826142,128.97913815254148,0.8767449860399088,33.47052526105625,0.9912648604030108,95.2888744,79.9064832,72.76972359999999
4017.197,-10.7409212,114.5778458,-66.0039054,0.0612395999999999,0.5831808,0.6693743999999999,41.8828068,-6.8592016000000005,-150.8918488,20.3425678,-19.154788000000003,2.192980799999998,-0.9468902,0.2483972,-0.2292262,137.0233704,70.68589460000001,-79.5939026,132.6648622071622,0.889894500192107,28.027399679808145,1.0054088076948202,95.1405636,77.54509619999999,71.29794620000001
4037.183,-9.844049199999995,116.749553,-67.9398186,0.0084928,0.6028454,0.7251238,41.6186208,-4.182599000000001,-150.3473664,16.052544599999997,-14.408105000000004,-0.937074200000002,-0.9511434,0.2204253999999999,-0.2231616,136.81499639999998,70.9206878,-80.1552324,135.43700521553455,0.943026632327762,21.59064116422483,1.0015299416608974,95.1963756,75.1032868,70.19213400000001
4057.17,-14.4994118,117.2965868,-70.046956,-0.0501774,0.6180312,0.7187084,41.299961,-1.4696724,-149.8430572,13.048732199999998,-9.698699000000005,-6.231677000000002,-0.9565736,0.2084533999999999,-0.2318832,136.9830962,71.15700380000001,-80.257416,137.38740212385505,0.9492218391265342,17.41171940252446,1.0061091842492842,95.6831352,72.62667619999999,69.5856412
4077.155,-16.543467799999995,119.488849,-70.4338212,-0.0615967999999999,0.574022,0.6820274,40.9636054,1.276899,-149.3320372,9.061599399999997,-7.428402200000002,-12.159808800000002,-0.9639,0.2166294,-0.2148676,137.386679,71.4425614,-80.0227434,139.68605703873243,0.8935640976477289,16.886524005360094,1.011038867934423,96.4230736,70.1656624,69.3092938
4097.142,-9.309075599999998,122.7979722,-70.22390299999999,-0.1220824,0.5770533999999999,0.7212916,40.7889496,4.0751066,-148.7865416,3.374984999999997,-5.862753600000002,-15.958908400000002,-0.9665322,0.2127357999999999,-0.207563,137.9043578,71.75766619999999,-79.5471148,141.7652898897043,0.9317490601400572,17.333469382790298,1.011198997827569,97.1154082,67.6825596,69.2394268
4117.127,-9.430401399999996,123.30173960000002,-71.6894928,-0.1930164,0.6162832,0.7593886000000001,40.6441194,6.9077368,-148.2629608,0.0042101999999971,-1.4008148000000027,-17.224005000000002,-0.9654304,0.1887692,-0.2144806,138.6355376,72.0247608,-78.7791246,142.9392697507322,0.9968607521018972,17.280875211334298,1.006822524524139,97.9914182,65.11702399999999,69.4838362
4137.113,-15.145704399999996,122.1699022,-73.4472046,-0.2482955999999999,0.6142726,0.7342636,40.405703,9.7466634,-147.7877258,-0.6270238000000029,3.443027999999997,-19.135832,-0.972699,0.1956825999999999,-0.226078,139.6545898,72.2301502,-77.69539499999999,143.35051178452068,0.9890018030191248,19.453217394219767,1.0176179472806874,99.2488868,62.4834868,70.09233080000001
4157.1,-14.858883799999996,122.1249146,-73.70058739999999,-0.2842694,0.5752544,0.7004851999999999,40.186223600000005,12.5872862,-147.326059,-3.191731000000003,6.7992513999999975,-19.6373776,-0.967004,0.2125735999999999,-0.214759,140.7552582,72.377521,-76.4681076,143.41219535640695,0.9499506470942372,21.02483211304539,1.0131168242181945,100.5690346,59.79023479999999,70.8579514
4177.086,-8.636052399999997,122.6247926,-73.3796448,-0.352979,0.5881204,0.7262536,40.1139154,15.4388622,-146.8551758,-8.046638000000002,8.512527999999998,-17.882214200000004,-0.9647116,0.2046722,-0.2181112,141.76041260000002,72.47180660000001,-75.23986359999999,143.16421840747333,0.998961496179968,21.37720984479756,1.010015681161852,101.6464972,57.0329444,71.6153122
4197.072,-9.827598799999995,121.9690874,-74.5061416,-0.4078719999999999,0.6048008,0.7340934,40.0433922,18.2975756,-146.40620740000003,-11.083003600000003,7.880819799999996,-16.3345026,-0.9778776,0.1810304,-0.2307712,142.6563172,72.557323,-74.0665664,143.262713625988,1.0349090278803257,21.254558680600542,1.0209172116559502,102.612925,54.2597474,72.339641
4217.058,-12.714410999999998,121.1974764,-74.6160934,-0.4611588,0.5951259999999999,0.7140344,39.93907539999999,21.1453598,-145.9651306,-11.793284800000004,7.8521157999999955,-17.5291354,-0.9833862,0.1705104,-0.2422367999999999,143.62796939999998,72.6506578,-72.8013108,142.89172798690274,1.0376355425084474,22.539030076337667,1.027034995573588,103.688894,51.505298,73.16381980000001
4237.044,-10.6288882,121.16943820000002,-73.2849562,-0.494967,0.5651018,0.6894705999999999,39.9020492,23.983622,-145.50024100000002,-12.937501200000003,4.463186799999997,-17.696548,-0.9845614,0.176908,-0.2346668,144.4466706,72.7932908,-71.67107239999999,142.00595347839342,1.019657826781416,22.371114966134336,1.027485327319179,104.5446214,48.8096688,73.8291686
4257.03,-6.367066399999999,123.5740418,-71.83253920000001,-0.5187231999999999,0.5629926000000001,0.6717644,40.0124656,26.8482764,-144.9585662,-14.298123000000004,-1.1086828000000035,-14.416289200000003,-1.0096892,0.1495214,-0.2273692,144.8991182,72.99934700000001,-70.8996904,143.0768920170189,1.018480159345463,20.33457383797806,1.0457177835167766,104.8866526,46.1510706,74.05887580000001
4277.016,-3.837725199999999,126.1839828,-70.8459548,-0.5663268,0.5708508,0.6905552,40.23944,29.733177,-144.3358978,-10.023396000000002,-6.157189000000003,-13.7343838,-1.0286648,0.1272054,-0.215366,145.23561720000004,73.2923766,-70.341443,144.76282313323767,1.059935452990379,18.083493637022677,1.0586382755711226,104.9961772,43.5591996,73.9944548
4297.002,-5.061912799999998,125.5762756,-69.6965728,-0.6212823999999999,0.5754702,0.6843084,40.4929686,32.58761,-143.6689574,-2.944525400000003,-8.107469800000004,-12.999338200000002,-1.0093398,0.1411468,-0.2166676,145.5810792,73.5977048,-69.9198672,143.71025090378092,1.0887771847115275,15.600772097147518,1.0419376660357569,105.08811059999998,41.010094800000005,73.7490902
4316.988,-6.9318456,124.8277694,-68.52571400000001,-0.642809,0.5320608,0.6119890000000001,40.7574698,35.407303,-142.959146,1.9397039999999968,-13.349980000000006,-9.970660400000003,-0.9956054,0.159979,-0.1991476,145.6095062,73.9501416,-69.92753619999999,142.56856587625342,1.0348056056567534,16.77493625681315,1.0278536664019446,104.8520364,38.5428386,73.03160979999998
4336.974,-1.825626999999999,127.1795288,-66.47292639999999,-0.6768284,0.5052086000000001,0.5586948,41.2283942,38.22261099999999,-142.1242888,3.351124999999997,-17.119594400000004,-5.7720730000000025,-0.983739,0.1406412,-0.1916116,145.3067656,74.3210644,-70.3123736,143.51520966055472,1.012656058149834,18.374639531252456,1.01204613161308,104.0783714,36.0984534,71.8119152
4356.96,3.863378400000001,128.31151119999998,-64.4938172,-0.763961,0.5243903999999999,0.6061408,41.9178878,41.011054,-141.16573160000002,6.196118799999997,-19.373914800000005,-3.730104200000002,-0.9818058,0.1433424,-0.2006866,144.8394896,74.69605979999999,-70.927373,143.66009207889408,1.1072616540627602,20.67980029410899,1.0123066649839665,102.9216018,33.685005800000006,70.2383586
4376.946,-1.3677065999999989,124.9908494,-63.350858200000005,-0.8274476,0.5300922,0.5844282000000001,42.578609400000005,43.7240546,-140.153723,8.288899199999998,-19.739249800000003,-2.2193408000000026,-0.978724,0.136955,-0.2253966,144.32590320000003,75.04537619999999,-71.63598040000001,140.13534275747026,1.1433387915232476,21.523691741917915,1.0136374931367529,101.7472938,31.3213216,68.51774259999999
4396.932,-6.275626399999998,122.0044816,-61.1609648,-0.8640696,0.4792572,0.5018882,43.2184968,46.3586996,-139.0742614,10.311302999999995,-20.210500000000003,-2.624316000000003,-0.966202,0.1281585999999999,-0.2437034,143.84155560000002,75.4082638,-72.355951,136.6204253853133,1.1082398218324587,22.840190767059397,1.0046702338227802,100.6230588,29.049564200000003,66.71831040000001
4416.919,-1.8555659999999985,120.7991714,-57.0611388,-0.8940427999999999,0.462497,0.4610632,44.0966378,48.908396,-137.8333648,10.428423599999997,-19.344529000000005,-2.5682806000000027,-0.9571952,0.110881,-0.260014,143.42360520000005,75.749629,-73.01213240000001,133.6108397446098,1.1071563925819514,22.1259776338406,0.9980603825721368,99.32696740000002,26.841233,64.82123240000001
4436.905,1.2963918000000014,118.4998672,-53.443749,-0.9415908,0.487439,0.4675022,45.21889900000001,51.358473,-136.4127838,13.318940799999996,-19.23541460000001,-2.969346200000003,-0.9752378,0.1204489999999999,-0.2667152,143.0640198,76.08580300000001,-73.6664536,130.00051332703168,1.1587701758202444,23.584155183581466,1.0182012208109357,97.8451208,24.72733,62.7463302
4456.89,-2.764649399999999,115.3221786,-50.522850600000005,-0.9480454,0.4850818,0.4380837999999999,46.4350496,53.6858244,-134.8416596,14.592325199999996,-19.489008400000007,-4.129212400000004,-0.9830476,0.1337693999999999,-0.249722,142.7127196,76.4388624,-74.3346848,125.9341359445688,1.15152587855195,24.69428675224574,1.0230532310325402,96.27767,22.753038,60.5069748
4476.877,-4.104497599999999,111.8098754,-47.2517088,-0.9546072,0.4526578,0.4229634,47.77875160000001,55.8960616,-133.1235504,14.3517026,-19.391321200000004,-4.838572200000003,-0.9681778,0.149135,-0.2306747999999999,142.3234924,76.79510339999999,-75.03285539999999,121.4537736014486,1.1380123144905947,24.605009374821,1.006389767432519,94.5447408,20.8990418,58.090695
4496.863,-2.7224682,108.547354,-44.1514998,-0.928991,0.4291889999999999,0.3798314,49.3189828,57.9951926,-131.24625859999998,10.126558399999997,-19.269729200000004,-4.695912600000003,-0.9682206,0.1402444,-0.1976102,141.8531066,77.14976659999999,-75.72847759999999,117.21473810102007,1.091558229426154,22.26928924812784,0.9980828688740028,92.5341238,19.154574000000004,55.517781
4516.849,-0.9654327999999994,106.3562164,-41.7823386,-0.9443448,0.4210024,0.3716805999999999,51.1239442,60.00324020000001,-129.1617418,8.493186199999997,-19.604083600000003,-4.386649000000003,-0.9803822,0.1366372,-0.1790058,141.2741912,77.5117432,-76.50076139999999,114.2730967739126,1.0987158825233938,21.81047901979369,1.005913544463101,90.150247,17.508503,52.66098040000001
4536.835,-2.402704999999999,101.6683166,-39.2666614,-0.973167,0.4260454,0.3668666,53.0831634,61.861673,-126.9248368,7.647526599999997,-19.2248526,-3.4058690000000027,-0.9676096,0.1344757999999999,-0.1828615999999999,140.6131132,77.84741979999998,-77.33968660000001,109.0141747163969,1.123903819259335,20.9685374843978,0.993876472984626,87.5299498,15.9857468,49.58515020000001
4556.821,-6.091909799999999,94.220877,-37.49062,-0.9896923999999998,0.398153,0.3160142,55.052519200000006,63.5730806,-124.6287858,7.339755999999997,-16.645274200000006,-3.297774000000002,-0.9491518,0.1429872,-0.1994858,140.065692,78.1244096,-78.055374,101.58854076934496,1.1126013808316075,18.48817148037625,0.9803719004585556,85.01317279999999,14.551329,46.5734118
4576.827,-5.0330368,87.593286,-34.88426019999999,-0.9911676,0.3721054,0.2288878,57.158100000000005,65.1419022,-122.2524094,4.1551579999999975,-13.558207600000005,-4.154940800000003,-0.94478,0.1368538,-0.2139306,139.7267272,78.3569856,-78.4938002,94.41836061598006,1.083173700284382,14.776801561270506,0.9783171840414538,82.5686272,13.2150834,43.75860920000001
4596.793,-1.3421197999999992,82.235031,-31.7204708,-1.0189184,0.3793684,0.2269727999999999,59.480616600000005,66.5634736,-119.7534668,2.344295599999997,-10.681918800000004,-4.901019200000003,-0.9600134,0.1380008,-0.223401,139.59779659999998,78.5502412,-78.6807922,88.15094938174045,1.1106897589862617,11.984118670504792,0.9952778284384716,80.11717999999999,11.9867676,41.0726746
4616.779,-1.1867763999999992,74.2029838,-29.058884,-1.0316562,0.3886779999999999,0.2281518,61.817794000000006,67.8029052,-117.2580292,-0.3658392000000027,-7.0277670000000025,-6.682958400000002,-0.9653114,0.1498296,-0.224764,139.7536194,78.7037186,-78.5200744,79.69887064677965,1.1258056433175665,9.704910113065257,1.0023940660748747,77.9358254,10.9008134,38.7379548
4636.765,-2.485365599999999,66.41525499999999,-26.9121218,-1.0128951999999998,0.3680536,0.2147756,64.0884674,68.88972,-114.8213716,-4.807457000000002,-3.859218600000004,-9.292935400000005,-0.9735208,0.1461224,-0.208318,140.2005768,78.84926,-77.9702728,71.70373378464139,1.0988852064757992,11.151854525504188,1.0062260645294376,76.11210939999998,9.959540000000004,36.8510988
4656.751,-1.4810297999999993,59.2754968,-24.4510672,-0.9949122,0.3601268,0.2026581999999999,66.3144722,69.8319838,-112.464966,-8.012209400000003,-0.8354270000000042,-10.734036800000004,-0.9699686,0.133843,-0.1926072,140.8882722,78.97473,-77.10886239999999,64.13760720025509,1.0773170117538846,13.420617860796565,0.997923126862385,74.57379999999999,9.142746200000005,35.3561036
4676.737,-0.9869625999999994,53.5805474,-22.5431602,-0.9757662,0.3535381999999999,0.1949139999999999,68.49382560000001,70.65480339999999,-110.1723514,-8.722004400000003,1.1076011999999955,-10.867972800000004,-0.9725966,0.1259008,-0.1649366,141.6697662,79.084491,-76.1356812,58.13813917438629,1.0559831453757584,13.979019062630996,0.9944844090239726,73.17594059999999,8.429687600000005,34.0366702
4696.723,-0.2971367999999993,48.1665002,-20.6827664,-0.9783862,0.3456755999999999,0.2019142,70.5826524,71.3689742,-107.99133940000002,-8.357060600000002,2.323682199999996,-10.362665000000003,-0.9764546,0.1219706,-0.1546824,142.4904664,79.1715042,-75.1291976,52.42019513271086,1.057118971992954,13.513873861365376,0.9961260251570982,71.907814,7.802530000000004,32.8621418
4716.709,-0.3301493999999992,41.153727,-18.6769944,-0.9794008,0.3467358,0.202141,72.4350846,71.9681778,-106.061223,-7.138572800000003,4.352770199999996,-9.492655800000003,-0.9674764,0.1130002,-0.1618972,143.4235138,79.2098038,-74.0335708,45.19478249128412,1.0584482159856852,12.649756684307471,0.987415987881926,70.98842920000001,7.241626000000002,32.0276522
4736.695,-1.6036647999999991,33.420457000000006,-16.9684242,-0.9743374,0.3378526,0.163295,73.9663956,72.4682054,-104.4457002,-6.108178600000004,7.055554599999995,-8.293771600000003,-0.9629292,0.1183066,-0.1667618,144.42935500000002,79.18175360000001,-72.8834304,37.51567814542014,1.044099135805849,12.4850848565817,0.9843975791088884,70.4629594,6.7135482,31.562269800000003
4756.681,-0.4245323999999993,26.899613800000004,-14.6419522,-0.9806012,0.329817,0.1421743999999999,75.2452042,72.87615059999999,-103.1182068,-6.0395638000000025,8.819786799999996,-7.081292000000003,-0.9659752,0.1112304,-0.1730532,145.4485504,79.1073074,-71.7210066,30.62933584939258,1.0443043267868806,12.8222332875747,0.9876374329324706,70.20334620000001,6.231156800000003,31.397200200000004
4776.667,1.2670168000000008,19.4290698,-11.736319600000002,-0.999661,0.3497082,0.1698432,76.17308499999999,73.17477879999998,-102.1865126,-5.715393600000003,11.065001999999996,-6.188930200000003,-0.9751378,0.1115984,-0.1893512,146.5301086,78.9755936,-70.501251,22.734011582166893,1.072597153014346,13.906935330380916,0.9996008247359742,70.35702360000002,5.8008148,31.6852616
4796.653,-2.054443799999999,10.740698,-9.1824158,-0.9986672,0.367764,0.1859858,76.56053159999999,73.3715792,-101.744499,-5.701676000000003,12.626669399999995,-5.557038600000003,-0.9863122,0.1215542,-0.1837926,147.5798826,78.809021,-69.31171859999999,14.279358976461516,1.0803597798203524,14.927242456253005,1.0106269832243944,71.019351,5.437441800000002,32.4327804
4816.639,-6.976987599999999,3.4114993999999994,-6.855731400000001,-0.9893898,0.3564668,0.1831516,76.4191086,73.4882998,-101.7453352,-6.996764800000003,12.142308599999996,-5.455001200000003,-1.000394,0.1241414,-0.1607572,148.4918638,78.65903940000001,-68.233943,10.3594274530835,1.0674761189032944,15.038198492377816,1.0208046432994904,72.0727552,5.170739600000002,33.5113922
4836.625,-9.3687042,-3.2763960000000005,-4.0541878,-0.9899326,0.3569834,0.20472,75.8180208,73.51431600000001,-102.1666456,-7.532169400000003,10.706004599999996,-5.109850200000003,-0.9994722,0.1094311999999999,-0.1575447999999999,149.2918026,78.5342454,-67.2603072,10.721185935034542,1.0720606227347034,14.052141453599075,1.0177132356972274,73.47378180000001,5.0199294000000005,34.9063384
4856.611,-12.3727402,-11.2896898,-0.8405332000000001,-0.9921912,0.3714042,0.2215151999999999,74.703241,73.42831600000001,-103.0624602,-6.194188400000003,9.652702599999994,-4.886697600000003,-0.9966094,0.106791,-0.1618344,150.0331662,78.4225938,-66.37375940000001,16.770458905385453,1.0823370274392907,12.466854088044308,1.0152955170159672,75.3299252,4.994277799999997,36.68870080000001
4876.598,-16.641866399999998,-19.3119176,2.325815,-0.9897126,0.370838,0.2124326,73.07883299999999,73.2229158,-104.4033798,-5.546116200000003,8.108510999999996,-4.683338200000003,-0.9920314,0.1131396,-0.1628234,150.6572844,78.33180999999999,-65.6192992,25.599048694802384,1.0780442766350185,10.883060793572858,1.0116512873820107,77.57845139999999,5.108894199999997,38.7840806
4896.584,-17.506529,-27.2185874,5.835042,-0.9877716,0.3653582,0.206336,71.0639954,72.88347480000002,-106.1382386,-5.3253318000000025,7.082107199999996,-4.618886000000003,-0.9848426,0.1121583999999999,-0.1701394,151.2253844,78.253418,-64.9267852,32.88430891505923,1.073197974732435,9.992472619596168,1.0057046628596686,80.16138900000001,5.369943199999997,41.2114534
4916.57,-16.570708599999996,-35.5240224,9.61921,-0.9946894,0.3719968,0.2268387999999999,68.7412316,72.3934112,-108.2219728,-5.443428400000003,6.834708799999996,-3.641122400000003,-0.9789198,0.108729,-0.1813571999999999,151.707492,78.1643004,-64.3203438,40.36178578811789,1.085930229281808,9.465829570539803,1.0014970815059223,82.9662604,5.7708891999999965,43.901629
4936.556,-16.8685212,-44.7006414,13.1959034,-1.0003614,0.3741286,0.2481182,66.1023048,71.73889620000001,-110.6383698,-4.833560000000003,7.012569599999996,-2.711867400000004,-0.9823582,0.1125462,-0.1810333999999999,152.111969,78.062782,-63.805013200000005,49.56638190939879,1.0964751621077242,8.938325316502354,1.005220061557289,86.0096642,6.323885799999997,46.8333566
4956.542,-17.3174688,-53.306661000000005,16.655536,-1.0018236000000005,0.3686338,0.2624494,63.266504,70.91558380000001,-113.2559814,-5.299914400000003,6.343139599999995,-1.7171890000000034,-0.9878768,0.1031502,-0.1758627999999999,152.4020966,77.96994299999999,-63.3977042,58.47137515105311,1.0992820800776115,8.442348647985138,1.0086963171153744,89.13559260000001,7.054359199999996,49.8582772
4976.528,-17.3676306,-61.5883428,20.152509400000003,-1.0067464000000002,0.367744,0.2917198,60.3369546,69.91546939999999,-115.9760574,-4.379130800000003,5.424287399999995,-1.1788136000000031,-0.9949791999999998,0.094313,-0.1733864,152.63772279999998,77.893295,-63.065757,67.08861450816715,1.110798994040326,7.070309884641008,1.0143674847443602,92.3007682,7.977825599999997,52.9103004
4996.514,-18.285706,-70.42145819999999,23.5674674,-1.0132292,0.3731528,0.3156948,57.364721,68.7241928,-118.7336272,-2.935833600000003,4.267827599999996,-0.5629266000000033,-0.9922348,0.0926798,-0.1791004,152.8074006,77.8291562,-62.8313256,76.47858745153995,1.1249620574168355,5.210600513107703,1.0125198254549093,95.4426796,9.104963399999995,55.9023016
5016.5,-20.0192092,-80.07847720000001,26.92043,-1.0213772,0.3710525999999999,0.3241448,54.390420600000006,67.33280959999999,-121.4768812,-0.930164200000003,3.575061199999996,-0.6625910000000033,-0.9798838,0.086601,-0.19783,153.0294526,77.76911299999999,-62.5859772,86.82189124321806,1.134002322754958,3.753038083471584,1.0033985766401303,98.639032,10.4363034,58.890904
5036.486,-20.4381876,-90.071562,30.90607720000001,-1.0312522,0.3670832,0.3319992,51.5153726,65.7222214,-124.1279388,-0.2694986000000028,3.470259199999995,-1.5764002000000032,-0.9658176,0.0856778,-0.2185696,153.3553468,77.707222,-62.248732800000006,97.39502760092527,1.1438770233411106,3.821042528047368,0.993940134981358,101.8399742,11.9850006,61.879206
5056.472,-19.49124,-100.1757108,34.9401524,-1.0395506,0.3648542,0.3487868,48.7999856,63.88572999999999,-126.66588900000002,-1.547543200000003,4.368671999999995,-2.667321400000003,-0.9593402,0.089335,-0.2338214,153.7809846,77.6296036,-61.7830422,107.8698091254363,1.1556107774991715,5.347409508383305,0.9914569121545324,104.980999,13.7438736,64.88284680000001
5076.458,-17.7141164,-110.1734724,38.9455018,-1.0426916000000002,0.3677764,0.373534,46.2861596,61.8214418,-129.0621124,-4.210603400000003,6.062067799999996,-3.641039200000003,-0.9551254,0.088975,-0.2449466,154.30087600000002,77.52386340000001,-61.16612239999999,118.18940752436367,1.167044515973371,8.230128398744762,0.990040361400342,108.0147164,15.702421600000005,67.89599000000001
5096.444,-15.6753676,-119.7970732,43.0071954,-1.0487078,0.3736752,0.4061552,44.00512859999999,59.533180400000006,-131.2881942,-7.068237200000003,8.395001599999997,-4.865351200000004,-0.956792,0.0810956,-0.2525659999999999,154.9610536,77.3843828,-60.3471312,128.24458956562287,1.185066770845812,12.004485464975494,0.9928831814263752,110.955925,17.8512024,70.94106300000001
5116.43,-12.4201798,-128.7873794,47.0952622,-1.0418272,0.3754008,0.4422292,41.9968934,57.029506000000005,-133.3250092,-10.085456200000005,10.698286999999995,-5.940419400000003,-0.960704,0.0835262,-0.2518749999999999,155.6991732,77.2115052,-59.38474720000001,137.6895554523676,1.1924329501624484,15.857438448387049,0.9966793954564528,113.7022798,20.1819992,73.940262
5136.416,-8.4038342,-136.6005996,51.20693200000001,-1.0216724,0.3875498,0.476725,40.2925752,54.328859,-135.15018,-13.126076400000002,12.941277399999995,-5.872935000000004,-0.9654278,0.0793808,-0.2480568,156.4252596,77.000026,-58.3712988,146.1249401204094,1.192172833957728,19.34584988871289,0.999942160551159,116.1326844,22.671167,76.77888120000001
5156.402,-4.8995108,-143.1436874,55.2446946,-0.9954402,0.4089953999999999,0.5137842,38.8782914,51.4538444,-136.7696594,-15.0500376,15.343497999999997,-6.120353800000004,-0.9681964,0.0767317999999999,-0.2447674,157.1806094,76.748546,-57.2869292,153.51252955376478,1.192540411544548,22.34693028750464,1.001600278657589,118.302318,25.294701600000003,79.4827302
5176.388,-2.0306816,-148.9105224,59.29852520000001,-0.9651438,0.4273186,0.5517618,37.720126400000005,48.422673,-138.199234,-16.407143600000005,17.974567599999997,-6.382096400000004,-0.9692964,0.0804914,-0.2391266,157.9563508,76.4519974,-56.1510268,160.2959214705618,1.1910267942089463,25.159701826072656,1.0015966789853488,120.2362244,28.0293244,82.04820720000001
5196.375,1.8194402,-153.3887634,62.960517,-0.9164298,0.4391941999999999,0.5783716,36.8197814,45.2654366,-139.4595674,-19.877019800000006,19.4944942,-5.659813600000003,-0.9763544,0.0939056,-0.2278226,158.572397,76.12593079999999,-55.104235,165.81751958381793,1.169294159451863,28.41064431212659,1.0069703636063376,121.7526156,30.8604942,84.3553324
5216.361,6.705469400000001,-156.4560394,66.52999020000001,-0.8690916000000002,0.4686959999999999,0.6101544000000001,36.1892692,42.0058846,-140.55638140000002,-23.978850600000005,20.594544599999995,-4.466069200000003,-0.9838336,0.1021131999999999,-0.2199136,158.9863252,75.77536620000001,-54.17825700000001,170.14609951632974,1.1607258683452868,31.92281813182693,1.0132707681405595,122.797056,33.769481600000006,86.3781244
5236.347,10.0574472,-158.6583098,69.0715026,-0.8187164000000001,0.4867988,0.6345568,35.75666639999999,38.6778638,-141.5365878,-26.334217200000005,20.762776599999995,-2.613756000000003,-0.992598,0.1087298,-0.2166342,159.1823946,75.4125136,-53.4267106,173.33344739026964,1.1445225850705787,33.63652193830122,1.0217648142413596,123.4257282,36.73464980000001,88.1098772
5256.333,14.348475400000002,-160.24042960000003,71.6277006,-0.7650352,0.4964055999999999,0.657103,35.5157622,35.2954386,-142.424042,-25.726607600000005,19.2686544,0.9531167999999964,-1.0025254,0.1070284,-0.2138202,159.08621839999998,75.0579786,-52.989904,176.1062222578754,1.1240470317381743,32.156613823993645,1.0306460760026983,123.5704562,39.76254,89.434138
5276.319,19.992364,-160.977423,73.8557646,-0.7047858,0.5075000000000001,0.67097,35.4777152,31.8781522,-143.2351626,-22.008014000000003,15.703632599999995,5.0740475999999965,-1.0111594,0.1041824,-0.2157148,158.68793060000002,74.743814,-52.9437866,178.23607743293735,1.0974880476714268,27.50822997044784,1.0391487764594445,123.2102154,42.865661800000005,90.291376
5296.305,24.9135446,-161.2414824,76.2058104,-0.6494856,0.5257064,0.6890468000000001,35.6159454,28.4327152,-143.98359399999998,-13.869315400000003,12.963664399999995,10.068319999999996,-1.0206204,0.0966462,-0.2216949999999999,158.07673979999998,74.44552759999999,-53.2896256,180.07450094282214,1.0830439770381255,21.489196633725157,1.048882816093199,122.4607944,46.0128124,90.6939684
5316.291,26.8045602,-160.3450254,78.0223326,-0.5785283999999999,0.538216,0.6922436,35.8596816,24.9823628,-144.685657,-3.9776776000000025,9.406755599999997,14.128001799999998,-1.0327398,0.0979684,-0.2194868,157.3159456,74.1865478,-53.99710760000001,180.32330964794068,1.0505107205562063,17.432997587003683,1.0603413399829509,121.456264,49.204185,90.6885494
5336.277,28.9320852,-158.6692748,79.91707900000002,-0.5120674,0.5462621999999999,0.7045552,36.2027556,21.5386962,-145.3443086,4.591012399999997,5.743134599999996,18.4334024,-1.0329216,0.0959946,-0.2139867999999999,156.37874459999998,73.9639664,-55.06801900000001,179.99928843045527,1.0281115908006484,19.84568753989129,1.0592130784454843,120.175989,52.4252702,90.2762896
5356.263,30.530976,-156.5216552,81.740042,-0.4387212,0.5563032000000001,0.7114312,36.6278068,18.1064474,-145.9585786,10.304246599999995,1.5517497999999956,23.289025599999995,-1.0258006,0.1164616,-0.2100754,155.1339112,73.7683334,-56.577555,179.19989818139416,1.0040338111802412,25.513998879690863,1.05354726942842,118.5061044,55.661886,89.3810236
5376.249,29.021269199999995,-153.8783782,82.61957380000001,-0.3664817999999999,0.5728358,0.7053520000000001,37.0719292,14.7052804,-146.5434236,11.772966199999995,-0.5777444000000044,26.646128,-1.016049,0.1260318,-0.2039871999999999,153.669281,73.5742216,-58.3472908,177.0502282357601,0.979781203839347,29.13679219012377,1.0439589851982116,116.5973518,58.86894120000001,88.1961328
5396.235,26.3015846,-150.904901,82.7460142,-0.2981608,0.5722614,0.7091686,37.4941598,11.3505882,-147.10754100000003,9.369742,-3.351033000000004,27.1874362,-0.9978158,0.1558738,-0.1948909999999999,152.0284362,73.4094206,-60.2481948,174.10044619206857,0.9588029389882784,28.9513069556924,1.0285502001055078,114.5342764,62.05883240000001,86.8593462
5416.221,25.6056934,-148.48228439999997,82.6492628,-0.2358246,0.5736903999999999,0.7033387999999999,37.934830600000005,8.0366422,-147.6661316,2.986474399999998,-4.429420000000005,28.372046599999997,-0.9861844,0.1674142,-0.1998662,150.1919982,73.2355178,-62.2211632,171.8532541342198,0.9377736318551294,28.870604759007502,1.0200655288104974,112.2571676,65.1988756,85.4449684
5436.207,24.10984,-145.4129088,81.645793,-0.1715274,0.5768392,0.7021599999999999,38.3740138,4.782265600000001,-148.2246124,-3.387813000000002,-4.382589200000004,29.3942142,-0.9781494,0.1786052,-0.2022858,148.221228,73.03037100000002,-64.2027276,168.4999523593451,0.9247668772222544,29.91160633356904,1.014689908823893,109.8472142,68.2481054,84.0218848
5456.193,21.2466084,-142.18769200000003,79.7331846,-0.1200346,0.5708038,0.693534,38.7798692,1.6071758000000005,-148.78596199999998,-8.206236800000003,-1.3427404000000045,26.6855278,-0.9740856,0.1779068,-0.2105114,146.4890656,72.78249819999999,-65.83769400000001,164.3962860019882,0.9062089673180242,27.95107633283625,1.0123283237880685,107.7091964,71.1753224,82.948268
5476.179,19.3514462,-138.77469760000002,77.9694822,-0.0725288,0.5623342,0.6909152,39.1692178,-1.48691,-149.3665162,-12.282889,1.2844485999999955,25.598307399999992,-0.9750784,0.1840679999999999,-0.2196116,144.8926942,72.48631900000001,-67.2479464,160.35003997049412,0.8937807297710775,28.42169087400075,1.0163110594818496,105.7234764,73.97322899999999,82.1185698
5496.165,17.3065158,-134.8496778,75.4388534,-0.0211711999999999,0.5574866,0.6817406,39.5440286,-4.4861582,-149.9550812,-14.823476600000005,5.057983199999995,24.856385,-0.9749448,0.1677567999999999,-0.2309804,143.51586620000003,72.1300872,-68.38085040000001,155.48302702933898,0.8809141698130187,29.37955969429179,1.0158797429703184,103.9718376,76.6162454,81.57423080000001
5516.151,13.564538,-130.67524239999997,72.2374864,0.018866,0.5499264,0.6782306,39.8690018,-7.373976199999999,-150.5619416,-15.189312,9.455535599999996,23.520826,-0.967435,0.1693468,-0.2332466,142.411786,71.7135452,-69.221628,149.92754953257383,0.8733680313300459,29.552522874341665,1.0094616358766686,102.5427842,79.0875214,81.34031360000002
5536.137,10.8577214,-126.4633482,69.4288858,0.0680052,0.5296356000000001,0.6431528,40.16981199999999,-10.1669596,-151.1805422,-16.365227,14.719510599999996,20.5300024,-0.9602508,0.1760892,-0.2474222,141.6728272,71.2398116,-69.655591,144.676324031902,0.835933071580638,30.099263207079456,1.00712797116857,101.5030152,81.40677120000001,81.5249512
5556.123,11.2666928,-121.0632568,66.677604,0.1221928,0.5250678,0.636308,40.4990776,-12.8483928,-151.7967072,-18.4153162,19.2183686,17.864766399999997,-0.9436998,0.1748414,-0.2492907999999999,141.2038422,70.7285918,-69.76190799999999,138.66922293303995,0.8339755067342685,32.0565038785894,0.9916071453144334,100.7047646,83.5769846,82.0347992
5576.109,10.193292199999998,-115.4923034,63.184604,0.1643726,0.5249045999999999,0.6281162,40.831092,-15.3985188,-152.4135346,-20.9717828,24.5437592,13.560014399999996,-0.9296128,0.183913,-0.2662852,141.0753356,70.1793288,-69.4532288,132.04040871320058,0.8349090677638853,35.015507707388274,0.9843331535775272,100.2442436,85.5778476,82.9603058
5596.095,8.895278399999999,-109.2608398,59.84452280000001,0.2215878,0.5165666,0.608376,41.1581198,-17.8233594,-153.0168488,-25.3281598,28.3854258,9.135844199999996,-0.9231784,0.1924249999999999,-0.277796,141.17474660000002,69.6212204,-68.8082886,124.89365076245667,0.8282895403905569,39.12431118816426,0.9830851216794808,100.0166268,87.4445798,84.2085602
5616.082,9.2408124,-102.2939576,56.651853,0.2722526,0.5111876000000001,0.5933808,41.5075926,-20.110521,-153.5990448,-28.635432200000004,31.3130812,4.862755799999997,-0.915326,0.1959592,-0.292223,141.4728302,69.06627339999999,-67.8796294,117.29824731689811,0.8291773118031873,42.70999210359356,0.9806201997050846,99.9652376,89.17679439999999,85.71941539999999
5636.068,8.112852799999999,-95.1239182,52.9764142,0.317596,0.5143978,0.5861810000000001,41.84890420000001,-22.2483106,-154.16239620000002,-30.803574200000003,32.9588232,0.939719599999996,-0.905332,0.1979151999999999,-0.2985188,141.91240539999998,68.5322266,-66.75048039999999,109.1827763695571,0.8420691661745132,45.12235901579602,0.973606661115504,100.0635012,90.7805372,87.4119158
5656.054,5.3686218,-88.01780699999999,48.8016836,0.3623656,0.5069214000000001,0.5677138,42.1462516,-24.2337408,-154.7003144,-32.2307058,33.018690199999995,-1.9503398000000045,-0.9097092,0.2075418,-0.3102368,142.40325620000002,68.0278732,-65.5317068,100.78472489080472,0.8429573491890086,46.18285530611109,0.9833063100510034,100.2570046,92.261614,89.1686076
5676.039,4.111447200000001,-80.7119354,44.35103200000001,0.404277,0.5022184000000001,0.547363,42.431018,-26.0593234,-155.207425,-31.934509800000008,31.8746346,-3.999314000000004,-0.9014682,0.2093683999999999,-0.3165567999999999,142.90782159999998,67.562555,-64.3006802,92.18641197897436,0.8457360509027388,45.296796349415374,0.9781044167961004,100.4768036,93.6218784,90.90674479999998
5696.026,1.9560018,-73.36843719999999,39.48678640000001,0.4311084,0.5048878,0.5234292,42.6909606,-27.7126766,-155.71987,-29.1831462,30.8865018,-4.814053800000004,-0.8885324000000001,0.2187279999999999,-0.3236335999999999,143.4281676,67.114682,-63.10715760000001,83.3424250931731,0.8454254967482587,42.76455459327587,0.9706031479872298,100.737207,94.8273586,92.6127124
5716.012,0.3827071999999998,-65.43044499999999,34.56854260000001,0.4657715999999999,0.499226,0.5011232000000001,42.9240882,-29.1925328,-156.20637200000002,-27.036202600000003,27.9923704,-5.272128400000005,-0.8808883999999999,0.2300824,-0.3253524,143.881674,66.7134796,-62.0269178,74.00184953896066,0.8469322546820378,39.27243803872036,0.9668280448094582,100.9575858,95.9060124,94.1794542
5735.998,0.2585281999999998,-57.0218436,29.2178956,0.4904588,0.510498,0.4908992,43.158461,-30.4746744,-156.6673004,-24.617467000000005,24.2875656,-5.766355000000004,-0.8758548000000002,0.2443676,-0.3305947999999999,144.2604552,66.3707762,-61.0752562,64.07216952519678,0.8614755173898327,35.05932649462077,0.96753815242596,101.1019942,96.8454506,95.5920442
5755.984,-1.4822974000000002,-48.016165,23.266294400000003,0.5117026,0.5134342000000001,0.4724928,43.356581,-31.5464842,-157.0999786,-21.9598076,20.8644272,-5.3393584000000045,-0.8620616,0.2467334,-0.3381878,144.569177,66.0724592,-60.25635199999999,53.37667807195145,0.865276646297726,30.75818948405072,0.9583311332409898,101.212596,97.6189434,96.84362660000002
5775.97,-3.2217114,-38.1067984,17.660896400000002,0.5411162,0.5017798,0.457655,43.4931578,-32.406932600000005,-157.4748198,-18.5134964,16.269930599999995,-3.934746400000004,-0.8623722,0.2445575999999999,-0.3354894,144.76076640000002,65.8359464,-59.6393096,42.12380289449976,0.868353504406748,24.958814473326697,0.957103635226071,101.2676086,98.242879,97.8355102
5795.956,-2.7178362,-27.287269,12.734697200000005,0.568823,0.4913502,0.4355164,43.589682,-33.030969,-157.7541138,-14.895145800000003,11.356393599999995,-2.8473238000000043,-0.8671659999999999,0.2411082,-0.3314136,144.8507842,65.6726454,-59.2120452,30.234982981044976,0.8687112057743931,18.94571974941636,0.959137638677682,101.2611022,98.7036144,98.5420686
5815.942,-0.9244064,-15.180422000000002,8.094842800000002,0.5892622,0.476932,0.4356962,43.652623,-33.4055496,-157.9151734,-10.700433800000004,6.187627599999997,-1.1151394000000043,-0.8749492,0.2327938,-0.3267917999999999,144.8329468,65.5814268,-58.9961028,17.228645310852414,0.8743713465497827,12.410864381899296,0.9625600949791758,101.1803238,98.9869764,98.9190706
5835.928,-0.2030509999999999,-3.2111791999999992,3.550614400000003,0.5933729999999999,0.4746373999999999,0.4436816,43.660297400000005,-33.5418174,-157.963025,-6.136767800000003,0.9730655999999968,0.5294225999999957,-0.8808576,0.2246909999999999,-0.3216355999999999,144.718576,65.5632186,-58.987519,4.791634812942344,0.8799008698633727,6.235949324875162,0.9642850284776384,101.0582786,99.105036,98.975506
5855.914,-0.9802378,7.904632000000001,-0.8462721999999971,0.5920284,0.4716578,0.4503503999999999,43.5891586,-33.454368599999995,-157.9195648,-1.306019600000003,-4.685059000000003,2.352757599999996,-0.885885,0.2248928,-0.316783,144.486554,65.61906880000001,-59.2138222,8.010009353082285,0.8807804434066188,5.402863440197517,0.9673264566865934,100.8973954,99.0734374,98.7057426
5875.9,-0.1690503999999998,18.2460008,-5.1764157999999965,0.586267,0.468078,0.4514088,43.4828316,-33.159251399999995,-157.8009338,3.8142923999999967,-9.711630200000004,4.536835399999996,-0.884854,0.2304866,-0.3137144,144.13998120000002,65.7287506,-59.6769898,18.96682376587684,0.8755432108642268,11.377498103754752,0.9666992287484872,100.6571496,98.888002,98.123944
5895.886,1.3749032,28.010400800000003,-10.087441399999998,0.5717472,0.4721841999999999,0.4722016,43.37248219999999,-32.6709186,-157.61398,8.611688199999998,-14.736493400000004,6.858511799999997,-0.8829722,0.2352998,-0.3120003999999999,143.6664216,65.8881988,-60.3837708,29.803177444434425,0.879105869892836,18.394689328526376,0.9655828040375616,100.2939394,98.5591174,97.23020920000002
5915.872,-0.2538285999999998,36.1973792,-15.611994599999996,0.5513532,0.4882746,0.4913726,43.2128326,-31.9916032,-157.39154960000002,12.978233799999998,-18.979803200000003,8.183746399999995,-0.8845188,0.2417695999999999,-0.310792,143.1059754,66.09431,-61.2798852,39.42142901135371,0.8853527365892986,24.405761352961427,0.9682033434674764,99.8931428,98.0859132,96.1116644
5935.858,-3.3305482,43.6679946,-21.1792964,0.5378878,0.4822746,0.4939584,42.9826598,-31.1277718,-157.1486112,16.933633999999994,-22.489700600000003,9.333303599999995,-0.8816238000000001,0.2398872,-0.3073768,142.47933659999998,66.3386138,-62.3346008,48.64718799372894,0.8751611143809808,29.658812343271084,0.9639952752106828,99.4966768,97.4663856,94.8140104
5955.844,-3.7315232,51.1181464,-25.91804,0.522937,0.4733392,0.5046885999999999,42.7267006,-30.089812,-156.8735044,21.1271642,-26.260457800000005,9.905944199999997,-0.8868514,0.2335458,-0.3028108,141.799588,66.6335724,-63.5385002,57.43460589405634,0.8673082999692784,35.12970881594176,0.9657864292773222,99.07288739999998,96.7233844,93.3350042
5975.83,-3.4706915999999994,58.6169944,-29.9599542,0.5039676,0.470529,0.5226288,42.455899800000005,-28.881726,-156.5373136,24.9589708,-29.5919158,9.386823399999995,-0.8973708,0.2254542,-0.2912804,141.098465,66.988333,-64.847193,65.92113916141042,0.8651715114820875,39.83395734360735,0.9700248555652788,98.6425652,95.870059,91.6901206
5995.816,-2.7518097999999998,65.71284399999999,-33.4009818,0.4729413999999999,0.4780071999999999,0.5450988,42.1849548,-27.5084918,-156.1446592,29.126292199999995,-31.7748512,9.195700599999997,-0.9043998,0.2099814,-0.2863902,140.412079,67.3783858,-66.2301214,73.76568246107158,0.8656195196778086,44.07428928101692,0.971622629029419,98.2271242,94.8868776,89.91453779999999
6015.802,-5.1594066,72.4632026,-36.5604676,0.4391657999999999,0.4908921999999999,0.5511429999999999,41.8674156,-25.9821162,-155.704141,35.0809022,-33.6625444,8.625076799999995,-0.9032098,0.2038586,-0.2797458,139.778705,67.7992874,-67.68181580000001,81.3277504831126,0.858836630774142,49.378421850579976,0.9672662426796668,97.9112894,93.7814036,88.0223252
6035.788,-8.0525834,79.68717960000001,-39.7162766,0.4227442,0.4823016,0.5561755999999999,41.4857612,-24.2994346,-155.21065359999997,39.590147,-36.9568306,6.842952799999996,-0.9098616,0.2128868,-0.2607346,139.1301882,68.289537,-69.2393294,89.39951520553296,0.8489162444149363,54.589495972226494,0.9701296059836336,97.644427,92.5889716,85.9713242
6055.775,-6.918645799999998,86.7696334,-42.75861819999999,0.3850108,0.4913071999999999,0.5664064,41.133039,-22.4564388,-154.6681702,41.6612404,-38.1916672,5.428501999999996,-0.91916,0.2167619999999999,-0.2479394,138.4731632,68.81126400000001,-70.8435424,96.9800823388474,0.8428714557092558,56.77790969334951,0.9763784186043648,97.3401242,91.2677028,83.8246278
6075.76,-7.175580399999999,92.8477278,-46.11610639999999,0.3320425999999999,0.518828,0.5906549999999999,40.7934394,-20.4530404,-154.1159578,44.7763482,-36.97074880000001,4.119399599999996,-0.9158964,0.219489,-0.2472172,137.9270236,69.32033240000001,-72.39102940000001,103.91768271663815,0.8534096969356276,58.21277418251792,0.9737340399872032,97.1335842,89.77337279999999,81.7249284
6095.746,-11.8282988,97.8393264,-50.0632492,0.3008126,0.5246877999999999,0.6011238000000001,40.3853218,-18.317922000000003,-153.5796114,46.19347379999999,-36.901557,2.395751799999996,-0.9236936,0.2408342,-0.2312996,137.3916842,69.84157880000001,-73.9470124,110.53855148032795,0.8527223057443964,59.1717969764544,0.9821967641622324,97.0063624,88.1595008,79.632599
6115.733,-13.0469822,103.226175,-54.3260002,0.2768618,0.5174074,0.6021932,39.977047000000006,-16.0497954,-153.060422,45.4596542,-36.570258,2.148883799999996,-0.929547,0.2517916,-0.2161391999999999,136.78250440000002,70.35338300000001,-75.5574494,117.37623800151437,0.840832637330545,58.3830594586824,0.9870019193579108,96.8054574,86.4031784,77.50297259999999
6135.719,-9.385594799999998,108.56149759999998,-58.2283662,0.214249,0.531675,0.6289652,39.6624832,-13.6333478,-152.55015880000002,44.9551224,-31.876926200000003,4.169224999999996,-0.9366248,0.2424837999999999,-0.2144537999999999,136.22787780000002,70.7645876,-77.0965302,123.54849566557212,0.8509865818196195,55.26738541906839,0.9909868019161104,96.5653946,84.39793540000001,75.4536286
6155.705,-10.5615424,111.78422559999998,-62.1692972,0.1425246,0.5651138,0.6695659999999999,39.350145,-11.106972,-152.07816160000002,43.6062942,-26.4869106,2.888582799999996,-0.9347308,0.2577348,-0.2121718,135.86210920000002,71.10364860000001,-78.4019654,128.34438353586268,0.8876854718376322,51.10194944991631,0.992555171421176,96.5119642,82.2106206,73.6761962
6175.691,-16.447266,114.9470948,-67.1866656,0.1083922,0.5642699999999999,0.6455264,38.9506706,-8.477948399999999,-151.6641144,37.8745482,-21.878799600000004,0.9331583999999956,-0.9422238,0.2771824,-0.2053322,135.60310959999998,71.39581319999999,-79.46836400000001,134.154370768459,0.8642070556399084,43.7496749461133,1.0033828205191877,96.652439,79.87376160000001,72.19575040000001
6195.677,-13.4149738,120.8274322,-70.81030059999999,0.0725228,0.543021,0.6394869999999999,38.6286246,-5.7140656,-151.2530486,30.906726599999995,-18.956235,-0.5546070000000045,-0.9514824,0.2669086,-0.199509,135.3735106,71.6696046,-80.3556124,140.6887648860514,0.8420659036737207,36.26116632744762,1.0081482030657596,96.744886,77.3836702,70.89743619999999
6215.663,-5.636713799999998,125.878311,-73.1994478,-0.0135398,0.562422,0.6852098,38.479373,-2.823873,-150.8283934,24.2096558,-13.8081814,-4.290242200000004,-0.9629328,0.2587752,-0.2045242,135.3919066,71.92178960000001,-80.8409106,145.72330246360997,0.8865744764451997,28.19892703037547,1.0178577159095077,96.9125336,74.7456626,69.9874828
6235.649,-6.869791999999999,127.6496748,-75.1984376,-0.0968335999999999,0.6088967999999999,0.7278968,38.3279036,0.1169043999999999,-150.4207488,17.850042799999997,-9.546961600000005,-9.875092800000004,-0.9714218,0.2494174,-0.2120722,135.73001399999998,72.1903412,-80.8576388,148.3119635638006,0.953921281128291,22.52300960267784,1.025106809532958,97.4021104,72.07343680000001,69.56311000000001
6255.635,-14.601668399999998,130.5608596,-77.47210859999998,-0.1124126,0.5766334,0.6729620000000001,38.048548,3.130208,-150.0241974,12.024846799999995,-6.654363800000001,-11.352914600000004,-0.97356,0.2276075999999999,-0.2030797999999999,136.1604798,72.44715579999999,-80.6561906,152.51647252177276,0.893319944968386,17.82599697243085,1.0202282579627953,98.1119318,69.31694780000001,69.36800680000002
6275.621,-7.380104999999998,136.30598460000002,-76.98944399999999,-0.1488622,0.5308734,0.6837036,37.924224,6.234984,-149.56116020000002,6.910252999999997,-5.017666800000002,-13.767347800000003,-0.9768782,0.2189236,-0.1843988,136.6648682,72.7207428,-80.2690004,156.72001108670074,0.8783149401378528,16.200877818377503,1.0179496439970104,98.7406442,66.4857588,69.29215980000001
6295.607,-1.601609199999998,139.3025056,-76.71414339999998,-0.2555898,0.5862292,0.7471826,37.9537224,9.4003096,-149.0546448,3.085567999999997,0.012252799999997,-15.338219000000004,-0.9791252,0.2150064,-0.1868833999999999,137.396701,72.93997199999998,-79.56335759999999,159.0371435107639,0.983500207696694,15.645505492175474,1.019725117132828,99.4429786,63.5396624,69.49128720000002
6315.593,-10.790623599999998,138.033133,-77.76419519999999,-0.340155,0.6124818,0.7635757999999999,37.818946800000006,12.5562826,-148.57913820000002,-0.9726966000000026,3.6278177999999968,-13.935795200000005,-0.9722425999999998,0.1849067999999999,-0.1961346,138.1974854,73.08893139999999,-78.7048814,158.79815307041915,1.036285376574368,14.433072733205204,1.0089177267042937,100.37853859999998,60.5326488,69.87425680000001
6335.579,-18.6485914,139.25611279999998,-78.56455679999999,-0.3391066,0.5332122,0.659438,37.5474702,15.744192000000002,-148.1118958,-3.601885600000003,4.102887799999997,-12.988738000000003,-0.9751914,0.2127667999999999,-0.1835906,138.8730042,73.20942240000001,-77.9173416,160.9733658048775,0.9133274397697684,14.089520325671852,1.0148760940255517,101.325534,57.4652304,70.1945542
6355.565,-7.476367599999999,144.60768739999995,-76.93089119999999,-0.4141062,0.5195668,0.6883358,37.55132,19.0054372,-147.549884,-9.334393400000002,2.3805787999999977,-13.756364,-0.9951004,0.2180113999999999,-0.1832215999999999,139.39685980000002,73.3644012,-77.16804959999999,163.96841570403942,0.9566816492973615,16.793915745574914,1.0350477918032,101.8455398,54.35896399999999,70.38183440000002
6375.551,-4.753293399999999,143.832733,-76.6901594,-0.5544378,0.5846678000000001,0.7693474,37.661188,22.2575812,-146.973001,-13.023063400000002,0.8453371999999971,-12.223431600000003,-0.994062,0.1765758,-0.2163439999999999,139.7796722,73.521379,-76.4951812,163.07001388726616,1.114061547811628,17.880913158505134,1.0325420085040802,102.1184842,51.2637978,70.4778198
6395.537,-16.2654742,140.8820464,-77.0714536,-0.5859098,0.5512558000000001,0.6989246,37.5687418,25.466584,-146.42395,-12.305594000000005,-1.2972996000000028,-11.323092200000003,-0.988534,0.1621918,-0.2216432,140.0701782,73.6986678,-75.9363098,161.40732823765956,1.0656776469715596,16.772687528082585,1.025978244042962,102.5014364,48.2320838,70.4876402
6415.524,-14.136684799999998,143.3742736,-75.192407,-0.6033408,0.4550088,0.614497,37.5827562,28.6870358,-145.79672839999998,-11.513626000000002,-4.907550000000003,-12.400751800000004,-0.9960068,0.170365,-0.21011,140.2523528,73.9457242,-75.505255,162.51131116914866,0.9739916283167324,17.618918124436004,1.0320852634212156,102.6695966,45.2586884,70.2914734
6435.51,0.5300144000000018,145.4230314,-70.71998119999999,-0.7012946,0.4938772,0.6958842,37.9927758,31.880362400000003,-145.03086219999997,-11.520719000000003,-8.023789200000003,-12.619317200000005,-0.99041,0.1365388,-0.225367,140.3878844,74.24497199999999,-75.12923579999999,161.70793028716292,1.1045286888436352,18.877376035805764,1.0248634527069642,102.3951086,42.3646096,69.9016264
6455.495,-1.887232399999998,139.9441466,-69.73343799999999,-0.7917774,0.5379700000000001,0.702193,38.3968864,34.9735112,-144.280261,-7.280504400000002,-8.059324800000002,-10.528950400000005,-0.9611502,0.114759,-0.2578606,140.5435576,74.51148359999999,-74.8240708,156.3671263054794,1.1871807702703747,15.126706749189486,1.0017342082974905,102.1466712,39.5379724,69.4561902
6475.481,-9.585753,135.069789,-67.7710464,-0.8005608000000001,0.4776176,0.5915364,38.6792052,37.9566732,-143.52272939999995,-1.9167308000000027,-8.693059000000002,-9.489753000000004,-0.9570652,0.1342628,-0.2624058,140.73072499999998,74.7654952,-74.598079,151.4220898390736,1.1040522989656605,13.011477384915164,1.0014275312714944,102.0515198,36.808822,68.92465039999999
6495.468,-2.675279599999997,133.656636,-63.6969796,-0.8378327999999999,0.4440116,0.5473524,39.193608,40.8592308,-142.6726898,-1.1165404000000028,-9.785733200000005,-9.542410800000004,-0.948876,0.1365616,-0.2713946,140.89913620000002,75.0283538,-74.40887000000001,148.08294526358355,1.0948537580317108,13.713673490439064,0.996328140162527,101.7055282,34.169123000000006,68.26381980000001
6515.453,4.170462600000003,131.04591820000002,-59.6573312,-0.8964178,0.4996698,0.6040022,39.9594306,43.6603072,-141.7122986,-0.5490134000000028,-10.397002200000005,-8.605827000000003,-0.9661012,0.1197532,-0.2830928,141.0398314,75.2888504,-74.2628968,144.04659871404667,1.1908204897438237,13.507750694105718,1.0138214295247068,101.0804008,31.628543200000003,67.4494018
6535.44,-2.6746335999999977,125.1988326,-58.3847504,-0.919966,0.4990482,0.568397,40.649581,46.3400428,-140.7244814,4.828782399999997,-10.211730400000002,-8.250542800000005,-0.9768462,0.1238512,-0.2821772,141.27427960000003,75.53993080000001,-74.1306794,138.1690284708095,1.1909918961471735,13.988139037179527,1.0243005371450902,100.6246986,29.199888000000005,66.59380200000001
6555.426,-4.783449199999998,121.559703,-54.4488846,-0.914639,0.4466442,0.5215606,41.402214,48.9019318,-139.6326266,7.858557999999997,-11.145235600000005,-9.242260600000003,-0.9846558,0.1209524,-0.2554182,141.5897032,75.82212840000001,-73.9775102,133.28287141970387,1.143713688467092,16.473997432838935,1.0244095784551412,100.1874892,26.9201966,65.65511640000001
6575.412,-1.492483199999998,119.1734986,-49.9095032,-0.9182012,0.4581146,0.4916058,42.4006294,51.3640534,-138.3730714,9.457483199999997,-11.178423800000004,-10.065191800000004,-0.9801672,0.1158847999999999,-0.246305,141.99983200000003,76.11213380000001,-73.7598404,129.21110162960957,1.1378219074214737,17.768208494428357,1.0172625913951028,99.5992026,24.7480804,64.61323100000001
