Timestamp (ms),Wrist Gyroscope X (deg/s),Wrist Gyroscope Y (deg/s),Wrist Gyroscope Z (deg/s),Wrist Accelerometer X (g),Wrist Accelerometer Y (g),Wrist Accelerometer Z (g),Wrist Roll (deg),Wrist Pitch (deg),Wrist Yaw (deg),Arm Gyroscope X (deg/s),Arm Gyroscope Y (deg/s),Arm Gyroscope Z (deg/s),Arm Accelerometer X (g),Arm Accelerometer Y (g),Arm Accelerometer Z (g),Arm Roll (deg),Arm Pitch (deg),Arm Yaw (deg),Wrist Gyroscope Magnitude (deg/s),Wrist Accelerometer Magnitude (g),Arm Gyroscope Magnitude (deg/s),Arm Accelerometer Magnitude (g),Difference Roll (deg),Difference Pitch (deg),Difference Yaw (deg)
0.0,17.8197,-1.896026,0.682824,-0.912605,-0.308424,0.200415,-61.565247,66.771187,167.666916,0.873988,-3.129056,0.557867,-0.966499,-0.175351,-0.196211,-140.555756,73.249825,58.743038,17.933289472309646,0.98394076144146,3.2963710447959285,1.0016821086168006,-78.990509,6.478638000000004,-108.923878
19.985,15.6200815,-1.7742725,0.470426,-0.91495,-0.323515,0.197192,-61.3886455,66.766678,167.7195815,-0.369513,-3.2303995,0.399005,-0.969418,-0.1672985,-0.201247,-140.5161515,73.2859575,58.8021905,15.727564642765724,0.9902929579619356,3.27585496882787,1.004121706684628,-79.12750600000001,6.519279500000003,-108.917391
39.971,13.145003,-1.5642736666666668,0.565265,-0.9125196666666668,-0.331522,0.1943476666666666,-61.25540833333333,66.76502233333333,167.761612,-1.7006856666666668,-3.227907,-0.047969,-0.9656316666666666,-0.1770006666666666,-0.2053586666666666,-140.46026600000002,73.31009933333333,58.896057000000006,13.249814356981036,0.9901363512548272,3.648837672796016,1.0029685606463443,-79.20485766666668,6.545077000000002,-108.865555
59.956,11.19117125,-1.44077275,0.6119005,-0.91397425,-0.33427575,0.195017,-61.14505425,66.7648735,167.8036575,-2.48676075,-3.122121,-0.305344,-0.96096025,-0.185981,-0.211497,-140.40453325,73.32549475,58.9966535,11.30011337491219,0.9925325369931834,4.003105485084994,1.0013813037250408,-79.25947900000001,6.5606212500000005,-108.807004
79.942,9.8337122,-1.418961,0.7670498,-0.9136652,-0.3358607999999999,0.193316,-61.0454928,66.767308,167.8486542,-2.5947064,-3.1088488,-0.303112,-0.9599904,-0.184353,-0.2140238,-140.35689080000003,73.3433776,59.0847832,9.965124753239666,0.9924503264766856,4.060704255176237,1.00068665608551,-79.31139800000001,6.576069599999999,-108.763871
99.927,7.079632599999999,-1.2165956000000002,0.7855506,-0.9134822,-0.340156,0.1913212,-60.8338946,66.7706114,167.9365388,-3.0125174,-3.138249,-0.2804582,-0.9559916000000002,-0.1839372,-0.2193422,-140.26672660000003,73.38820940000001,59.241945,7.226229469791453,0.9933577581225608,4.359188533804313,0.9979297738394424,-79.43283200000002,6.617597999999998,-108.6945938
119.913,5.6659024,-1.1344536,0.9132848,-0.9115822,-0.3391518,0.1943947999999999,-60.648311,66.7760176,168.02669379999998,-2.675159,-2.939303,-0.0709694,-0.9491518,-0.1878622,-0.2215778,-140.1863006,73.4287628,59.381647,5.85008752949815,0.9918646021847538,3.9750489879781807,0.9926117403521478,-79.53798960000002,6.652745199999998,-108.6450468
139.899,5.695854,-1.2773968,1.0498024,-0.9126998,-0.335791,0.2008434,-60.4444886,66.78232399999999,168.13702999999998,-1.5561728,-2.7733655999999995,0.2983306,-0.9484306,-0.1851946,-0.2204928,-140.11259460000002,73.47234040000001,59.4912562,5.930984779361012,0.993033026603144,3.1940932487357907,0.9911784489875474,-79.66810600000001,6.690016399999999,-108.6457738
159.884,5.4450532,-1.5859572,1.050795,-0.913261,-0.332814,0.2019594,-60.2317078,66.7865752,168.2650544,-0.6622432,-2.7903302,0.7460028000000001,-0.9548056,-0.1794902,-0.2163204,-140.0469636,73.5262208,59.5741366,5.767844894159957,0.9927730918822084,2.963280084397376,0.9953215466087127,-79.8152558,6.739645599999998,-108.6909178
179.869,4.8174496,-1.7907312000000002,1.0177636,-0.9149974,-0.3364032,0.2036153999999999,-60.0264946,66.7863722,168.40186160000002,-0.6746284,-2.6741624,0.7731866000000001,-0.9577564,-0.1828012,-0.2135116,-139.97934879999997,73.5785662,59.6586282,5.239311178454527,0.9959149492271716,2.864277489713572,0.9981486882208284,-79.9528542,6.792193999999998,-108.7432334
199.855,5.3552738,-1.9303344,1.234101,-0.916989,-0.3420222,0.2084185999999999,-59.799989200000006,66.78503260000001,168.5530394,-0.9443280000000002,-2.3299449999999995,0.6522138,-0.9577358,-0.1884654,-0.213358,-139.9170502,73.6215792,59.7424126,5.8247878628316405,1.0006429554240617,2.597264313757735,0.999148990773048,-80.117061,6.836546599999997,-108.8106268
219.84,6.6264668,-2.1222243999999995,1.4985386,-0.9189924,-0.3401376,0.209916,-59.533255800000006,66.787007,168.7168426,-0.8541974,-2.0250604,0.901809,-0.9584513999999998,-0.1844952,-0.2131776,-139.88574839999998,73.6643678,59.79253,7.117549900854055,1.0021503605984083,2.3756646005477964,0.9990556811943766,-80.35249259999999,6.877360799999996,-108.9243126
239.826,7.545982599999999,-2.4298536,1.4869054,-0.9202144,-0.3373841999999999,0.2136724,-59.23227000000001,66.7857726,168.8923096,-0.8799527999999999,-1.3749438,1.403136,-0.9559746,-0.1808388,-0.2144347999999999,-139.9171998,73.7036088,59.7783416,8.065787598584832,1.003134355357626,2.152574741532168,0.9962792735381178,-80.6849298,6.917836199999996,-109.113968
259.811,8.866638,-3.0877609999999995,1.6976288,-0.9187396,-0.336111,0.2196374,-58.8687552,66.7794616,169.10335379999998,-1.1231098000000002,-0.7520202,1.653374,-0.9498646,-0.1840022,-0.2161874,-139.9907288,73.7332886,59.725008200000005,9.541146731853276,1.0026433286108871,2.135545735389453,0.9913811375332698,-81.12197360000002,6.953827000000001,-109.37834560000002
279.797,10.6687788,-3.7790928,1.879355,-0.919926,-0.331026,0.2166272,-58.441478,66.7719742,169.34770199999997,-0.6918194000000001,-0.3367179999999999,2.2703516,-0.952862,-0.1827148,-0.215022,-140.1060212,73.7656326,59.619097,11.47328892211672,1.0013837435927546,2.3971836561604785,0.9937631255319548,-81.66454320000001,6.993658400000001,-109.728605
299.782,11.0717994,-4.3731236,2.072009,-0.9184676,-0.3276595999999999,0.2135298,-57.9836868,66.76305239999999,169.62075199999998,-1.0886866000000002,-0.0781332,2.8174502,-0.9608296,-0.1754962,-0.2094851999999999,-140.27245480000002,73.80680079999999,59.4684172,12.08313590384542,0.9982677602777524,3.021484558862057,0.9989376784713048,-82.288768,7.043748400000004,-110.15233480000002
319.767,10.7763512,-4.6404676,2.2989652,-0.9158392,-0.3277096,0.2198394,-57.5123336,66.75211340000001,169.92210999999998,-2.6461616,-0.0576866,2.8179854,-0.9644964,-0.1782756,-0.2032392,-140.4572722,73.849414,59.3298902,11.956125029590575,0.9972383787145178,3.866075616403186,1.0016694402770607,-82.9449386,7.097300600000002,-110.5922198
339.753,10.9237046,-4.7003888,2.7784052000000004,-0.9126299999999998,-0.3211942,0.2211682,-57.0213562,66.7495896,170.25042119999998,-4.1567854,-0.4436992,2.8553552,-0.9687704,-0.1783076,-0.1961669999999999,-140.64723199999997,73.9015426,59.2166464,12.212309876293412,0.9924588675128454,5.062488238001234,1.004385971637856,-83.62587579999999,7.151953000000003,-111.0337748
359.739,10.9561652,-4.0281186,3.141643,-0.9102494,-0.3205832,0.2172846,-56.555761,66.76042620000001,170.55780959999998,-5.6726152,-0.8830584,3.1173512,-0.9747406,-0.17041,-0.1893936,-140.8652252,73.9697204,59.1060424,12.088557237520366,0.9892118861597652,6.532704941233994,1.007486347852575,-84.30946420000001,7.209294199999999,-111.4517672
379.724,10.2279108,-3.003418,3.5956086,-0.9035284,-0.3144418,0.2274198,-56.1193832,66.7875258,170.84244700000002,-7.4859774,-1.1283464,3.0447656,-0.9696566,-0.170011,-0.1871023999999999,-141.10105579999998,74.0403624,59.0143058,11.24984800874548,0.9833397076421962,8.159878724015885,1.0020703419073531,-84.9816726,7.252836599999997,-111.8281412
399.71,8.492207800000001,-2.09343,3.9780288,-0.8999922,-0.3054738,0.2376188,-55.7264062,66.83029760000001,171.1098328,-8.600825799999999,-1.4653396,2.8744376,-0.9619,-0.1739306,-0.1869024,-141.32708739999998,74.11092199999999,58.95530240000001,9.60857719003757,0.9796748933501972,9.186066410687848,0.9952064965333174,-85.6006812,7.280624399999996,-112.1545304
419.695,6.190623400000001,-1.35432,4.4905436000000005,-0.8988813999999999,-0.3003871999999999,0.2374832,-55.392843600000006,66.89077119999999,171.3566834,-9.385903,-1.9047934,2.716826,-0.9595588,-0.1729048,-0.1907112,-141.54633180000002,74.1839734,58.9200792,7.766787145694707,0.9770458082771964,9.955127148176892,0.9934887630597136,-86.1534882,7.293202199999996,-112.4366042
439.68,3.3270703999999998,-0.6978215999999999,5.040478599999999,-0.9015708,-0.300988,0.2355065999999999,-55.1316094,66.9674314,171.5815002,-10.3383508,-2.294796,2.2714412,-0.9580252,-0.1680644,-0.195758,-141.75680240000003,74.2560636,58.914837,6.079702044429536,0.9792277785072276,10.830837043854649,0.992158818408827,-86.625193,7.288632199999995,-112.66666320000002
459.666,1.1449424,-0.2416376,5.5528808,-0.9028228,-0.295781,0.2396269999999999,-54.90931020000001,67.0578658,171.80628040000002,-10.6053954,-2.572939,2.0496972,-0.9536658,-0.1669718,-0.1989179999999999,-141.953415,74.3273832,58.92989659999999,5.674836297908527,0.9797941147454602,11.10385902737197,0.9883958775758224,-87.04410479999999,7.269517399999998,-112.8763838
479.652,-0.06468,-0.3017562,5.900778000000001,-0.9105698,-0.2966178,0.2425716,-54.6973748,67.15253440000001,172.0502806,-10.5456568,-2.9087964,2.3351964,-0.9572494,-0.16057,-0.2010532,-142.1629976,74.408557,58.9312042,5.908842637261754,0.9879071115623372,11.185933848660651,0.9912272836895684,-87.4656228,7.2560226,-113.1190764
499.637,0.8371029999999999,-0.65321,6.2772586,-0.9157322,-0.2962426,0.2492702,-54.435993200000006,67.24718779999999,172.3317412,-9.986014,-3.2727062,2.9225172,-0.9592642,-0.1559318,-0.2043114,-142.39015820000003,74.5022522,58.9034354,6.366427590728018,0.9942136454402744,10.907437291316889,0.9930990282055664,-87.954165,7.2550644,-113.4283058
519.623,2.2126878,-1.5711967999999998,6.692804,-0.9218812,-0.2945723999999999,0.2571958,-54.0900704,67.335849,172.677075,-9.124471799999998,-3.434864,3.6117238,-0.9598398,-0.1537052,-0.2075888,-142.63988060000003,74.60533760000001,58.834844,7.222068406420357,1.0013927927106523,10.397058484733922,0.9939873440122464,-88.5498102,7.269488600000002,-113.842231
539.608,3.7245782000000007,-3.0128194,7.026908000000001,-0.9270926000000002,-0.2950742,0.268778,-53.63726260000001,67.40816659999999,173.1081998,-8.2511978,-3.977642,4.3454292,-0.9575774,-0.1597344,-0.2170614,-142.8918368,74.7183076,58.74579140000001,8.504528178881861,1.0093617219631426,10.138375409655213,0.9947789738952468,-89.25457420000001,7.310141000000004,-114.3624084
559.594,5.5459760000000005,-5.365574,7.614200800000001,-0.932116,-0.3068954,0.2630548,-53.0610022,67.457422,173.63812539999998,-7.490717399999999,-4.0718896,4.5236024,-0.9568134,-0.1563737999999999,-0.2228726,-143.1477296,74.8321702,58.637696600000005,10.840815834833313,1.015983686778582,9.65163772395839,0.9947948751259026,-90.0867274,7.374748200000002,-115.0004288
579.579,7.001219799999999,-7.726074,7.820704999999999,-0.9343928,-0.3100796,0.2585496,-52.3727408,67.4795244,174.25483079999998,-7.7989522,-4.0962646,4.4761018,-0.9609324,-0.161436,-0.2253622,-143.4001558,74.9425202,58.539038600000005,13.033523116886432,1.0178836665789268,9.881220896987438,1.0001203830812568,-91.027415,7.462995800000002,-115.71579219999998
599.565,6.518410200000001,-9.9623606,7.8569396,-0.9337478,-0.3212736,0.2624842,-51.6213348,67.4661028,174.94841,-9.0225804,-4.4246912,4.1726124,-0.9728232,-0.1611658,-0.217685,-143.63508919999998,75.05852660000001,58.4831626,14.2642840737958,1.0217630034951548,10.880971626213135,1.0098248129120615,-92.0137544,7.592423800000001,-116.4652474
619.55,5.234262200000001,-11.4463938,7.3558994,-0.9315058,-0.329007,0.2699444,-50.8624886,67.4175876,175.67612300000002,-11.2338722,-5.6038006,3.0664688,-0.9834554,-0.1613624,-0.2047532,-143.7765472,75.18645180000001,58.5686492,14.57829509188052,1.0241184699896786,12.923068392292391,1.0174213585497212,-92.9140586,7.768864200000001,-117.1074738
639.535,3.2209966000000008,-12.4079212,6.3403914,-0.9265442,-0.3344702,0.2709823999999999,-50.1534258,67.334978,176.3923066,-13.4272808,-7.200585200000001,1.5482038,-0.9939218,-0.1593734,-0.1932296,-143.78261400000002,75.32813719999999,58.8387794,14.301464635058013,1.0216584215634108,15.3146084478462,1.0249966358281182,-93.6291882,7.993159200000003,-117.5535272
659.521,-0.2922926,-12.6639232,4.6273964,-0.9256798,-0.3256043999999999,0.2892865999999999,-49.5406694,67.2181094,177.0769074,-14.882844,-9.6485612,0.2016764,-0.9977598,-0.1676132,-0.1928818,-143.6032226,75.48944399999999,59.3298004,13.486036601694584,1.0230288629197908,17.73793821527176,1.0299622284732195,-94.0625532,8.271334600000003,-117.747107
679.506,-4.1894556000000005,-13.341499,3.0711432000000003,-0.9196760000000002,-0.3273196,0.300936,-49.0305016,67.06162579999999,177.7398956,-14.2111818,-12.392635,-1.1089379999999998,-0.9835592,-0.166513,-0.2017535999999999,-143.2107054,75.6707718,60.02825779999999,14.317089590635332,1.021520700532378,18.888219447150657,1.0177523245793152,-94.1802038,8.609146000000004,-117.7116378
699.492,-6.746294600000001,-14.7519342,1.3696034,-0.9206992,-0.3261326,0.2884263999999999,-48.5999832,66.8652788,178.3795532,-12.7879092,-14.251044000000002,-2.3716974,-0.9645244,-0.1663638,-0.2193071999999999,-142.6420378,75.8531006,60.8809204,16.279062225583214,1.0184494478767023,19.29372502536893,1.0030353334342914,-94.0420546,8.987821800000006,-117.4986328
719.477,-8.5507086,-16.9898096,-0.1517128,-0.9210952,-0.3280166,0.2735442,-48.2065018,66.6210084,107.0255586,-10.153862,-15.4370282,-3.2828661999999995,-0.9517364,-0.166267,-0.235208,-141.9180938,76.03030079999999,61.8407692,19.020811354409936,1.0153017712445105,18.76645847382349,0.9943689926973588,-93.711592,9.409292400000004,-45.1847894
739.462,-8.6562686,-19.807735,-1.081776,-0.9222562,-0.3268258,0.2739498,-47.76328120000001,66.3262558,35.73242499999999,-7.1591070000000006,-15.465,-3.6294628,-0.9369692,-0.1654922,-0.2402225999999999,-141.10799559999998,76.19476,62.82807760000001,21.64365013623504,1.016080752157091,17.423892741119385,0.9813286134421232,-93.3447144,9.8685042,27.095652600000005
759.448,-7.141063,-23.4986504,-1.6117356,-0.9223706,-0.3250043999999999,0.2733556,-47.2042022,65.975,-35.4597412,-5.0823084000000005,-14.2307172,-3.4514324000000003,-0.9280794,-0.1538416,-0.2393431999999999,-140.34213559999998,76.3410384,63.7280608,24.61257895946088,1.0154401350227793,15.500179234797775,0.970713025554494,-93.1379334,10.3660384,99.187802
779.434,-5.4450642,-27.484396,-2.0725036,-0.9258818,-0.3229836,0.274978,-46.5213966,65.5634934,-106.543454,-4.043562400000001,-11.389633,-3.2813782,-0.9307792,-0.1504202,-0.2261639999999999,-139.6957642,76.44964279999999,64.4825476,28.09512446669262,1.01842447629866,12.523640830398245,0.9696011090219936,-93.1743676,10.886149399999995,171.02600160000003
799.419,-2.989639,-31.0696922,-2.271338,-0.9250252,-0.3170016,0.288965,-45.69922699999999,65.0959976,-177.51727920000002,-3.2479060000000004,-8.618256,-2.8752732,-0.942027,-0.1543096,-0.2023324,-139.15925,76.52910899999999,65.1048536,31.295729597874946,1.019638370336562,9.648337983352896,0.9757892812851144,-93.460023,11.433111399999998,242.6221328
819.405,-0.1534084,-33.724429,-2.4236278,-0.9264222,-0.3093696,0.309759,-44.7590956,64.58380360000001,-176.4137362,-2.6193888000000003,-5.2661298,-1.8762512,-0.9630679999999998,-0.1530275999999999,-0.1770646,-138.81499939999998,76.5822828,65.5139998,33.81175264942893,1.0246552006104297,6.173624488217187,0.9910949962334183,-94.0559038,11.998479199999998,241.927736
839.39,1.2121901999999998,-35.359198,-2.7622746,-0.9338328,-0.3070238,0.334571,-43.77715439999999,64.0359552,-175.2799684,-2.733455,-1.6698500000000005,-1.0708456,-0.993574,-0.1420386,-0.1610636,-138.7127106,76.604869,65.6758026,35.48763797789288,1.038385798325112,3.377408112527173,1.016516473359345,-94.9355562,12.5689138,240.955771
859.375,2.3639544,-35.8490988,-3.0265692,-0.9411156,-0.3083554,0.3479278,-42.8044884,63.47226880000001,-174.1807068,-3.2091849999999997,0.7528784000000001,-1.1197562,-1.0216784,-0.1439245999999999,-0.1517154,-138.7290436,76.5967178,65.7239136,36.05421315602144,1.0496834662341594,3.481314147969125,1.0428607798305964,-95.9245552,13.124448999999998,239.90462040000003
879.361,4.6253822,-35.6268394,-3.2518306000000003,-0.9474076,-0.3031288,0.3708498,-41.8263704,62.90209599999999,-173.1220214,-3.720637,1.9888724,-1.2851986,-1.037929,-0.1397527999999999,-0.1567848,-138.8267974,76.5695542,65.6993912,36.07270780493982,1.0616015279224311,4.410270802421629,1.0589659709640722,-97.000427,13.6674582,238.82141260000003
899.347,5.8706242,-35.91242,-3.6294066,-0.9535772,-0.3032272,0.3919742,-40.863209,62.314429,-172.1198852,-3.5688512,2.9646688,-1.7209793999999998,-1.0408752,-0.1335529999999999,-0.1754745999999999,-138.9864348,76.5171648,65.610083,36.56964220527935,1.0746627306486998,4.948507863655391,1.0639778761934855,-98.1232258,14.2027358,237.7299682
919.332,6.5939354,-37.7244684,-3.881355,-0.9542278,-0.3039824,0.4069924,-39.8920588,61.6882442,-171.1340942,-3.1067104,3.2000676,-2.4647026,-1.024849,-0.1373078,-0.2013874,-139.1345,76.438129,65.5248062,38.49260210427449,1.0810174871205185,5.095766974704071,1.05343523276023,-99.2424412,14.749884799999998,236.6589004
939.317,7.894403799999999,-41.213086,-4.0042784000000005,-0.9388432,-0.3057307999999999,0.405587,-38.8768336,61.000348200000005,-170.13641660000002,-1.9326916,2.4112746,-3.1668294,-0.9965196,-0.1392663999999999,-0.2164971999999999,-139.19315160000002,76.35243399999999,65.5086532,42.15298701759529,1.067426199239966,4.424742983046595,1.0292315001791192,-100.316318,15.352085799999994,235.6450698
959.303,10.0196896,-45.4214846,-4.6462382,-0.9180154,-0.305588,0.4230308,-37.791211200000006,60.225101,-169.10759900000002,-0.5723434,1.0030194,-3.3392138000000005,-0.9706798,-0.134037,-0.2180107999999999,-139.15220319999997,76.2848496,65.56808779999999,46.74497804427257,1.055978862539303,3.533266716002397,1.0038495407249433,-101.360992,16.0597486,234.67568680000005
979.289,12.6344826,-49.7793336,-5.583627,-0.890466,-0.3095062,0.4402546,-36.6435418,59.353126,-168.076349,0.3021370000000001,-1.7852865999999998,-3.8069136,-0.9551258,-0.1374932,-0.20674,-138.8931212,76.2547196,65.83332679999998,51.66032418311872,1.0404556203008373,4.215581355966639,0.9868693436680864,-102.2495794,16.9015936,233.9096758
999.29,14.991424599999998,-53.605056000000005,-6.661485400000001,-0.8646543999999998,-0.3037428,0.4591356,-35.4543534,58.393123,-167.04729,0.382093,-5.760885,-4.5904288,-0.9520714,-0.1439683999999999,-0.188134,-138.3292266,76.277449,66.4092134,56.05907801627704,1.0250328868765917,7.376030613530792,0.9811020603650366,-102.8748732,17.884325999999998,233.45650340000003
1019.26,16.768069000000004,-56.2994994,-7.810913600000001,-0.8441735999999999,-0.3062796,0.4756302,-34.2756852,57.36285780000001,-166.0610228,0.0812918,-10.0210914,-5.3980802,-0.9568276,-0.1449322,-0.1700894,-137.4566558,76.3570204,67.3081696,59.260544563360426,1.0161989704113854,11.38280066809277,0.982575596435694,-103.1809706,18.9941626,233.36919240000003
1039.245,18.739123,-57.7581192,-9.179947,-0.8356680000000001,-0.3071192,0.497861,-33.130793000000004,56.281955,-165.1506682,-0.4611538,-14.4703474,-6.075714,-0.9679238,-0.1537278,-0.1568419999999999,-136.258905,76.4907194,68.55149080000001,61.41194095005748,1.0200631277296714,15.700889061251823,0.992526136715442,-103.12811200000002,20.2087644,233.702159
1059.23,19.9294202,-58.9220184,-10.22918,-0.8303324,-0.3085623999999999,0.5209918,-32.0316126,55.1606758,-164.31260659999998,-0.7619770000000001,-17.9124636,-6.7692266000000005,-0.9754886,-0.1663324,-0.1522922,-134.7835326,76.65450419999999,70.0852752,63.03667317768687,1.0276648796425611,19.164012886971285,1.0012179533950436,-102.75192,21.4938284,234.3978818
1079.216,19.8579682,-60.3303628,-10.7690848,-0.8316606,-0.3095772,0.5365346,-30.98879,54.0066704,-163.5283934,-0.5528984,-20.1504454,-7.3978546,-0.9814032,-0.1752668,-0.1513431999999999,-133.0982482,76.8274122,71.829776,64.42099629811251,1.0369989263973998,21.47264304043275,1.0083528431748086,-102.1094582,22.8207418,235.3581694
1099.201,19.6548722,-62.0632486,-10.9602922,-0.8344864,-0.3158582,0.558578,-29.9929652,52.8157326,-162.78301679999998,0.473177,-21.4428524,-7.997133,-0.982577,-0.180093,-0.1569058,-131.25823359999998,76.9910048,73.7121032,66.01733736749094,1.0526838729534145,22.890477315713703,1.0111926026487932,-101.2652684,24.1752722,236.49512
1119.187,19.3615792,-64.6587434,-11.2608276,-0.8374598000000001,-0.315501,0.5817970000000001,-29.02997,51.5732712,-162.0594054,2.082577,-21.995817,-8.793569,-0.98469,-0.1761854,-0.1559992,-129.2889846,77.13604419999999,75.6940062,68.42828425016836,1.0674116107791036,23.77982229151805,1.0124186099009638,-100.2590146,25.562773,237.7534116
1139.172,18.4964204,-67.8624902,-11.587703200000002,-0.8349706000000001,-0.3156382,0.6031028,-28.1056506,50.268177,-161.34999080000003,3.0389578,-21.8423106,-9.590381,-0.9878812,-0.1782204,-0.154841,-127.2415206,77.2496398,77.7359344,71.28611371936279,1.0772819331685834,24.04781080643754,1.0157005028898036,-99.13587,26.9814628,239.0859252
1159.158,17.823531000000003,-71.30478980000001,-11.9622752,-0.8329574,-0.3199666,0.6230244,-27.2181,48.896798,-160.65554500000002,4.371688799999999,-22.0172694,-10.292384,-0.9926228,-0.1836002,-0.1518716,-125.088948,77.33560480000001,79.8576782,74.46574604266502,1.0882812404547273,24.69422975514073,1.0208202777210296,-97.870848,28.4388068,240.5132232
1179.143,18.0550366,-74.92857059999999,-12.5714224,-0.8284336,-0.3226266,0.648991,-26.3505116,47.4516282,-159.9790436,5.8620516,-22.0089526,-10.2714998,-0.9941968,-0.1887578,-0.1481298,-122.88610079999998,77.40288240000001,82.00000600000001,78.09171338846231,1.100717707097292,24.985222665637966,1.022741033614629,-96.5355892,29.9512542,241.9790496
1199.129,18.348632400000003,-78.96337439999999,-13.1269328,-0.8153278,-0.3248494,0.6679612,-25.5028458,45.925567,-159.3191774,7.460830000000001,-21.9236216,-10.1646054,-0.9877548,-0.1931676,-0.1440984,-120.6521454,77.450421,84.141246,82.12309767854973,1.102931874069582,25.290875257424283,1.0167288800340828,-95.1492996,31.524854000000005,243.4604234
1219.114,18.3582882,-83.03246019999999,-13.4940322,-0.7916676,-0.3277034,0.6880029999999999,-24.680215,44.3155886,-158.6737092,8.851656600000002,-22.4941394,-10.656875,-0.9857734,-0.2093509999999999,-0.1281671999999999,-118.2828202,77.4698378,86.39039460000001,86.10171367350058,1.0988517803918416,26.41793172594291,1.0158759119618892,-93.6026052,33.1542492,245.06410380000003
1239.1,18.6687782,-86.6160874,-13.8401878,-0.7614744,-0.3352878,0.7142182,-23.8816944,42.626275,-158.0488832,9.3402002,-23.3133502,-11.1018314,-0.9847846,-0.222107,-0.1094269999999999,-115.785988,77.464804,88.7581298,89.67954434710572,1.0965257898907077,27.459102275164533,1.0154341417222292,-91.9042936,34.838529,246.807013
1259.085,18.7971858,-89.994754,-14.2462086,-0.7274322,-0.3359788,0.7375316000000001,-23.1089134,40.8624482,-157.44547740000002,8.7994352,-23.9340636,-11.7576028,-0.9781986,-0.2190518,-0.0851004,-113.200374,77.43556659999999,91.2262222,93.0341034298442,1.0890326995296515,28.080432401414544,1.0060309489301809,-90.0914606,36.5731184,248.6716996
1279.071,17.9834022,-93.0055054,-15.1754434,-0.6912518000000001,-0.3361342,0.7556642,-22.3905388,39.0287994,-156.8792512,7.6932444,-24.953457199999995,-12.5444568,-0.9768168,-0.216007,-0.0592513999999999,-110.5026398,77.38227979999999,93.8303544,95.9360248904602,1.0778885074879128,28.969370584074294,1.002168056372383,-88.112101,38.3534804,250.70960560000003
1299.057,17.6599228,-95.195726,-16.741950600000003,-0.6589474000000001,-0.3363096,0.7747156,-21.7290238,37.1376784,-156.3713838,5.664823200000001,-26.1742374,-13.2855166,-0.9853534,-0.221022,-0.0341532,-107.709668,77.3013884,96.5722336,98.2567658324956,1.0712143034436574,29.894579386365223,1.0104150080268008,-85.9806442,40.16371,252.94361740000005
1319.042,18.241965600000004,-96.4263824,-18.4534882,-0.631234,-0.333639,0.7966954,-21.108367,35.207891000000004,-155.9300874,3.7407666000000006,-26.6049778,-13.2937562,-0.9895768,-0.2269376,-0.025211,-104.96754919999998,77.19418479999999,99.3020784,99.85663602610572,1.0698106867376862,29.97569235896324,1.0155779201582713,-83.8591822,41.9862938,255.2321658
1339.027,18.4802116,-97.7232986,-19.7746042,-0.6109252,-0.3237706,0.8155372,-20.5227114,33.246836,-155.54068619999998,2.9571702000000006,-26.2833222,-13.8286992,-0.9892312,-0.2353862,-0.022519,-102.3298524,77.04560380000001,101.9424166,101.40215126570142,1.0691856368298445,29.8461187263078,1.0170998650894023,-81.807141,43.79876779999999,257.48310280000004
1359.013,17.9317368,-99.2643372,-20.3745194,-0.589575,-0.3175694,0.8301415999999999,-19.9779654,31.2558752,-155.18416159999998,2.1310450000000003,-25.723157200000003,-14.1453768,-0.9874268,-0.2519409999999999,-0.0237886,-99.8334016,76.8556288,104.4567614,102.90809912344488,1.066575867199291,29.433210051605236,1.0193389280946743,-79.8554362,45.5997536,259.64092300000004
1378.998,16.4785712,-100.9018906,-20.0179406,-0.5655716,-0.3070178,0.8444034,-19.4750834,29.239529,-154.8346406,1.4271656,-25.0346322,-15.2014744,-0.9898134,-0.2578988,-0.0239938,-97.488254,76.6176284,106.8327348,104.17990584231188,1.0616723911710997,29.32327462908868,1.0231412709393752,-78.0131706,47.3780994,261.6673754
1398.984,13.9735464,-102.4647492,-19.1027698,-0.5361969999999999,-0.2965356,0.8550663999999999,-19.0274444,27.2017784,-154.4782166,-0.3605955999999997,-24.4353864,-16.5679286,-0.9902432,-0.2543829999999999,-0.0140044,-95.3031236,76.3328506,109.0830812,105.16273409170972,1.0519406510280511,29.52480983509872,1.0224912855641362,-76.27567919999998,49.13107219999999,263.56129780000003
1418.969,10.8921268,-103.9930726,-18.2412834,-0.5039306,-0.2911907999999999,0.8629602000000001,-18.6483698,25.1421348,-154.11462120000002,-4.0262012,-24.0680566,-18.1190424,-0.9834528,-0.2500702,-0.0069976,-93.3125398,76.000885,111.2115892,106.14114185882524,1.0408834893517334,30.39377143588276,1.0147726253509404,-74.66417,50.8587502,265.32621040000004
1438.955,8.9338578,-105.0350984,-17.7751404,-0.4699178,-0.285889,0.8646003999999999,-18.3199778,23.0681294,-153.7535128,-6.616695999999999,-24.567949,-18.5740618,-0.9675746,-0.2424678,0.0051244,-91.418753,75.64839020000001,113.2962952,106.9024851316751,1.024738557271073,31.501754804665023,0.9975056391205817,-73.0987752,52.5802608,267.04980800000004
1458.94,7.550076199999999,-105.547307,-17.9930886,-0.439504,-0.2788296,0.8693984,-18.0348768,20.9866034,-153.4097384,-7.2260908,-24.8371032,-18.9828164,-0.9704426000000002,-0.2374324,0.0128056,-89.604611,75.279178,115.3144882,107.33586960073276,1.013293289119552,32.084971592529165,0.9991481210790922,-71.5697342,54.2925746,268.7242266
1478.926,6.9881162,-105.4921846,-18.7908688,-0.4074868,-0.272193,0.8753721999999999,-17.7803976,18.903385,-153.0971682,-7.039096799999999,-24.8650982,-18.7406522,-0.966868,-0.2346266,0.0245462,-87.8617842,74.904779,117.257573,107.38031258086367,1.0032003837499663,31.922312528023063,0.995231574451896,-70.0813866,56.001394000000005,270.3547412
1498.911,7.4772192,-104.8456376,-19.7337576,-0.3759506,-0.269459,0.8766914,-17.538398,16.829395400000003,-152.821335,-6.391488,-24.853918799999995,-18.0418866,-0.963449,-0.2371076,0.0238306,-86.2118834,74.5316636,119.095566,106.94829460880122,0.991228942855948,31.37001865887868,0.9924826885518556,-68.6734854,57.702268200000006,271.91690099999994
1518.897,8.4870396,-104.0157426,-20.3958518,-0.3440504,-0.256845,0.8802201999999999,-17.2891998,14.7694528,-152.575403,-4.3517342,-24.2945968,-16.6763892,-0.9566258,-0.241497,0.0307807999999999,-84.6373992,74.1738342,120.816211,106.3357668917142,0.9793506176304786,29.787027058300005,0.9871176119811054,-67.34819940000001,59.4043814,273.391614
1538.882,7.541886000000001,-102.8328188,-20.8680662,-0.3058662,-0.2530398,0.8856382,-17.0736354,12.7268618,-152.3571594,-2.5249362,-23.9001678,-15.6953062,-0.9707384,-0.2488452,0.0370882,-83.1257476,73.8244522,122.4370042,105.19954778285984,0.9705350555161416,28.704284704447623,1.0028123001722904,-66.0521122,61.0975904,274.7941636
1558.868,7.4051546,-100.7722306,-20.8389756,-0.2643024,-0.2503826,0.8863721999999999,-16.873454599999995,10.7198214,-152.1603454,-2.017898,-23.189766400000003,-15.4719306,-0.9722132,-0.2494413999999999,0.0515524,-81.701744,73.4728042,123.95737160000002,103.17044963945284,0.958229034188257,27.950273961379867,1.005025954010124,-64.82828939999999,62.7529828,276.117717
1578.853,7.975985399999999,-98.053833,-20.4527862,-0.2234502,-0.2498863999999999,0.8845758,-16.673266199999997,8.7627768,-151.9811858,-3.632448599999999,-22.6036892,-15.2656838,-0.9703238,-0.255969,0.0547384,-80.41510600000001,73.1166902,125.3714142,100.48127672574536,0.9459638210474224,27.516586818924708,1.0050098000726162,-63.7418398,64.35391339999998,277.3526
1598.839,8.483032399999999,-95.1070144,-19.9303668,-0.18425,-0.2487666,0.8869638,-16.4714718,6.860355200000001,-151.81701960000004,-4.8976546,-21.5784768,-14.747164799999998,-0.9662922,-0.2669305999999999,0.0640934,-79.2666914,72.7620362,126.6698776,97.54242947335176,0.9394347589300708,26.59128712994913,1.004530002001314,-62.7952196,65.90168099999998,278.48689720000004
1618.824,8.3109468,-91.9490492,-19.215911,-0.1466715999999999,-0.2507046,0.8945406,-16.281913600000003,5.017844,-151.66525259999997,-5.440586999999999,-21.1594334,-15.316413,-0.9630932,-0.2772291999999999,0.0664668,-78.222569,72.3880754,127.873816,94.30244281595452,0.9405148801353864,26.68171875835913,1.0044015017517247,-61.94065539999999,67.3702314,279.5390686
1638.81,8.668554599999998,-89.050894,-18.1362734,-0.1163048,-0.2507819999999999,0.8954498000000001,-16.092615799999997,3.2363136,-151.51600040000002,-6.469633,-20.3653598,-16.374626999999997,-0.9560662,-0.2860006,0.0688858,-77.3183576,71.9879534,128.9560166,91.29145619329316,0.9371492743139056,26.920855118797284,1.0003020420975055,-61.2257418,68.75163979999999,280.472017
1658.795,8.105869,-86.562744,-17.1916762,-0.0872838,-0.2495028,0.9011018,-15.9197794,1.5068958,-151.3686402,-6.5397238,-19.5372324,-16.669894000000003,-0.9477406,-0.2981802,0.0660604,-76.5274,71.5777208,129.9246476,88.62486948718369,0.93907111706916,26.50201507816212,0.9957347302412224,-60.6076206,70.07082499999999,281.29328780000003
1678.781,5.9332772,-84.5584228,-16.2695976,-0.0621222,-0.2483834,0.9058504,-15.7948782,-0.1779362,-151.2195924,-4.6467906,-18.7640978,-16.6043882,-0.9464184,-0.3043505999999999,0.0695764,-75.7824294,71.16854099999999,130.8075592,86.31355890485298,0.9413386363623666,25.48312650803493,0.9965831380350963,-59.9875512,71.3464772,282.0271516
1698.766,3.4551784,-82.5979646,-15.505907,-0.0376274,-0.2456056,0.9087962,-15.7220744,-1.8196426000000003,-151.0695404,-2.862479,-17.9242224,-16.5856512,-0.9428082,-0.303671,0.0689442,-75.0890822,70.7642502,131.6013184,84.11180158414946,0.9421509778780468,24.58770750595029,0.9929031578869512,-59.3670078,72.58389280000002,282.6708588
1718.752,2.8307606,-80.3052492,-14.7922118,-0.0105582,-0.2482588,0.8980814,-15.6695398,-3.4137645999999995,-150.9199524,-1.2478025999999995,-16.804854,-16.020592200000003,-0.9523164,-0.3028416,0.0748805999999999,-74.4430648,70.3792632,132.3123474,81.7052983874649,0.931823002715988,23.251225854319674,1.0021111039480004,-58.77352499999999,73.7930278,283.2322998
1738.737,2.0368234000000003,-77.687378,-14.31453,0.0202025999999999,-0.2438376,0.903489,-15.6337202,-4.9578508,-150.7766968,-0.2217213999999996,-15.013819799999998,-15.3756634,-0.9443374,-0.306801,0.0803102,-73.88733219999999,70.0133452,132.90729679999998,79.02140924584027,0.9360327415969596,21.4912766106667,0.9961675094399536,-58.253612,74.971196,283.6839936
1758.722,0.9289824,-75.05654,-13.5286518,0.0489142,-0.245667,0.9000617999999999,-15.6262538,-6.449506600000001,-150.63248280000002,-0.0029787999999996,-14.1077542,-15.4611112,-0.9440286,-0.314649,0.08481,-73.3979936,69.6479522,133.4284546,76.27169609099272,0.9342676905843847,20.93023404024982,0.9986925086927207,-57.7717398,76.0974588,284.0609374
1778.708,1.5565596,-72.3921066,-12.4987742,0.075663,-0.2466306,0.9011216,-15.6116142,-7.88588,-150.4825988,-0.6800833999999997,-12.435199,-15.5902188,-0.936739,-0.3239048,0.0850033999999999,-73.0340622,69.28571780000001,133.8325348,73.4796525051439,0.937321545901896,19.95373673857681,0.9947963870036924,-57.42244800000001,77.1715978,284.3151336
1798.694,2.959125,-70.0781004,-11.1521498,0.0996809999999999,-0.2512565999999999,0.9013996,-15.5777022,-9.2709336,-150.3187012,-0.2398575999999996,-10.6770554,-16.334516,-0.9353978,-0.3283471999999999,0.0868816,-72.774559,68.91952979999999,134.1167328,71.02159545940759,0.941056544361028,19.51597952031112,0.9951529231285208,-57.1968568,78.19046340000001,284.43543400000004
1818.679,3.1883842,-68.539192,-10.0969926,0.1189351999999999,-0.2436422,0.9174708,-15.538671400000002,-10.6177582,-150.14424739999998,-1.0498649999999996,-8.6226874,-16.2558842,-0.9277684,-0.3294876,0.0861482,-72.64286179999999,68.5681734,134.2825776,69.35225946848544,0.9566920989913734,18.431134681298204,0.988300457834337,-57.10419040000001,79.1859316,284.426825
1838.665,2.9304514,-67.8412336,-8.9954464,0.1394603999999999,-0.2457096,0.9137078,-15.5143136,-11.944368400000002,-149.9517424,-1.3644827999999996,-7.249248399999999,-15.8638688,-0.928584,-0.3320184,0.0881359999999999,-72.5821134,68.23442399999999,134.3794374,68.4977268069007,0.9563913186981364,17.49502069104269,0.9900870757113034,-57.0677998,80.17879239999999,284.33117980000003
1858.65,4.4493736,-67.26402879999999,-8.251318000000001,0.162758,-0.2486966,0.9120912,-15.4686936,-13.25688,-149.7467926,-3.2338386,-5.241954399999999,-15.1384328,-0.92946,-0.3289448,0.0888056,-72.637727,67.930443,134.3904908,67.91414244895336,0.959296889671284,16.34343738821932,0.989942931505852,-57.1690334,81.187323,284.1372834
1878.636,6.3164198,-66.74981840000001,-7.7003444,0.1901784,-0.2431772,0.9139924,-15.3890152,-14.5596778,-149.53512260000002,-3.7844494,-3.572685599999999,-14.4122966,-0.929135,-0.3332065999999999,0.0972191999999999,-72.7600294,67.6496248,134.3398744,67.48874513132856,0.964720209016148,15.323199174584245,0.9918518333688756,-57.371014200000005,82.2093026,283.874997
1898.621,6.4052672,-66.727768,-7.3040406,0.2194169999999999,-0.2347124,0.9168936,-15.3094262,-15.8641684,-149.3175688,-5.0933476,-2.1681323999999997,-13.4724148,-0.9217752,-0.3440732,0.1047846,-72.9497542,67.3893556,134.2434754,67.43123519001908,0.9715593673696528,14.565333790257418,0.9894623280804782,-57.640328,83.253524,283.5610442
1918.607,6.3703386,-66.89943699999999,-6.7548788,0.2473741999999999,-0.2408526,0.9028854,-15.245080000000002,-17.173866999999998,-149.0868224,-5.541299599999999,-0.7694469999999993,-13.245363,-0.917899,-0.3557704,0.1074706,-73.2038254,67.1366716,134.08667,67.54068605217381,0.9666467893111528,14.378375810380607,0.9902833339916004,-57.9587454,84.3105386,283.1734924
1938.592,8.352721400000002,-66.8280884,-6.180859000000001,0.2764332,-0.242738,0.8952306,-15.153108,-18.4841796,-148.8439696,-6.6291058,0.4567172000000006,-12.9006636,-0.915976,-0.3647802,0.1092152,-73.5253678,66.8946244,133.87996219999997,67.63109027630793,0.9678713126664102,14.5114008844334,0.9919700533781652,-58.37225980000001,85.378804,282.7239318
1958.578,9.2153152,-66.8123108,-5.570182,0.30584,-0.2358718,0.8969355999999999,-15.049661,-19.7949826,-148.5901488,-5.885169599999999,1.5396874000000007,-12.7301774,-0.9161424,-0.375836,0.1129727999999999,-73.87452400000001,66.6587144,133.6270234,67.67446960401148,0.9765587960704668,14.108978529502185,0.9966606491246656,-58.82486299999999,86.453697,282.2171722
1978.563,9.6612094,-66.9623656,-4.859241,0.331352,-0.2394128,0.8932204,-14.9518182,-21.1068856,-148.3201202,-6.1294956,2.5489918000000005,-12.9993392,-0.9134794,-0.3814634,0.1134755999999999,-74.2687134,66.4213196,133.329532,67.83000513721632,0.9823213932741156,14.596263054067752,0.9964113867069564,-59.3168952,87.5282052,281.64965220000005
1998.548,9.787783200000002,-67.2051176,-4.345864000000001,0.3567906,-0.240786,0.882685,-14.8647316,-22.4240208,-148.03702700000002,-6.421212399999999,4.3352232,-12.7612142,-0.9158272,-0.387607,0.1157328,-74.73226159999999,66.1965332,132.9612122,68.05303127346002,0.9820439090332774,14.92898913985852,1.0011856609563885,-59.86753,88.620554,280.9982392
2018.534,9.8788192,-67.431645,-4.2186486,0.38129,-0.2423861999999999,0.8734548,-14.7866948,-23.7473546,-147.748059,-6.705321,5.2693534,-13.1181312,-0.914599,-0.3916686,0.1139964,-75.2366576,65.96837,132.553595,68.28187762651666,0.9833902692692662,15.646494212683749,1.0014443580348935,-60.4499628,89.7157246,280.301654
2038.52,9.2296774,-67.5560806,-4.556281199999999,0.4049352,-0.2392812,0.8624282000000001,-14.725807,-25.077487400000003,-147.4639832,-6.5091872,6.4626188,-13.3707956,-0.9148018,-0.3918028,0.1126852,-75.77984000000001,65.742508,132.0978576,68.33572030289314,0.9823494332607516,16.21459634822084,1.0015336847406182,-61.054033,90.8199954,279.5618408
2058.505,8.3088348,-67.5385986,-5.2196704,0.4285911999999999,-0.2389074,0.8549458,-14.6846268,-26.411613,-147.1920776,-6.440118,7.746589800000001,-12.3578946,-0.9141462,-0.3990406,0.1134636,-76.35416860000001,65.53926240000001,131.6050568,68.24766659505839,0.9857481845937328,15.943723916579126,1.0038778132560555,-61.669541800000005,91.9508754,278.79713440000006
2078.49,7.359518199999999,-67.3598908,-6.0211486,0.4524774,-0.240976,0.8372314,-14.6651648,-27.749646800000004,-146.9340148,-6.3716588000000005,9.420142600000002,-11.699033599999998,-0.9153912,-0.410416,0.1047576,-76.9923598,65.35188000000001,131.0415344,68.0277269000467,0.9817136279143324,16.31577487102225,1.0086409157134169,-62.327195,93.1015268,277.9755492
2098.476,7.199060800000001,-66.62693040000002,-6.702193599999999,0.4744042,-0.2393512,0.8229034000000001,-14.648166800000002,-29.0790444,-146.69145799999998,-5.221137,10.6401726,-10.7457274,-0.9129634,-0.4187038,0.0950612,-77.6507126,65.1836092,130.43127439999998,67.34904401682644,0.9795500740904672,15.998256213902517,1.0088863531733592,-63.00254579999999,94.2626536,277.1227324
2118.461,6.6505218,-65.59649,-7.160095,0.4970195999999999,-0.237398,0.8088892,-14.642263599999998,-30.3934404,-146.4609496,-3.715892599999999,12.673997600000002,-9.4321514,-0.914243,-0.4270509999999999,0.0896058,-78.3462936,65.0443286,129.7465728,66.32040335327734,0.978615364208431,16.22971204341169,1.013036040347845,-63.70403,95.437769,276.2075224
2138.447,5.6752196,-64.50167339999999,-7.3061198,0.5142137999999999,-0.2330484,0.8009561999999999,-14.655927599999998,-31.6857854,-146.2373626,-1.0607253999999997,15.968251,-8.2030334,-0.9103416,-0.436724,0.082109,-79.11443320000001,64.9340456,128.92354419999998,65.1617477930146,0.9799276622136144,17.983323812207846,1.0130111394982584,-64.4585056,96.619831,275.1609068
2158.432,4.277047,-63.541929800000005,-7.0564588,0.5301636000000001,-0.2313426,0.7811885999999999,-14.7061436,-32.9591706,-146.008432,1.2013134000000003,18.7372322,-7.659132000000001,-0.9029324,-0.4382379999999999,0.0702008,-79.95134579999998,64.8396182,127.9755888,64.07545227733031,0.9720331630709316,20.27780381094463,1.0061151106778985,-65.2452022,97.7987888,273.98402079999994
2178.418,1.9721134,-62.5578524,-6.8006,0.5466556,-0.2251348,0.7714673999999999,-14.806489599999995,-34.210921799999994,-145.77573239999998,3.5543614000000003,21.1481342,-7.9585386,-0.9020756,-0.436407,0.0660068,-80.832756,64.7433398,126.9250716,62.95730528320479,0.971946486410214,22.87390219771672,1.0042650822420345,-66.0262664,98.9542616,272.70080399999995
2198.403,0.3389838000000001,-61.4983842,-6.563204600000001,0.5612438,-0.224493,0.7590696,-14.9474312,-35.4394028,-145.5368774,5.4232266000000005,23.524157,-7.1306038,-0.902402,-0.4313017999999999,0.0623824,-81.7605712,64.667908,125.7801392,61.84853938331069,0.970349611084376,25.17226370170492,1.002118843310014,-66.81314,100.1073108,271.3170166
2218.389,-1.1219483999999995,-60.3959756,-6.607411000000001,0.5775166,-0.2162183999999999,0.7503546,-15.1152442,-36.6455314,-145.3018462,7.1941006000000005,26.4052704,-6.950874200000001,-0.9016122,-0.426985,0.0580269999999999,-82.7613342,64.59846660000001,124.5138214,60.76668920560819,0.9712403644388344,28.23664357681809,0.9992936916356674,-67.64609,101.243998,269.8156676
2238.374,-2.5286056,-59.325507400000006,-6.779185,0.5921725999999999,-0.2130237999999999,0.7356568,-15.3118648,-37.8317358,-145.07038559999998,8.031914800000001,27.9474522,-6.666047400000001,-0.902837,-0.4233384,0.0537269999999999,-83.79733279999999,64.5316316,123.1881486,59.76509870996644,0.968110765844198,29.83300064969648,0.9986073502696444,-68.485468,102.3633674,268.25853420000004
2258.36,-3.7664438,-58.2484376,-7.0142626,0.6056542,-0.2094354,0.7224528,-15.5327428,-38.997354,-144.84368260000002,9.1668438,28.8927262,-6.8926176,-0.8963182,-0.4238063999999999,0.0463354,-84.8441284,64.4519456,121.824463,58.79002008471686,0.9657216187797808,31.08583005006613,0.9925447846950584,-69.3113856,103.4492996,266.6681456
2278.345,-4.264552,-57.261676,-7.1648246,0.6186263999999999,-0.2096203999999999,0.705778,-15.7683908,-40.144278,-144.616574,10.0199194,29.805434,-6.1502944,-0.895113,-0.4224096,0.0362199999999999,-85.9021224,64.3799394,120.4290956,57.86553943098125,0.9616454233017072,32.04042449652507,0.9904388125175428,-70.1337316,104.5242174,265.0456696
2298.331,-4.213631599999999,-56.2363824,-7.219272399999999,0.6335571999999999,-0.2058658,0.6910388000000001,-16.0057738,-41.2723304,-144.3890412,10.686137,30.586309400000005,-6.611761799999999,-0.8973404,-0.4197073999999999,0.0270629999999999,-86.9762862,64.29204419999999,119.0003404,56.85422843276435,0.9598489862405024,33.067071850940124,0.9910128662413622,-70.97051239999999,105.5643746,263.38938160000004
2318.316,-3.9371778,-54.92229239999999,-7.157821,0.6478531999999999,-0.2032808,0.6776958,-16.240334400000002,-42.3746376,-144.1609498,10.9056062,30.3497372,-5.4940304,-0.8961022,-0.4199586,0.0216068,-88.02267739999999,64.2150728,117.59569259999998,55.5265159447984,0.9593270817278744,32.714265462251575,0.9898642494630464,-71.782343,106.58971040000002,261.75664240000003
2338.302,-3.2736819999999995,-53.463636,-7.0448596,0.6600782,-0.204835,0.666615,-16.4670424,-43.4462556,-143.9303468,10.924199000000002,29.9249706,-5.2583346,-0.8895312000000001,-0.419867,0.007905,-89.0512144,64.1306772,116.211084,54.02506284088276,0.9602271426934568,32.28764581024796,0.9836750187371032,-72.584172,107.57693279999998,260.1414308
2358.287,-2.1361304,-52.0292466,-6.919957600000001,0.6727331999999999,-0.2040164,0.6512895999999999,-16.6760526,-44.4901604,-143.6973422,10.7608572,30.469205,-4.4727042,-0.8930374000000001,-0.4203594,0.0035644,-90.0932738,64.0527642,114.8134048,52.53086110121567,0.9583166454358182,32.62167352959554,0.987031168664131,-73.4172212,108.5429246,258.510747
2378.273,-1.6717255999999998,-50.5699488,-6.998049,0.6851985999999999,-0.1984121999999999,0.6369298000000001,-16.872470999999997,-45.5074508,-143.4710054,11.4610454,30.469319,-2.6817702,-0.8939465999999999,-0.4200006,-0.0005897999999999,-91.110916,64.000991,113.425592,51.079223544634246,0.9563179872191258,32.66384627367436,0.9876949810118304,-74.238445,109.5084418,256.8965974
2398.271,-1.2849195999999998,-48.958809,-7.2881096,0.6986536,-0.1993398,0.624669,-17.0568198,-46.495636000000005,-143.25570079999997,11.5615492,30.499557,-1.8204200000000004,-0.8890058,-0.422356,-0.0086222,-92.1241882,63.953304200000005,112.0399748,49.51497287304677,0.9581568599232592,32.66812400608075,0.9842714287748476,-75.06736839999999,110.4489402,255.2956756
2418.244,0.3382244000000002,-47.209256800000006,-7.438566800000001,0.7085188,-0.2040007999999999,0.608278,-17.2088992,-47.4512244,-143.0473268,11.3591538,30.0707744,-1.5308934,-0.8834493999999999,-0.4238275999999999,-0.0184294,-93.1228318,63.8993698,110.6751524,47.79289277069515,0.9558333231469176,32.18113550933082,0.9800266933438496,-75.9139326,111.3505942,253.7224792
2438.229,1.9279692,-45.3165398,-7.5058198,0.7241286,-0.2004274,0.5926743999999999,-17.3223762,-48.3746214,-142.85083939999998,11.30386,29.4917468,-0.7060938,-0.8869859999999999,-0.4258004000000001,-0.0214655999999999,-94.090303,63.8530174,109.344609,45.97437520566435,0.9569724742248756,31.59175444114031,0.9841295223798135,-76.7679268,112.2276388,252.19544840000003
2458.215,2.9148756,-43.2919548,-7.6919718,0.7383879999999999,-0.1981366,0.5811961999999999,-17.4050098,-49.262016200000005,-142.67179579999998,11.5296008,28.623414200000003,0.0241323999999999,-0.8948560000000001,-0.4256906,-0.0294178,-95.016629,63.8151878,108.0545624,44.066498389828,0.960345757369709,30.85825849663024,0.991385472266565,-77.61161919999999,113.077204,250.7263582
2478.2,4.4253582,-41.0737014,-7.92768,0.7494601999999999,-0.198484,0.5735676,-17.4435832,-50.1072898,-142.514145,10.939164600000002,28.339209800000003,-0.2041266,-0.8905312000000001,-0.4281494,-0.0392236,-95.9424408,63.7615058,106.7784424,42.06519763506489,0.964399440797121,30.37791635223089,0.988886352262362,-78.4988576,113.8687956,249.2925874
2498.186,6.5860824,-38.8210098,-7.945234600000001,0.7571046,-0.1989834,0.5634902,-17.4291968,-50.908554800000005,-142.37250060000002,10.7197782,27.3756032,0.5443853999999999,-0.8908135999999999,-0.431674,-0.046438,-96.832965,63.7140226,105.545981,40.16931709800806,0.9645325159437396,29.404653554918458,0.9909832491343936,-79.4037682,114.6225774,247.9184816
2518.171,7.254481800000001,-36.7499526,-7.8156666,0.768042,-0.193868,0.5551028,-17.389828799999997,-51.670323200000006,-142.24617619999998,10.7822522,26.4908386,0.8033475999999998,-0.8923911999999999,-0.4358874,-0.0541679999999999,-97.6841582,63.6640356,104.3556002,38.26579630284902,0.967270610406333,28.61235501670704,0.9946326213935476,-80.29432940000001,115.3343588,246.6017764
2538.157,6.8470426,-34.9629638,-7.790079199999999,0.7740997999999999,-0.192367,0.5544808,-17.3468714,-52.3931024,-142.13562,10.7941286,27.2599526,0.7946302,-0.8942342,-0.4385958,-0.0656654,-98.565689,63.6020544,103.1315508,36.46883825937697,0.971434259544968,29.33001304367826,0.9981648285651225,-81.2188176,115.9951568,245.2671708
2558.142,7.955017000000001,-33.2240134,-7.6627094,0.7775592,-0.195008,0.5483788,-17.2779068,-53.0785974,-142.0331052,10.6852854,28.396009,1.4229775999999998,-0.8849356,-0.4388982,-0.0760946,-99.4976852,63.53733580000001,101.8536898,35.01191907368856,0.9712598714340462,30.37323684524973,0.990723490313902,-82.2197784,116.6159332,243.886795
2578.128,9.6461316,-31.4782962,-7.3378652,0.7837862,-0.1907887999999999,0.5424272,-17.1684488,-53.72759560000001,-141.9390044,10.2961772,29.0443972,1.8329564,-0.8844196,-0.4370784,-0.0862656,-100.4635148,63.4691962,100.5467684,33.73092427125032,0.9720845852165952,30.869855892269214,0.9902915279623874,-83.29506599999999,117.1967918,242.4857728
2598.113,9.5935814,-30.1024966,-6.921265799999999,0.7877642,-0.1861334,0.5422792,-17.0568636,-54.3437538,-141.8480864,9.8782952,30.7743344,1.2705369999999998,-0.8832248,-0.4408383999999999,-0.0962929999999999,-101.4959032,63.3706054,99.1741288,32.34348506122504,0.9743124797260064,32.34585967461269,0.9918149444823868,-84.4390396,117.71435920000002,241.0222152
2618.099,9.8917172,-29.093944400000005,-6.321312799999999,0.7933479999999999,-0.1858024,0.533532,-16.9512228,-54.9372024,-141.7447692,9.4291712,33.1361566,1.3763716,-0.8827111999999999,-0.4402544,-0.1029792,-102.6181078,63.2539634,97.7091798,31.372960737401105,0.9739507051046064,34.47910298311021,0.9917699909542737,-85.66688500000001,118.1911658,239.453949
2638.084,10.8362028,-28.0922886,-5.6848948,0.8032172000000001,-0.1797289999999999,0.5193698,-16.8354514,-55.5126898,-141.6312774,8.9236266,34.1047826,1.4145835999999998,-0.878715,-0.4383426,-0.1071086,-103.7697772,63.1218224,96.2196442,30.641768858789547,0.9732447651895592,35.281274844467845,0.987803896729366,-86.9343258,118.6345122,237.8509216
2658.07,10.5031792,-27.0539384,-5.1215696,0.8180664,-0.1717354,0.5054782,-16.7309278,-56.071918200000006,-141.511731,8.1804002,33.1952604,0.2349647999999999,-0.8774953999999999,-0.4433118,-0.1088082,-104.8675752,62.95806280000001,94.802916,29.46969343963305,0.9768489612511037,34.189171807945385,0.9891222135952868,-88.13664739999999,119.029981,236.314647
2678.055,9.006550200000001,-25.9679174,-4.7033638,0.8323888,-0.1695004,0.4950051999999999,-16.660795599999997,-56.6122008,-141.387912,7.865278600000001,31.5405868,-0.2789864000000001,-0.8817074,-0.4459942,-0.109564,-105.8821092,62.7840104,93.4826844,27.884983622614754,0.9831742714252848,32.50767688647309,0.9941443736924732,-89.2213136,119.3962112,234.8705964
2698.041,8.6005968,-24.630182,-4.5705946,0.8485348,-0.167768,0.4736706,-16.59691,-57.13618240000001,-141.2686036,7.369690200000001,28.0280888,0.0113333999999999,-0.8858512,-0.4450148,-0.108883,-106.756685,62.6293954,92.32687239999998,26.48596733492744,0.9861649182258514,28.98079060120025,0.9973093945458852,-90.159775,119.7655778,233.595476
2718.026,7.8810118,-22.7854006,-5.0657292,0.8625247999999999,-0.1595822,0.4644176,-16.511550800000002,-57.63228839999999,-141.1904632,6.9866248,23.7162766,0.0900227999999998,-0.8846285999999999,-0.4471176,-0.111643,-107.4651598,62.49345100000001,91.3639908,24.63628299524813,0.9925216452862072,24.724134079239303,0.9974698329356732,-90.953609,120.1257394,232.554454
2738.012,6.7051232,-20.85392,-5.6518722,0.8672130000000001,-0.1595336,0.4601149999999999,-16.416330600000002,-58.09338699999999,-141.1526824,6.740409600000001,18.8721924,1.0095025999999998,-0.8886132,-0.449607,-0.1170239999999999,-108.0032914,62.3988602,90.5973908,22.62273891151801,0.9945929670588668,20.06519033196039,1.0027335090836649,-91.5869608,120.4922472,231.7500732
2757.997,5.761468800000001,-18.936763,-6.1274602,0.8687066,-0.1571756,0.460609,-16.305618199999998,-58.51654,-141.15483079999998,6.7137294,15.3749736,2.379966,-0.8889828,-0.4476898,-0.1264094,-108.4335528,62.3489944,89.95432439999999,20.720552216437824,0.9957489527988066,16.94485803476315,1.0033423703443605,-92.1279346,120.8655344,231.1091552
2777.983,4.901254000000001,-17.090709399999998,-6.407989599999999,0.8681899999999999,-0.1552995999999999,0.4524922,-16.1871252,-58.9057558,-141.186801,6.953399200000002,12.5202238,2.6851416,-0.8844212,-0.4453904000000001,-0.1343798,-108.7630632,62.3197136,89.420871,18.89912615126616,0.9912724312322015,14.571058638571794,0.9993154647405592,-92.575938,121.2254694,230.607672
2797.968,3.4193428000000003,-15.1675168,-6.643512200000001,0.8631332,-0.1464389999999999,0.4592652,-16.0610852,-59.252131,-141.2587126,7.1315808,10.6055622,3.0574538,-0.8801698,-0.4448274,-0.142137,-109.0297852,62.3065696,88.955742,16.908037302234195,0.9886191509344132,13.140982384286644,0.9963800577047895,-92.9687,121.5587006,230.2144546
2817.954,1.9477346000000004,-13.5028062,-6.460270599999999,0.8574638,-0.146056,0.4599184,-15.953587199999998,-59.560309800000006,-141.3431396,6.796419800000001,9.3385566,3.6414112,-0.878569,-0.440441,-0.1497952,-109.2725708,62.3122596,88.5271974,15.09485149221482,0.9839214694806696,12.11031944238966,0.994138000573884,-93.3189836,121.8725694,229.870337
2837.939,1.3150132000000003,-11.6491612,-6.0590512,0.859002,-0.1422386,0.4503568,-15.852659799999998,-59.8332482,-141.43424999999996,6.344012,8.2034108,3.4867298000000004,-0.8744246,-0.4373188,-0.1532916,-109.48493039999998,62.321495000000006,88.1440126,13.196375177448584,0.9802741976815468,10.94073679913326,0.9896284295376524,-93.6322706,122.1547432,229.5782626
2857.925,-0.1435031999999993,-9.6078024,-5.5465428,0.8607188000000001,-0.1362671999999999,0.4459464000000001,-15.773084,-60.0649552,-141.5328828,5.490309000000001,6.97921,3.2363974,-0.874797,-0.4375639999999999,-0.1556592,-109.6681274,62.3330834,87.8132538,11.094800455983329,0.9789146000250688,9.451303257768622,0.990435172966732,-93.8950434,122.3980386,229.3461366
2877.91,-1.3561925999999993,-7.289671,-4.8288506,0.8617528,-0.1350904,0.4387168,-15.7206668,-60.2500588,-141.6284334,4.495456600000001,5.3755176,3.3769674000000003,-0.8727182000000001,-0.4409592,-0.1563948,-109.8129302,62.3554864,87.547763,8.848523027808433,0.9763911793345124,7.778767790020222,0.990222907300634,-94.0922634,122.6055452,229.1761964
2897.896,-2.7498612,-4.769079,-3.658901,0.8711028000000001,-0.134492,0.4233534,-15.7153894,-60.3888946,-141.70290540000002,3.7593298000000006,3.041582,2.8395732,-0.8726986,-0.4411355999999999,-0.1552438,-109.8793364,62.3831866,87.3868438,6.610098914184827,0.9778222167262308,5.607758693636013,0.990103076183364,-94.163947,122.7720812,229.0897492
2917.881,-4.3473636,-1.6413620000000002,-2.4663452,0.8786608000000001,-0.1353639999999999,0.4126602,-15.756296,-60.467111,-141.7620392,3.2366486,-0.1783504,2.1024774,-0.8774333999999999,-0.4429818,-0.1518008,-109.8260054,62.4192346,87.3717528,5.260845761967556,0.9801309374857424,3.863691789283001,0.9945681120202076,-94.0697094,122.8863456,229.133792
2937.867,-5.42507,1.9587432,-1.3528092,0.8818262000000001,-0.1370009999999999,0.4132349999999999,-15.8228038,-60.4698706,-141.81671139999995,2.2471062,-2.9081914,1.2327122,-0.8823616,-0.4444142,-0.1486426,-109.6793898,62.4578744,87.48346699999999,5.924369347031874,0.9834377897113982,3.876421398808602,0.999079875110574,-93.856586,122.927745,229.3001784
2957.852,-6.0069198,5.727979400000001,-0.3552436,0.880598,-0.1406412,0.4109937999999999,-15.902682199999996,-60.395281,-141.87055360000002,1.1426038000000005,-5.222949,0.0426228,-0.8820534,-0.4438484,-0.1439702,-109.4524046,62.4899774,87.7099288,8.307769345967506,0.9819107334070036,5.3466397300973325,0.9978712447616476,-93.5497224,122.8852584,229.5804824
2977.838,-6.945740799999999,9.2581834,0.4726592,0.8771882,-0.139604,0.4208606,-15.9902288,-60.2436438,-141.9357544,-0.1125651999999996,-6.997113400000001,-1.1173976,-0.8834626,-0.4428978,-0.141681,-109.17179099999998,62.5125718,88.0252472,11.58363854098378,0.9828896477568578,7.086666653173152,0.998367734156408,-93.1815622,122.7562156,229.9610016
2997.823,-7.518434799999999,12.2746182,1.165994,0.8664466,-0.1433364,0.4380966,-16.08116,-60.020002,-142.0096772,-1.3106665999999998,-7.46665,-2.0822338,-0.8817145999999999,-0.4395416,-0.1446183999999999,-108.8935226,62.519983,88.36675399999999,14.441352284521637,0.9814293989625948,7.861577879581045,0.9957569661329414,-92.8123626,122.539985,230.3764312
3017.809,-7.4004438,14.597348399999998,1.9411564,0.8557536000000001,-0.1407208,0.4586858,-16.1626688,-59.7372826,-142.08883379999995,-2.4173494,-6.998371799999999,-2.8742344,-0.8770795999999998,-0.4388782,-0.1482024,-108.6515198,62.5072276,88.69401239999999,16.480814206743606,0.9810755478490126,7.942418357078589,0.9918904428096684,-92.488851,122.2445102,230.7828462
3037.794,-7.871651599999998,16.025778199999998,3.0574874000000003,0.8466882,-0.1405972,0.475009,-16.2698236,-59.413475000000005,-142.14742139999998,-3.154927,-6.2040956000000005,-3.4524796,-0.8737416,-0.4385034,-0.1505258,-108.4513184,62.4770304,88.9920242,18.11454374331676,0.9809597498103988,7.769426103495967,0.9891246796272752,-92.1814948,121.89050539999998,231.1394456
3057.78,-7.6037512,16.7365292,4.4765856,0.8408624,-0.1403216,0.490531,-16.4031686,-59.0622024,-142.1674134,-3.5971858,-5.138994599999999,-3.5754270000000004,-0.8749188,-0.4349358,-0.1515824,-108.30206760000002,62.4395944,89.24366760000001,18.920049170339947,0.9835448078869208,7.220297044504456,0.9887513745653354,-91.898899,121.5017968,231.411081
3077.765,-6.8435238,16.9978894,5.7312946,0.8370614,-0.1378578,0.5020680000000001,-16.549979,-58.69611259999999,-142.15161139999998,-4.1131612,-3.8827416,-3.2660252,-0.8771726,-0.4305008,-0.1507069999999999,-108.2148574,62.40316180000001,89.43747859999999,19.199213521594785,0.985773217842116,6.531515750313325,0.9886735097292736,-91.6648784,121.0992744,231.58909
3097.751,-5.7562692,17.0682192,6.787255999999999,0.8374254000000001,-0.1392212,0.507256,-16.7041054,-58.32376839999999,-142.10120239999998,-4.8958054,-3.254496,-2.8653452,-0.8802226000000001,-0.4302247999999999,-0.1448786,-108.1651856,62.37249919999999,89.6052002,19.249041164994512,0.9889249175901073,6.539943259986909,0.9903913432698006,-91.4610802,120.6962676,231.7064026
3117.736,-4.503763999999999,16.838715,7.5534358,0.8365128000000001,-0.144236,0.5095276,-16.860278200000003,-57.953063,-142.0198424,-5.495094399999999,-2.6911248,-2.4196616000000004,-0.883379,-0.4289216,-0.1386178,-108.1469268,62.3495018,89.74945519999999,18.99685777710732,0.990038415124181,6.579739919829731,0.991739426999048,-91.2866486,120.3025648,231.7692976
3137.722,-2.9618351999999994,16.6445918,7.714494399999999,0.8388916,-0.1496938,0.5090920000000001,-16.994620400000002,-57.588928800000005,-141.92913200000004,-5.833937199999999,-2.5913668,-1.9650722,-0.8865109999999999,-0.4280331999999999,-0.1330764,-108.1385544,62.3368462,89.888774,18.583011806169036,0.9926338775062032,6.679185122221042,0.9933899041465036,-91.143934,119.925775,231.817906
3157.707,-2.042025599999999,16.5253638,7.241776,0.841428,-0.1558744,0.5109498,-17.1000522,-57.232411,-141.8521972,-5.9014584,-3.0362062,-1.4999802,-0.8890248,-0.4306362,-0.1283276,-108.1145264,62.33600779999999,90.0457672,18.157666064436302,0.9966782860479102,6.804094350921439,0.99613282482169,-91.0144742,119.5684188,231.8979644
3177.693,-0.8356287999999992,16.5424484,6.544007400000001,0.8427058000000001,-0.16686,0.5113498,-17.1694114,-56.8818182,-141.79286180000005,-5.653779599999999,-4.0851966,-1.1700886,-0.8911482,-0.437783,-0.1244076,-108.0444948,62.3455276,90.2474624,17.809405026819586,0.9997369368557312,7.07270544826219,1.000637956700624,-90.8750834,119.2273458,232.04032420000004
3197.678,0.0425334000000007,16.4942844,5.7047284,0.8433996,-0.1707169999999999,0.5171086,-17.197742799999997,-56.5375584,-141.76196280000002,-5.3251386,-4.6002478,-0.8821836,-0.8934709999999999,-0.44323,-0.1235844,-107.9503434,62.36155,90.4684418,17.4529983978675,1.003926532951052,7.092082122671998,1.0049957038039317,-90.7526006,118.8991084,232.2304046
3217.664,0.3739344000000008,16.518998,4.959949400000001,0.8433567999999999,-0.1769407999999999,0.5210146,-17.2018768,-56.1979474,-141.75372,-5.087932,-5.2736464,-1.1232278,-0.8924859999999999,-0.4494982,-0.1249696,-107.824457,62.3732634,90.7199632,17.25161499425685,1.006983094308956,7.413503832841108,1.0070736283526642,-90.6225802,118.5712108,232.4736832
3237.649,0.7464562000000008,16.509111400000002,4.493763599999999,0.840887,-0.1810299999999999,0.5271388,-17.1872006,-55.8605374,-141.7598784,-4.7622132,-6.0078272,-1.3948186,-0.8911971999999999,-0.4550329999999999,-0.1267656,-107.6635942,62.3805846,91.0039538,17.12605813866149,1.0088300759466085,7.792187186805771,1.0086411640024415,-90.4763936,118.241122,232.7638322
3257.635,1.2381580000000008,16.509155200000002,4.3903688,0.8376225999999999,-0.1836988,0.5334142,-17.160637200000004,-55.5228742,-141.7688322,-4.3364776,-6.764664600000001,-1.874551,-0.8910578000000001,-0.4586523999999999,-0.1286916,-107.46381999999998,62.3807608,91.3229052,17.12777215082757,1.009894835076326,8.251040333036551,1.0103997005527865,-90.3031828,117.903635,233.0917374
3277.62,0.7343336000000006,16.5060358,4.5059762,0.8342615999999999,-0.1813335999999999,0.5424954,-17.1429814,-55.183148,-141.777429,-4.1267324,-7.1876706,-2.388942,-0.8921212000000001,-0.4587372,-0.1297622,-107.241916,62.3731178,91.6629092,17.12577838178274,1.0115214039973053,8.625518699456753,1.0115128682830092,-90.0989346,117.5562658,233.4403382
3297.606,0.2769226000000006,16.5885606,4.792261000000001,0.8295220000000001,-0.1846566,0.545077,-17.144244399999998,-54.8404212,-141.7751982,-3.9059804,-7.944053999999999,-3.037919,-0.8897948,-0.4565908,-0.130317,-106.984575,62.3572816,92.0388582,17.269128362438682,1.009610689492024,9.359146792879208,1.008559599250674,-89.8403306,117.1977028,233.81405640000003
3317.591,0.1232652000000006,16.7481054,4.9080724,0.8243258000000001,-0.1825664,0.5502716,-17.1470384,-54.4936736,-141.7735472,-3.5192153999999998,-8.7636218,-3.3596538,-0.8900036,-0.454274,-0.1281648,-106.6874664,62.34084420000001,92.4513062,17.45289097779167,1.00779082587666,10.023632961201583,1.0074212083572591,-89.54042799999999,116.8345178,234.2248534
3337.577,-0.4557391999999994,16.9214038,4.9964818,0.8190846,-0.1812969999999999,0.5541096,-17.1599816,-54.1433196,-141.7727476,-3.2431533999999997,-9.528456600000002,-3.453535,-0.8898552000000001,-0.453227,-0.1248886,-106.3557998,62.3269762,92.896527,17.649544899481185,1.005388299602855,10.641260881598578,1.0064065544828291,-89.1958182,116.4702958,234.6692746
3357.562,-1.4158359999999992,17.1009994,5.0662936,0.8131194,-0.1816327999999999,0.5550436,-17.1920732,-53.7902084,-141.7719848,-3.1791975999999997,-10.4090138,-3.6497192,-0.8851954,-0.4528068,-0.1208747999999999,-105.9877898,62.3125284,93.3811216,17.891788700381447,1.0011128960277955,11.479343008521214,1.0016065153454423,-88.7957166,116.1027368,235.1531064
3377.548,-1.9722593999999996,17.2179306,5.0774158,0.8066245999999999,-0.1838208,0.5535357999999999,-17.236486199999998,-53.4365226,-141.7706848,-2.8821822,-11.3635554,-3.9922072,-0.880723,-0.4530401999999999,-0.1169414,-105.574974,62.2944474,93.9094724,18.05898924340436,0.995407059307618,12.384469463428694,0.9972931948925552,-88.33848780000001,115.73097,235.6801572
3397.533,-2.606573199999999,17.346753,5.060257399999999,0.7997525999999999,-0.1834138,0.560541,-17.288753399999997,-53.0786704,-141.77413940000002,-2.5953858,-11.9860504,-3.971025,-0.8809304000000001,-0.4524357999999999,-0.1132792,-105.134439,62.279371600000005,94.4627744,18.256786914575684,0.993705718972272,12.890712594453682,0.9967791630639355,-87.8456856,115.358042,236.2369138
3417.519,-2.933598199999999,17.64567,5.0057014,0.7918572000000001,-0.187738,0.5662362,-17.345413,-52.7132232,-141.78125319999998,-2.6290682,-12.1801478,-3.6960402,-0.88138,-0.4481137999999999,-0.110899,-104.6933884,62.2716086,95.0181822,18.575056249010533,0.9914165703811292,12.997257910425263,0.9949549087026206,-87.34797540000002,114.9848318,236.79943540000005
3437.504,-2.7043637999999994,18.110761,4.7256738,0.783282,-0.1881664,0.5705508,-17.3855986,-52.339317400000006,-141.8029452,-2.7202277999999995,-12.3759156,-3.2797722,-0.877684,-0.442077,-0.1089092,-104.25459,62.273413000000005,95.5740814,18.91151079173417,0.9871501917102584,13.088920196338163,0.9887479414034904,-86.8689914,114.6127304,237.3770266
3457.49,-3.274958399999999,18.4113176,4.1273366000000005,0.7753198,-0.1859996,0.5783916,-17.4158164,-51.961036,-141.8497804,-2.457711,-12.7946402,-2.6352642,-0.8793447999999999,-0.4400538,-0.1075744,-103.80414600000002,62.2891524,96.138022,19.150375340956103,0.9850144600069382,13.292395518144149,0.9891748458775323,-86.38832959999999,114.2501884,237.9878024
3477.475,-3.9752419999999993,18.6656804,3.4800106,0.7699364000000001,-0.1882164,0.588228,-17.4417352,-51.57907720000001,-141.919687,-2.2665366,-13.181475,-1.8661632,-0.8816364,-0.4398133999999999,-0.1066495999999999,-103.3453966,62.319931,96.7077806,19.39898573455892,0.9870357912750276,13.50448208647036,0.9910059060392524,-85.9036614,113.8990082,238.6274676
3497.461,-3.9243736,19.0002972,2.8363888000000004,0.7650088,-0.192056,0.5912892,-17.451437,-51.1948106,-142.0105042,-1.9993388,-13.375263,-1.0353846,-0.8812112000000001,-0.4401452,-0.1031586,-102.880359,62.36543880000001,97.2784884,19.60757770010029,0.985772229904089,13.56344488786944,0.9904053073577708,-85.428922,113.56024940000002,239.2889926
3517.446,-4.155235799999999,19.2897988,2.213007,0.7610887999999999,-0.190329,0.595757,-17.447015399999998,-50.8094736,-142.12447200000005,-1.6257053999999995,-13.7843624,-0.453457,-0.8804746,-0.4437573999999999,-0.0991765999999999,-102.3948624,62.4200676,97.863341,19.85597447319401,0.9850927330842716,13.887303124544086,0.9909551701704168,-84.947847,113.2295412,239.987813
3537.431,-4.881901399999999,19.4071326,1.7146937999999998,0.7580522000000001,-0.1956714,0.6037174000000001,-17.448273399999998,-50.4235094,-142.251776,-1.2273383999999996,-13.8968534,-0.0161583999999999,-0.8817126,-0.4469138,-0.0960172,-101.8988036,62.48018119999999,98.4508698,20.085067385026697,0.9886380195832852,13.950955345892863,0.9931607907710815,-84.45053019999999,112.9036906,240.7026458
3557.417,-4.126631199999999,19.634814400000003,1.3922388,0.7525191999999999,-0.2009631999999999,0.6107336,-17.429578600000003,-50.0332186,-142.38758539999998,-1.2311261999999996,-13.495852,0.4915190000000001,-0.8817980000000001,-0.4478858,-0.0929762,-101.420436,62.5455422,99.0184356,20.11202004920158,0.9897812305210884,13.560799528552565,0.9933851098199934,-83.99085740000001,112.5787608,241.406021
3577.403,-3.651076599999999,19.7793916,1.170409,0.747533,-0.2029114,0.6130724,-17.3982832,-49.6422458,-142.5289458,-1.2412415999999995,-12.7663938,0.7150492,-0.8785974,-0.4477478,-0.0892338,-100.9695174,62.6091378,99.5549728,20.147569323183856,0.9878443146471614,12.846508736799644,0.9901384523156548,-83.5712342,112.2513836,242.0839186
3597.388,-4.015434599999999,19.8524782,0.8757683999999999,0.7418296,-0.2046412,0.6184458,-17.3690558,-49.250857,-142.6781494,-1.2555733999999998,-12.0907896,0.5609074000000001,-0.8769410000000001,-0.4506376,-0.0894402,-100.5455368,62.662871,100.062149,20.273420431658565,0.9872509223653528,12.168741710860266,0.989999653227616,-83.176481,111.913728,242.7402984
3617.374,-4.040293999999999,19.998594,0.8422386,0.7388212000000001,-0.2112748,0.6208616,-17.3455252,-48.857732600000006,-142.8243438,-1.1654209999999996,-11.5399708,0.5416232000000001,-0.8763021999999999,-0.4529805999999999,-0.0882532,-100.141066,62.710808,100.5455948,20.42001722434636,0.987908362672895,11.611308619741012,0.9903966866924788,-82.7955408,111.5685406,243.3699386
3637.359,-4.202186599999999,20.3591456,0.9197218,0.7350916,-0.2102196,0.622131,-17.325221399999997,-48.459363800000006,-142.970935,-0.8712167999999995,-11.3642786,0.6056434,-0.8802514,-0.4572748,-0.0851302,-99.735196,62.7564354,101.023584,20.808629699540862,0.9856971754934272,11.413704514266335,0.9955852152724246,-82.40997460000001,111.2157992,243.994519
3657.345,-5.289991799999999,20.993715,0.9362392,0.7360926,-0.2106856,0.6216762,-17.325156999999997,-48.05346,-143.1209624,-0.2167601999999996,-10.904239,0.4966418000000001,-0.8835778,-0.4602731999999999,-0.0840634,-99.333542,62.795855,101.4823914,21.67017827764481,0.986256576894958,10.917695096994253,0.9998138839357252,-82.008385,110.849315,244.6033538
3677.33,-4.9949472,22.190903,1.3069492,0.7328319999999999,-0.212007,0.6261616,-17.320729,-47.6233826,-143.2698882,-0.0722279999999996,-10.861992,0.8602154000000001,-0.8866553999999999,-0.46039,-0.0805578,-98.9310304,62.8413552,101.9386536,22.783629862196616,0.9869488627013864,10.896240527193092,1.002300508625033,-81.6103014,110.4647378,245.2085418
3817.228,-4.9908156,25.3722152,1.9216444000000004,0.7184012,-0.2101277999999999,0.6344186,-17.3271068,-46.408284,-143.63811619999998,0.3724714000000003,-12.5931164,1.6804583999999998,-0.8889077999999999,-0.4542536,-0.0676462,-97.735962,62.9752708,103.2545868,25.929717732909584,0.9811936284547714,12.710202832445178,1.0005395636296648,-80.4088552,109.3835548,246.89270300000004
3837.214,-5.8778412,28.7346424,2.3799126,0.7030152000000001,-0.2073158,0.6481958,-17.3395928,-45.1273224,-144.0227384,0.7881278000000004,-14.2666316,2.077439,-0.8942796,-0.4511741999999999,-0.0555388,-96.4607316,63.1169754,104.64978019999998,29.426054356843935,0.9784518421968044,14.438617504386368,1.003184290161703,-79.12113880000001,108.2442978,248.6725186
3857.199,-6.029904799999999,32.2962554,3.0023044,0.6840786000000001,-0.2121169999999999,0.657847,-17.3525828,-43.7754738,-144.4161222,0.8228170000000004,-15.5398098,2.4174514,-0.8917811999999999,-0.4432412,-0.0431738,-95.1272904,63.26399779999999,106.1082108,32.991236661715966,0.972481273894752,15.748231256462644,0.9967950877975472,-77.7747076,107.0394716,250.524333
3877.185,-5.3460904,36.20345160000001,3.6165414,0.6623958,-0.2135853999999999,0.66548,-17.3468958,-42.3467538,-144.82149339999998,0.6163002000000003,-17.565688,3.5163678000000003,-0.8881104000000001,-0.4361604,-0.0275688,-93.7076722,63.43127919999999,107.6656906,36.77431116984286,0.9629384971797524,17.924789074205055,0.989816152550442,-76.36077639999999,105.778033,252.487184
3897.17,-6.548226,40.1936372,3.8026756000000006,0.6438602,-0.215908,0.6760112,-17.3526834,-40.843158,-145.25025920000002,1.0645470000000004,-19.0595458,4.645754200000001,-0.892234,-0.4365645999999999,-0.0155708,-92.2126176,63.61542139999999,109.2964004,40.90070997954846,0.9582084137250516,19.64643933399445,0.9934347540436664,-74.8599342,104.4585794,254.54665960000003
3917.156,-6.8973348,42.8934464,3.9846542,0.632089,-0.2213664,0.6821309999999999,-17.344555800000002,-40.0101174,-145.4814422,1.3731748000000004,-18.5638752,5.1340654,-0.8933964,-0.4369264,-0.010738,-91.437343,63.7330568,110.1302322,43.62680873621794,0.955950986259735,19.30962710680885,0.9945738339580024,-74.0927872,103.7431742,255.6116744
3937.142,-6.479756,45.7574424,4.2624436,0.6188051999999999,-0.2235996,0.6824186,-17.3249348,-39.1228806,-145.7234864,1.3515162000000005,-17.749407400000003,6.499903000000001,-0.887044,-0.4329884,-0.0053688,-90.6905686,63.8724656,110.9321442,46.410119567310254,0.9479513712702566,18.95037725480541,0.9870941375998542,-73.3656338,102.9953462,256.6556306
3957.128,-7.504192999999999,48.7048294,4.5014914,0.6048169999999999,-0.2229802,0.6913568,-17.3178416,-38.1773186,-145.9805268,1.4568034000000003,-16.6455134,7.719269,-0.8902395999999999,-0.4353271999999999,-0.0013277999999999,-89.98174,64.0301964,111.6889924,49.48471222800661,0.9452502303555816,18.406045376185293,0.9909783446275906,-72.6638984,102.207515,257.6695192
3977.112,-9.3864102,51.7197494,5.1038684000000005,0.5870438,-0.2287296,0.7063094000000001,-17.349066399999998,-37.1659142,-146.242569,1.5282158000000003,-14.4919738,8.236346000000001,-0.8929228,-0.4348122,0.0004046,-89.35631880000001,64.193975,112.3515032,52.81180405066639,0.946472726264714,16.738881192689437,0.9931630982521652,-72.0072524,101.3598892,258.5940722
3997.098,-9.3983396,54.7018302,6.0722084,0.5652938,-0.2314126,0.7128652,-17.386423399999998,-36.0892594,-146.50111099999998,1.4345094000000005,-12.5087136,8.971155200000002,-0.890526,-0.429292,0.002294,-88.8096086,64.3704726,112.928496,55.83449408134358,0.9387681636742056,15.459862831474297,0.9886017602533388,-71.4231852,100.459732,259.42960700000003
4017.083,-9.7227554,57.4755698,6.940199,0.5461848,-0.2302791999999999,0.7260194,-17.431606600000002,-34.9519898,-146.7595582,1.2209432000000005,-10.8103922,9.6976602,-0.8893340000000001,-0.4241996,0.006668,-88.32950600000001,64.5605392,113.4353532,58.70382831266205,0.9372569097531582,14.573945765307045,0.9853449783807496,-70.8978994,99.512529,260.1949114
4037.069,-10.384823,60.3351586,7.972426199999999,0.5270918,-0.2356592,0.7346374,-17.4988342,-33.7527558,-147.0119294,1.1011776000000004,-9.1160476,10.6408106,-0.8944686000000001,-0.4189928,0.011944,-87.911281,64.7706848,113.8749878,61.73925405722788,0.9343731233563174,14.054955217903752,0.9878115720995578,-70.4124468,98.5234406,260.8869172
4057.055,-11.1097688,63.10758599999999,8.891669799999999,0.5088396000000001,-0.2328042,0.7501116,-17.5808492,-32.493848400000005,-147.26449900000003,1.0332590000000004,-7.562596599999999,11.0363114,-0.8970572000000001,-0.4154348,0.0168198,-87.5503496,64.98883980000001,114.2515288,64.69201005819096,0.9358327556355142,13.41866836959549,0.9887267563866774,-69.9695004,97.4826882,261.5160278
4077.04,-11.3107814,65.6839402,9.9699126,0.4905494,-0.2355048,0.7555615999999999,-17.6749632,-31.1809352,-147.51044940000003,0.6822206000000005,-6.549944600000001,11.6792838,-0.8969982,-0.4090116,0.0235524,-87.2263048,65.2207978,114.5932402,67.39223199544143,0.9311146846967672,13.407940531307409,0.9861292893345984,-69.5513416,96.401733,262.1036896
4097.025,-11.8370904,68.184366,10.8808942,0.470306,-0.2359205999999999,0.7689802,-17.78245,-29.813729,-147.7549348,0.3691792000000005,-4.796703,12.7944202,-0.8956632000000001,-0.4021473999999999,0.0293488,-86.97111220000001,65.4768952,114.8645278,70.05439554054637,0.9317600609236264,13.669010249688515,0.9822405261556052,-69.1886622,95.2906242,262.6194626
4117.011,-13.2088498,70.6103502,11.826687,0.448904,-0.2391408,0.7749646,-17.9238814,-28.3953444,-147.9958986,0.6992748000000004,-3.993027000000001,13.9740294,-0.9022928,-0.3943527999999999,0.0334741999999999,-86.73191399999999,65.7597336,115.1096572,72.80223756040448,0.9269699319254104,14.550145962866091,0.9852750630485478,-68.8080326,94.155078,263.1055558
4136.997,-14.5125848,73.09131620000001,12.6870228,0.4270096,-0.241985,0.7911358,-18.0936656,-26.9228364,-148.23839119999997,0.7346724000000004,-3.0901718,14.6902272,-0.9096476,-0.3907192,0.0372008,-86.521297,66.05809179999999,115.321611,75.59045024970611,0.9310154632221744,15.029693292827265,0.9907089123224035,-68.4276314,92.9809282,263.5600022
4156.982,-14.5697814,75.66339260000001,13.576404,0.3992409999999999,-0.2526665999999999,0.8010754,-18.2734834,-25.3931772,-148.4798036,0.0710956000000004,-1.8165366,16.4534882,-0.907995,-0.3806636,0.0349432,-86.37698379999999,66.39503619999999,115.476152,78.24031093596662,0.930029883026196,16.55361391814543,0.9851805538154922,-68.1035004,91.7882134,263.9559556
4176.968,-13.5421744,77.89470659999999,14.2803656,0.3677928,-0.2552412,0.8197138,-18.433405,-23.8106402,-148.7255432,0.3144508000000005,-0.0340939999999999,18.3708278,-0.909932,-0.3778548,0.0328528,-86.3055422,66.77091060000001,115.546579,80.342421207291,0.9339969634959848,18.373550439795505,0.985814283206974,-67.8721372,90.5815508,264.2721222
4196.953,-14.2555492,79.4698486,15.1858762,0.33674,-0.2603276,0.8357496,-18.6138416,-22.1876724,-148.9658234,0.5120494000000004,1.6582756,18.8911796,-0.9123868,-0.3731644,0.0284032,-86.3162232,67.1587464,115.5249878,82.15405258088167,0.937892147755764,18.97073375578952,0.9861582449139894,-67.7023816,89.34641880000001,264.49081119999994
4216.939,-14.8033212,80.6053436,16.1110474,0.3027664,-0.2701947999999999,0.8533897999999999,-18.814433200000003,-20.530608800000003,-149.19782400000005,-0.1281103999999995,4.4738862,19.6508746,-0.913964,-0.3732997999999999,0.021991,-86.4835372,67.5615646,115.3492616,83.52200658359135,0.9449586624080653,20.15412966491145,0.9875052091290658,-67.66910399999999,88.09217340000001,264.54708560000006
4236.924,-14.4572388,81.17441420000002,17.2648092,0.2661262,-0.2784353999999999,0.8636198,-19.0200866,-18.849097800000003,-149.4139618,-0.3203673999999995,7.1001606,20.115047,-0.9100046,-0.369679,0.013511,-86.79822680000001,67.9735946,115.020543,84.23996029881421,0.9456154531582276,21.333776778362147,0.9823204579887156,-67.77814020000001,86.82269240000001,264.4345048
4256.909,-14.0734632,81.32780460000001,18.4678428,0.2381346,-0.2848066,0.8700619999999999,-19.2304676,-17.156806,-149.6108154,0.5841880000000005,9.0877578,18.816667,-0.915543,-0.3629982,0.011686,-87.20592500000001,68.3618058,114.5725984,84.5773928729365,0.9459549518685972,20.90443910846913,0.9849483441522402,-67.97545740000001,85.5186118,264.18341380000004
4276.895,-16.7394352,81.3457506,19.5468128,0.215053,-0.285237,0.8860544000000001,-19.4995616,-15.459328,-149.7926788,0.1087752000000004,11.5270164,18.4263804,-0.9259115999999998,-0.3551191999999999,0.0129118,-87.757556,68.7455124,113.9803742,85.31950376162911,0.955353515059928,21.73511982427307,0.991760380234278,-68.25799439999999,84.2048404,263.773053
4296.88,-16.708674,81.8451936,20.6983814,0.1940243999999999,-0.3016826,0.8852366,-19.7834488,-13.7495982,-149.9604584,-0.7238985999999994,13.007637,18.1706186,-0.934358,-0.3462729999999999,0.0143476,-88.4152282,69.1255294,113.292633,86.05950554610236,0.9551448565100898,22.358310084027305,0.9965619480588048,-68.6317794,82.8751276,263.2530914
4316.866,-16.531607199999996,82.5246492,21.6272736,0.1724159999999999,-0.3048867999999999,0.8899775999999999,-20.0684918,-12.0254664,-150.1224886,-0.7961865999999994,13.6057308,17.074647,-0.9375948,-0.3437588,0.0123526,-89.1255036,69.4794692,112.55110299999998,86.89850818953919,0.9564221695318442,21.847045426755013,0.998702512408595,-69.0570118,81.50493560000001,262.6735916
4336.852,-16.6164592,83.282184,22.3289876,0.1499692,-0.3145542,0.8981804,-20.3612736,-10.2861564,-150.28390819999998,-1.7156525999999996,14.042254,15.6964688,-0.9401432,-0.3420696,0.0129522,-89.8930542,69.8008712,111.7684324,87.81009381270512,0.9634122360809207,21.13072393539266,1.000524166242495,-69.53178059999999,80.08702760000001,262.05234060000004
4356.837,-16.2555,83.9255908,23.144579,0.1211008,-0.3227216,0.9064082,-20.652213,-8.5295936,-150.4421418,-2.584324,14.83135,16.9225158,-0.94304,-0.3431762,0.0090524,-90.7451384,70.139746,110.9157576,88.56307135858764,0.9697373148922548,22.64992746921556,1.0035817314958455,-70.09292539999998,78.6693396,261.3578994
4376.822,-14.661100599999996,84.4468356,24.0231766,0.0915696,-0.338471,0.9025546,-20.923255,-6.7580926,-150.5938386,-1.8804078,14.4128792,15.5038096,-0.9456874,-0.3390414,0.0022264,-91.5899078,70.4452376,110.0580412,89.01308290140015,0.9682729034039526,21.251708929898925,1.0046286310322237,-70.6666528,77.20333020000001,260.6518798
4396.808,-13.981901399999998,84.6459612,24.3088978,0.059154,-0.3426334,0.9171182,-21.18141,-4.9795124,-150.74971620000002,-2.630569799999999,14.8172674,14.9898786,-0.9419816,-0.3378477999999999,-0.0025115999999999,-92.5002472,70.7320862,109.14840840000002,89.17036966662229,0.9808173302316798,21.24071023102836,1.000738117010619,-71.31883719999999,75.7115986,259.8981246
4416.793,-11.983743199999996,84.71106280000001,24.687368400000004,0.0301306,-0.3550448,0.9167236,-21.40922,-3.1982006000000003,-150.9054076,-3.5939212,15.6590734,15.7761968,-0.9487698,-0.3285466,-0.0046829999999999,-93.5049164,71.0317628,108.1605652,89.04515944343304,0.9835379107387572,22.51690997474403,1.0040562395865085,-72.0956964,74.2299634,259.0659728
4436.779,-11.650304799999995,84.61187,24.885318400000003,0.0049998,-0.357254,0.927773,-21.6323008,-1.421199,-151.0632018,-3.653018399999999,15.7935296,15.9840454,-0.9610198,-0.3228522,-0.0089575999999999,-94.5437074,71.3324616,107.1392578,88.96166151044606,0.994192213832436,22.765540362707757,1.0138406371982926,-72.91140659999999,72.75366059999999,258.2024596
4456.764,-11.956082599999998,84.3000474,24.862456200000004,-0.0232011999999999,-0.366479,0.937959,-21.8668642,0.3474024,-151.225949,-4.145776799999999,15.455875600000002,13.507171799999998,-0.961605,-0.318634,-0.0143153999999999,-95.5876238,71.578032,106.1242202,88.69942294669784,1.0072796229465977,20.940755618477784,1.013122269352599,-73.7207596,71.2306296,257.35016920000004
4476.75,-9.443168599999998,83.804181,24.6493882,-0.0531757999999999,-0.371515,0.9434624,-22.055327400000003,2.103995,-151.3953002,-5.044970399999999,15.3617228,13.672590599999998,-0.9610386,-0.3153214,-0.0190177999999999,-96.6690386,71.820682,105.0897796,87.86299861103699,1.0153680914547196,21.174843268277677,1.0116246599924104,-74.6137112,69.71668700000001,256.48507980000005
4496.735,-7.879615199999999,82.99267280000001,24.3179094,-0.0792063999999999,-0.3767704,0.9425598,-22.2192018,3.839646000000001,-151.5700714,-3.450146599999999,14.1391606,13.0561736,-0.9681406,-0.3131216,-0.0256901999999999,-97.6691744,72.04785179999999,104.1088546,86.84027171637904,1.0181594004345094,19.55205981750825,1.0178415122851692,-75.4499726,68.2082058,255.678926
4516.721,-7.524358399999999,81.8585756,23.8910364,-0.1038008,-0.3785746,0.9488114,-22.3794454,5.5471814,-151.74927979999998,-2.3968765999999992,13.395276,11.8689018,-0.97192,-0.3152206,-0.0270157999999999,-98.6121004,72.244971,103.1663756,85.60504651513654,1.026808846190838,18.05683434298069,1.0221166110155924,-76.232655,66.6977896,254.9156554
4536.706,-6.134893199999999,80.6322006,23.6178636,-0.1289554,-0.3837512,0.9474624,-22.5187124,7.226361,-151.9290802,-1.904203199999999,12.4489958,11.2056472,-0.9669414,-0.3158894,-0.0298752,-99.4951006,72.4242754,102.276834,84.24364764896076,1.0303297909428613,16.857343071379184,1.017671023288646,-76.9763882,65.1979144,254.2059142
4556.692,-4.997401199999999,79.373169,23.526817,-0.1531116,-0.3822368,0.9411724,-22.638698800000004,8.8782184,-152.1048798,-0.6114781999999991,11.599463,12.1629444,-0.9698024,-0.3138908,-0.03027,-100.317911,72.6211794,101.4235138,82.937235871518,1.0273040542364076,16.81840253873523,1.0197844881495306,-77.67921220000001,63.742961,253.5283936
4576.678,-5.375330599999999,78.21398919999999,23.3535546,-0.1771366,-0.382578,0.935605,-22.7709676,10.5043994,-152.2791504,0.2079648000000008,10.5017652,11.4927638,-0.9706628,-0.3088651999999999,-0.0335914,-101.0661486,72.8057862,100.6320908,81.80287768833192,1.0262066152430318,15.569648083259958,1.0191723923011455,-78.295181,62.3013868,252.9112412
4596.663,-5.631557599999999,77.0859756,23.449072,-0.2051898,-0.379176,0.929402,-22.9103936,12.1102254,-152.44716780000002,0.6484768000000009,9.7249882,10.8597824,-0.9725498,-0.3012026,-0.0292993999999999,-101.7511996,72.98126679999999,99.8971696,80.77017427780565,1.024531781158613,14.592148280004125,1.0185453227849806,-78.840806,60.8710414,252.3443374
4616.648,-5.982961799999998,76.1583388,23.193224800000003,-0.2350882,-0.375668,0.9225178,-23.060861600000003,13.6979888,-152.6172972,1.0299344000000008,8.292515,9.0096804,-0.9674146,-0.2903605999999999,-0.0376374,-102.3371676,73.12609560000001,99.259607,79.83617023191418,1.0234412534777362,12.288242787464467,1.010750641950961,-79.276306,59.4281068,251.8769042
4636.634,-6.199452799999999,75.27063740000001,22.8136178,-0.265073,-0.3756476,0.907785,-23.2239784,15.2681714,-152.7936094,1.5149222000000009,7.8173816,8.6552738,-0.968823,-0.2838603999999999,-0.0454581999999999,-102.8999636,73.2653734,98.6376374,78.8959012037139,1.017569860471388,11.760961223685666,1.0105746780740157,-79.6759852,57.997202,251.4312468
4656.62,-5.347937999999998,74.7260512,22.2227434,-0.2919451999999999,-0.3746668,0.9023994,-23.3773688,16.8226484,-152.98204619999998,1.805504400000001,7.4130994,8.1512104,-0.9652058,-0.2754071999999999,-0.0496552,-103.4410158,73.39671480000001,98.033348,78.14367212397373,1.0197705074896213,11.164950507627337,1.0049562184754717,-80.063647,56.57406640000001,251.0153942
4676.605,-4.507399199999998,74.0719528,21.8246458,-0.323046,-0.3765304,0.8916765999999999,-23.5228598,18.3643006,-153.1790494,2.1697398000000008,7.1266804,7.410067,-0.9623992,-0.2774678,-0.0575805999999999,-103.9624102,73.50940720000001,97.443016,77.35170330024444,1.020402381037853,10.5074467530384,1.0032527725821845,-80.4395504,55.1451066,250.6220654
4696.59,-4.061827399999999,73.1451904,21.2632936,-0.3515785999999999,-0.37146,0.881119,-23.664812,19.8861688,-153.3837064,2.397347000000001,7.013828800000001,6.5356196,-0.9545524,-0.2776534,-0.0726957999999999,-104.488553,73.59966740000002,96.8452452,76.28135404670951,1.0188035805487532,9.882074206866823,0.996767964079384,-80.82374100000001,53.7134986,250.2289516
4716.576,-4.987089799999998,71.9764754,21.0392866,-0.3804883999999999,-0.3737936,0.8806291999999999,-23.8303424,21.3840562,-153.5885068,2.7357400000000007,7.4685226,7.224150799999999,-0.9562292,-0.277959,-0.078596,-105.0606142,73.6976134,96.1933654,75.15407943895667,1.0295634345819396,10.744834012466242,0.9989058112903536,-81.2302718,52.313557200000005,249.7818722
4736.562,-5.214695399999998,70.3580916,21.1676592,-0.4146767999999999,-0.3740903999999999,0.872654,-24.0016798,22.8571666,-153.783441,2.710360800000001,8.0625246,6.4602798,-0.9565428,-0.2728474,-0.0845508,-105.6737214,73.77652420000001,95.5000992,73.65815567685709,1.0360624882440248,10.681084855297698,0.9982828605657016,-81.6720416,50.9193576,249.2835402
4756.547,-6.037589399999999,68.568321,21.0399648,-0.4395292,-0.3734026,0.8549286,-24.1938864,24.2977642,-153.97275380000002,2.452427200000001,8.1313122,6.021065,-0.9630106,-0.272455,-0.0852044,-106.291617,73.84490960000001,94.8070466,71.9774079090604,1.031270250922308,10.410853038987424,1.0044306509245522,-82.0977306,49.5471454,248.77980040000003
4776.532,-8.776171799999998,67.3352276,20.5240896,-0.4549632,-0.3710438,0.8443014,-24.4484038,25.7070556,-154.1696442,1.893687600000001,7.886188,4.8307936,-0.9770834,-0.266806,-0.0828242,-106.8778214,73.8951048,94.1581498,70.93865181490092,1.0283529884794618,9.440051943900452,1.0162368130987975,-82.4294176,48.1880492,248.327794
4796.518,-10.931270199999998,66.94651619999999,20.0187276,-0.4712052,-0.3726047999999999,0.8427720000000001,-24.7573116,27.0983966,-154.3827576,1.007818600000001,8.7236796,5.522802,-0.9843728,-0.2620536,-0.075023,-107.5377518,73.9559402,93.4496644,70.72537136152252,1.0349557099094049,10.373987951851792,1.0214158551646828,-82.7804402,46.8575436,247.832422
4816.504,-10.4815912,66.6292526,19.6149044,-0.4879098,-0.3706156,0.8260774,-25.069923,28.4777552,-154.61226200000002,0.4155176000000007,9.1128984,6.1067678,-0.9753654,-0.2593004,-0.0765802,-108.25271,74.0217484,92.696364,70.24290377496978,1.028501709619464,10.977713108282124,1.0121456851606692,-83.18278699999999,45.5439932,247.308626
4836.489,-11.799681799999998,66.24925540000001,18.8870758,-0.5039922000000001,-0.3654116,0.8141587999999998,-25.4213356,29.8405482,-154.8631622,0.8212914000000007,8.734190799999999,6.2956132,-0.9708772,-0.2577478,-0.0767616,-108.9380142,74.0903412,91.9652788,69.89218814653485,1.0248845431036804,10.79793286043828,1.0074367519200598,-83.5166786,44.249793,246.82844100000003
4856.474,-13.424546799999998,65.583452,18.2499626,-0.5292821999999999,-0.3699896,0.8021991999999999,-25.8222484,31.185551200000003,-155.13514700000002,0.4491462000000006,8.867912800000001,5.5122954,-0.966836,-0.257633,-0.0896108,-109.6446304,74.1374238,91.2212922,69.38637307082055,1.0298327572114023,10.45117267651049,1.004577876056227,-83.82238199999999,42.9518726,246.3564392
4876.46,-13.490203799999998,64.28358180000001,17.993079799999997,-0.5579943999999999,-0.3714872,0.7944746,-26.2320224,32.5054552,-155.413217,0.7193674000000007,9.7014402,6.1549988,-0.9594348,-0.2546298,-0.0965142,-110.4249252,74.187732,90.3957428,68.10371067931611,1.0394952526300252,11.511708893051468,0.9973296653066728,-84.1929028,41.6822768,245.8089598
4896.445,-13.5393352,62.402200400000005,18.0481552,-0.5818492,-0.3688329999999999,0.7796512,-26.6430086,33.792815600000004,-155.68375840000002,1.100734600000001,9.69974,5.7137844,-0.958822,-0.2505172,-0.1055656,-111.2054398,74.2261276,89.56320500000001,66.35573915301529,1.040404857298869,11.311229150579548,0.9966155683528128,-84.5624312,40.433312,245.2469634
4916.431,-14.4788522,60.215953,17.8995362,-0.6059968,-0.3676004,0.7664326,-27.073728800000005,35.0403098,-155.948117,0.7914052000000007,9.6812084,5.3507182,-0.9680202,-0.2455185999999999,-0.1078308,-111.98796380000002,74.2574142,88.7351592,64.46698033026493,1.0439258144299144,11.089738659257431,1.0044749732983096,-84.914235,39.2171044,244.6832762
4936.416,-14.5104478,58.1985274,17.4548294,-0.6242366,-0.3703418,0.7546609999999999,-27.5124366,36.245013400000005,-156.2155364,-0.1517729999999993,9.662276,4.3055140000000005,-0.9727688,-0.2357186,-0.1148242,-112.77506859999998,74.2708588,87.9229476,62.46833402827532,1.0470614148787072,10.579227918326602,1.0074854805628914,-85.26263200000001,38.0258454,244.138484
4956.402,-13.6745568,56.2466184,17.1085162,-0.6401832,-0.3682256,0.7424256,-27.9380162,37.4092118,-156.482666,-0.9307827999999992,10.287623,4.874586,-0.9726752,-0.2344178,-0.1168887999999999,-113.6319198,74.28663639999999,87.0541702,60.36039191123023,1.0471964446048123,11.422045888644504,1.0073290133900246,-85.6939036,36.8774246,243.5368362
4976.387,-12.830843799999997,54.3401822,16.5226388,-0.6527578,-0.365876,0.7288968,-28.353253,38.5309448,-156.75429979999998,-1.4942357999999991,10.3985054,5.2267334,-0.9720342,-0.2358294,-0.1207462,-114.5158982,74.3027588,86.1687882,58.22785885694631,1.0446284209646417,11.733729041294003,1.0074947328340929,-86.1626452,35.771814,242.923088
4996.373,-11.860592999999998,52.593887800000005,15.7142712,-0.6647544,-0.3742626,0.7110668,-28.767384600000003,39.6109054,-157.04147640000002,-1.9194855999999991,10.284598,4.8004646,-0.976502,-0.237533,-0.1208344,-115.3798324,74.3080766,85.3123338,56.15807172239613,1.0428743453265883,11.510944416774173,1.0122149150829385,-86.6124478,34.6971712,242.3538102
5016.358,-11.658418,51.0583242,14.989463600000002,-0.6709372,-0.3729924,0.7008998,-29.1871446,40.6508254,-157.3388336,-2.410916399999999,9.8107266,3.953166,-0.9753198,-0.2413502,-0.123068,-116.1907562,74.2963044,84.520479,54.47527144852749,1.0394905417759417,10.848520439732438,1.0122471851954344,-87.0036116,33.645479,241.8593126
5036.344,-11.375751199999998,49.770175,14.608934,-0.6783492,-0.3756742,0.6903938000000001,-29.610999400000004,41.6585128,-157.6437684,-3.246036999999999,9.0555726,4.999242199999999,-0.9743544,-0.2477694,-0.1203356,-116.98402860000002,74.3053314,83.7630174,53.10272109328563,1.0382352049341808,10.841244111885894,1.0125397913183856,-87.37302919999999,32.6468186,241.4067858
5056.345,-10.3646168,48.5348074,14.2550616,-0.687033,-0.3744888,0.6777338,-30.0226002,42.6376288,-157.9549226,-3.777994,7.780791199999999,4.6811718,-0.9731506,-0.2352454,-0.1228876,-117.70831739999998,74.32262560000001,83.0891024,51.6358363153511,1.0351711491714208,9.835004818664231,1.0086941314071771,-87.68571720000001,31.6849968,241.044025
5076.315,-9.2717562,47.3663382,13.5201512,-0.6973172000000001,-0.3729748,0.6615826,-30.4282936,43.5873626,-158.2825502,-4.941319399999999,6.6622816,4.5136306,-0.969507,-0.2263938,-0.1191906,-118.3774702,74.3496308,82.4964678,50.12314780597762,1.0310446234153203,9.443277753183546,1.0026985463516938,-87.94917660000002,30.762268199999998,240.779018
5096.3,-8.608454399999998,46.2708022,12.5546876,-0.7099260000000001,-0.370632,0.6497683999999999,-30.839597200000004,44.5066002,-158.63199479999997,-7.4391476,5.2463304,3.3131862,-0.975704,-0.2234188,-0.1275038,-118.9781616,74.3673386,82.027788,48.71049993709773,1.0312914130053443,9.687213349380738,1.0090448329107484,-88.1385644,29.8607384,240.6597828
5116.286,-7.4570767999999985,45.4086578,11.765572,-0.7223152,-0.3706154,0.63874,-31.2469166,45.4006936,-159.002469,-9.3567244,4.6214212,3.2809274000000004,-0.9739984,-0.2285521999999999,-0.1343088,-119.5781844,74.3842348,81.5997836,47.49718814925557,1.0329974881228898,10.939392579546432,1.009429465136044,-88.3312678,28.9835412,240.6022526
5136.271,-6.515436399999999,44.1713394,11.2318802,-0.7362992,-0.3663272,0.6194358,-31.6465562,46.2704544,-159.3826538,-9.1276754,4.5437424,2.4064254,-0.9683464,-0.2324948,-0.140586,-120.1402602,74.3808672,81.2064258,46.04034392464493,1.029578962344375,10.47620811224596,1.0057400289418732,-88.49370400000001,28.1104128,240.5890796
5156.257,-7.207296999999999,43.1872368,10.534583,-0.7432084,-0.362762,0.6043906,-32.0757634,47.1142578,-159.779541,-8.1790516,4.1915544,2.1125234,-0.9729802,-0.2324704,-0.1379994,-120.6422088,74.3761508,80.8550738,45.03398707031582,1.0243256278366368,9.430205113313786,1.0098399828034934,-88.56644539999999,27.261893000000004,240.6346148
5176.242,-8.222247999999999,42.726271,10.0472912,-0.7511378,-0.361051,0.5908746,-32.54561,47.9427148,-160.1981262,-8.0850818,3.9872086,2.239943,-0.9798146,-0.2302404,-0.1386784,-121.13466780000002,74.37650160000001,80.5115634,44.65520861217136,1.0216156870932436,9.288903313946928,1.0160113143030838,-88.58905779999999,26.4337868,240.7096896
5196.228,-8.6920264,42.395409400000005,9.8331832,-0.7589222,-0.3571488,0.578331,-33.0406114,48.7605996,-160.63302000000002,-8.219787199999999,4.2675786,3.6327016,-0.964828,-0.2333894,-0.1436087999999999,-121.6984724,74.39171920000001,80.096857,44.38032844602063,1.018815447740797,9.9485501272851,1.0029891171163323,-88.657861,25.631119600000005,240.729877
5216.213,-7.999758799999999,41.851070400000005,9.9873516,-0.7672852,-0.356373,0.5524176,-33.535893200000004,49.5729644,-161.0774474,-8.5554432,3.9428572,2.9424594,-0.9523114,-0.230122,-0.1424096,-122.2173262,74.3973938,79.7353778,43.76363132174884,1.0103927444601926,9.869133628068193,0.9900169855240464,-88.681433,24.824429400000003,240.8128252
5236.199,-8.015774399999998,41.6039742,9.735052,-0.7720382,-0.3506552,0.5387716,-34.047924,50.3760718,-161.53986500000002,-9.5674052,4.4888514,3.1376814,-0.954531,-0.2168784,-0.1451018,-122.810701,74.405223,79.3186098,43.47314741203661,1.004627736284859,11.024067929769616,0.9895555581728596,-88.762777,24.0291512,240.8584748
5256.184,-7.368957399999999,41.1674196,9.6877462,-0.7819098,-0.3479338,0.5276061999999999,-34.5583908,51.1693054,-162.0128234,-11.776243399999998,5.963909599999999,3.6935544,-0.9462034,-0.2181293999999999,-0.1517576,-123.5625428,74.40019659999999,78.783304,42.92913225446205,1.0053900570410073,13.707314486753962,0.9828080577985102,-89.004152,23.2308912,240.7961274
5276.17,-6.236084399999998,40.184514,9.9975544,-0.7892547999999999,-0.3457907999999999,0.5119566,-35.0462182,51.948345800000006,-162.4797852,-13.619948,7.275164799999999,3.8555272,-0.9299822,-0.2271308,-0.1642316,-124.438698,74.3702756,78.1571504,41.8764254448858,1.0022943564498603,15.915278708832052,0.9713018640278832,-89.3924798,22.4219298,240.6369356
5296.155,-6.005525799999999,38.8254464,10.4236292,-0.7957426000000001,-0.3463256,0.4947342,-35.5235932,52.708277,-162.93206479999998,-13.2720044,8.6207734,3.9404654,-0.931955,-0.2314934,-0.1670486,-125.3770646,74.3212246,77.45805820000001,40.64644724933326,0.9989542708851892,16.309233653865043,0.9746971586244212,-89.8534714,21.6129476,240.390123
5316.141,-6.7601678,37.4872482,10.7140264,-0.8049018,-0.3422076,0.4954701999999999,-35.99796619999999,53.4442778,-163.36129160000002,-11.5927848,10.788507,5.3700980000000005,-0.9403176,-0.2263246,-0.173019,-126.4663712,74.26935399999999,76.56740260000001,39.56998872873805,1.0052182192086652,16.721916613766616,0.9825251079722696,-90.468405,20.8250762,239.9286942
5336.126,-5.784042799999999,36.0652686,11.1851138,-0.8158242,-0.3421572,0.4868313999999999,-36.4368044,54.16052019999999,-163.7665438,-10.1099914,12.3928248,6.9574394,-0.9442892,-0.222183,-0.1721822,-127.6719222,74.2218488,75.524234,38.20033404332125,1.0097749684179342,17.44133009940014,0.9852380873283776,-91.23511779999998,20.061328600000003,239.2907778
5356.112,-5.164982199999999,34.7757674,11.3219664,-0.8234730000000001,-0.3408027999999999,0.4801111999999999,-36.8536906,54.8541084,-164.15674140000002,-9.5881932,13.116166799999998,7.9362734,-0.952369,-0.2188686,-0.1745776,-128.940724,74.1764814,74.4038422,36.9353213407972,1.0123048427140315,18.081806210815778,0.992666869926019,-92.0870334,19.32237300000001,238.56058360000003
5376.098,-5.049304399999999,33.5515034,11.3909164,-0.8323832000000001,-0.3410698,0.4736368000000001,-37.2616702,55.5255494,-164.53531800000002,-9.098308799999998,14.0531946,8.652446999999999,-0.9621888,-0.2168462,-0.1787576,-130.2720198,74.12535840000001,73.2075698,35.79038742114788,1.0166229480139233,18.845061437242265,1.0023890666091886,-93.0103496,18.599809000000004,237.7428878
5396.083,-4.329309199999999,32.632426599999995,11.4503818,-0.8405020000000001,-0.3411048,0.4661106,-37.6535884,56.1801912,-164.9083436,-8.463546,15.1075202,9.8853156,-0.9648616,-0.2147522,-0.1850139999999999,-131.690991,74.0713622,71.90623020000001,34.85296870166676,1.0198309605122804,19.93961489094329,1.0056374071977436,-94.0374026,17.891171000000003,236.8145738
5416.069,-3.505007599999999,31.792776,11.3771082,-0.8487358,-0.3435334,0.4542768,-38.034200600000005,56.8191164,-165.2828706,-7.746916599999999,15.9846286,10.84812,-0.9717984000000002,-0.2143132,-0.1915566,-133.16816999999998,74.0103208,70.528508,33.948553357348544,1.0221228234099071,20.813571914058706,1.0134180820077965,-95.1339694,17.191204400000004,235.8113786
5436.054,-3.9896923999999983,31.043161,11.355067600000002,-0.8582314,-0.3434456,0.4503622,-38.4227488,57.4428178,-165.6533326,-7.903373199999999,16.4499308,10.4717274,-0.9805738,-0.2156201999999999,-0.1955244,-134.63236379999998,73.92799980000001,69.16626579999999,33.29463996680409,1.0282714268587647,21.04092692832656,1.0228620820471546,-96.209615,16.485182000000002,234.8195984
5456.039,-5.232727599999999,30.480363,11.8180978,-0.8654814,-0.3408652,0.4422966,-38.8269754,58.0618868,-166.0106324,-8.338506599999999,16.739301,9.6656384,-0.9889524,-0.2124392,-0.1974848,-136.060086,73.82387080000001,67.8499022,33.10742216419055,1.0299870973408165,21.051352829839683,1.0306102606676493,-97.2331106,15.761984000000002,233.8605346
5476.025,-6.147774599999999,30.2719962,12.194638,-0.8745704,-0.3345097999999999,0.4403178,-39.24296819999999,58.6801164,-166.360196,-9.443006399999998,16.5288734,9.0414782,-0.992653,-0.1935376,-0.2030656,-137.4748198,73.712564,66.57115160000001,33.20990940090417,1.0347221636019206,21.074210632541934,1.031529165329861,-98.2318516,15.0324476,232.93134760000004
5496.011,-6.123266599999999,29.9036242,12.3666094,-0.8807058,-0.3282254,0.43502,-39.6560998,59.292846,-166.7061982,-11.9474616,16.113289599999998,8.379728,-0.9909974,-0.1759894,-0.210175,-138.8900482,73.5939224,65.34498579999999,32.9340881489327,1.035672254991317,21.739360196908432,1.0282128409741438,-99.2339484,14.3010764,232.051184
5515.996,-6.328998799999999,29.3344862,12.1346118,-0.8824354,-0.3250318,0.4251533999999999,-40.081633,59.8915186,-167.0570222,-15.209879,14.9844458,7.270897000000001,-0.9786076,-0.1725532,-0.2158271999999999,-140.2415772,73.46754000000001,64.2523322,32.37000324320483,1.0320335845872266,22.55526497987527,1.0168720774354263,-100.1599442,13.576021399999998,231.3093544
5535.981,-6.884687399999999,28.2583138,11.803275199999998,-0.8763197999999999,-0.3255688,0.4135066,-40.5211998,60.464642600000005,-167.4080292,-16.797737199999997,13.8956382,6.5403400000000005,-0.963699,-0.18045,-0.2290541999999999,-141.5134552,73.332849,63.27454600000001,31.388668733508336,1.0222128661140202,22.76024567840081,1.0068484452183657,-100.9922554,12.868206400000002,230.68257520000003
5555.967,-7.683649399999998,26.562701,11.3282066,-0.8737132000000001,-0.3290104,0.4070048,-40.9666282,60.999705600000006,-167.7449158,-15.957599399999998,12.4555606,5.8857488,-0.9507566,-0.1832688,-0.2365172,-142.6526916,73.20267319999999,62.4167198,29.88216553882608,1.018467233830053,21.08146122563268,0.9967276214657844,-101.6860634,12.202967600000004,230.1616356
5575.952,-8.812709799999999,24.4927154,10.8169644,-0.8666464000000001,-0.330685,0.3980144,-41.4160338,61.4912278,-168.0579926,-14.2890582,10.782148,5.1028474,-0.9437588,-0.1847728,-0.2366702,-143.6270538,73.08513780000001,61.6950296,28.188005969122408,1.009378033476715,18.61373018297456,0.9903708617307558,-102.21102,11.593910000000005,229.75302220000003
5595.938,-10.3860276,22.393619,10.1391638,-0.8610925999999999,-0.3298992,0.3946603999999999,-41.8742094,61.9362244,-168.339627,-12.691760399999998,8.648036,4.132712000000001,-0.9431758,-0.1815038,-0.2302652,-144.4144958,72.9918134,61.1342164,26.68607096948431,1.0030307967672576,15.90435843356305,0.9876974645361404,-102.5402864,11.055589,229.4738434
5615.924,-11.742971399999998,20.5113424,9.2472018,-0.8612784,-0.3293553999999999,0.3914206,-42.34664299999999,62.337101800000006,-168.5928862,-11.9436826,6.008376,2.9369992,-0.9487588,-0.1757916,-0.2279926,-145.016635,72.9306196,60.7515954,25.3795840289233,1.0017412579703802,13.688612073826892,0.9914769653717428,-102.669992,10.5935178,229.3444816
5635.909,-12.180915999999998,19.0052692,8.2237062,-0.865564,-0.3305566,0.3909838,-42.825183,62.6978828,-168.84297780000003,-11.745706799999995,3.4963938,1.9947534,-0.9546912,-0.169796,-0.2253488,-145.4685058,72.9034056,60.522313,24.02507680794055,1.005652542263977,12.416337582518292,0.9955139630536984,-102.6433228,10.2055228,229.3652908
5655.894,-11.7095746,17.450378999999998,7.081934599999999,-0.8716988000000001,-0.3313805999999999,0.3845157999999999,-43.2957984,63.0197136,-169.093753,-11.9153258,1.0454712000000002,1.1021762,-0.9563024,-0.1719118,-0.2291534,-145.7812806,72.9040236,60.44207,22.176195846792197,1.0087240952943677,12.011777192656442,0.9982881487609476,-102.4854822,9.88431,229.535823
5675.893,-11.7755666,15.555465600000002,5.9220008,-0.882547,-0.334961,0.3819712,-43.7580772,63.2969514,-169.32568039999998,-11.539672,-0.9319791999999998,0.2981624,-0.958254,-0.1789358,-0.2394712,-145.9681032,72.9214064,60.48572300000001,20.38888354616357,1.0183270969386211,11.581084401453536,1.0038003808861002,-102.210026,9.624454999999998,229.8114034
5695.866,-11.781504199999995,13.225349400000002,5.0036586,-0.8956417999999999,-0.3435534,0.3708808,-44.20162739999999,63.5291314,-169.5203978,-10.802349,-2.5792074,-0.6789428,-0.9591848,-0.185186,-0.250554,-146.0283968,72.9479644,60.6465994,18.405170668919425,1.028472527765054,11.126725396795212,1.0085170509530517,-101.8267694,9.418832999999998,230.16699720000005
5715.851,-11.651828599999998,10.5333064,4.2322618,-0.9047482,-0.3477738,0.3642809999999999,-44.5996582,63.7124932,-169.6647734,-9.882933,-3.7894566,-1.1869603999999998,-0.9612224,-0.185266,-0.2580122,-146.0061862,72.98553,60.875331800000005,16.267381270007725,1.0354789077188775,10.650878883779532,1.0123449453455082,-101.406528,9.2730368,230.54010520000003
5735.836,-11.370506,7.416757599999999,3.4396744,-0.9114698,-0.3489548,0.3622264,-44.9287866,63.8404298,-169.7195616,-9.4368364,-4.9667812,-1.8027026,-0.960454,-0.1838334,-0.2613071999999999,-145.9042606,73.03402700000001,61.1787552,14.004572823589054,1.0410353565619377,10.815384107514866,1.012199613635275,-100.975474,9.1935972,230.89831680000003
5755.822,-10.682597599999998,4.2649578,2.5731568,-0.9129708,-0.349817,0.3612172,-45.1792612,63.9106134,-169.683975,-9.3315686,-6.2548182,-3.1347652000000004,-0.9595508,-0.1820428,-0.2621496,-145.6844852,73.0879242,61.6037668,11.78681010437908,1.0422885784260902,11.663090332784371,1.011236733704151,-100.505224,9.1773108,231.2877418
5775.807,-9.371636399999996,1.0603722,1.6388345999999998,-0.9094662,-0.351844,0.360288,-45.33917699999999,63.9204034,-169.5662168,-8.7859364,-7.2709598,-3.52653,-0.9578442,-0.1830348,-0.2566226,-145.38698140000002,73.1548874,62.0981944,9.57276014859324,1.0395818448888188,11.93716669394212,1.0083761244275071,-100.0478044,9.234484,231.6644112
5795.793,-7.749007999999999,-2.0853928,0.5840304,-0.9057102,-0.3497266,0.365375,-45.3989816,63.8690186,-169.374713,-7.890764799999999,-8.521055200000001,-4.014689,-0.9558682,-0.1825224,-0.2511223999999999,-144.9925538,73.2375534,62.6750056,8.045935596466082,1.037361340978446,12.287810163616912,1.005017861560062,-99.5935722,9.3685348,232.0497186
5815.778,-5.615011999999998,-5.433447200000001,-0.38743,-0.902275,-0.3501942,0.3686906,-45.345591,63.7551994,-169.103195,-6.640550199999998,-9.2081712,-4.22263,-0.9509616,-0.1802244,-0.24931,-144.537317,73.3278458,63.28962799999999,7.823094671562643,1.035697307067562,12.112717611012378,0.9994820034047236,-99.191726,9.5726464,232.392823
5835.764,-3.197658399999999,-8.833893,-1.3985936,-0.902105,-0.3489418000000001,0.3645872,-45.181015,63.581971,-168.761148,-5.326887599999999,-9.7008602,-4.4765692,-0.9463322,-0.1783734,-0.2516806,-144.02850640000003,73.4197358,63.9334924,9.498355059509016,1.033671919525765,11.938261679380563,0.9953415629826576,-98.8474914,9.8377648,232.6946404
5855.749,-1.4420813999999986,-12.6310664,-2.3496448,-0.9060902,-0.3479924,0.3659646,-44.9056068,63.3438614,-168.34978640000003,-4.0821792,-9.6779992,-4.019486,-0.9477364,-0.1814909999999999,-0.2511098,-143.51291179999998,73.5131714,64.5580276,12.928428669084342,1.037317815062944,11.24651604899532,0.9970954811962592,-98.607305,10.16931,232.907814
5875.735,0.8177606000000013,-16.4445236,-3.0404976,-0.9074614,-0.3495542,0.3643653999999999,-44.5117324,63.04374299999999,-167.871811,-3.2541912,-10.1042008,-4.4023968,-0.9542504,-0.1827068,-0.2452128,-142.9319274,73.60928659999999,65.2329748,16.743228914563495,1.0384779612224613,11.491985544610136,1.0020503569932202,-98.420195,10.565543599999998,233.1047858
5895.72,2.884648600000001,-19.8595568,-3.7522336,-0.9076666,-0.3477406,0.3696446,-44.011881800000005,62.6853438,-167.33815320000002,-2.3066155999999998,-10.4975812,-4.5854872,-0.962758,-0.1809212,-0.2356214,-142.2939118,73.712349,65.9470962,20.41574027134155,1.0399131271183568,11.685306133692889,1.0075479598070751,-98.28203,11.0270052,233.28524940000003
5915.706,5.1805416000000015,-22.6979838,-4.4457896,-0.9048962,-0.3450062,0.3755491999999999,-43.4212774,62.2762114,-166.7712282,-1.721632599999999,-11.164812800000002,-4.8261652,-0.9740648,-0.1802387999999999,-0.2235376,-141.5860504,73.82688900000001,66.72092119999999,23.702352731783,1.0387028508835046,12.284499754003727,1.0155084038245277,-98.164773,11.5506776,233.4921494
5935.691,7.271724200000003,-24.7557386,-5.2171708,-0.8999824000000001,-0.3412585999999999,0.3798232,-42.7715062,61.8269132,-166.2014772,-1.1801951999999991,-12.1686402,-5.0980814,-0.9824456,-0.1832562,-0.2116056,-140.7858796,73.9550568,67.57828959999999,26.32381882684897,1.0347421976714588,13.2460975003276,1.0215474153210709,-98.0143734,12.128143599999998,233.7797668
5955.677,9.230405,-25.942541,-5.9155868,-0.8936218,-0.3400303999999999,0.3855946,-42.0911932,61.3490994,-165.64141560000002,-0.2199853999999993,-13.1520038,-5.1180434,-0.9847654,-0.1814872,-0.2061609999999999,-139.9133394,74.0966782,68.49091179999999,28.16398368819724,1.030952855327808,14.114459457439777,1.022351629686186,-97.8221462,12.7475788,234.13232740000004
5975.662,11.162577200000005,-26.7607616,-6.581414,-0.8918548000000002,-0.335508,0.3908214,-41.3895636,60.8510022,-165.0986666,0.9586300000000008,-13.377405,-4.978985,-0.9769866,-0.1787978,-0.2087188,-139.01742559999997,74.2372376,69.4040878,29.73308765327595,1.0299087187925928,14.306090578531578,1.0149064032401411,-97.627862,13.3862354,234.5027544
5995.648,12.769072000000005,-27.968294200000003,-7.0212846,-0.889748,-0.3316632,0.3904434,-40.6652984,60.33126119999999,-164.5627504,1.617938000000001,-13.0805918,-4.6751144,-0.966127,-0.1790807999999999,-0.2157198,-138.1432678,74.3680436,70.2817458,31.536853324850515,1.0266927633629257,13.984859665479611,1.0059852609107551,-97.4779694,14.036782399999998,234.8444962
6015.633,13.724748600000002,-29.4490158,-7.293852800000001,-0.8868532,-0.3311174,0.383958,-39.9301078,59.7888472,-164.02986460000002,2.006556800000001,-12.886152,-4.6448076,-0.9577136,-0.1837006,-0.2201018,-137.266623,74.486728,71.1539276,33.29885199807824,1.0215532666958684,13.84389472654816,0.9997029821044648,-97.3365152,14.697880799999997,235.18379220000003
6035.619,14.116657,-31.074579,-7.3106484,-0.884338,-0.3315392,0.3886298,-39.179148,59.2206206,-163.4833924,2.0587034000000006,-12.1947266,-4.5291432,-0.9535778,-0.1850644,-0.2218125999999999,-136.4250734,74.5900558,71.9886658,34.904942986793614,1.021276192236302,13.170525982815771,0.9963735656464195,-97.2459254,15.369435200000002,235.47205820000005
6055.604,14.935870400000002,-32.713799,-7.215206599999999,-0.8802688,-0.3288814,0.3914866,-38.4016234,58.628799400000005,-162.9207154,1.7352498000000007,-11.258789,-4.347356400000001,-0.951789,-0.1844244,-0.2172648,-135.6374634,74.67968900000001,72.77380980000001,36.67876873476918,1.0179871774727616,12.193068903419762,0.993538450768464,-97.23584,16.050889599999998,235.6945252
6075.59,15.335378600000002,-34.200660000000006,-7.1793728,-0.8712721999999999,-0.3261196,0.3975778,-37.6105034,58.012191,-162.347522,0.9799120000000008,-10.2682584,-4.1854684,-0.950509,-0.1836908,-0.2128178,-134.918042,74.7559662,73.50366819999999,38.16284023814682,1.0117002258820742,11.131734088825205,0.9912119274315052,-97.3075386,16.743775199999998,235.8511902
6095.575,15.421571200000002,-35.304742399999995,-7.1650674,-0.8638617999999999,-0.3253654,0.403497,-36.8242898,57.3762306,-161.7772094,0.7859052000000007,-9.2415234,-4.0027186,-0.9495144,-0.1858832,-0.2094618,-134.25799560000002,74.8181778,74.1755722,39.18657786862192,1.0074371851512132,10.101740341491686,0.9899517187766482,-97.4337058,17.441947199999998,235.95278160000004
6115.561,15.765378800000002,-36.2116554,-7.354553,-0.8601558,-0.3219733999999999,0.4184344,-36.0401406,56.7199172,-161.21505740000003,1.3472498000000008,-7.737029,-3.4074383999999998,-0.9491102,-0.1845464,-0.2087548,-133.6989714,74.86636200000001,74.7313278,40.17363072147758,1.009268159452462,8.560802311713289,0.9891643503584427,-97.6588308,18.1464448,235.94638520000004
6135.546,16.1506214,-37.353057,-7.5831282,-0.8573402,-0.3225938,0.4317242,-35.259752,56.038864,-160.6622406,1.8779902000000008,-6.3428478,-2.9165822,-0.9457636,-0.1836982,-0.212781,-133.238519,74.8987228,75.1745774,41.39561899705115,1.0126622157462577,7.2294548296962,0.9866557503654454,-97.978767,18.8598588,235.836818
6155.532,16.3082804,-38.840966,-7.7562298,-0.8529386000000001,-0.3235565999999999,0.4402772,-34.485094600000004,55.3291938,-160.114093,1.8727868000000003,-4.443699199999999,-2.6765248,-0.9386746,-0.189386,-0.2184721999999999,-132.8958982,74.90165999999999,75.4959108,42.833862190194665,1.0129349147962865,5.515213321654016,0.9821950742362742,-98.4108036,19.5724662,235.6100038
6175.518,15.846306400000003,-40.5609802,-7.904773200000001,-0.8507968,-0.3275427999999999,0.4484278,-33.727794,54.5875282,-159.568399,2.380707000000001,-2.9184168,-2.5225802,-0.9411766,-0.1988332,-0.2205733999999999,-132.6251524,74.88132759999999,75.731473,44.25815157291266,1.0159857147297495,4.533026947173741,0.9869147169828608,-98.8973584,20.2937994,235.299872
6195.503,15.470876600000002,-42.0704582,-8.0302012,-0.8428623999999999,-0.3338765999999999,0.4672494,-32.985965,53.8113236,-159.0262848,2.9659264000000007,-1.7447735999999998,-2.7567722,-0.94759,-0.2063884,-0.2155092,-132.378137,74.8413786,75.928998,45.53850686224634,1.0199081385897848,4.409166280394374,0.9934622262769732,-99.392172,21.030055,234.9552828
6215.488,15.1185716,-43.3893082,-8.0259648,-0.8321246,-0.3396772,0.4894184,-32.258021,53.0035516,-158.48709100000002,3.309505200000001,-0.9487298,-3.4356664,-0.9554434,-0.2097863999999999,-0.2050542,-132.1157652,74.7844648,76.1339204,46.643535289145404,1.0233974400903882,4.863817072456986,0.9994646813000247,-99.8577442,21.7809132,234.6210114
6235.474,15.1032774,-44.4588746,-8.174683400000001,-0.818376,-0.3378831999999999,0.5112918000000001,-31.5393748,52.1680308,-157.95590499999997,3.8411654,-0.9254476,-4.070084,-0.9651754,-0.2113614,-0.1907329999999999,-131.79239180000002,74.72393939999999,76.3895828,47.66052840254829,1.0224106997510736,5.672441155054755,1.006288363971342,-100.253017,22.5559086,234.3454878
6255.459,15.208857600000002,-45.0180328,-8.6164322,-0.8038764,-0.3371757999999999,0.5398135999999999,-30.839036,51.3074884,-157.4482176,4.5916154,-1.7527608,-4.6554638,-0.976688,-0.2086879999999999,-0.1755616,-131.3655546,74.67407080000001,76.73596339999999,48.29260326940504,1.0253309267390505,6.769671010960891,1.014047339172368,-100.5265186,23.3665824,234.184181
6275.445,16.016209000000003,-45.4469428,-9.1542624,-0.7902102,-0.3336426,0.5732632,-30.1426836,50.4226022,-156.9658324,4.522897400000001,-2.6113426,-5.2714852,-0.9785162,-0.201312,-0.1648904,-130.8635008,74.6332612,77.16181019999999,49.0483850976381,1.031688054206813,7.420530121178713,1.0125262065836125,-100.7208172,24.210659,234.1276426
6295.431,16.8569324,-46.3832496,-9.928926,-0.7810194,-0.326928,0.5953524,-29.4513562,49.5091234,-156.50975939999998,3.9509370000000006,-3.872622,-5.6804704,-0.979531,-0.1963304,-0.1607299999999999,-130.29158920000003,74.60583340000001,77.6725874,50.34029782299213,1.0350447819037203,7.929366197756865,1.0118600391482806,-100.840233,25.09671,234.1823468
6315.416,17.908894800000002,-47.6603232,-10.957221999999998,-0.7712437999999999,-0.3229444,0.6158662,-28.7651012,48.5590546,-156.0844146,3.3914576000000003,-5.370526,-5.726569400000001,-0.9785038,-0.1974716,-0.1618742,-129.6535766,74.5948548,78.2641464,52.07970463091365,1.0384610059276371,8.552083445704335,1.011270476206361,-100.8884754,26.0358002,234.348561
6335.401,18.855312000000005,-49.2819356,-11.9051336,-0.7618322,-0.3233802,0.636515,-28.084235,47.5668616,-155.6858306,2.987097200000001,-6.150716,-5.8591562,-0.972794,-0.2032572,-0.1641252,-128.97769,74.5858628,78.90364679999999,54.09218218128883,1.044085437085433,9.004652595791928,1.007262992997797,-100.893455,27.0190012,234.5894774
6355.387,19.5913208,-51.51476340000001,-12.527325,-0.7530074,-0.3230114,0.6542252000000001,-27.4016784,46.5267288,-155.2983336,3.535589800000001,-6.8853976,-6.1117556,-0.9689344,-0.2112618,-0.1673602,-128.24117280000002,74.5747422,79.59483780000001,56.52012535815997,1.0485070916783348,9.862182915464569,1.0057210628134623,-100.8394944,28.0480134,234.89317140000003
6375.373,19.8940708,-54.0582128,-13.0684708,-0.7440628,-0.3230805999999999,0.6686232000000001,-26.7243236,45.4353852,-154.91820660000002,4.849045200000001,-8.1059736,-6.4845122,-0.973856,-0.2190649999999999,-0.1648352,-127.38669280000002,74.5682374,80.38078139999999,59.06648248521279,1.051221911880855,11.457266071253162,1.011709259678906,-100.6623692,29.1328522,235.298988
6395.358,20.3295822,-56.5082098,-13.5365252,-0.7334226,-0.3232375999999999,0.6900312,-26.0479336,44.2925292,-154.544702,5.7753838,-9.070059,-7.0277962,-0.975734,-0.2206562,-0.1591688,-126.432019,74.562726,81.25129079999999,61.56059780182132,1.0576078258116095,12.845658711390314,1.0129564177435668,-100.3840854,30.2701968,235.7959928
6415.344,20.737229600000003,-59.0190336,-13.8163542,-0.7212898,-0.3220463999999999,0.7037748,-25.3718124,43.10147619999999,-154.17489600000002,6.234730000000001,-10.0183414,-8.0702178,-0.9774748,-0.2197484,-0.1511668,-125.3665602,74.550287,82.227046,64.06380149461084,1.0579564397705796,14.29571397025314,1.013211599499256,-99.9947478,31.4488108,236.401942
6435.329,20.016412000000003,-61.4850966,-14.2248708,-0.709198,-0.319586,0.7185752,-24.720537,41.8623352,-153.8125852,5.514298,-11.1752404,-9.0007526,-0.9795,-0.2202256,-0.148803,-124.2182388,74.5316468,83.3043242,66.20740745975309,1.0589841040615482,15.372281151377727,1.014919650861269,-99.4977018,32.6693116,237.1169094
6455.315,19.010916,-63.9462904,-14.870830000000002,-0.6964812,-0.3210358,0.732822,-24.107086,40.572878200000005,-153.4658812,4.397465200000001,-12.1701962,-9.760298,-0.9786743999999998,-0.2239642,-0.1447442,-123.0076706,74.50520019999999,84.46959059999999,68.34972251567001,1.0607441399880937,16.208479039703555,1.0143541923463617,-98.9005846,33.932322,237.9354718
6475.3,18.124036600000004,-66.49704340000001,-15.602231800000002,-0.682304,-0.3196397999999999,0.7474456,-23.527923,39.2309568,-153.13472280000002,3.7870766,-12.661052799999998,-10.1672178,-0.9731458,-0.2315528,-0.1455406,-121.773291,74.46669299999999,85.6727354,70.66659126320269,1.061312053601296,16.673827544127118,1.0108469288145658,-98.245368,35.2357362,238.8074582
6495.285,16.955296800000003,-68.97559340000001,-16.2909608,-0.6666372,-0.320444,0.7610444000000001,-22.989631,37.8384344,-152.81952500000003,4.021485200000001,-13.050225799999998,-10.5831254,-0.9722624,-0.2389808,-0.1441904,-120.5019746,74.41579879999999,86.90957940000001,72.8732459702829,1.0612624992579358,17.276668656802148,1.0115319414999016,-97.5123436,36.5773644,239.7291044
6515.271,15.208353000000002,-71.4071684,-16.786421400000002,-0.6504448,-0.3209229999999999,0.7768526,-22.4996114,36.3973312,-152.514749,4.314936800000001,-13.1592776,-10.935906,-0.9695984,-0.2476858,-0.1458269999999999,-119.2213244,74.3480514,88.1506912,74.91369463120175,1.0628122938237026,17.645943063001535,1.0113035284884553,-96.721713,37.9507202,240.6654402
6535.256,13.932901,-73.8827314,-17.1835104,-0.6365352000000001,-0.3230773999999999,0.7894464,-22.047563,34.9101188,-152.217694,4.903520000000001,-13.0740442,-10.9409946,-0.968793,-0.2497816,-0.1405094,-117.9459474,74.2729476,89.3745284,77.12364591399485,1.0643221719492455,17.739236256704594,1.010293826585078,-95.8983844,39.3628288,241.5922224
6555.242,12.814427600000002,-76.40042559999999,-17.5952132,-0.6206898,-0.319116,0.8093248,-21.6247214,33.374258399999995,-151.9248686,4.978187400000001,-12.7050276,-10.708128,-0.9709092,-0.2449269999999999,-0.1359628,-116.7201172,74.19615619999999,90.546408,79.44070816735102,1.0686896093698488,17.345434020821287,1.0105146178841156,-95.0953958,40.8218978,242.4712766
6575.228,11.5631398,-79.04206079999999,-18.1026576,-0.6031972,-0.3191346,0.8280429999999999,-21.23683,31.786424,-151.6386016,3.7218544000000007,-12.3193258,-10.7136522,-0.974807,-0.2386544,-0.1268846,-115.554944,74.1162262,91.6817794,81.90885049692784,1.0730093032467145,16.745158458608564,1.0115850491211895,-94.318114,42.3298022,243.320381
6595.213,10.8954434,-81.849356,-18.692501600000003,-0.5824729999999999,-0.3188526,0.8430022000000001,-20.8723278,30.1432638,-151.35881339999997,0.9593102000000008,-11.7922336,-10.8100086,-0.9755762,-0.2429193999999999,-0.1226572,-114.4869004,74.0239578,92.7738996,84.6607192301326,1.07312370464015,16.02602056871471,1.0128196017132762,-93.6145726,43.88069399999999,244.132713
6615.199,10.7027182,-84.44635,-19.2937296,-0.5596344,-0.3192748,0.8587098000000001,-20.5230034,28.4478108,-151.0874938,-1.738138799999999,-10.9008622,-10.7993808,-0.9740972,-0.2504794,-0.119511,-113.542482,73.9169402,93.793794,87.28105296723353,1.0735499896113083,15.442685933957955,1.0128613745193364,-93.0194786,45.4691294,244.8812878
6635.184,10.0476526,-86.90147540000001,-19.6542424,-0.5306354,-0.3169246,0.8750365999999999,-20.1943992,26.7021974,-150.81957699999998,-3.400586599999999,-9.79385,-10.8561782,-0.9722394,-0.2589095999999999,-0.1152304,-112.70757,73.7932372,94.7342756,89.66108963081506,1.0713095636452985,15.01133212465685,1.0127001910578868,-92.5131708,47.0910398,245.55385260000003
6655.17,8.940723400000001,-89.20863940000001,-19.8089772,-0.4995842,-0.3161868,0.8867062000000001,-19.8962664,24.9111986,-150.5526062,-4.749445799999999,-8.70852,-11.115751800000002,-0.9701694,-0.271657,-0.110566,-111.9636094,73.6484526,95.6076856,91.81782755121505,1.0657421594843286,14.898170829895223,1.0135339316970893,-92.067343,48.737254,246.1602918
6675.155,8.303310200000002,-91.3203154,-19.5583516,-0.4691385999999999,-0.3142316,0.9015426,-19.6153112,23.0813268,-150.2786682,-5.4849396,-7.463165600000001,-11.6643026,-0.9631992,-0.2836586,-0.1115406,-111.3120498,73.4754454,96.4005582,93.75966127467676,1.063772336575491,14.894272668815969,1.01027531182493,-91.6967386,50.3941186,246.6792264
6695.141,7.3155952000000015,-93.7220656,-18.7909376,-0.4428248,-0.3096588,0.9166712,-19.3530508,21.212885,-149.9846252,-4.594094999999999,-6.055837599999999,-12.0227168,-0.9589498,-0.2855354,-0.1125292,-110.7424636,73.28320140000001,97.0904416,95.86679742928756,1.064081042412616,14.224085107999072,1.0068654351132726,-91.3894128,52.0703164,247.0750668
6715.126,6.146104000000002,-96.2830138,-18.1718694,-0.4144546,-0.3098974,0.921371,-19.118503800000003,19.3027144,-149.67307440000002,-3.760365199999999,-3.8530317999999992,-11.5825528,-0.9605052,-0.2811814,-0.1038124,-110.306436,73.08829180000001,97.6231716,98.17540515974692,1.0567561372563303,12.772694698221285,1.006185983467649,-91.1879322,53.7855774,247.296246
6735.112,5.641960000000001,-98.7278412,-17.922840200000003,-0.3828974,-0.3043024,0.9373342,-18.8961746,17.3476954,-149.3503662,-3.031507799999999,-2.1860592,-11.402227,-0.962939,-0.2783833999999999,-0.0987184,-109.9686948,72.8888412,98.0380734,100.49998279347491,1.0572633409241805,11.999153092068392,1.0072210073341004,-91.0725202,55.5411458,247.3884396
6755.097,6.039309000000001,-101.2276412,-17.8283814,-0.3498178,-0.3026799999999999,0.9440534,-18.673539,15.346487000000002,-149.020398,-2.432700199999999,-1.2063028,-11.3661406,-0.9654682,-0.277307,-0.091715,-109.680467,72.6867478,98.3883772,102.96290487091592,1.051296579300247,11.68598942526204,1.0086821395688732,-91.006928,57.3402608,247.4087752
6775.083,6.522855000000002,-103.4868164,-18.063913000000003,-0.3103988,-0.2997762,0.9490626,-18.451597600000003,13.298921000000002,-148.6915314,-1.2577127999999993,-0.3995872,-11.12689,-0.9677916,-0.2776958,-0.0860802,-109.4233534,72.48634179999999,98.6812346,105.25385389062912,1.0425607914393482,11.20487360436465,1.010517362146856,-90.9717558,59.187420800000005,247.372766
