Timestamp (ms),Wrist Gyroscope X (deg/s),Wrist Gyroscope Y (deg/s),Wrist Gyroscope Z (deg/s),Wrist Accelerometer X (g),Wrist Accelerometer Y (g),Wrist Accelerometer Z (g),Wrist Roll (deg),Wrist Pitch (deg),Wrist Yaw (deg),Arm Gyroscope X (deg/s),Arm Gyroscope Y (deg/s),Arm Gyroscope Z (deg/s),Arm Accelerometer X (g),Arm Accelerometer Y (g),Arm Accelerometer Z (g),Arm Roll (deg),Arm Pitch (deg),Arm Yaw (deg),Wrist Gyroscope Magnitude (deg/s),Wrist Accelerometer Magnitude (g),Arm Gyroscope Magnitude (deg/s),Arm Accelerometer Magnitude (g),Difference Roll (deg),Difference Pitch (deg),Difference Yaw (deg)
0.0,-0.915470540523529,-1.7472907304763794,0.47041401267051697,-0.9737135171890259,-0.22582776844501495,-0.017326686531305313,-96.05658721923828,76.74494171142578,141.9592742919922,-1.276345133781433,4.222705841064453,-0.9731918573379517,-0.9926323294639587,-0.049809377640485764,0.04859781637787819,-40.33753967285156,85.89167022705078,176.35989379882812,2.027905459012303,0.9997081617270276,4.517455468720891,0.995068672682783,55.71904754638672,9.146728515625,34.40061950683594
22.461,0.04290926456451416,-3.115933418273926,-0.4191257953643799,-0.9885225892066956,-0.2187938541173935,-0.013056132942438126,-95.76771545410156,76.75123596191406,142.25389099121094,0.009527459740638733,6.551279067993164,-2.4902567863464355,-0.9840191006660461,-0.05776222422719002,0.0544472299516201,-42.064327239990234,85.95764923095703,174.6494598388672,3.1442882667531493,1.0125305538989247,7.008618056447288,0.9872155620089723,53.70338821411133,9.206413269042969,32.39556884765625
42.664,-1.2725517749786377,-5.306730270385742,-0.7757457494735718,-0.973272442817688,-0.20054684579372406,-0.04424650967121124,-95.40263366699219,76.76072692871094,142.6583251953125,-1.5511568784713745,9.738513946533203,-3.908165454864502,-0.981460452079773,-0.08970806002616882,0.025922734290361404,-45.085880279541016,86.04471588134766,171.68014526367188,5.512037341170316,0.9947039956309646,10.607473722383055,0.9858925616837667,50.31675338745117,9.283988952636719,29.021820068359375
54.441,-2.9993953704833984,-5.191699504852295,-1.6656370162963867,-0.9812804460525513,-0.24276606738567352,-0.05055347830057144,-95.08344268798828,76.72901916503906,143.0511474609375,0.5599311590194702,11.292874336242676,-3.2952892780303955,-1.0033150911331177,-0.04223431646823883,0.005854993127286434,-48.2160530090332,86.1803207397461,168.56637573242188,6.222898280320637,1.0121276260666368,11.777158617549116,1.0042206881594882,46.86738967895508,9.451301574707031,25.515228271484375
79.911,0.1745714694261551,-6.109617710113525,-1.223110556602478,-0.9738614559173584,-0.23576591908931732,-0.015445961616933346,-94.54804992675781,76.7116928100586,143.5966796875,0.5530722737312317,8.938941955566406,-2.4726781845092773,-1.0009868144989014,-0.025597715750336647,0.03413292393088341,-50.553985595703125,86.28079223632812,166.23968505859375,6.2332899174788,1.0021129086364367,9.291109171089515,1.0018956544213398,43.99406433105469,9.569099426269531,22.64300537109375
104.757,-0.1605396866798401,-5.752598762512207,-1.0474525690078735,-0.9677409529685974,-0.22583553194999695,-0.005484515801072121,-94.0341796875,76.70155334472656,144.12620544433594,-0.12796716392040253,8.965888023376465,-3.107668876647949,-0.9987456798553467,-0.06116143614053726,0.0546552836894989,-53.15473556518555,86.33872985839844,163.66476440429688,5.849386497554887,0.9937576764268437,9.490054240606515,1.0021082049038772,40.87944412231445,9.637176513671875,19.538558959960938
112.307,-0.582652747631073,-4.245950222015381,-1.0256038904190063,-0.9658762216567993,-0.24119989573955536,-0.007602074183523655,-93.66353607177734,76.68009948730469,144.51760864257812,-0.7993316650390625,7.5878071784973145,-1.8898112773895264,-1.011884331703186,-0.051556214690208435,0.06081002578139305,-55.17621612548828,86.39527130126953,161.68296813964844,4.406749465558157,0.9955661991041473,7.860352126523221,1.0150200999266565,38.48731994628906,9.715171813964844,17.165359497070312
135.246,0.3806353807449341,-3.1295113563537598,0.05585314333438873,-0.963160514831543,-0.2255835235118866,-4.910083953291178e-05,-93.36030578613281,76.6872329711914,144.8194122314453,0.06783318519592285,4.627032279968262,-0.15893743932247162,-1.0126286745071411,-0.03196225315332413,0.06813265383243561,-56.03153610229492,86.44955444335938,160.84457397460938,3.1530690122866516,0.9892250026265477,4.630258110570133,1.0154213295863828,37.32876968383789,9.762321472167969,16.025161743164062
152.322,-2.997249126434326,-1.8156845569610596,0.12889276444911957,-0.9663202166557312,-0.22222207486629486,-0.0005039339303039014,-93.2389144897461,76.69617462158203,145.00401306152344,-1.019107699394226,1.8023158311843872,1.1988816261291504,-1.006903886795044,-0.023976927623152733,0.06159241497516632,-55.97752380371094,86.49925994873047,160.9414825439453,3.506683059676986,0.9915430730053367,2.392538403406001,1.009070837891813,37.261390686035156,9.803085327148438,15.937469482421875
182.208,-3.0502641201019287,-1.3586117029190063,0.378109872341156,-0.968850314617157,-0.22961434721946716,-0.014746122993528843,-93.19322204589844,76.70523071289062,145.11386108398438,-2.7584404945373535,-0.3761926293373108,1.806951642036438,-1.0019824504852295,-0.025998659431934357,0.05388062074780464,-55.358314514160156,86.5344467163086,161.63677978515625,3.360491636241864,0.9957967306263494,3.318974102479466,1.00376684676513,37.83490753173828,9.829216003417969,16.522918701171875
192.693,-2.5473434925079346,-1.3035526275634766,0.4048030972480774,-0.975275993347168,-0.22478000819683075,-0.014807740226387978,-93.14348602294922,76.71817779541016,145.21771240234375,-5.4549880027771,-1.6650373935699463,1.908666968345642,-0.9990814924240112,-0.03498038649559021,0.04245779663324356,-54.5709228515625,86.55411529541016,162.55218505859375,2.8899954790953917,1.0009538373246214,6.014337305845261,1.000594883276204,38.57256317138672,9.8359375,17.33447265625
214.93200000000002,-1.5313531160354614,-1.3452720642089844,0.8903226852416992,-0.9696317315101624,-0.22264526784420013,-0.01559038832783699,-93.07464599609375,76.74121856689453,145.32054138183594,-6.561131000518799,-1.5400848388671875,1.9272937774658203,-0.9953010082244873,-0.0474180206656456,0.03121076710522175,-53.981449127197266,86.57262420654297,163.29214477539062,2.224291747183496,0.994987271402516,7.009619292196678,0.9969185912800628,39.093196868896484,9.831405639648438,17.971603393554688
238.44799999999998,-3.358922004699707,-2.197064161300659,0.7687171101570129,-0.9755507707595825,-0.2079716920852661,-0.007309996988624334,-92.95191955566406,76.77165222167969,145.51535034179688,-5.435629844665527,-0.5643248558044434,1.6415437459945679,-0.9919573664665222,-0.06198883801698685,0.030834238976240158,-53.75039291381836,86.5907211303711,163.65176391601562,4.086609102663945,0.9974993569393406,5.7060669660556185,0.9943705462347214,39.2015266418457,9.819068908691406,18.13641357421875
257.787,-4.1602678298950195,-2.1467249393463135,0.5392717123031616,-0.9704309701919556,-0.2271491140127182,-0.01945517770946026,-92.87664031982422,76.78520965576172,145.6791229248047,-4.91286563873291,0.5998764634132385,1.4257757663726807,-0.9910397529602051,-0.060900263488292694,0.03119003213942051,-53.83668899536133,86.61996459960938,163.68446350097656,4.712437836339195,0.9968507871513017,5.150624922431772,0.9933989390699115,39.03995132446289,9.834754943847656,18.005340576171875
274.61999999999995,-1.850768804550171,-2.2225100994110107,0.652309775352478,-0.9767083525657654,-0.21686583757400513,-0.013576244935393333,-92.73655700683594,76.80769348144531,145.8614959716797,-4.042843818664551,0.8028483986854553,1.7260534763336182,-1.003078818321228,-0.03364158049225807,0.035085953772068024,-53.72347640991211,86.66903686523438,163.89816284179688,2.964861607714669,1.0005869836775572,4.468602946844722,1.0042558916206685,39.01308059692383,9.861343383789062,18.036666870117188
298.45300000000003,-3.243621349334717,-2.364097833633423,0.8971304297447205,-0.9777593016624451,-0.2171427309513092,0.0017399603966623545,-92.57597351074219,76.83518981933594,146.09152221679688,-4.535656929016113,-0.017136991024017334,2.01708984375,-1.0034396648406982,-0.03893452510237694,0.03810267895460129,-53.35417938232422,86.70852661132812,164.37515258789062,4.112770481418111,1.0015823705789788,4.9639831679763615,1.00491734603602,39.22179412841797,9.873336791992188,18.28363037109375
321.096,-5.992620944976807,-3.074143886566162,0.9406203031539917,-0.9761122465133667,-0.23014192283153534,-0.005250583402812481,-92.42691802978516,76.85614776611328,146.36695861816406,-5.299613952636719,0.4839317500591278,1.996130347251892,-0.9954651594161987,-0.06423553824424744,0.03920195996761322,-53.26557922363281,86.7407455444336,164.58697509765625,6.800487701642606,1.0028898200021963,5.683716596463711,0.9983055051688078,39.161338806152344,9.884597778320312,18.220016479492188
342.331,-6.836328983306885,-3.763951301574707,-0.4230409264564514,-0.9808697700500488,-0.25093406438827515,-0.029809601604938507,-92.29110717773438,76.83869171142578,146.6490478515625,-4.851510047912598,1.0362493991851807,1.8269906044006348,-0.9934483170509338,-0.05862230062484741,0.021638376638293266,-53.44792175292969,86.78593444824219,164.5201416015625,7.815477400267037,1.012897834342783,5.286667875976014,0.9954116495829368,38.84318542480469,9.947242736816406,17.87109375
352.23900000000003,-2.0203728675842285,-5.309508323669434,-0.9902753829956055,-0.9785823822021484,-0.24049070477485657,-0.01744072325527668,-91.89966583251953,76.81652069091797,147.09327697753906,-4.081799030303955,3.485478401184082,1.1155223846435547,-0.9910491108894348,-0.05105429142713547,0.010959068313241005,-54.464595794677734,86.85694885253906,163.6083221435547,5.766578751508784,1.0078509000180562,5.482155889752853,0.9924237915558859,37.4350700378418,10.040428161621094,16.515045166015625
383.906,-3.9904212951660156,-6.467680931091309,-2.2768008708953857,-0.9847058653831482,-0.2600594460964203,0.007954027503728867,-91.38941192626953,76.75933074951172,147.6966094970703,-3.3559069633483887,4.810543537139893,0.19339868426322937,-0.987801194190979,-0.0646330788731575,0.03222708776593208,-55.94914245605469,86.91167449951172,162.21353149414062,7.933358742993193,1.0184988087265894,5.8686321847976926,0.9904378927098968,35.440269470214844,10.15234375,14.516921997070312
396.893,-2.0595810413360596,-8.542238235473633,-4.012190341949463,-0.9797142148017883,-0.2939879894256592,0.013087314553558826,-90.6613540649414,76.64817810058594,148.48330688476562,-3.988473415374756,6.557582378387451,-0.6869346499443054,-0.9850247502326965,-0.059194400906562805,0.032976917922496796,-58.117679595947266,86.97048950195312,160.15509033203125,9.659678021417234,1.0229565769931048,7.705951339567548,0.9873526283883282,32.54367446899414,10.322311401367188,11.671783447265625
419.65200000000004,8.155404090881348,-11.74483585357666,-4.4155497550964355,-0.9784919023513794,-0.24856829643249512,0.00849740207195282,-89.4958267211914,76.55164337158203,149.5114288330078,-4.517960071563721,9.084402084350586,-2.1072916984558105,-0.98005610704422,-0.07355120778083801,-0.00033394224010407925,-61.7392463684082,87.02572631835938,156.66236877441406,14.964921140879968,1.0096062632534262,10.362384027856626,0.9828122224708601,27.756580352783203,10.474082946777344,7.15093994140625
442.268,6.696102142333984,-12.558328628540039,-5.517073154449463,-0.9762338399887085,-0.20824523270130157,-0.002297243569046259,-88.34588623046875,76.45098876953125,150.55587768554688,-1.2109500169754028,10.00128173828125,-2.377366304397583,-0.9995566010475159,-0.07028168439865112,-0.0004277357365936041,-65.67305755615234,87.07262420654297,152.78701782226562,15.263928001485235,0.9982003128680806,10.351034097971842,1.0020244991103935,22.672828674316406,10.621635437011719,2.23114013671875
452.036,0.05198657512664795,-12.407271385192871,-6.895843982696533,-0.9802820086479187,-0.2560177445411682,0.012327097356319427,-87.34320831298828,76.29346466064453,151.58465576171875,1.023067593574524,7.115965366363525,-0.12009792029857635,-1.0081548690795898,-0.054409727454185486,0.02542226016521454,-68.02613830566406,87.12921142578125,150.43055725097656,14.194919868160975,1.013237316391366,7.190135875403718,1.0099420526953176,19.31707000732422,10.835746765136719,-1.1540985107421875
476.887,-0.4561856985092163,-16.23365020751953,-7.9963483810424805,-1.0016322135925293,-0.26890549063682556,0.047739427536726,-86.00313568115234,76.10079956054688,152.96731567382812,3.08544659614563,6.032258033752441,0.03396546468138695,-0.996212899684906,-0.05980288237333298,0.01597605273127556,-70.10724639892578,87.1731185913086,148.30238342285156,18.101963757632042,1.0381985875267008,6.775638075947427,0.9981341395321772,15.895889282226562,11.072319030761719,-4.6649322509765625
497.14399999999995,1.4678254127502441,-22.22305679321289,-9.683959007263184,-1.01967453956604,-0.25387054681777954,0.04190627858042717,-84.2285385131836,75.86808776855469,154.76071166992188,4.468691825866699,7.100590705871582,-0.6472134590148926,-0.9899427890777588,-0.08309084922075272,-0.0182231143116951,-73.07344055175781,87.19731903076172,145.2696533203125,24.285753575523135,1.0516380353359394,8.4146586543013,0.9935909101670037,11.155097961425781,11.329231262207031,-9.491058349609375
519.608,0.7340044975280762,-29.342920303344727,-13.039783477783203,-1.0116347074508667,-0.18963350355625153,0.0052824243903160095,-82.09530639648438,75.57513427734375,156.9459686279297,1.7838340997695923,12.04130744934082,-1.7301549911499023,-0.9776678085327148,-0.06058945134282112,-0.07539573311805725,-78.54914093017578,87.23464965820312,139.79185485839844,32.11824540161401,1.0292684542905504,12.29506345971636,0.982440808409135,3.5461654663085938,11.659515380859375,-17.15411376953125
541.96,-12.834192276000977,-34.007869720458984,-15.949556350708008,-1.0140737295150757,-0.19874024391174316,0.03923191875219345,-79.96150207519531,75.18587493896484,159.41119384765625,0.4397738575935364,15.062002182006836,-2.367222309112549,-0.9805983304977417,-0.061811983585357666,-0.04792279750108719,-84.91422271728516,87.23104858398438,133.44113159179688,39.69433261922266,1.0341094511180586,15.253230878648678,0.983712560461665,-4.952720642089844,12.045173645019531,-25.970062255859375
552.1030000000001,-24.583980560302734,-38.712894439697266,-19.402088165283203,-1.0383869409561157,-0.33009183406829834,0.06909008324146271,-77.91252136230469,74.62527465820312,162.0367889404297,-4.99476432800293,17.8187255859375,-3.893164873123169,-0.9959274530410767,-0.08073504269123077,-0.06087721139192581,-92.3433609008789,87.14048767089844,126.1152572631836,49.794591285218004,1.0917790516716672,18.910615667623155,1.0010472884465038,-14.430839538574219,12.515213012695312,-35.921531677246094
580.4730000000001,-20.8718318939209,-46.40196228027344,-20.779579162597656,-1.0233832597732544,-0.32560965418815613,0.10752281546592712,-75.40843963623047,73.97662353515625,165.06190490722656,1.4245680570602417,18.07674217224121,-4.468364238739014,-1.0018318891525269,-0.12080107629299164,-0.05540799722075462,-99.02222442626953,86.96319580078125,119.3866195678711,54.95967958642659,1.079303525024533,18.675231743700586,1.010608767185641,-23.613784790039062,12.986572265625,-45.67528533935547
602.19,-18.99444580078125,-53.252750396728516,-22.995004653930664,-1.0272276401519775,-0.2770425081253052,0.13183070719242096,-72.65367889404297,73.2387924194336,168.31541442871094,7.154923915863037,19.30821418762207,-7.3411173820495605,-0.9963675737380981,-0.18121449649333954,-0.05371439456939697,-104.81500244140625,86.64578247070312,113.43334197998047,61.036174807481004,1.0720674005674338,21.860742800140834,1.0141362196076205,-32.16132354736328,13.406990051269531,-54.88207244873047
612.311,-21.807048797607422,-62.7659912109375,-28.54258918762207,-1.0920729637145996,-0.2942698895931244,0.2350901961326599,-69.65156555175781,72.28233337402344,171.88934326171875,15.296492576599121,22.168697357177734,-4.314929962158203,-0.9817297458648682,-0.0943053662776947,-0.07385264337062836,-110.98953247070312,86.38441467285156,106.93912506103516,72.31733144610685,1.1551993448384705,27.277324799885008,0.9890101157002885,-41.33796691894531,14.102081298828125,-64.9502182006836
634.556,-28.134801864624023,-74.791015625,-35.597476959228516,-1.0344566106796265,-0.283439964056015,0.17443694174289703,-66.73516845703125,71.06867218017578,175.5377197265625,23.062965393066406,25.755714416503906,1.0402345657348633,-0.9131566882133484,-0.10800202190876007,-0.1474393904209137,-118.22469329833984,86.11661529541016,99.22660064697266,87.47824563880697,1.0866770169868645,34.588137934529456,0.9312668510222197,-51.489524841308594,15.047943115234375,-76.31111907958984
652.554,-31.641708374023438,-79.68161010742188,-39.43977355957031,-1.0785772800445557,-0.37569206953048706,0.17399585247039795,-64.22395324707031,69.67311096191406,178.86924743652344,30.73102569580078,28.988784790039062,-4.769766330718994,-0.9796812534332275,-0.16326427459716797,-0.10935989767313004,-123.63516998291016,85.64584350585938,93.17417907714844,94.37082407485971,1.1553129605493537,42.51465929263492,0.9991947602481294,-59.411216735839844,15.972732543945312,-85.695068359375
674.2869999999999,-29.821666717529297,-87.58049774169922,-45.841590881347656,-1.0825512409210205,-0.4725969731807709,0.25741058588027954,-61.84644317626953,68.00528717041016,-177.95040893554688,29.68224334716797,28.250612258911133,-4.188767910003662,-0.9851243495941162,-0.20425206422805786,-0.09111963212490082,-127.86205291748047,85.20195007324219,88.3341293334961,103.25273286953733,1.2089356053994342,41.19075672681571,1.0101938810264248,-66.01560974121094,17.19666290283203,266.28453826904297
691.973,-30.51463508605957,-96.68998718261719,-50.95785140991211,-1.0440378189086914,-0.45872732996940613,0.3001917004585266,-59.606319427490234,66.1199951171875,-174.86846923828125,41.23445510864258,26.3404598236084,-10.740019798278809,-1.0455788373947144,-0.13207143545150757,-0.053753696382045746,-129.80035400390625,84.6657485961914,85.57355499267578,113.47598510753161,1.1792204151882122,50.0943922719221,1.0552570441104088,-70.19403457641602,18.545753479003906,260.44202423095703
714.453,-30.802152633666992,-101.3906478881836,-58.42893600463867,-1.0506199598312378,-0.5040782690048218,0.3443949222564697,-57.768310546875,64.01288604736328,-172.17442321777344,40.246726989746094,23.583162307739258,-11.544516563415527,-1.0112935304641724,-0.15249614417552948,-0.037603095173835754,-130.70692443847656,84.14984130859375,83.87673950195312,121.00734130079674,1.2151152471081617,48.05455691714685,1.0234176427606407,-72.93861389160156,20.13695526123047,256.05116271972656
739.169,-23.471595764160156,-107.2848129272461,-66.69960021972656,-1.0569781064987183,-0.5348924398422241,0.32169976830482483,-56.17094039916992,61.688201904296875,-169.85098266601562,42.13187789916992,22.45230484008789,-11.951136589050293,-1.0082728862762451,-0.01380403432995081,-0.06235569342970848,-131.72235107421875,83.69763946533203,82.0425796508789,128.49040260666038,1.2275191977094946,49.21413205282537,1.0102935202537489,-75.55141067504883,22.009437561035156,251.89356231689453
751.839,-21.819902420043945,-111.51483917236328,-74.72312927246094,-1.009551763534546,-0.5418038368225098,0.402761310338974,-54.838321685791016,59.14936065673828,-167.82676696777344,36.17518997192383,18.96387481689453,-9.916434288024902,-0.9957764148712158,-0.022045370191335678,-0.0466998815536499,-132.3828887939453,83.32784271240234,80.68936157226562,135.9971085925256,1.2144804790350776,42.03104312962433,0.9971146101114805,-77.5445671081543,24.178482055664062,248.51612854003906
774.356,-24.529325485229492,-118.72885131835938,-81.50450134277344,-0.9976487755775452,-0.5911219120025635,0.45874860882759094,-53.75813674926758,56.391212463378906,-165.98118591308594,26.435619354248047,17.007305145263672,-11.2470703125,-1.0007649660110474,-0.15246468782424927,-0.04008207842707634,-132.31939697265625,82.9175033569336,80.2569808959961,146.08631586590022,1.247067953385938,33.38543079789633,1.013105409737542,-78.56126022338867,26.526290893554688,246.23816680908203
797.6320000000001,-22.16717529296875,-121.88168334960938,-88.73261260986328,-0.9974673390388489,-0.6015822887420654,0.42488259077072144,-52.93867492675781,53.49704360961914,-164.4354705810547,35.12212371826172,16.712039947509766,-18.314611434936523,-1.0638309717178345,-0.07228488475084305,-0.03441948443651199,-131.5530242919922,82.44731140136719,80.38009643554688,152.38111739049467,1.2399062700532746,42.99163692743918,1.066839323355879,-78.61434936523438,28.950267791748047,244.81556701660156
819.548,-15.134407043457031,-127.71603393554688,-97.09986877441406,-0.9422698616981506,-0.6117242574691772,0.48884886503219604,-52.14704513549805,50.38371658325195,-163.05430603027344,37.13864517211914,15.654831886291504,-13.715278625488281,-0.9940268397331238,-0.04358493909239769,-0.055423520505428314,-131.2550811767578,82.06793212890625,79.99589538574219,161.14844124840684,1.2251743844384497,42.57301486133432,0.9965243457390918,-79.10803604125977,31.684215545654297,243.05020141601562
831.976,-7.672281742095947,-135.8098602294922,-104.38104248046875,-0.9107611775398254,-0.6498523950576782,0.45204949378967285,-51.3759651184082,47.0649299621582,-161.80697631835938,28.316925048828125,17.808856964111328,-13.666608810424805,-0.9681805372238159,-0.035496942698955536,-0.016958383843302727,-131.25332641601562,81.6822280883789,79.48731994628906,171.46015301519395,1.2067074221663798,36.135575641828474,0.9689794488958713,-79.87736129760742,34.6172981262207,241.29429626464844
854.3439999999999,-3.6298890113830566,-141.19189453125,-114.72880554199219,-0.87119460105896,-0.6021746397018433,0.542682945728302,-50.66115951538086,43.52153778076172,-160.7216339111328,21.835098266601562,22.512691497802734,-12.316937446594238,-0.9784802198410034,-0.04793872684240341,-0.07448557019233704,-132.04867553710938,81.23020935058594,78.30120849609375,181.96435364282436,1.189999625713669,33.69420933707603,0.9824814310297404,-81.38751602172852,37.70867156982422,239.02284240722656
877.63,-4.860535621643066,-142.62338256835938,-117.55763244628906,-0.832351803779602,-0.6616355776786804,0.5379494428634644,-50.13835144042969,39.91672134399414,-159.7886962890625,18.034257888793945,27.31768798828125,-14.20767879486084,-1.0029927492141724,-0.07835733145475388,-0.06331063061952591,-132.97930908203125,80.679931640625,77.03912353515625,184.89145736930803,1.1916210664395246,35.68401142476208,1.0080389686506945,-82.84095764160156,40.76321029663086,236.82781982421875
899.178,8.50712776184082,-142.9766082763672,-120.14146423339844,-0.7490811347961426,-0.6029186248779297,0.6292358636856079,-49.41577911376953,36.26247787475586,-158.9515838623047,15.4844970703125,31.25255012512207,-12.171957015991211,-0.9542628526687622,-0.09628812223672867,-0.047353751957416534,-134.22030639648438,80.10269927978516,75.45237731933594,186.94558878217742,1.1491610796056153,36.94114341006409,0.9602767165207347,-84.80452728271484,43.8402214050293,234.40396118164062
922.077,11.5230131149292,-142.7974090576172,-118.87483978271484,-0.7458190321922302,-0.6477742791175842,0.6203725934028625,-48.746726989746094,32.648468017578125,-158.20823669433594,15.602119445800781,38.7445182800293,-12.729150772094727,-1.09696364402771,-0.04303356632590294,-0.1109088733792305,-136.05364990234375,79.41432189941406,73.26502227783203,186.15882304683117,1.1664989070341447,43.66457497023507,1.1033956236742688,-87.30692291259766,46.76585388183594,231.47325897216797
931.846,20.578140258789062,-146.7647247314453,-118.42736053466797,-0.6679285764694214,-0.593786358833313,0.5554924011230469,-47.95172119140625,29.013338088989258,-157.48011779785156,17.29249382019043,41.69261169433594,-7.057283878326416,-1.0052123069763184,-0.02253815159201622,-0.09253449738025665,-138.23846435546875,78.76468658447266,70.7063980102539,189.7060463064252,1.0522749787514856,45.68489321597772,1.0097140107868432,-90.2867431640625,49.7513484954834,228.18651580810547
954.006,18.351083755493164,-144.0692901611328,-119.22937774658203,-0.5660634636878967,-0.5942628979682922,0.5936239361763,-47.294219970703125,25.377046585083008,-156.88650512695312,8.186522483825684,33.0611457824707,-3.9353604316711426,-0.91954505443573,-0.07039575278759003,-0.10161158442497253,-139.93594360351562,78.24957275390625,68.80101013183594,187.9052079117845,1.0128996072787548,34.28623007207305,0.92781656766685,-92.6417236328125,52.87252616882324,225.68751525878906
976.662,14.50882339477539,-143.40911865234375,-116.36358642578125,-0.5242242813110352,-0.6517642736434937,0.6778390407562256,-46.752540588378906,21.77526092529297,-156.31809997558594,2.092336416244507,48.33592224121094,-6.796816825866699,-0.951536238193512,-0.12641653418540955,-0.12862274050712585,-142.15966796875,77.42160034179688,66.47061920166016,185.24892851191623,1.0766027729331846,48.85627871166118,0.96847620625727,-95.4071273803711,55.646339416503906,222.7887191772461
999.0400000000001,14.607962608337402,-146.44879150390625,-110.14445495605469,-0.4940152168273926,-0.62099289894104,0.6835916042327881,-46.2022705078125,18.242591857910156,-155.66134643554688,2.964445114135742,43.17915725708008,-7.368858814239502,-1.1138004064559937,-0.14040713012218475,-0.09714321792125702,-143.72079467773438,76.68685913085938,64.7938003540039,183.82720707797185,1.0473684625621345,43.90361757862978,1.1268106817024683,-97.51852416992188,58.44426727294922,220.45514678955078
1022.6310000000001,17.0224609375,-147.21925354003906,-104.68944549560547,-0.41638606786727905,-0.6204450726509094,0.5945167541503906,-45.652835845947266,14.729889869689941,-154.9700164794922,2.4475908279418945,20.514118194580078,-2.487762451171875,-1.039564609527588,-0.10370292514562607,-0.08911282569169998,-144.4796142578125,76.36113739013672,63.958412170410156,181.44738297212325,0.9548715184024931,20.80886128974114,1.0485179873367767,-98.82677841186523,61.63124752044678,218.92842864990234
1032.513,9.12724494934082,-149.6876678466797,-101.4696273803711,-0.3743331730365753,-0.5931748747825623,0.5844147801399231,-45.30068588256836,11.205353736877441,-154.2406005859375,0.39049866795539856,8.962444305419922,-0.9323023557662964,-1.0144456624984741,-0.09779927134513855,-0.13491275906562805,-144.828369140625,76.247802734375,63.58992385864258,181.06846712350145,0.9129744748649513,9.019261877781148,1.0280399565174052,-99.52768325805664,65.04244899749756,217.83052444458008
1059.628,-1.850773811340332,-148.078857421875,-100.43577575683594,-0.30228036642074585,-0.5826420187950134,0.6801168322563171,-45.21025085449219,7.727177619934082,-153.5419921875,-4.784787178039551,-3.5669069290161133,0.3086082935333252,-1.0098074674606323,-0.11140726506710052,-0.14967288076877594,-144.76760864257812,76.34223937988281,63.75117874145508,178.93607358759766,0.9452005329597294,5.975972929844344,1.0269005167427911,-99.55735778808594,68.61506175994873,217.29317092895508
1082.714,-1.4817873239517212,-148.0172576904297,-93.82479858398438,-0.27507302165031433,-0.6509605646133423,0.6046749353408813,-45.1557731628418,4.323489665985107,-152.76011657714844,-11.424360275268555,-7.918062686920166,-1.6735831499099731,-1.0659209489822388,-0.11183354258537292,-0.11666065454483032,-144.4502410888672,76.50359344482422,64.3113021850586,175.2552341506345,0.9300788145910296,14.000450170362173,1.0781019984422713,-99.29446792602539,72.18010377883911,217.07141876220703
1092.549,11.32748794555664,-148.35415649414062,-86.40473175048828,-0.1632360816001892,-0.5784270763397217,0.6267820596694946,-44.867122650146484,1.0711042881011963,-151.8825225830078,-20.645774841308594,-11.740800857543945,2.2459592819213867,-0.9715584516525269,-0.1571885496377945,-0.18100540339946747,-144.3853759765625,76.71813201904297,64.80107116699219,172.05535563044393,0.8683775971906667,23.856629197574506,1.000698266798985,-99.51825332641602,75.64702773094177,216.68359375
1123.593,9.389713287353516,-147.0017852783203,-83.34172058105469,-0.14105316996574402,-0.5969979763031006,0.7132682800292969,-44.66928482055664,-2.165595769882202,-150.9969482421875,-19.514842987060547,-6.634943008422852,4.176901340484619,-1.0220366716384888,-0.06391975283622742,-0.1867077648639679,-144.86866760253906,76.90386962890625,64.71347045898438,169.24400722047056,0.9407732031490554,21.030883727099717,1.0409152138560678,-100.19938278198242,79.06946539878845,215.71041870117188
1133.4740000000002,10.114151954650879,-147.07986450195312,-80.285888671875,-0.10567592084407806,-0.5798760652542114,0.6060851216316223,-44.527706146240234,-5.359131336212158,-150.0752716064453,-19.21060562133789,-10.873453140258789,7.678882122039795,-1.002442479133606,-0.09626156091690063,-0.16498392820358276,-145.2984619140625,77.19425201416016,64.67051696777344,167.87080309424675,0.8454364706849171,23.371875880557063,1.0204787644273512,-100.77075576782227,82.55338335037231,214.74578857421875
1152.749,11.387314796447754,-143.43914794921875,-77.18260955810547,-0.003662796225398779,-0.5780715942382812,0.6292239427566528,-44.39141082763672,-8.416895866394043,-149.1647491455078,-34.66391372680664,-14.946512222290039,11.232383728027344,-0.9948232769966125,-0.07807093858718872,-0.20429620146751404,-146.1997833251953,77.57599639892578,64.46564483642578,163.28384892839284,0.8544606218425777,39.38466182010724,1.0185800713936135,-101.8083724975586,85.99289226531982,213.6303939819336
1180.934,16.300506591796875,-141.7508087158203,-73.8116683959961,0.049402400851249695,-0.5805076360702515,0.6131380200386047,-44.2186279296875,-11.412200927734375,-148.22998046875,-22.25868797302246,-10.045297622680664,17.951021194458008,-0.9580190181732178,-0.08527541905641556,-0.21095630526542664,-147.64224243164062,77.93396759033203,63.451560974121094,160.64607271308807,0.8457942683434309,30.308354566562816,0.9846699441985945,-103.42361450195312,89.3461685180664,211.6815414428711
1192.679,18.559627532958984,-139.23989868164062,-69.09111785888672,0.11704350262880325,-0.548007607460022,0.6457858085632324,-44.02611541748047,-14.324300765991211,-147.2685546875,-29.110843658447266,-6.223867416381836,17.45227813720703,-1.0166813135147095,-0.07436016201972961,-0.1708431988954544,-149.39166259765625,78.2413558959961,62.26171875,156.54325832186544,0.8550151050615095,34.507386981655,1.033613915131964,-105.36554718017578,92.5656566619873,209.5302734375
1215.391,18.03224754333496,-136.865966796875,-62.48735046386719,0.16773463785648346,-0.5567291975021362,0.5795018672943115,-43.947052001953125,-17.123336791992188,-146.2299041748047,-34.905128479003906,-6.157861709594727,18.146333694458008,-1.0357927083969116,-0.09789158403873444,-0.19759808480739594,-151.35565185546875,78.52619171142578,60.9703483581543,151.53258325093506,0.8209170008507632,39.81930036453283,1.0590062795438813,-107.40859985351562,95.64952850341797,207.20025253295898
1236.3580000000002,23.383514404296875,-133.02499389648438,-56.01876449584961,0.2721858322620392,-0.5340085625648499,0.5542832612991333,-43.82753372192383,-19.827775955200195,-145.1375274658203,-31.128101348876953,-0.10490220785140991,13.915323257446289,-0.9749221205711365,-0.05862415209412575,-0.21231159567832947,-153.32339477539062,78.64824676513672,59.601444244384766,146.22085939665766,0.8163823895290487,34.097007484798326,0.9994929444709229,-109.4958610534668,98.47602272033691,204.73897171020508
1253.5320000000002,18.861671447753906,-130.1195831298828,-52.5175666809082,0.2882528603076935,-0.5576444864273071,0.5442573428153992,-43.87327575683594,-22.425045013427734,-144.01246643066406,-35.32643508911133,1.766413688659668,16.414527893066406,-0.9864044189453125,-0.10662686824798584,-0.14941200613975525,-155.48753356933594,78.76895904541016,58.108795166015625,141.58023652254977,0.8308267809398182,38.993768212073775,1.0033378864200828,-111.6142578125,101.19400405883789,202.1212615966797
1275.464,20.871784210205078,-126.4142837524414,-48.321041107177734,0.29381048679351807,-0.5496448278427124,0.5259621739387512,-43.943756103515625,-24.89208221435547,-142.85000610351562,-36.78231430053711,1.9914679527282715,10.145705223083496,-1.028664469718933,-0.05814911425113678,-0.1785532534122467,-157.28457641601562,78.82394409179688,57.02635955810547,136.9347491560915,0.8155183917843093,38.20785160649502,1.0456639876434608,-113.3408203125,103.71602630615234,199.8763656616211
1296.6599999999999,22.094667434692383,-122.30830383300781,-44.430702209472656,0.3407089114189148,-0.551514744758606,0.509425938129425,-44.05387496948242,-27.25340461730957,-141.6576385498047,-42.85575866699219,7.434410572052002,15.445076942443848,-0.9543673396110535,-0.06324367225170135,-0.23757269978523254,-159.93922424316406,78.76666259765625,55.19221878051758,131.99084367630903,0.8244791461555938,46.1566562180941,0.9855240071552822,-115.88534927368164,106.02006721496582,196.84985733032227
1319.07,26.128087997436523,-114.73072814941406,-43.810943603515625,0.4788329601287842,-0.5214712023735046,0.49792689085006714,-44.07761001586914,-29.562320709228516,-140.54916381835938,-39.71848678588867,17.2501163482666,7.402854919433594,-0.9550600051879883,-0.07233268022537231,-0.2602458596229553,-162.04490661621094,78.46115112304688,53.85186004638672,125.55961031927012,0.8655312861140129,43.930934061862715,0.9925218071101295,-117.9672966003418,108.02347183227539,194.4010238647461
1331.5030000000002,19.302324295043945,-104.21109008789062,-42.214542388916016,0.33654528856277466,-0.5461156964302063,0.5006268620491028,-44.226993560791016,-31.584877014160156,-139.5497283935547,-54.808319091796875,36.17974090576172,-0.6152074337005615,-0.9902941584587097,-0.05119170621037483,-0.2112443447113037,-164.1398162841797,77.76831817626953,52.82638931274414,114.08154368522143,0.8137151468089935,65.67574874992103,1.0138674884987098,-119.91282272338867,109.35319519042969,192.37611770629883
1353.98,20.968570709228516,-93.8995132446289,-41.4716911315918,0.43609410524368286,-0.5348907709121704,0.48026329278945923,-44.30403137207031,-33.49724578857422,-138.68028259277344,-43.20013427734375,39.930870056152344,6.411106586456299,-0.9649556279182434,-0.033830732107162476,-0.30033695697784424,-166.5646514892578,76.9764404296875,51.22554016113281,104.76975093260604,0.8407966673555969,59.1762475380516,1.0111805822961146,-122.2606201171875,110.47368621826172,189.90582275390625
1376.627,21.603511810302734,-84.79117584228516,-37.271697998046875,0.49745115637779236,-0.5283064842224121,0.4745444059371948,-44.35525131225586,-35.23891067504883,-137.87057495117188,-45.711795806884766,50.060020446777344,1.5881133079528809,-0.9417420625686646,-0.04236237704753876,-0.3291180431842804,-168.5470733642578,75.9580307006836,50.12175750732422,95.10749021456104,0.8670396689075615,67.8092621026139,0.9984945516875143,-124.19182205200195,111.19694137573242,187.9923324584961
1399.4850000000001,36.1597900390625,-77.2719955444336,-32.194095611572266,0.5186939239501953,-0.5069442391395569,0.41519466042518616,-44.144020080566406,-36.82062911987305,-137.07119750976562,-55.5534553527832,62.9113655090332,0.7374199628829956,-0.9418026208877563,-0.04855760186910629,-0.30805304646492004,-170.5983123779297,74.6814193725586,49.14472579956055,91.18635590555807,0.8357167309472875,83.93193730664453,0.9920920808305264,-126.45429229736328,111.50204849243164,186.21592330932617
1421.26,42.679256439208984,-68.93717956542969,-29.381271362304688,0.6014586687088013,-0.46408891677856445,0.4268946945667267,-43.731971740722656,-38.282859802246094,-136.38075256347656,-54.16111373901367,69.0573501586914,1.770925521850586,-0.9080806374549866,-0.06260330229997635,-0.34839361906051636,-172.47573852539062,73.27449035644531,48.334293365478516,86.23869643904321,0.8714184603799048,87.78086368676509,0.9746321005290156,-128.74376678466797,111.5573501586914,184.71504592895508
1431.422,21.917160034179688,-52.28098678588867,-28.249576568603516,0.6179295778274536,-0.43486011028289795,0.38624992966651917,-43.56727981567383,-39.473236083984375,-135.96669006347656,-51.222469329833984,72.8079833984375,0.5725919008255005,-0.9204452037811279,-0.023575399070978165,-0.3464750051498413,-174.10693359375,71.79175567626953,47.69648742675781,63.33799854412438,0.8486043170033135,89.02287162453155,0.9837784820774546,-130.53965377807617,111.2649917602539,183.66317749023438
1454.1200000000001,18.260238647460938,-36.4442024230957,-21.695972442626953,0.6798248291015625,-0.47953295707702637,0.19266285002231598,-43.35824966430664,-40.30032730102539,-135.7238311767578,-45.449134826660156,71.69252014160156,-2.509364604949951,-0.9183516502380371,-0.04691536724567413,-0.34104570746421814,-175.22750854492188,70.33836364746094,47.50220489501953,46.17717429584696,0.8539511865234027,84.92195364843212,0.9807563304707707,-131.86925888061523,110.63869094848633,183.22603607177734
1476.667,13.932670593261719,-20.06427574157715,-17.91942596435547,0.7755751609802246,-0.4271259307861328,0.11991056054830551,-43.091209411621094,-40.8378791809082,-135.7062225341797,-31.30596351623535,50.163368225097656,1.2144700288772583,-0.8474200963973999,-0.04488717392086983,-0.32042554020881653,-176.0885009765625,69.33018493652344,47.27809524536133,30.29521905823422,0.8934942269597663,59.14306215286487,0.9070877603511651,-132.9972915649414,110.16806411743164,182.98431777954102
1498.8619999999999,-7.248277187347412,-0.8142611980438232,-18.662593841552734,0.7156745195388794,-0.44883993268013,0.21664002537727356,-43.0086555480957,-41.10435485839844,-136.05274963378906,-5.0522050857543945,15.491908073425293,11.129801750183105,-0.831217885017395,-0.025685831904411316,-0.31119590997695923,-176.8110809326172,69.0367431640625,46.60993576049805,20.03728904762375,0.8721124948542907,19.733131504714635,0.8879334596239747,-133.80242538452148,110.14109802246094,182.6626853942871
1519.105,-13.511359214782715,18.614301681518555,-21.107677459716797,0.6049553155899048,-0.5068464279174805,0.3446609675884247,-42.830631256103516,-41.13139724731445,-136.7706756591797,14.239171028137207,-5.598893642425537,17.384862899780273,-0.8371336460113525,-0.03153195604681969,-0.35076671838760376,-177.39479064941406,69.1478271484375,45.67593765258789,31.218313578169383,0.8611941813157937,23.15890886099541,0.9081983793559685,-134.56415939331055,110.27922439575195,182.44661331176758
1541.2250000000001,-9.770203590393066,34.6695671081543,-19.05268669128418,0.608332633972168,-0.4873332977294922,0.4000546932220459,-42.449302673339844,-40.911617279052734,-137.7139892578125,21.652246475219727,-2.2837369441986084,19.57838249206543,-0.8425434231758118,-0.05535045638680458,-0.433656245470047,-177.9189910888672,69.14485168457031,44.64186477661133,40.74850465748138,0.8761313224627931,29.280510461048603,0.9492106363680404,-135.46968841552734,110.05646896362305,182.35585403442383
1551.2269999999999,-10.635226249694824,49.95738220214844,-7.653302192687988,0.6149305701255798,-0.4559199810028076,0.36773747205734253,-42.04277420043945,-40.31576156616211,-138.7115936279297,26.165435791015625,0.40210598707199097,16.404136657714844,-0.8915241360664368,-0.1071232408285141,-0.44299089908599854,-178.10707092285156,69.09130096435547,43.85947799682617,51.647082282800234,0.8492546635183676,30.88506789443055,1.0012650051747698,-136.0642967224121,109.40706253051758,182.57107162475586
1573.8000000000002,-8.78671646118164,64.90729522705078,6.766101360321045,0.6433097720146179,-0.4294130206108093,0.31442004442214966,-41.581546783447266,-39.258323669433594,-139.7052459716797,30.904077529907227,-7.253787040710449,14.002403259277344,-0.8803765773773193,-0.16030272841453552,-0.4314362704753876,-178.06336975097656,69.21354675292969,43.2244758605957,65.84788141982146,0.8349269245712618,34.695053414599556,0.9934269667235026,-136.4818229675293,108.47187042236328,182.9297218322754
1600.942,-2.837268590927124,77.57350158691406,23.534175872802734,0.6659519672393799,-0.3795512914657593,0.33183252811431885,-41.10380935668945,-37.78302764892578,-140.5616912841797,33.46396255493164,-27.76030731201172,14.59205436706543,-0.938626229763031,-0.13326385617256165,-0.33593547344207764,-177.92063903808594,69.78538513183594,42.636138916015625,81.11446033552852,0.8352628521837099,45.86283356473509,1.005798735770679,-136.81682968139648,107.56841278076172,183.1978302001953
1611.1,-3.14038348197937,92.64659881591797,38.93024444580078,0.5803899168968201,-0.36775287985801697,0.36142030358314514,-40.70524978637695,-35.90366744995117,-141.33692932128906,30.50139045715332,-43.98533630371094,0.1742863655090332,-1.0142499208450317,-0.05974533408880234,-0.33752021193504333,-177.1432647705078,70.6791000366211,42.80656051635742,100.54261888960991,0.7763499675542568,53.52639540738267,1.070603708355343,-136.43801498413086,106.58276748657227,184.14348983764648
1633.703,9.647531509399414,105.30008697509766,50.44656753540039,0.5366829037666321,-0.3599197566509247,0.3300156891345978,-40.09764099121094,-33.64708709716797,-142.0623779296875,43.7235107421875,-60.06411361694336,-9.616536140441895,-0.9939534664154053,-0.04065509885549545,-0.3274060785770416,-175.44093322753906,71.87342834472656,43.680572509765625,117.15818092344938,0.7255901911534006,74.9127552794028,1.047277933860609,-135.34329223632812,105.52051544189453,185.74295043945312
1651.31,6.369825839996338,117.48345947265625,58.143123626708984,0.4359382092952728,-0.3323056101799011,0.43735283613204956,-39.55736541748047,-31.15786361694336,-142.79864501953125,57.844947814941406,-68.14158630371094,-18.518997192382812,-0.870026707649231,-0.031619369983673096,-0.34799277782440186,-172.68186950683594,73.15135192871094,45.366485595703125,131.2385642864395,0.7012464931487022,91.28125233973766,0.9375741197361777,-133.12450408935547,104.3092155456543,188.16513061523438
1673.627,-0.8383403420448303,128.31101989746094,64.0520248413086,0.37593311071395874,-0.37791264057159424,0.45671966671943665,-39.210723876953125,-28.38759422302246,-143.53050231933594,64.0348892211914,-54.184715270996094,-27.601184844970703,-0.9395027160644531,-0.0029007047414779663,-0.29949134588241577,-169.05856323242188,74.12572479248047,47.82193374633789,143.4122816495412,0.7019519368184561,88.30784682810138,0.9860876400396379,-129.84783935546875,102.51331901550293,191.35243606567383
1691.0259999999998,3.8019309043884277,136.54856872558594,67.3856430053711,0.2910696268081665,-0.47508394718170166,0.5599275231361389,-38.80756759643555,-25.36505889892578,-144.27699279785156,50.1508903503418,-29.91785430908203,-31.70145606994629,-0.967862606048584,-0.009931517764925957,-0.2922259569168091,-165.50408935546875,74.56287384033203,50.486366271972656,152.31805928009695,0.7899019658700456,66.44676159412285,1.011065116166222,-126.6965217590332,99.92793273925781,194.76335906982422
1713.724,10.44326114654541,137.9376983642578,70.33633422851562,0.24867945909500122,-0.4385911226272583,0.545714259147644,-38.32782745361328,-22.288284301757812,-144.9514923095703,30.474735260009766,-19.86009979248047,-28.776180267333984,-0.9734217524528503,-0.1477685421705246,-0.28883230686187744,-162.3556365966797,74.7580795288086,53.114803314208984,155.18721031744005,0.7429722059810064,46.38104789365013,1.0260650816058083,-124.0278091430664,97.0463638305664,198.0662956237793
1736.987,1.5088821649551392,142.75439453125,80.42382049560547,0.2968674302101135,-0.36965325474739075,0.5674461722373962,-38.078880310058594,-19.0801944732666,-145.4952850341797,29.892711639404297,-7.381497383117676,-31.970361709594727,-1.0994348526000977,-0.09324183315038681,-0.26103076338768005,-159.37001037597656,74.69881439208984,55.59353256225586,163.8569033836563,0.7394382721037428,44.38653783092201,1.133837772344791,-121.29113006591797,93.77900886535645,201.08881759643555
1751.156,-23.89253044128418,152.0145721435547,81.72737121582031,0.18671920895576477,-0.41564375162124634,0.6879959106445312,-38.353271484375,-15.648119926452637,-146.12313842773438,27.528425216674805,-19.01725959777832,-37.77180099487305,-1.1072560548782349,-0.01975417323410511,-0.14504799246788025,-155.78440856933594,74.80265045166016,58.748836517333984,174.23732769049283,0.825204316710988,50.459680021930794,1.116890826600182,-117.43113708496094,90.4507703781128,204.87197494506836
1773.3799999999999,-10.94133186340332,157.7061309814453,85.0933609008789,0.06183967366814613,-0.6095860004425049,0.6495801210403442,-38.4172248840332,-12.110118865966797,-146.7678985595703,7.659979343414307,-21.932174682617188,-33.158626556396484,-1.0076338052749634,-0.06229795515537262,-0.14992369711399078,-152.74266052246094,74.97008514404297,61.747589111328125,179.53221594323716,0.8929577654209971,40.486912514501896,1.020629235180813,-114.32543563842773,87.08020401000977,208.51548767089844
1795.893,6.593031883239746,150.1422882080078,92.71869659423828,0.15844786167144775,-0.4877382516860962,0.5827277302742004,-38.22509002685547,-8.620509147644043,-147.17868041992188,-6.130970001220703,-36.01068115234375,-36.620628356933594,-1.0052769184112549,-0.04787645488977432,-0.1321597844362259,-149.19544982910156,75.31599426269531,65.55487060546875,176.58689497209105,0.7762512058970248,51.72454322145612,1.0150566714452307,-110.9703598022461,83.93650341033936,212.73355102539062
1818.939,4.529540061950684,156.08055114746094,96.90740966796875,0.11133112013339996,-0.5947314500808716,0.742472767829895,-38.09259033203125,-4.970122814178467,-147.58351135253906,-13.508844375610352,-38.74317169189453,-37.040061950683594,-0.952521800994873,-0.024343494325876236,-0.05472761020064354,-145.47372436523438,75.58063507080078,69.68647766113281,183.773505240074,0.9577922149372686,55.27647255770357,0.9544032158395025,-107.38113403320312,80.55075788497925,217.26998901367188
1839.441,15.895768165588379,159.60556030273438,94.9109878540039,-0.07833153009414673,-0.6045242547988892,0.6619855761528015,-37.75877380371094,-1.247920274734497,-148.04910278320312,-28.840290069580078,-28.511445999145508,-32.54391860961914,-0.9263154864311218,-0.07942142337560654,-0.2165074199438095,-142.85154724121094,75.67058563232422,73.00298309326172,186.37249244603342,0.8998946084300089,51.997803056756396,0.9545908054155237,-105.0927734375,76.91850590705872,221.05208587646484
1850.952,12.392587661743164,155.67269897460938,89.21017456054688,-0.1583140641450882,-0.5379037261009216,0.9359302520751953,-37.50544738769531,2.3241991996765137,-148.533935546875,-28.096538543701172,-9.116049766540527,-26.884727478027344,-0.9244893193244934,-0.0987456664443016,-0.18822404742240906,-141.42543029785156,75.49980926513672,75.06245422363281,179.849994940552,1.0910404200619375,39.9412870730467,0.9486092452715542,-103.91998291015625,73.1756100654602,223.5963897705078
1874.08,2.2497291564941406,152.62330627441406,83.29539489746094,-0.14799852669239044,-0.5437595248222351,0.760728657245636,-37.4802360534668,5.809648036956787,-149.0678253173828,-25.166187286376953,-10.28995132446289,-20.551128387451172,-1.0397456884384155,-0.09164437651634216,-0.14307521283626556,-140.2459259033203,75.4535140991211,76.80532836914062,173.8880608625421,0.946723864013562,34.08179805688541,1.05353704486434,-102.76568984985352,69.6438660621643,225.87315368652344
1895.6599999999999,-6.624575614929199,157.3511962890625,81.26898193359375,-0.21766480803489685,-0.6697487235069275,0.7202474474906921,-37.725345611572266,9.3319673538208,-149.71005249023438,-34.172080993652344,-8.592216491699219,-16.6932373046875,-0.9874155521392822,-0.1414351463317871,-0.1377856284379959,-139.48631286621094,75.4026107788086,78.29475402832031,177.22282979401885,1.0073220472683424,38.990017637692524,1.0069648715960606,-101.76096725463867,66.0706434249878,228.0048065185547
1918.1770000000001,12.397774696350098,149.53067016601562,86.233154296875,-0.29122963547706604,-0.590916633605957,0.7771647572517395,-37.56410598754883,12.809174537658691,-150.17861938476562,-32.71240997314453,-0.16496020555496216,-3.3290231227874756,-0.9558834433555603,-0.1769474446773529,-0.1718910038471222,-139.88690185546875,75.36537170410156,78.55329895019531,173.05861156760696,1.018814128468219,32.88177873948665,0.9872031567325436,-102.32279586791992,62.55619716644287,228.73191833496094
1940.625,8.332232475280762,144.98056030273438,82.06051635742188,-0.38981014490127563,-0.6224797368049622,0.9389652013778687,-37.4791259765625,16.154830932617188,-150.64637756347656,-29.44738006591797,2.8486573696136475,-9.951079368591309,-0.9882975816726685,-0.23887062072753906,-0.21226021647453308,-139.93902587890625,75.16311645507812,79.10088348388672,166.80143077492957,1.1920942165782493,31.213571121486254,1.0386749649840514,-102.45989990234375,59.00828552246094,229.74726104736328
1950.7140000000002,-9.324302673339844,135.00820922851562,79.14688110351562,-0.49906080961227417,-0.5757299661636353,0.8164873719215393,-37.78183364868164,19.30267906188965,-151.0563201904297,-27.2105712890625,-10.13310432434082,-4.956246852874756,-1.0510621070861816,-0.1506393998861313,-0.04498878866434097,-139.6387176513672,75.25894165039062,79.97114562988281,156.77495963274475,1.1167713795298397,29.456058391980385,1.0627548037322543,-101.85688400268555,55.95626258850098,231.0274658203125
1973.346,1.6564531326293945,135.5684356689453,76.55450439453125,-0.42437511682510376,-0.5899533033370972,0.7056134343147278,-37.94332504272461,22.422399520874023,-151.55113220214844,-22.558847427368164,-14.657798767089844,-1.6198499202728271,-0.9261492490768433,-0.12128894031047821,-0.22957012057304382,-139.40403747558594,75.45326232910156,80.69075012207031,155.69886553792827,1.0129311223296962,26.951374282436575,0.9618554355344473,-101.46071243286133,53.03086280822754,232.24188232421875
1997.0710000000001,4.334150791168213,133.16119384765625,74.70873260498047,-0.5071104168891907,-0.5562479496002197,0.7236870527267456,-38.05891036987305,25.49323081970215,-152.0543975830078,-28.44546890258789,6.504504203796387,-4.3841552734375,-0.9187576174736023,-0.21290069818496704,-0.18077555298805237,-139.93405151367188,75.27604675292969,80.72267150878906,152.74843088377747,1.044172259081949,29.507187149691333,0.9602718716652866,-101.87514114379883,49.78281593322754,232.77706909179688
2018.03,-20.99536895751953,130.91012573242188,66.0179672241211,-0.6488505005836487,-0.5838427543640137,0.8031551837921143,-38.7551383972168,28.404653549194336,-152.7030029296875,-27.77840232849121,17.722270965576172,4.404586315155029,-1.0308469533920288,-0.13575421273708344,-0.09350717067718506,-141.493408203125,75.11614990234375,79.67503356933594,148.1102242701226,1.186143997659287,33.24332872485066,1.043943599320167,-102.7382698059082,46.711496353149414,232.37803649902344
2044.025,-27.905651092529297,126.68821716308594,64.44749450683594,-0.6301138401031494,-0.5581715703010559,0.8201526999473572,-39.61186218261719,31.212078094482422,-153.3732147216797,-35.05142593383789,-15.064538955688477,9.352596282958984,-1.088143229484558,-0.01097123697400093,-0.2521754503250122,-142.20413208007812,75.49221801757812,79.67718505859375,144.85202545725016,1.1752656740553702,39.281214991071714,1.1170355919398658,-102.59226989746094,44.2801399230957,233.05039978027344
2051.0,-9.161599159240723,122.1360855102539,64.01138305664062,-0.6073453426361084,-0.5980738401412964,0.6187992095947266,-40.20917510986328,33.934837341308594,-154.09036254882812,-28.74439239501953,-10.392786026000977,3.537437677383423,-0.8921701908111572,-0.24545623362064362,-0.2323146015405655,-142.4934539794922,75.66632080078125,79.97249603271484,138.19774037134846,1.0533153114230265,30.769523247240436,0.9540369416768936,-102.2842788696289,41.731483459472656,234.06285858154297
2073.765,-7.106639862060547,120.54561614990234,65.87999725341797,-0.6178914308547974,-0.5315500497817993,0.6099139451980591,-40.75574493408203,36.64593505859375,-154.78134155273438,-20.22898292541504,-2.1206297874450684,12.570082664489746,-0.9758126735687256,-0.34202635288238525,-0.18363243341445923,-143.52467346191406,75.83964538574219,79.32225799560547,137.5569843417592,1.0180030924775638,23.910579229375397,1.0501967770685101,-102.76892852783203,39.19371032714844,234.10359954833984
2097.997,-28.445158004760742,119.2132568359375,63.18214416503906,-0.7278220653533936,-0.5354634523391724,0.6467315554618835,-41.79634094238281,39.30242156982422,-155.5605926513672,-4.627933979034424,-19.92334747314453,12.521380424499512,-1.1068520545959473,-0.1428697556257248,-0.13412824273109436,-143.39822387695312,76.3520736694336,79.54667663574219,137.88731254411618,1.1111740513692767,23.982129079483236,1.1240656668246547,-101.60188293457031,37.049652099609375,235.10726928710938
2120.86,-21.082128524780273,117.44664764404297,61.44636154174805,-0.7855181694030762,-0.6095548868179321,0.6495881676673889,-42.80515670776367,41.87665557861328,-156.45309448242188,-6.381351470947266,-50.457733154296875,11.667840957641602,-1.004372000694275,-0.0427444688975811,-0.10749001801013947,-141.77719116210938,77.3701400756836,81.35601043701172,134.2155972034493,1.1876703002430673,52.18086808667339,1.0110115278134948,-98.9720344543457,35.49348449707031,237.8091049194336
2130.776,1.889812707901001,112.65281677246094,63.68623733520508,-0.758794367313385,-0.4773831069469452,0.4775340259075165,-43.355873107910156,44.44472122192383,-157.29843139648438,-23.988222122192383,-32.591487884521484,16.236469268798828,-0.8832993507385254,-0.12117263674736023,-0.17793449759483337,-141.6209259033203,78.07466888427734,82.01596069335938,129.42242983639534,1.01572745781744,43.60347253863159,0.9091541323371598,-98.26505279541016,33.629947662353516,239.31439208984375
2153.779,-4.8558831214904785,116.89772033691406,59.01755142211914,-0.8032013177871704,-0.47045114636421204,0.5310611128807068,-44.21604537963867,46.979583740234375,-158.3771209716797,-29.929685592651367,-28.23348045349121,12.555606842041016,-0.98291015625,-0.0959608256816864,-0.18553729355335236,-141.590576171875,78.67626953125,82.69171142578125,131.04094015505012,1.071672778241821,43.01812131375033,1.0048606583123918,-97.37453079223633,31.696685791015625,241.06883239746094
2176.81,-11.604708671569824,112.76046752929688,57.7639274597168,-0.9162376523017883,-0.5129115581512451,0.661099910736084,-45.23561477661133,49.392364501953125,-159.47373962402344,-28.158597946166992,-40.24026107788086,15.85899829864502,-1.051382064819336,-0.07115488499403,-0.07084789127111435,-140.7938232421875,79.56514739990234,84.18070983886719,127.22524755860782,1.2408153746451924,51.61097825992372,1.0561660322031985,-95.55820846557617,30.17278289794922,243.65444946289062
2190.589,-5.961016654968262,102.146728515625,57.41835403442383,-0.9507180452346802,-0.4635651409626007,0.3671080768108368,-46.17136764526367,51.6706657409668,-160.52291870117188,-35.32614517211914,-37.02333450317383,16.38620376586914,-0.9796723127365112,-0.12363696843385696,-0.20048406720161438,-140.38961791992188,80.31839752197266,85.42081451416016,117.33011227314172,1.1196096558668465,53.732406463065864,1.0075900959754023,-94.2182502746582,28.64773178100586,245.94373321533203
2213.862,-7.275941371917725,98.80072021484375,52.23127365112305,-0.911456286907196,-0.3993903696537018,0.3410003185272217,-47.29076385498047,53.86046600341797,-161.7329559326172,-35.91550064086914,-43.02168655395508,13.855487823486328,-0.8947141170501709,-0.17489969730377197,-0.2340814173221588,-139.00950622558594,81.1146011352539,87.65270233154297,111.99387297989975,1.0519251149917659,57.73008958123838,0.9412212095471333,-91.71874237060547,27.254135131835938,249.38565826416016
2236.94,-11.1820068359375,99.49346160888672,50.08980941772461,-0.9751079082489014,-0.4614996910095215,0.43327295780181885,-48.654632568359375,55.96029281616211,-163.128173828125,-27.220619201660156,-33.714881896972656,6.97150182723999,-0.9811767339706421,-0.17689909040927887,-0.15024982392787933,-137.170166015625,81.67050170898438,90.16461944580078,111.95077126711517,1.1625587527061882,43.88914682214516,1.0082539764678764,-88.51553344726562,25.710208892822266,253.29279327392578
2255.455,-1.327512502670288,92.78720092773438,50.773521423339844,-0.9678480625152588,-0.4348098039627075,0.4058696925640106,-49.80228805541992,57.9586067199707,-164.47119140625,-24.146493911743164,-27.692237854003906,6.816307067871094,-1.0155829191207886,-0.1311178356409073,-0.11275890469551086,-135.6204833984375,82.1573715209961,92.31312561035156,105.7789082150825,1.1360104071172203,37.36810468348757,1.0302014963205934,-85.81819534301758,24.19876480102539,256.78431701660156
2274.415,-3.6116623878479004,88.01424407958984,46.19520950317383,-0.9646095037460327,-0.39919233322143555,0.3852149248123169,-51.1050910949707,59.80680465698242,-165.9192352294922,-25.224346160888672,-28.6788272857666,12.100821495056152,-0.9828335046768188,-0.0951559990644455,-0.12883754074573517,-134.48904418945312,82.72766876220703,94.05357360839844,99.46631915954029,1.112751792592625,40.06460600812621,0.9957989124209166,-83.38395309448242,22.92086410522461,259.9728088378906
2295.698,-0.6528902053833008,83.80950927734375,43.45050048828125,-0.9697813987731934,-0.4104057848453522,0.25277459621429443,-52.56834030151367,61.558109283447266,-167.5634307861328,-30.916126251220703,-25.961002349853516,11.152283668518066,-0.9420100450515747,-0.07545486837625504,-0.15902265906333923,-133.66500854492188,83.22927856445312,95.6007308959961,94.40554064042841,1.0829606946386932,41.88262093534277,0.9583133977125243,-81.0966682434082,21.67116928100586,263.1641616821289
2317.9820000000004,-3.4856951236724854,85.79946899414062,40.13169479370117,-0.9359351396560669,-0.4140685796737671,0.2920209467411041,-54.374324798583984,63.2192497253418,-169.5162811279297,-32.531490325927734,-26.746295928955078,13.29025650024414,-0.9898942112922668,-0.0954623892903328,-0.08524259924888611,-132.50926208496094,83.7920150756836,97.4755630493164,94.7852935701867,1.0642854916100486,44.16212321194997,0.9981332165826685,-78.13493728637695,20.572765350341797,266.9918441772461
2340.348,3.0161147117614746,83.08818054199219,40.949703216552734,-1.0051746368408203,-0.4426150918006897,0.325793981552124,-56.14091110229492,64.81492614746094,-171.54928588867188,-35.5498161315918,-19.219135284423828,7.934046745300293,-1.0126124620437622,-0.13890376687049866,-0.05292446166276932,-131.27230834960938,84.15792083740234,99.47728729248047,92.6802076349473,1.1456115783516652,41.183900808781814,1.0234643390853624,-75.13139724731445,19.342994689941406,271.02657318115234
2350.408,11.539718627929688,78.35432434082031,38.470947265625,-0.9459938406944275,-0.36178532242774963,0.22442695498466492,-57.89152526855469,66.31865692138672,-173.71942138671875,-32.77615737915039,-16.208637237548828,9.270894050598145,-0.970682680606842,-0.13475437462329865,-0.10125215351581573,-130.65512084960938,84.47815704345703,100.79304504394531,88.04873100978091,1.0373815230085957,37.72195501480146,0.9852084076487528,-72.76359558105469,18.159500122070312,274.51246643066406
2374.485,2.4288599491119385,78.94379425048828,34.6914176940918,-0.979804277420044,-0.3952428698539734,0.21429115533828735,-60.21773147583008,67.71257019042969,-176.2903289794922,-27.334064483642578,-21.533618927001953,11.22525405883789,-0.9918316006660461,-0.05734706297516823,-0.0787753239274025,-129.39944458007812,84.94002532958984,102.64375305175781,86.26422475709019,1.0780324890638675,36.56301620455736,0.9966063221611211,-69.18171310424805,17.227455139160156,278.93408203125
2395.6349999999998,2.989194869995117,76.02056121826172,34.300968170166016,-0.9888239502906799,-0.36706236004829407,0.20052799582481384,-62.695369720458984,69.03207397460938,-179.0156707763672,-30.17081069946289,-23.877534866333008,11.97370433807373,-0.9988322257995605,-0.09632495045661926,-0.0518609918653965,-127.29052734375,85.42910766601562,105.41098022460938,83.45428348096354,1.073647548286776,40.29620435141973,1.004805391035218,-64.59515762329102,16.39703369140625,284.42665100097656
2417.869,5.974811553955078,73.05875396728516,32.84083938598633,-0.9802180528640747,-0.32604098320007324,0.20056617259979248,-65.2768783569336,70.25785064697266,178.10104370117188,-27.150903701782227,-23.293987274169922,7.813637733459473,-0.997285008430481,-0.11608150601387024,-0.057893432676792145,-124.08690643310547,85.81534576416016,109.2312240600586,80.32310150843112,1.0523102885926936,36.61740500885315,1.005685812580517,-58.810028076171875,15.5574951171875,-68.86981964111328
2441.464,7.420334339141846,69.45146179199219,30.93840980529785,-1.0413508415222168,-0.333717942237854,0.14244940876960754,-68.08831787109375,71.37928771972656,174.97296142578125,-25.893224716186523,-20.710647583007812,9.376052856445312,-0.9729217886924744,-0.07862241566181183,-0.06684889644384384,-121.34494018554688,86.19624328613281,112.56581115722656,76.39209453883136,1.1027561263349697,34.45722531889845,0.9783798168977231,-53.256622314453125,14.81695556640625,-62.40715026855469
2450.554,5.653095245361328,65.76361083984375,28.05078125,-1.0157965421676636,-0.3281526267528534,0.06168023496866226,-71.23773193359375,72.36827087402344,171.5560302734375,-27.731414794921875,-17.86773109436035,9.089798927307129,-0.9989247918128967,-0.05814841389656067,-0.08123467862606049,-119.01683044433594,86.53817749023438,115.4967269897461,71.71928837685782,1.0692666706254192,34.218585966215166,1.0039078895738414,-47.77909851074219,14.169906616210938,-56.059303283691406
2475.476,-4.336119174957275,63.588409423828125,27.200958251953125,-1.001417875289917,-0.3163892924785614,0.043347399681806564,-74.83023834228516,73.26126098632812,167.90133666992188,-27.154380798339844,-19.75513458251953,7.01971960067749,-1.0123848915100098,-0.10400392860174179,-0.0604681596159935,-114.97549438476562,86.82916259765625,120.10324096679688,69.29776239083282,1.0511036782375138,34.30600825200802,1.0195079126959612,-40.14525604248047,13.567901611328125,-47.798095703125
2496.192,-12.976226806640625,64.09848022460938,26.039608001708984,-0.9855396747589111,-0.3305554986000061,0.06756716221570969,-78.95069885253906,74.03773498535156,163.88560485839844,-22.665437698364258,-24.70381736755371,7.072691440582275,-1.0162031650543213,-0.12306042015552521,-0.026177646592259407,-108.10498046875,87.12825775146484,127.45084381103516,70.39217864311833,1.0416912736451636,34.26402811698539,1.0239619176787698,-29.154281616210938,13.090522766113281,-36.43476104736328
2517.883,-5.914600849151611,64.45745849609375,25.830867767333984,-0.9714289903640747,-0.318776935338974,0.0977604016661644,-83.2288589477539,74.71996307373047,159.5653839111328,-11.389179229736328,-31.149791717529297,8.11438274383545,-1.0280169248580933,-0.07472988218069077,-0.004505584016442299,-97.25102996826172,87.44112396240234,138.57327270507812,69.69203820088724,1.027058963233272,34.14478195692526,1.0307393721852094,-14.022171020507812,12.721160888671875,-20.992111206054688
2540.3190000000004,2.052962303161621,63.58655548095703,26.452312469482422,-0.980136513710022,-0.25473469495773315,0.12451166659593582,-87.53225708007812,75.35301971435547,155.0596466064453,-7.68838357925415,-39.71514129638672,11.596184730529785,-1.004272222518921,0.012019357644021511,0.07308946549892426,-79.67008972167969,87.71449279785156,156.30078125,68.89985143042156,1.0203237258053657,42.08176791151102,1.0070001151182588,7.8621673583984375,12.361473083496094,1.2411346435546875
2550.447,-4.812366485595703,65.95573425292969,27.417984008789062,-0.9781489968299866,-0.24257498979568481,0.06223209202289581,-92.61956787109375,75.9088134765625,149.9051513671875,-24.049434661865234,-40.54518508911133,12.902724266052246,-1.0132746696472168,0.028008678928017616,0.10885372012853622,-60.056793212890625,87.68860626220703,176.2625274658203,71.58954951067216,1.0096984297063316,48.87502056215828,1.0194896638170448,32.562774658203125,11.779792785644531,26.357376098632812
2578.116,-11.957601547241211,67.3931884765625,26.910654067993164,-1.0081344842910767,-0.29371970891952515,-0.005789237096905708,-98.41751861572266,76.29560852050781,144.1814422607422,-42.15180206298828,-39.261016845703125,10.525382041931152,-1.0002856254577637,-0.0047109476290643215,0.09161171317100525,-44.62914276123047,87.32269287109375,-167.62429809570312,73.54596787157851,1.0500666269769598,58.55754031757596,1.0044830668135325,53.78837585449219,11.027084350585938,-311.8057403564453
2600.2169999999996,-10.957625389099121,65.22534942626953,26.37889862060547,-1.025570273399353,-0.27461597323417664,-0.006750030443072319,-104.22905731201172,76.54802703857422,138.42620849609375,-48.934104919433594,-38.261558532714844,8.429858207702637,-1.0103243589401245,-0.06771233677864075,0.03558608144521713,-34.80928039550781,86.78544616699219,-156.923095703125,71.20577261980218,1.061722130007075,62.68617068397519,1.0132159888258885,69.4197769165039,10.237419128417969,-295.34930419921875
2611.618,-23.33422088623047,61.55406188964844,22.95839500427246,-1.010783076286316,-0.2658531069755554,0.027510713785886765,-109.92588806152344,76.62543487548828,133.03753662109375,-42.42731857299805,-36.90265655517578,7.428014755249023,-0.9608058333396912,-0.08637616783380508,0.06040063500404358,-28.17626953125,86.17520141601562,-149.49749755859375,69.71711626748676,1.0455224249954629,56.71912221930202,0.9665696707729473,81.74961853027344,9.549766540527344,-282.5350341796875
2631.417,-32.083744049072266,53.1709098815918,17.63833999633789,-1.0513335466384888,-0.29020991921424866,0.0334826298058033,-114.91105651855469,76.54462432861328,128.553466796875,-40.73552322387695,-20.483623504638672,5.017251968383789,-0.9610366821289062,-0.03664674609899521,0.0010180147364735603,-25.49119758605957,85.87107849121094,-146.03091430664062,64.55713227575362,1.091166857083057,45.87084587749669,0.9617356834135792,89.41985893249512,9.326454162597656,-274.5843811035156
2653.203,-20.533124923706055,36.030696868896484,13.472942352294922,-1.0420069694519043,-0.2780102789402008,0.00212678755633533,-118.20671844482422,76.46553802490234,125.56925201416016,-38.804656982421875,-6.443675518035889,-0.4934225082397461,-0.9405962228775024,-0.07387589663267136,-0.09940516948699951,-25.875185012817383,85.7702407836914,-145.6919403076172,43.60436344701168,1.0784585123258381,39.3391131506138,0.9487150733046484,92.33153343200684,9.304702758789062,-271.26119232177734
2676.8070000000002,-15.925556182861328,18.619495391845703,5.924307823181152,-1.056241512298584,-0.3201552629470825,0.04080427810549736,-119.8621597290039,76.39395904541016,124.17896270751953,-20.700288772583008,11.81298828125,-6.2831926345825195,-0.9424996376037598,-0.1543576866388321,-0.14056183397769928,-29.211843490600586,85.92839813232422,-148.68296813964844,25.207268228910515,1.1044503220187072,24.648065990753675,0.9653442347053639,90.65031623840332,9.534439086914062,-272.86193084716797
2690.185,0.9752349853515625,-6.03818416595459,-1.077300786972046,-1.0643521547317505,-0.39217719435691833,0.062127869576215744,-119.31822204589844,76.43234252929688,124.71598052978516,-4.809074401855469,28.6536865234375,-11.214096069335938,-0.9432913661003113,-0.2358832061290741,-0.23184052109718323,-36.32485580444336,86.30921936035156,-155.74591064453125,6.210581960190927,1.1360054283470056,31.14348886426023,0.9995946756139391,82.99336624145508,9.876876831054688,-280.4618911743164
2715.3469999999998,30.86607551574707,-33.52450942993164,-9.52509880065918,-1.0734410285949707,-0.30523595213890076,0.012542972341179848,-115.5379409790039,76.56880950927734,127.95198822021484,27.20465087890625,30.138641357421875,-9.220145225524902,-0.9503986239433289,-0.16430425643920898,-0.2742093503475189,-43.941375732421875,86.67450714111328,-163.9074249267578,46.554643779366366,1.1160653898873136,41.634622735101665,1.0027184055832539,71.59656524658203,10.105697631835938,-291.85941314697266
2735.666,37.739768981933594,-55.94274139404297,-20.001033782958984,-1.1115809679031372,-0.32967573404312134,0.0620587095618248,-109.49301147460938,76.61859130859375,133.3722686767578,57.295005798339844,36.18500900268555,-8.925531387329102,-0.9569303393363953,-0.13344688713550568,-0.1945614367723465,-54.04913330078125,87.04533386230469,-175.13131713867188,70.38410211033137,1.1610984545910932,68.3501110204104,0.9855850540199688,55.443878173828125,10.426742553710938,-308.5035858154297
2750.229,38.160884857177734,-77.48358917236328,-29.866451263427734,-1.1327834129333496,-0.3240215480327606,0.020933305844664574,-101.63631439208984,76.43898010253906,140.6506805419922,70.25109100341797,40.98592758178711,-6.22892427444458,-1.0078638792037964,-0.11728738248348236,-0.23136277496814728,-67.43781280517578,87.37332916259766,170.15440368652344,91.3890837856746,1.1783999437797257,81.5712053639443,1.0407087309783236,34.19850158691406,10.934349060058594,29.50372314453125
2773.1189999999997,24.485408782958984,-92.34902954101562,-41.51502227783203,-1.152642011642456,-0.33390480279922485,0.13175898790359497,-93.0362548828125,75.8343734741211,148.97854614257812,78.84249114990234,39.627899169921875,-3.9416072368621826,-1.0242316722869873,-0.06595837324857712,-0.0707201212644577,-82.72547912597656,87.52606201171875,153.37841796875,104.16993604281838,1.2072433289229378,88.32918583884722,1.0287868394711592,10.310775756835938,11.691688537597656,4.399871826171875
2799.219,8.739127159118652,-103.82879638671875,-49.9532470703125,-1.1430381536483765,-0.4115980267524719,0.20812156796455383,-85.03357696533203,74.7925033569336,157.0590362548828,68.49938201904297,39.43531799316406,-4.347326278686523,-1.0197925567626953,-0.07693702727556229,-0.054949548095464706,-97.98555755615234,87.40911865234375,136.77613830566406,115.551366047683,1.2325841729368596,79.15938913348255,1.024165815593594,-12.951980590820312,12.616615295410156,-20.28289794921875
2819.087,7.145638465881348,-115.77778625488281,-57.98798751831055,-1.134548306465149,-0.43005988001823425,0.24408124387264252,-77.49224090576172,73.28024291992188,164.37283325195312,74.23649597167969,33.10515213012695,0.6569012403488159,-0.9942859411239624,-0.07309331744909286,-0.04189207777380943,-109.27755737304688,87.23387145996094,123.97703552246094,129.6848589295996,1.2376295947150957,81.28616088210609,0.9978487420208958,-31.785316467285156,13.953628540039062,-40.39579772949219
2839.293,3.2657735347747803,-129.53610229492188,-69.82816314697266,-1.174338936805725,-0.40569931268692017,0.18903324007987976,-70.74850463867188,71.18987274169922,170.9226531982422,78.46147155761719,32.53905487060547,4.611092567443848,-0.9363679885864258,-0.013981198891997337,-0.08218589425086975,-120.00914764404297,87.03376007080078,111.64244842529297,147.1945632250768,1.2567407993169226,85.06617885813715,0.9400718085261687,-49.260643005371094,15.843887329101562,-59.28020477294922
2850.784,-1.4614813327789307,-138.72576904296875,-80.12095642089844,-1.1730936765670776,-0.4274531304836273,0.29017511010169983,-65.25214385986328,68.6241455078125,176.2817840576172,77.5842056274414,37.96800231933594,1.6402939558029175,-0.9610822200775146,-0.050394207239151,-0.06670283526182175,-129.4409637451172,86.58292388916016,100.59612274169922,160.20718642448182,1.2818215738878989,86.39194827773971,0.9647112926178238,-64.1888198852539,17.958778381347656,-75.68566131591797
2876.37,-2.8528294563293457,-143.97703552246094,-86.12847900390625,-1.133392572402954,-0.5052503347396851,0.3318858742713928,-60.98116683959961,65.7286605834961,-179.55078125,72.93095397949219,38.95257568359375,-2.366184711456299,-1.0239734649658203,-0.07029947638511658,-0.0036244713701307774,-135.5294189453125,85.99830627441406,92.99244689941406,167.7964251385267,1.2845251486341698,82.71533129253389,1.026390184153591,-74.54825210571289,20.26964569091797,272.54322814941406
2895.533,-0.929196298122406,-147.91392517089844,-91.51824951171875,-1.1091082096099854,-0.5104964375495911,0.4030553102493286,-57.587486267089844,62.59679412841797,-176.5643310546875,66.65393829345703,37.118804931640625,-3.6400985717773438,-1.07290780544281,0.00451274961233139,0.04770154133439064,-139.718505859375,85.44284057617188,87.43391418457031,173.93959485669671,1.2857609484252013,76.37933940008529,1.0739771696525242,-82.13101959228516,22.846046447753906,263.9982452392578
2918.772,7.102799415588379,-151.21173095703125,-95.67147827148438,-1.0725126266479492,-0.5147760510444641,0.3804973363876343,-54.80366134643555,59.30451965332031,-174.48495483398438,55.19608688354492,34.438621520996094,-1.6643311977386475,-1.0382425785064697,0.034799687564373016,0.03477349504828453,-143.28298950195312,84.94300842285156,82.73833465576172,179.07671287247481,1.249021993419772,65.07992515252319,1.0394074591016815,-88.47932815551758,25.63848876953125,257.2232894897461
2947.226,6.616280555725098,-154.35565185546875,-99.7056884765625,-1.0132184028625488,-0.4708300232887268,0.41752123832702637,-52.55768966674805,55.87411880493164,-173.15118408203125,43.7360954284668,34.012550354003906,-0.9813100695610046,-1.0002753734588623,0.0009830256458371878,-0.01547233946621418,-146.3878936767578,84.40825653076172,78.73986053466797,183.87677053587836,1.1927348520033825,55.4135596615506,1.0003955129728666,-93.83020401000977,28.534137725830078,251.89104461669922
2950.288,0.3290152847766876,-154.81480407714844,-103.07025146484375,-0.9879822731018066,-0.5348793268203735,0.4586624503135681,-50.92794418334961,52.34137725830078,-172.30801391601562,43.465919494628906,36.211631774902344,-2.6296205520629883,-1.0102182626724243,-0.02014075592160225,-0.009363257326185703,-148.71360778808594,83.80469512939453,75.54673767089844,185.98711931079959,1.2134974699400387,56.63464785414058,1.0104623985452112,-97.78566360473633,31.46331787109375,247.85475158691406
2974.38,-2.8777377605438232,-158.0273895263672,-105.64610290527344,-0.9659996032714844,-0.5416144132614136,0.4739070534706116,-49.6539306640625,48.72380828857422,-171.7417755126953,38.32528305053711,34.80372619628906,-3.619619369506836,-1.0217232704162598,-0.021507130935788155,-0.02362229861319065,-150.4176483154297,83.2050552368164,73.08609008789062,190.11058958987073,1.2046116807927638,51.89632282185467,1.0222225838744503,-100.76371765136719,34.48124694824219,244.82786560058594
2997.616,-2.506697654724121,-158.85874938964844,-107.92688751220703,-0.8962133526802063,-0.5003873109817505,0.51393061876297,-48.598880767822266,45.05804443359375,-171.406005859375,36.187740325927734,35.29072189331055,-3.8636155128479004,-0.9993735551834106,-0.03125312551856041,-0.050024643540382385,-151.83546447753906,82.577880859375,70.96202087402344,192.0692553191372,1.147915726617565,50.694330318871785,1.0011127437086946,-103.2365837097168,37.51983642578125,242.36802673339844
3021.124,2.7997329235076904,-158.74093627929688,-107.266845703125,-0.8364382386207581,-0.5550393462181091,0.5154066681861877,-47.662540435791016,41.38907241821289,-171.26979064941406,36.500205993652344,45.115753173828125,-3.817917585372925,-0.9967367649078369,-0.04170973598957062,-0.04940441995859146,-153.53463745117188,81.77323150634766,68.5457534790039,191.60558327556322,1.128424404418838,58.15731008832455,0.9988316561396645,-105.87209701538086,40.384159088134766,239.81554412841797
3030.984,2.7052571773529053,-160.68939208984375,-105.67793273925781,-0.7895731925964355,-0.5358499884605408,0.580105185508728,-46.835838317871094,37.7132568359375,-169.78240966796875,30.20343780517578,47.44963836669922,-3.5198850631713867,-1.0325748920440674,0.0008751307614147663,-0.0574783980846405,-155.28012084960938,80.93626403808594,66.20758819580078,192.34402671942337,1.116728732886463,56.35694657484198,1.0341737957326338,-108.44428253173828,43.22300720214844,235.98999786376953
3060.189,0.018557138741016388,-159.085693359375,-107.4058609008789,-0.7769574522972107,-0.5787619352340698,0.5815460681915283,-46.228599548339844,34.03985595703125,-167.61058044433594,23.834733963012695,53.88052749633789,-3.5763754844665527,-1.0145642757415771,-0.02065439149737358,-0.11556689441204071,-157.07498168945312,79.94369506835938,63.96807861328125,191.94863149254135,1.1299664109101137,59.025386470374826,1.021333922173939,-110.84638214111328,45.903839111328125,231.5786590576172
3070.645,4.056277275085449,-159.1482696533203,-107.5699462890625,-0.7189057469367981,-0.5967760682106018,0.5888354778289795,-45.6580810546875,30.36542510986328,-165.5353546142578,17.802167892456055,46.78894805908203,4.987306118011475,-0.8643832802772522,-0.0459945984184742,-0.10873238742351532,-159.0868377685547,79.13477325439453,61.61824035644531,192.1351567610939,1.1043977401813818,50.309005798777456,0.8724085570312552,-113.42875671386719,48.76934814453125,227.15359497070312
3092.52,19.74884033203125,-163.03024291992188,-105.46392822265625,-0.7045581340789795,-0.6218886375427246,0.5873850584030151,-44.823753356933594,26.605215072631836,-163.4525146484375,10.536416053771973,60.838951110839844,15.512422561645508,-0.8339660167694092,-0.05118922144174576,-0.14857792854309082,-162.3107147216797,78.08963775634766,58.1692008972168,195.17048177719496,1.1082277963653109,63.663406202122054,0.8486430665292696,-117.4869613647461,51.48442268371582,221.6217155456543
3118.828,14.053032875061035,-164.56680297851562,-106.85256958007812,-0.6473804116249084,-0.5854446887969971,0.6144610047340393,-44.19033432006836,22.761089324951172,-161.45147705078125,1.9532238245010376,60.041954040527344,14.130826950073242,-0.9962781667709351,-0.06516074389219284,-0.1822810024023056,-164.98171997070312,77.02497100830078,55.44503402709961,196.71601867011887,1.0674311253355009,61.713301634301764,1.014910080729238,-120.79138565063477,54.26388168334961,216.89651107788086
3129.915,3.9872758388519287,-164.66372680664062,-108.4116439819336,-0.5408415794372559,-0.6122972965240479,0.6169236898422241,-43.8397331237793,18.887699127197266,-159.5323944091797,3.8654797077178955,45.14362335205078,-3.4756150245666504,-1.2241650819778442,-0.0011317785829305649,-0.22906842827796936,-165.68870544433594,76.16285705566406,54.68791961669922,197.18804691292164,1.0237247835562975,45.441925163020954,1.2454130935919705,-121.84897232055664,57.2751579284668,214.2203140258789
3154.8509999999997,4.850040435791016,-163.19741821289062,-107.47431945800781,-0.49545174837112427,-0.6592638492584229,0.6555966734886169,-43.53573226928711,15.044846534729004,-157.65724182128906,9.50280475616455,23.36127281188965,-9.34959888458252,-1.091205358505249,-0.03984405845403671,-0.17825253307819366,-165.24966430664062,75.70735168457031,54.943641662597656,195.46777111980342,1.053521834701292,26.897348659819702,1.1063863018735591,-121.71393203735352,60.66250514984131,212.60088348388672
3178.049,10.07223892211914,-165.35513305664062,-104.84583282470703,-0.37242043018341064,-0.5811201930046082,0.6378955841064453,-43.16051483154297,11.245172500610352,-155.74810791015625,5.537569046020508,11.427657127380371,-6.239869117736816,-1.0138550996780396,-0.07907330244779587,-0.22195562720298767,-164.85537719726562,75.46761322021484,55.23308181762695,196.05208156454242,0.9398448977135604,14.148921689192344,1.040874176233727,-121.69486236572266,64.22244071960449,210.9811897277832
3190.0339999999997,-0.44721513986587524,-165.0687255859375,-102.59209442138672,-0.31269946694374084,-0.6355166435241699,0.6649090647697449,-43.04917907714844,7.485544681549072,-153.83944702148438,3.655566453933716,0.9074596166610718,-6.294594764709473,-1.033562183380127,-0.09699198603630066,-0.17937524616718292,-164.2327423095703,75.45429229736328,55.79514694213867,194.35282865374919,0.9714764151723413,7.335432659830236,1.0534864551603398,-121.18356323242188,67.96874761581421,209.63459396362305
3214.795,-5.544424057006836,-164.55108642578125,-100.8233642578125,-0.2683987021446228,-0.6204677224159241,0.6616780161857605,-43.09003829956055,3.7067785263061523,-151.9179229736328,-1.4269018173217773,-27.365455627441406,0.020386047661304474,-0.9948896765708923,-0.12910166382789612,-0.15089967846870422,-163.57716369628906,76.0030746459961,56.49891662597656,193.0625584164169,0.945957639102537,27.402639035039673,1.0145163483711952,-120.48712539672852,72.29629611968994,208.41683959960938
3234.968,8.120096206665039,-163.03782653808594,-96.75480651855469,-0.1712024211883545,-0.6309794187545776,0.6311213970184326,-42.9201774597168,0.0677998811006546,-149.9640655517578,3.615089178085327,-25.638498306274414,-0.8482145071029663,-1.0534043312072754,0.001665912102907896,-0.21366751194000244,-162.9772186279297,76.51998138427734,57.05363082885742,189.7597465984592,0.9087131085700907,25.906001872469737,1.0748568583434785,-120.05704116821289,76.45218150317669,207.01769638061523
3259.926,16.334651947021484,-165.9156951904297,-93.35726928710938,-0.1286831796169281,-0.5791484117507935,0.6792201399803162,-42.62209701538086,-3.590681791305542,-147.9377899169922,-1.1650195121765137,-16.39256477355957,1.6803500652313232,-0.9331744313240051,-0.024324525147676468,-0.19917739927768707,-162.82186889648438,76.8587417602539,57.244346618652344,191.07699624366026,0.9018382571751264,16.519595232959585,0.9545039749438257,-120.19977188110352,80.44942355155945,205.18213653564453
3270.681,2.5569558143615723,-163.3220672607422,-95.53385162353516,-0.0740724429488182,-0.5700127482414246,0.677666187286377,-42.649227142333984,-7.261735439300537,-145.9859619140625,-7.543490886688232,-21.306249618530273,2.0572192668914795,-1.010445475578308,-0.012348460964858532,-0.18659159541130066,-162.7029571533203,77.3080825805664,57.52957534790039,189.22830782783697,0.888612807331406,22.69565329918351,1.027603506749081,-120.05373001098633,84.56981801986694,203.5155372619629
3293.0730000000003,11.580434799194336,-160.4379425048828,-91.03518676757812,-0.001272827386856079,-0.6065104007720947,0.5941962003707886,-42.569339752197266,-10.812995910644531,-143.99546813964844,-12.622016906738281,-8.56042766571045,4.498349189758301,-1.017691731452942,-0.07121453434228897,-0.23018771409988403,-163.11317443847656,77.49243927001953,57.36833953857422,184.82923225276434,0.8490733836773863,15.900672251412738,1.0458271147239422,-120.5438346862793,88.30543518066406,201.36380767822266
3317.6420000000003,23.254318237304688,-159.29444885253906,-84.51254272460938,0.10739604383707047,-0.539717972278595,0.6030318140983582,-42.305057525634766,-14.256094932556152,-141.9279022216797,-11.852681159973145,-2.1279032230377197,4.206015586853027,-0.9891903400421143,-0.033625662326812744,-0.2001190483570099,-163.72442626953125,77.56804656982422,56.98789978027344,181.8181911407518,0.8163802843326932,12.755570936788649,1.0097900016908792,-121.41936874389648,91.82414150238037,198.91580200195312
3338.896,21.032695770263672,-157.56851196289062,-80.18334197998047,0.13751789927482605,-0.5557353496551514,0.6078445315361023,-42.16222381591797,-17.605438232421875,-139.81300354003906,-17.31661033630371,0.3420755863189697,7.262274265289307,-1.079893708229065,-0.05158784240484238,-0.17883805930614471,-164.7103729248047,77.62848663330078,56.33173751831055,178.0437546914875,0.8350017520913583,18.78091149945655,1.0958169454854656,-122.54814910888672,95.23392486572266,196.1447410583496
3362.193,23.70608901977539,-155.6178741455078,-73.65363311767578,0.1973564773797989,-0.5221319794654846,0.5914839506149292,-42.03252410888672,-20.851762771606445,-137.61761474609375,-25.214921951293945,4.36307954788208,4.308950424194336,-1.0013595819473267,-0.017390115186572075,-0.24197085201740265,-165.8083038330078,77.55640411376953,55.727508544921875,173.79228717527658,0.8132801774169541,25.949871019123712,1.0303268033444315,-123.7757797241211,98.40816688537598,193.34512329101562
3370.8680000000004,31.199262619018555,-154.5093994140625,-65.17020416259766,0.252235472202301,-0.5007256269454956,0.576065719127655,-41.85993957519531,-23.983604431152344,-135.29029846191406,-28.60084342956543,11.331607818603516,9.263561248779297,-0.9942576289176941,-0.07298175245523453,-0.2435377538204193,-167.38638305664062,77.36058044433594,54.691802978515625,170.56876620841064,0.8038660334105053,32.128292012602195,1.0262481212593606,-125.52644348144531,101.34418487548828,189.9821014404297
3395.2110000000002,29.977001190185547,-148.82669067382812,-60.48665237426758,0.3296031057834625,-0.5114781260490417,0.4515811502933502,-41.84880447387695,-27.012863159179688,-132.9158935546875,-32.1905517578125,30.481361389160156,9.908087730407715,-1.0132474899291992,-0.055585458874702454,-0.30709365010261536,-169.41856384277344,76.75827026367188,53.262245178222656,163.42166188337822,0.7577424470550724,45.42593110859088,1.0602201323402047,-127.56975936889648,103.77113342285156,186.17813873291016
3414.654,29.930234909057617,-142.88206481933594,-56.78157043457031,0.39901259541511536,-0.45486849546432495,0.48990926146507263,-41.84259796142578,-29.92415428161621,-130.5589599609375,-32.535457611083984,38.96630859375,10.830192565917969,-0.9341546893119812,-0.024899039417505264,-0.2495233118534088,-171.51766967773438,76.00822448730469,51.76850891113281,156.63732042449,0.7785418960692726,51.905898300683155,0.9672263586595291,-129.6750717163086,105.9323787689209,182.3274688720703
3437.357,33.363380432128906,-134.2667236328125,-52.4329833984375,0.4239797592163086,-0.48318392038345337,0.45789799094200134,-41.84054946899414,-32.63888931274414,-128.20761108398438,-36.48835372924805,57.22412109375,-1.6534802913665771,-0.935013473033905,-0.04929422587156296,-0.33187592029571533,-172.71612548828125,74.81236267089844,51.27833557128906,147.95230980626775,0.7892376747539132,67.88765712481785,0.9933890184269855,-130.8755760192871,107.45125198364258,179.48594665527344
3462.583,35.39703369140625,-123.74307250976562,-46.81437683105469,0.4305969178676605,-0.4371258318424225,0.38084498047828674,-41.84641647338867,-35.13650894165039,-125.87522888183594,-33.358787536621094,65.34911346435547,6.926756858825684,-0.955098032951355,-0.009549489244818687,-0.3736056983470917,-174.42884826660156,73.4807357788086,50.18907928466797,136.95577339560262,0.7221742156132169,73.69732218386174,1.0256142857477184,-132.5824317932129,108.61724472045898,176.0643081665039
3472.833,37.915653228759766,-112.12870025634766,-41.27762985229492,0.5400980710983276,-0.43770870566368103,0.3884230852127075,-41.78923797607422,-37.41381072998047,-123.60808563232422,-37.390316009521484,74.21428680419922,16.204580307006836,-0.9217175245285034,-0.02562669664621353,-0.3276079297065735,-176.5885467529297,71.99650573730469,48.75286865234375,125.3566308863017,0.7963462378539045,84.66631278184997,0.9785432428925032,-134.79930877685547,109.41031646728516,172.36095428466797
3494.404,36.224002838134766,-96.41645812988281,-36.3812255859375,0.5265516638755798,-0.43000614643096924,0.3155263066291809,-41.66481018066406,-39.343544006347656,-121.51148986816406,-44.847686767578125,76.9136962890625,3.0111372470855713,-0.9104640483856201,-0.022283803671598434,-0.3894082009792328,-177.87335205078125,70.41381072998047,48.3502082824707,109.23326121224942,0.749479012964076,89.0847833963227,0.9904948754530181,-136.2085418701172,109.75735473632812,169.86169815063477
3517.2729999999997,36.678977966308594,-77.82466888427734,-30.72658348083496,0.6001513600349426,-0.4297526180744171,0.23990626633167267,-41.41547393798828,-40.91545104980469,-119.90680694580078,-49.26681137084961,68.78450012207031,5.388735771179199,-0.7964003682136536,-0.061931122094392776,-0.4146048426628113,-179.1763916015625,68.99126434326172,47.999446868896484,91.35726267793424,0.7761597672636804,84.77950597228998,0.8999923254862611,-137.76091766357422,109.9067153930664,167.90625381469727
3542.154,32.035831451416016,-54.3448371887207,-24.677839279174805,0.7061929106712341,-0.34474512934684753,0.09928875416517258,-41.08174133300781,-42.05775451660156,-118.87804412841797,-47.42524337768555,50.92103576660156,7.403080940246582,-0.8016707301139832,-0.0634310394525528,-0.4104671776294708,179.59689331054688,67.91544342041016,47.70680236816406,67.73958648634401,0.7920958830813075,69.97793366757884,0.9028747201016438,220.6786346435547,109.97319793701172,166.58484649658203
3550.855,18.210859298706055,-23.003564834594727,-9.494531631469727,0.792131245136261,-0.3087628483772278,-0.00909780990332365,-40.862220764160156,-42.52946090698242,-118.09700012207031,-28.667173385620117,23.81182289123535,5.210511207580566,-0.8502983450889587,-0.024469301104545593,-0.40628206729888916,178.83360290527344,67.40486907958984,47.49266815185547,30.837404598922575,0.8502288963591976,37.62923286979272,0.9426935560224362,219.6958236694336,109.93432998657227,165.58966827392578
3575.745,-3.2563061714172363,12.714085578918457,-1.390750527381897,0.6928164958953857,-0.31275928020477295,0.05768279358744621,-40.7562370300293,-42.35508728027344,-117.81537628173828,-6.449108600616455,-11.989269256591797,11.818212509155273,-0.8081784248352051,0.0035932220052927732,-0.40475717186927795,178.13063049316406,67.59806060791016,46.868892669677734,13.197942605553536,0.76232563187592,18.027859716592996,0.9038770081117833,218.88686752319336,109.9531478881836,164.68426895141602
3604.1020000000003,-16.7941837310791,46.22692108154297,-0.6846866011619568,0.5893419981002808,-0.34478437900543213,0.22818633913993835,-40.556888580322266,-41.680938720703125,-118.09648895263672,16.281557083129883,-12.918124198913574,20.748973846435547,-0.7381817102432251,0.030790451914072037,-0.4412943422794342,177.40191650390625,67.78005981445312,45.731475830078125,49.187819992496664,0.719909205456549,29.368128124717785,0.8605817717070958,217.95880508422852,109.46099853515625,163.82796478271484
3614.2219999999998,-18.736862182617188,71.83937072753906,3.8627681732177734,0.5211263298988342,-0.3746892511844635,0.2782299220561981,-40.19120788574219,-40.55067825317383,-118.69253540039062,27.99740219116211,-5.972658634185791,25.79055404663086,-0.7579449415206909,-0.00720193050801754,-0.45610857009887695,176.72882080078125,67.79782104492188,44.39180374145508,74.34303039921907,0.6995545555526035,38.53154368366768,0.8846284134581526,216.92002868652344,108.3484992980957,163.0843391418457
3634.257,-17.17559814453125,90.60155487060547,15.819995880126953,0.5874605774879456,-0.3516269326210022,0.320490300655365,-39.782222747802734,-38.98070526123047,-119.3191909790039,33.613616943359375,-4.129697799682617,23.417957305908203,-0.8599169254302979,-0.06055476889014244,-0.420888751745224,176.38047790527344,67.81499481201172,43.26726150512695,93.56235987960646,0.7559533468813348,41.174389762483905,0.95930773999926,216.16270065307617,106.79570007324219,162.58645248413086
3649.495,-17.992908477783203,103.08613586425781,33.90796661376953,0.5599533915519714,-0.3326309621334076,0.35808321833610535,-39.5289192199707,-37.005191802978516,-119.76555633544922,38.91710662841797,-21.3100643157959,10.104649543762207,-0.8940898180007935,-0.10916649550199509,-0.40229523181915283,176.80564880371094,68.21116638183594,42.854801177978516,110.00111982518456,0.7432460890810626,45.50564769205318,0.9864863810196799,216.33456802368164,105.21635818481445,162.62035751342773
3672.926,-30.476463317871094,113.13346862792969,46.438629150390625,0.5366445183753967,-0.3299594819545746,0.32746678590774536,-39.61259078979492,-34.6699333190918,-120.08900451660156,49.745052337646484,-38.55451583862305,-9.196571350097656,-0.9481991529464722,-0.1156034991145134,-0.3867892622947693,178.38751220703125,68.9857406616211,43.45786666870117,126.03389551037372,0.7099965455597949,63.605014332387825,1.0305589435265012,218.00010299682617,103.65567398071289,163.54687118530273
3694.293,-36.542076110839844,124.10990142822266,59.771141052246094,0.5155062079429626,-0.3537418246269226,0.4626590609550476,-39.87751007080078,-32.05135726928711,-120.33613586425781,63.06520080566406,-46.89582061767578,-18.41461944580078,-0.9310570955276489,-0.05425736680626869,-0.3857879936695099,-179.29510498046875,69.9103012084961,44.57662582397461,142.51729811395197,0.77777460462651,80.71886863303784,1.0092787291153407,-139.41759490966797,101.9616584777832,164.91276168823242
3718.036,-11.725811958312988,127.75175476074219,74.44683837890625,0.46806833148002625,-0.42070481181144714,0.42941296100616455,-39.816505432128906,-29.16559600830078,-120.06043243408203,66.92599487304688,-71.6981201171875,-15.077157020568848,-1.0480583906173706,-0.00115491496399045,-0.40533921122550964,-176.9862060546875,71.32125854492188,45.611732482910156,148.32510662441985,0.7618897510111832,99.23220183946657,1.1237115288760569,-137.1697006225586,100.48685455322266,165.6721649169922
3732.521,-6.941251754760742,135.6210479736328,82.00011444091797,0.4687303900718689,-0.35288238525390625,0.30881088972091675,-39.704673767089844,-26.032901763916016,-119.44892120361328,65.63326263427734,-67.4020767211914,-26.571184158325195,-0.986486554145813,0.030742721632122993,-0.3058224320411682,-173.81495666503906,72.63622283935547,47.58110046386719,158.63564668041363,0.6630221127606808,97.75885094417298,1.0332609527043035,-134.11028289794922,98.66912460327148,167.03002166748047
3753.299,-30.576889038085938,148.1481170654297,84.2453842163086,0.38450828194618225,-0.3298223316669464,0.541486918926239,-40.03691482543945,-22.70233917236328,-118.9678726196289,44.432987213134766,-45.00102996826172,-28.09601402282715,-1.0409168004989624,0.09432832896709442,-0.18479818105697632,-170.8236846923828,73.47370910644531,49.795074462890625,173.1476118663874,0.7415102647432855,69.20093247101434,1.061393417601922,-130.78676986694336,96.1760482788086,168.76294708251953
3774.537,-23.757104873657227,160.47764587402344,96.74311065673828,0.2586609125137329,-0.5425570607185364,0.5700242519378662,-40.30352783203125,-18.995031356811523,-118.45211029052734,16.226999282836914,-31.15243911743164,-16.705347061157227,-1.077881097793579,0.029647652059793472,-0.19359108805656433,-169.0955352783203,74.08362579345703,51.269309997558594,188.88277930184194,0.8283726695125199,38.89548288843049,1.095529166032687,-128.79200744628906,93.07865715026855,169.72142028808594
3798.593,24.454069137573242,161.3513641357422,104.82485961914062,0.14401958882808685,-0.5886129140853882,0.5582482814788818,-39.67051696777344,-15.160260200500488,-117.79761505126953,-12.096721649169922,-34.97515869140625,-9.605385780334473,-1.1189433336257935,-0.0834842324256897,-0.27682551741600037,-168.12155151367188,74.74596405029297,52.53184509277344,193.96008713140603,0.8239222951033845,38.234223362526905,1.1556972648673816,-128.45103454589844,89.90622425079346,170.32946014404297
3819.36,8.428297996520996,161.17442321777344,104.44348907470703,0.07459824532270432,-0.370139479637146,0.502467155456543,-39.36937713623047,-11.334213256835938,-117.10582733154297,-6.79748010635376,-35.87495040893555,-26.2567138671875,-0.9759982824325562,0.038590557873249054,-0.11419326066970825,-165.78062438964844,75.36542510986328,55.104034423828125,192.24118527724113,0.6285231697430679,44.973690372741444,0.9834134325148544,-126.41124725341797,86.69963836669922,172.2098617553711
3829.366,-40.951942443847656,171.55810546875,100.31120300292969,0.07574202120304108,-0.44878363609313965,0.6586483120918274,-40.0787239074707,-7.388024806976318,-116.61353302001953,-14.5839262008667,-41.21302032470703,-31.973432540893555,-1.0369404554367065,0.07738897949457169,-0.04865384101867676,-162.80068969726562,75.9876480102539,58.489097595214844,202.9078179613736,0.8006005276180592,54.161834682404475,1.0409619390325306,-122.72196578979492,83.37567281723022,175.10263061523438
3853.253,-35.229766845703125,177.66421508789062,101.27149963378906,-0.12641075253486633,-0.735181450843811,0.8370345234870911,-40.705162048339844,-3.37117600440979,-116.23592376708984,-39.00139617919922,-52.20233917236328,-22.790081024169922,-0.935465931892395,0.019313864409923553,-0.1760789006948471,-160.61068725585938,76.86450958251953,61.56353759765625,207.51295485553524,1.1212039232586122,69.0331870340747,0.9520889214562145,-119.90552520751953,80.23568558692932,177.7994613647461
3874.6749999999997,21.42145347595215,163.0144805908203,109.97041320800781,-0.20035383105278015,-0.6752040982246399,0.6817764043807983,-40.25736618041992,0.532612144947052,-115.54168701171875,-42.64577102661133,-24.738365173339844,-16.763832092285156,-0.8609374761581421,-0.11783700436353683,-0.27907347679138184,-159.33543395996094,77.16533660888672,63.75020980834961,197.80316310023278,0.9802353275858227,52.07374160094515,0.9126778746629906,-119.07806777954102,76.63272446393967,179.29189682006836
3896.646,12.472596168518066,160.21412658691406,105.19830322265625,-0.1377444863319397,-0.49807506799697876,0.6045467257499695,-40.03902816772461,4.3848652839660645,-114.84851837158203,-31.083843231201172,-16.51453399658203,-17.920989990234375,-0.9663548469543457,0.02274700254201889,-0.129376620054245,-158.12295532226562,77.39228820800781,65.64305114746094,192.06981807175376,0.7953169559930517,39.49806356489183,0.9752422397401909,-118.08392715454102,73.00742292404175,180.49156951904297
3919.587,-19.887805938720703,169.2700958251953,101.52006530761719,-0.19974052906036377,-0.6126470565795898,0.7992489337921143,-40.47618103027344,8.327516555786133,-114.33798217773438,-36.05790710449219,-5.008080959320068,-8.105247497558594,-0.9774234890937805,-0.0010571889579296112,-0.20534366369247437,-158.20645141601562,77.44066619873047,66.30713653564453,198.37896517975355,1.026660388372309,37.29542299864653,0.9987611400627281,-117.73027038574219,69.11314964294434,180.6451187133789
3929.514,-8.542887687683105,166.11752319335938,101.57090759277344,-0.442793607711792,-0.8523672819137573,0.875623881816864,-40.76481246948242,12.206625938415527,-113.83157348632812,-39.0978889465332,15.326178550720215,-10.923238754272461,-1.010353684425354,-0.18599453568458557,-0.2479184865951538,-158.39385986328125,77.03533935546875,66.9044418334961,194.89654104462804,1.2997358749821075,43.39186345303506,1.056821702526989,-117.62904739379883,64.82871341705322,180.73601531982422
3955.7509999999997,33.1185417175293,147.94137573242188,101.02604675292969,-0.4241383671760559,-0.5542386174201965,0.7640085220336914,-40.18682098388672,15.781964302062988,-113.07708740234375,-25.278751373291016,20.202054977416992,-5.597371578216553,-0.9546539783477783,-0.22960759699344635,-0.14848269522190094,-158.9488983154297,76.60101318359375,66.84361267089844,182.18054391625492,1.0347863650487126,32.84004970897376,0.9930412769632012,-118.76207733154297,60.81904888153076,179.9207000732422
3979.662,-1.2814209461212158,152.22254943847656,97.38148498535156,-0.3231982886791229,-0.5347534418106079,0.6068888902664185,-40.37181854248047,19.406494140625,-112.43534851074219,-18.49842643737793,5.584377288818359,-6.820151329040527,-1.0006401538848877,-0.041359368711709976,-0.18839187920093536,-159.0193634033203,76.47394561767578,67.15464782714844,180.71109599341943,0.8710525256620348,20.49125458613909,1.0190597701292416,-118.64754486083984,57.06745147705078,179.58999633789062
3998.308,-41.587039947509766,156.70126342773438,90.76200866699219,-0.5356807708740234,-0.7072160840034485,0.7342656254768372,-41.49220657348633,23.029754638671875,-112.02772521972656,-22.335121154785156,-0.02107676863670349,2.5686211585998535,-1.1019477844238281,0.04539203643798828,-0.13693290948867798,-159.80355834960938,76.5345230102539,66.8148193359375,185.80234139727932,1.151631228525109,22.48234631628813,1.1113505199844043,-118.31135177612305,53.50476837158203,178.84254455566406
4020.2410000000004,-10.15833568572998,147.0228729248047,92.28914642333984,-0.6679944396018982,-0.7166351675987244,0.8721421957015991,-41.93854522705078,26.512460708618164,-111.80107879638672,-29.8187255859375,4.455718040466309,2.9888763427734375,-0.9639407396316528,-0.1263096034526825,-0.2392416000366211,-160.74546813964844,76.4682388305664,66.45760345458984,173.8856046213024,1.3116457388721667,30.297577471110976,1.0011855016100035,-118.80692291259766,49.95577812194824,178.25868225097656
4029.371,19.604782104492188,134.1375732421875,91.63128662109375,-0.5828018188476562,-0.5642282962799072,0.590683102607727,-41.789615631103516,29.809186935424805,-111.14479064941406,-21.113916397094727,24.013269424438477,-5.039961338043213,-0.8508482575416565,-0.2873057723045349,-0.20368853211402893,-161.3794403076172,75.97529602050781,66.234619140625,163.6261859376575,1.0034530672041189,32.37029169413133,0.9208563309637101,-119.58982467651367,46.16610908508301,177.37940979003906
4059.255,-4.383060455322266,142.2890625,84.32173919677734,-0.561862587928772,-0.5605362057685852,0.5368859767913818,-42.299903869628906,33.08451843261719,-111.9178466796875,-5.994146347045898,10.023191452026367,4.002624034881592,-1.0444904565811157,-0.04555295407772064,-0.22238893806934357,-162.101806640625,75.82904815673828,65.71166229248047,165.45556571857367,0.9581946345950257,12.345653343520945,1.0688742794593968,-119.8019027709961,42.744529724121094,177.62950897216797
4071.5690000000004,-25.184490203857422,144.78732299804688,79.44386291503906,-0.7759281992912292,-0.6912742257118225,0.8138571381568909,-43.330360412597656,36.30390930175781,-111.73245239257812,-4.662609100341797,-7.471321105957031,2.103954315185547,-1.1345874071121216,0.04901808500289917,-0.13013507425785065,-162.2467498779297,76.02455139160156,65.75851440429688,167.05973423489115,1.3199576004242461,9.054677600627038,1.1430776415392154,-118.91638946533203,39.72064208984375,177.490966796875
4094.947,0.28085166215896606,129.91534423828125,79.41158294677734,-0.8514612317085266,-0.6504065990447998,0.675012469291687,-43.832942962646484,39.32802963256836,-113.40958404541016,-19.72071647644043,-16.390689849853516,4.1231689453125,-0.9270156025886536,-0.13526585698127747,-0.1942465752363205,-162.37973022460938,76.36402893066406,66.11308288574219,152.26383369769775,1.2663557189363837,25.97232939591344,0.9567583349512684,-118.54678726196289,37.0359992980957,179.52266693115234
4114.054,16.839702606201172,124.43701171875,74.45497131347656,-0.7734224796295166,-0.543978750705719,0.4697776138782501,-44.1086540222168,42.21916580200195,-114.01883697509766,-17.12664794921875,-20.71780014038086,8.072891235351562,-0.8422667384147644,-0.12971335649490356,-0.3047601282596588,-162.77798461914062,76.75953674316406,66.14730072021484,145.98523289239992,1.0558343713465512,28.066365734292354,0.9050511307489002,-118.66933059692383,34.54037094116211,180.1661376953125
4128.999000000001,-0.3362921476364136,127.38163757324219,69.46002960205078,-0.771731436252594,-0.5257659554481506,0.49105313420295715,-44.906646728515625,45.04792404174805,-116.28289794921875,-2.209245204925537,-26.467567443847656,8.267217636108398,-1.0245747566223145,-0.10144560039043427,-0.20627401769161224,-162.73916625976562,77.32190704345703,66.23100280761719,145.08924975878523,1.0550509135673718,27.81653785453705,1.0500445762542132,-117.83251953125,32.273983001708984,182.51390075683594
4152.501,-19.586252212524414,121.37198638916016,66.4943618774414,-0.997832179069519,-0.6390774250030518,0.6440075635910034,-46.138458251953125,47.7138671875,-118.58777618408203,-6.957178115844727,-36.464805603027344,0.19560593366622925,-1.0846705436706543,-0.04202517122030258,-0.13568460941314697,-161.89308166503906,78.06988525390625,67.24618530273438,139.77224516073005,1.3486418185335853,37.12307418147706,1.093931723899845,-115.75462341308594,30.35601806640625,185.8339614868164
4169.0199999999995,2.022916078567505,109.80421447753906,63.2227897644043,-0.8795151114463806,-0.5031484365463257,0.5427327156066895,-46.89835739135742,50.153480529785156,-120.80953979492188,-20.89548110961914,-36.23276138305664,5.922664165496826,-0.9662487506866455,-0.1236787810921669,-0.24925415217876434,-161.6462860107422,78.7574462890625,67.97189331054688,126.72086983636275,1.1494624748339386,42.243485640524874,1.0055151522847887,-114.74792861938477,28.603965759277344,188.78143310546875
4192.581999999999,-1.6570543050765991,110.9588623046875,57.80586242675781,-0.9274795651435852,-0.5281738042831421,0.3590645492076874,-48.080440521240234,52.549842834472656,-123.38490295410156,-14.469255447387695,-36.093502044677734,9.504515647888184,-0.9524958729743958,-0.12676440179347992,-0.25608012080192566,-161.57298278808594,79.45198059082031,68.43878173828125,125.12446876539306,1.1261053511051178,40.03043917760416,0.9944318125770333,-113.4925422668457,26.902137756347656,191.8236846923828
4213.896,-0.4492921233177185,113.52375793457031,52.1622428894043,-0.8613061904907227,-0.4643440842628479,0.42643457651138306,-49.47075271606445,54.83394241333008,-126.24437713623047,-2.1010348796844482,-37.506629943847656,7.728799819946289,-1.0362406969070435,-0.02716040425002575,-0.1370680034160614,-161.15623474121094,80.2451400756836,68.937255859375,124.93496332993499,1.0673847621228187,38.35226178424399,1.0456194848250895,-111.68548202514648,25.411197662353516,195.18163299560547
4229.411,-10.009373664855957,108.5038833618164,53.60451126098633,-1.0033951997756958,-0.5301681756973267,0.5760746002197266,-51.04384231567383,57.01076126098633,-128.64649963378906,-10.297846794128418,-38.252830505371094,10.077974319458008,-1.0566058158874512,-0.0498831644654274,-0.10313808917999268,-160.9699249267578,81.0751953125,69.42762756347656,121.43608974800935,1.272690915530341,40.87652451776747,1.062798967681081,-109.92608261108398,24.064434051513672,198.07412719726562
4252.262,11.5684175491333,96.22875213623047,51.357666015625,-0.9990072846412659,-0.4725787043571472,0.3722967505455017,-52.21251678466797,59.021217346191406,-131.0064697265625,-15.312652587890625,-38.68586730957031,13.098954200744629,-0.9490156769752502,-0.06344418227672577,-0.20079901814460754,-161.27828979492188,81.86225128173828,69.52743530273438,109.68778820297024,1.1661693946613993,43.6194481845463,0.9720988453328157,-109.0657730102539,22.841033935546875,200.53390502929688
4273.827,13.805582046508789,92.22906494140625,43.18556594848633,-0.9782299399375916,-0.38680166006088257,0.20478816330432892,-53.64324188232422,60.87591552734375,-133.67288208007812,-18.453819274902344,-32.39487075805664,11.105321884155273,-0.8917019963264465,-0.0756969079375267,-0.22269819676876068,-161.67694091796875,82.487060546875,69.58113098144531,102.77055814726356,1.0716751053587645,38.90114743054051,0.9222022332264925,-108.03369903564453,21.61114501953125,203.25401306152344
4296.537,5.222246170043945,93.0858154296875,38.37141418457031,-0.9854744076728821,-0.38375070691108704,0.24332967400550842,-55.56355667114258,62.6180419921875,-136.52841186523438,-15.709066390991211,-29.01118278503418,10.939785957336426,-0.9841829538345337,-0.023961374536156654,-0.16519270837306976,-162.34457397460938,83.09444427490234,69.30159759521484,100.8196722658541,1.0851883447054727,34.75776762474208,0.998237879960363,-106.7810173034668,20.476402282714844,205.83000946044922
4318.751,-2.813358783721924,89.50981140136719,39.01921844482422,-1.0197299718856812,-0.40932542085647583,0.3335956037044525,-57.693450927734375,64.24928283691406,-139.64276123046875,-21.412723541259766,-23.82942008972168,3.7751879692077637,-1.0339059829711914,-0.10117234289646149,-0.13559727370738983,-161.89598083496094,83.55968475341797,70.25242614746094,97.68531482673933,1.148339036405295,32.25830180697214,1.0476564538185509,-104.20252990722656,19.310401916503906,209.8951873779297
4331.755,7.3300933837890625,84.67730712890625,38.86288070678711,-1.0120904445648193,-0.4439205229282379,0.32700440287590027,-59.72901916503906,65.76007843017578,-142.62989807128906,-20.86980438232422,-23.09992027282715,4.690224647521973,-1.0237956047058105,-0.1169852465391159,-0.14467471837997437,-161.48904418945312,84.00386047363281,71.12689971923828,93.45747754165073,1.1525295563049642,31.48258659658816,1.0405641557641119,-101.76002502441406,18.24378204345703,213.75679779052734
4352.331999999999,23.705345153808594,78.47140502929688,37.932132720947266,-1.0048482418060303,-0.36260566115379333,0.20746754109859467,-61.54084777832031,67.20319366455078,-145.6855010986328,-7.591336250305176,-21.530786514282227,7.974457263946533,-0.9972679615020752,-0.05050772801041603,-0.14600199460983276,-161.78970336914062,84.44500732421875,71.02802276611328,90.32470032550738,1.0882305064511595,24.182537555916344,1.0091635150248588,-100.24885559082031,17.24181365966797,216.7135238647461
4375.195,23.331016540527344,76.26307678222656,32.37963104248047,-0.9782626628875732,-0.30651596188545227,0.14492586255073547,-63.68693923950195,68.51337432861328,-149.05384826660156,-3.382107734680176,-18.069686889648438,10.117607116699219,-0.9437685012817383,-0.011958031915128231,-0.12840527296066284,-162.89398193359375,84.84078979492188,70.02867889404297,86.07458230832903,1.0353518136974138,20.983760644526967,0.9525386567814264,-99.2070426940918,16.327415466308594,219.08252716064453
4394.967000000001,10.940176010131836,73.30059051513672,29.442291259765625,-1.0288721323013306,-0.34606504440307617,0.1130526065826416,-66.3584976196289,69.6846923828125,-152.68191528320312,-10.366615295410156,-14.72378158569336,8.504891395568848,-0.9608175754547119,-0.0008865332929417491,-0.1498335599899292,-164.25535583496094,85.14739227294922,68.90902709960938,79.74655187295113,1.091384337178759,19.914558356053384,0.9724306118912579,-97.89685821533203,15.462699890136719,221.5909423828125
4416.928000000001,6.497059345245361,69.45249938964844,27.709911346435547,-1.017699122428894,-0.36480289697647095,0.13363350927829742,-69.23795318603516,70.71452331542969,-156.427490234375,-17.778024673461914,-15.715022087097168,6.179108619689941,-1.0145165920257568,-0.06735864281654358,-0.12980619072914124,-164.83226013183594,85.46308898925781,68.72743225097656,75.05798184358592,1.0893349219762485,24.519409940332963,1.0250028045860424,-95.59430694580078,14.748565673828125,225.15492248535156
4438.767000000001,11.798766136169434,66.89635467529297,27.84641456604004,-0.9853387475013733,-0.356117844581604,0.1524246484041214,-72.11982727050781,71.65968322753906,-160.27426147460938,-14.264093399047852,-14.624805450439453,1.8649882078170776,-1.0101641416549683,-0.11279307305812836,-0.08929319679737091,-163.99058532714844,85.74632263183594,69.90035247802734,73.41495730001058,1.058747203065086,20.51407994464438,1.020356381569552,-91.87075805664062,14.086639404296875,230.17461395263672
4448.931,16.91421127319336,65.53517150878906,27.806955337524414,-0.9693313241004944,-0.3078608810901642,0.11121446639299393,-75.15079498291016,72.55868530273438,-164.3599395751953,-7.510557651519775,-17.551586151123047,3.1365156173706055,-0.998996376991272,-0.029681377112865448,-0.07053426653146744,-163.57315063476562,86.11676788330078,70.52152252197266,73.17223525917257,1.023108105491843,19.346947637162465,1.001923064982604,-88.42235565185547,13.558082580566406,234.88146209716797
4472.781,11.746688842773438,67.45110321044922,26.83022117614746,-0.9645407795906067,-0.28905579447746277,0.0725874975323677,-78.79427337646484,73.38777923583984,-168.95382690429688,-3.9646732807159424,-23.5633602142334,7.692351818084717,-1.0279260873794556,0.024928154423832893,-0.03405158221721649,-164.18954467773438,86.668212890625,70.0330581665039,73.53568379662083,1.009535097266194,25.102248012911744,1.0287919927029519,-85.39527130126953,13.280433654785156,238.98688507080078
4493.566000000001,8.763866424560547,67.59259796142578,26.198936462402344,-0.9966328740119934,-0.29191797971725464,0.07633502781391144,-82.84526062011719,74.11896514892578,-173.89109802246094,-6.727597236633301,-25.985931396484375,5.444362640380859,-1.0018956661224365,0.003438012208789587,-0.0292942076921463,-163.76226806640625,87.26132202148438,70.6679916381836,73.02019532734403,1.0413069811131395,27.389236566233883,1.0023297343325595,-80.91700744628906,13.142356872558594,244.55908966064453
4515.283,4.802191257476807,66.80197143554688,25.985841751098633,-1.001685619354248,-0.29280877113342285,0.0334114208817482,-87.3388671875,74.74639892578125,-179.19334411621094,-11.85670280456543,-26.821006774902344,3.763223171234131,-0.9982484579086304,-0.03373437374830246,-0.033296696841716766,-161.94178771972656,87.86925506591797,72.82023620605469,71.83890589410551,1.0441395402526934,29.56534549860124,0.9993731343746027,-74.60292053222656,13.122856140136719,252.01358032226562
4538.58,7.997078895568848,67.232421875,26.599075317382812,-1.0099724531173706,-0.31788238883018494,-0.003989469725638628,-92.18701934814453,75.26193237304688,175.08680725097656,-10.546364784240723,-27.90162467956543,2.5771026611328125,-1.0179938077926636,-0.04790250211954117,-0.03348991647362709,-157.9875030517578,88.52845764160156,77.12255859375,72.74381506203626,1.058824577091501,29.939404270085692,1.0196703471803668,-65.80048370361328,13.266525268554688,-97.96424865722656
4549.168,19.127796173095703,63.934181213378906,26.42448616027832,-1.0056395530700684,-0.2536616325378418,0.026297003030776978,-96.76728820800781,75.69709014892578,169.42491149902344,-2.4686496257781982,-24.686399459838867,0.5661635398864746,-0.9839099049568176,-0.05846450477838516,-0.03684529289603233,-150.59527587890625,89.1802749633789,84.7904281616211,71.77538284606644,1.0374712848503955,24.815984574855865,0.9863338050577554,-53.82798767089844,13.483184814453125,-84.63448333740234
4578.488,8.01622486114502,61.39655303955078,24.984832763671875,-0.9973219633102417,-0.17915856838226318,0.022909263148903847,-101.60142517089844,76.04061126708984,163.7501220703125,6.006365776062012,-23.431278228759766,1.8564367294311523,-0.9776347875595093,-0.009425841271877289,-0.029839858412742615,-140.47689819335938,90.0,95.14567565917969,66.76854389899081,1.0135451274925074,24.25999972382072,0.9781354923937184,-38.87547302246094,13.959388732910156,-68.60444641113281
4589.168,-7.841611862182617,63.725589752197266,24.194486618041992,-0.99568772315979,-0.22826799750328064,-0.01783786527812481,-107.12850952148438,76.20616912841797,157.6987762451172,-0.0605737566947937,-23.786752700805664,2.8174819946289062,-1.0037482976913452,0.045752741396427155,0.035532623529434204,-119.92604064941406,90.0,116.46961212158203,68.61351797257655,1.0216743660153977,23.95310998637429,1.0054185823817094,-12.797531127929688,13.793830871582031,-41.229164123535156
4613.873,-7.361660480499268,63.363040924072266,25.517850875854492,-1.0004298686981201,-0.25361907482147217,-0.006843135692179203,-112.6389389038086,76.25885009765625,151.64537048339844,-11.549825668334961,-21.372785568237305,-0.8499802350997925,-1.0051519870758057,0.015147379599511623,0.065819650888443,-80.1776351928711,90.0,156.1955108642578,68.70392793354794,1.032099503828356,24.308782411195388,1.0074185757043836,32.4613037109375,13.74114990234375,4.550140380859375
4628.6630000000005,-17.127756118774414,64.15314483642578,26.295400619506836,-0.9997389912605286,-0.2184133529663086,0.021918343380093575,-118.34211730957031,76.21367645263672,145.5912322998047,-19.14499282836914,-25.311992645263672,1.2590155601501465,-1.0122034549713135,-0.009037550538778305,0.07895494997501373,-42.53746795654297,90.0,-167.13014221191406,71.41732363935238,1.0235540323681658,31.761814215389023,1.0153183715963983,75.80464935302734,13.786323547363281,-312.72137451171875
4654.4439999999995,-27.829429626464844,67.00218963623047,25.25602912902832,-1.003584861755371,-0.2575857639312744,-0.0011671734973788261,-124.3027114868164,75.96087646484375,139.49427795410156,-6.966817855834961,-30.98270034790039,1.173974871635437,-1.0179696083068848,0.003988351672887802,0.09580357372760773,-23.369644165039062,89.30226135253906,-148.2978057861328,76.82211645581027,1.036115033583906,31.778018957817356,1.0224756012367826,100.93306732177734,13.341384887695312,-287.7920837402344
4673.459,-19.1855411529541,60.76441192626953,26.310558319091797,-1.043121099472046,-0.2747269868850708,0.04539359360933304,-129.74728393554688,75.64793395996094,133.76678466796875,-17.921720504760742,-35.06052017211914,2.057751178741455,-1.0083156824111938,0.04375918209552765,0.06891363114118576,-13.985067367553711,88.31134796142578,-138.69473266601562,68.93942431685511,1.0796467588185912,39.42920846915325,1.011614783388956,115.76221656799316,12.663414001464844,-272.4615173339844
4688.469999999999,-19.437164306640625,47.80227279663086,20.996402740478516,-1.0415558815002441,-0.24256205558776855,0.007893893867731094,-133.7967529296875,75.34530639648438,129.47134399414062,-16.18771743774414,-30.450883865356445,1.5751992464065552,-0.9843340516090393,-0.03611472249031067,-0.05870595574378967,-10.834183692932129,87.646728515625,-135.26478576660156,55.71094658006838,1.069456552955336,34.52216355751115,0.9867442361510964,122.96256923675537,12.301422119140625,-264.7361297607422
4714.394,-11.002691268920898,31.02932357788086,14.063689231872559,-1.0445901155471802,-0.2728644907474518,-0.07935206592082977,-136.14112854003906,75.11878204345703,126.75050354003906,0.6097092628479004,-22.95969581604004,0.9025362730026245,-0.9668641686439514,-0.06133907660841942,-0.18172599375247955,-8.900429725646973,87.14665222167969,-133.3834228515625,35.800356027150194,1.0825526731645168,22.98551607152588,0.9857043875990708,127.24069881439209,12.027870178222656,-260.13392639160156
4733.644,-1.3296548128128052,9.011441230773926,5.809863567352295,-1.0352063179016113,-0.2999945878982544,-0.035862039774656296,-136.8549346923828,75.06981658935547,125.53247833251953,1.0693312883377075,-3.9465529918670654,-0.9465315341949463,-0.92831951379776,-0.1242818534374237,-0.16426923871040344,-8.994245529174805,87.05828094482422,-133.54246520996094,10.804099668559896,1.0783946213183997,4.1969836629487025,0.9508982498553914,127.86068916320801,11.98846435546875,-259.07494354248047
4756.166,11.942668914794922,-10.732086181640625,-2.4593794345855713,-1.0654668807983398,-0.3416477143764496,0.03763700649142265,-135.92860412597656,75.19178009033203,125.74788665771484,11.785038948059082,17.946762084960938,-5.8979573249816895,-0.9594485759735107,-0.15626926720142365,-0.20578213036060333,-12.205086708068848,87.4227523803711,-137.0302734375,16.243569860773615,1.119535340699181,22.26565321181407,0.9936337046341654,123.72351741790771,12.230972290039062,-262.77816009521484
4768.339,28.616384506225586,-36.75416564941406,-9.721138954162598,-1.072448492050171,-0.2904439866542816,-0.03920692577958107,-132.63922119140625,75.57994842529297,128.0532989501953,20.89527702331543,26.96367073059082,-5.280745506286621,-0.9896677732467651,-0.13479968905448914,-0.2663171887397766,-17.019577026367188,87.9902572631836,-142.28512573242188,47.584311462485765,1.1117736552524544,34.51866761986882,1.0337011669678309,115.61964416503906,12.410308837890625,-270.3384246826172
4790.735,22.783475875854492,-58.38456726074219,-19.285585403442383,-1.0672314167022705,-0.23532891273498535,-0.00047143781557679176,-127.50686645507812,76.06519317626953,132.38160705566406,37.94184875488281,21.981168746948242,-4.191816329956055,-0.9857087135314941,-0.06523430347442627,-0.1810247302055359,-22.252037048339844,88.4660873413086,-148.2720947265625,65.5726945577444,1.0928690755159007,44.049142903855724,1.0043142611890432,105.25482940673828,12.400894165039062,-280.65370178222656
4813.475,21.874053955078125,-77.98788452148438,-29.283063888549805,-1.1437971591949463,-0.3137773275375366,0.028486931696534157,-120.23509216308594,76.45455932617188,138.9197540283203,51.98125076293945,28.542640686035156,-4.649288654327393,-1.0001996755599976,-0.06152486056089401,-0.166302889585495,-32.58612060546875,89.15511322021484,-159.53256225585938,86.12828919273238,1.1863977654802418,59.48402014997776,1.0157959197308517,87.64897155761719,12.700553894042969,-298.4523162841797
4836.487,22.574928283691406,-98.85005187988281,-39.296058654785156,-1.1507383584976196,-0.3154504895210266,0.0028835413977503777,-110.67733764648438,76.59040069580078,147.78216552734375,60.941463470458984,33.01382827758789,0.23797747492790222,-1.0138399600982666,-0.034086473286151886,-0.11036292463541031,-52.85335159301758,90.0,179.48532104492188,108.74346127225144,1.1931957491827752,69.30967797315121,1.0203986120566921,57.8239860534668,13.409599304199219,31.703155517578125
4858.407999999999,10.05991268157959,-112.01790618896484,-48.32052993774414,-1.1628358364105225,-0.3519861102104187,0.06804874539375305,-100.19402313232422,76.23204803466797,157.843994140625,43.049598693847656,37.466896057128906,1.3903266191482544,-0.9841772317886353,0.025173073634505272,-0.06388165056705475,-103.76790618896484,90.0,128.8865509033203,122.4095043841987,1.2168451158513496,57.087382633686616,0.986569497038359,-3.573883056640625,13.767951965332031,-28.957443237304688
