Timestamp (ms),Wrist Gyroscope X (deg/s),Wrist Gyroscope Y (deg/s),Wrist Gyroscope Z (deg/s),Wrist Accelerometer X (g),Wrist Accelerometer Y (g),Wrist Accelerometer Z (g),Wrist Roll (deg),Wrist Pitch (deg),Wrist Yaw (deg),Arm Gyroscope X (deg/s),Arm Gyroscope Y (deg/s),Arm Gyroscope Z (deg/s),Arm Accelerometer X (g),Arm Accelerometer Y (g),Arm Accelerometer Z (g),Arm Roll (deg),Arm Pitch (deg),Arm Yaw (deg),Wrist Gyroscope Magnitude (deg/s),Wrist Accelerometer Magnitude (g),Arm Gyroscope Magnitude (deg/s),Arm Accelerometer Magnitude (g),Difference Roll (deg),Difference Pitch (deg),Difference Yaw (deg)
0.0,-1.303276,-6.028605,4.326753,-0.808344,0.571858,0.045725,87.220657,63.297272,-55.10939,5.043957,-5.394103,6.608438,-0.877801,0.43095,0.093979,77.056862,70.485489,35.419769,7.534148797389789,0.9912277085135384,9.910060655329108,0.9823871693695924,-10.163795000000007,7.188217000000002,90.529159
19.985,-3.5071155000000003,-5.2859385,4.287065,-0.8094645,0.543058,0.0415825,87.0709035,63.2242545,-55.170168,4.8431225,-5.861305,6.659068,-0.8725385000000001,0.4158104999999999,0.099925,76.96207799999999,70.376198,35.271133500000005,7.65636540862226,0.9756402371932494,10.107122166158636,0.9717030469837482,-10.108825500000002,7.151943500000002,90.4413015
39.971,-2.81888,-4.78705,4.475504666666667,-0.8126996666666666,0.5139573333333333,0.036932,86.964452,63.15885666666667,-55.21381266666666,5.162319666666666,-5.536630666666667,6.180930333333333,-0.8728686666666667,0.406528,0.1025386666666666,76.89401500000001,70.28202566666667,35.142822333333335,7.133868107713733,0.9622873070508736,9.772805291493704,0.968338216840698,-10.070436999999998,7.123169000000002,90.356635
59.956,-0.5501877500000001,-4.2512815,4.43261225,-0.8171142499999999,0.49678625,0.03162375,86.9223555,63.10097975,-55.2361355,6.26390725,-4.9554965,5.69164075,-0.873935,0.4047985,0.10149575,76.87647625,70.1978015,35.045499750000005,6.166372702922065,0.9568031862960048,9.807561064055395,0.968465589009394,-10.04587925,7.09682175,90.28163525
79.941,1.5058498,-3.7315098,3.8743054,-0.8191928,0.4866285999999999,0.029666,86.9246474,63.0568718,-55.2436104,7.8740426,-4.5125224,5.1308368,-0.8770972,0.4047724,0.0976788,76.9052978,70.1239958,34.9674842,5.585874268198778,0.9532913035718936,10.425396469456247,0.9709177833467878,-10.019349599999998,7.067124,90.2110946
99.927,3.1382564000000004,-2.4552744,2.6613324,-0.8262338,0.4611492,0.0261479999999999,86.8955932,62.979128200000005,-55.25645540000001,10.0733696,-4.0937312,3.9988334,-0.8802828,0.4000290000000001,0.095215,76.93359059999999,69.9766386,34.783567,4.791629759771312,0.9465751923788622,11.585425274758505,0.9715898852097216,-9.962002599999996,6.9975104,90.0400224
119.912,5.2378914,-1.3504118,0.6622272,-0.8346385999999999,0.442109,0.0256178,86.94748080000001,62.9554214,-55.2242418,11.5641678,-3.4920808,2.3303202,-0.8871801999999999,0.3989366,0.0901791999999999,77.01232,69.8688382,34.620429,5.449556239933031,0.9448482588055078,12.302641889237185,0.976919344779414,-9.935160799999997,6.913416800000002,89.84467079999999
139.897,6.530029999999999,-0.3189984,-1.9250628,-0.8411894,0.4374068,0.0212464,87.06519920000001,62.988989200000006,-55.1488382,11.568971,-3.224639,0.3546362,-0.8923475999999999,0.3967288,0.0847016,77.0894546,69.8049176,34.4543942,6.815344346696386,0.9483542190930347,12.015205096606236,0.9802307590653132,-9.9757446,6.8159284000000016,89.6032324
159.883,7.088146399999999,0.8285702,-4.662125,-0.844078,0.435092,0.0165198,87.2388184,63.0799828,-55.0262972,9.961753599999998,-3.3958646000000003,-1.8305604,-0.8954489999999999,0.3889278,0.0793528,77.104074,69.7889142,34.255244999999995,8.524303929341444,0.9497608237551388,10.682667389125912,0.9794848707773284,-10.1347444,6.708931400000002,89.28154219999999
179.868,8.0360564,1.6854312,-6.987506999999999,-0.8473751999999999,0.4368928,0.0106318,87.46751859999999,63.217216400000005,-54.8680772,7.2379506,-3.4803728,-3.9545624,-0.8989242,0.3773704,0.074895,77.0363982,69.8213392,34.026055,10.781657334054138,0.9534322647352144,8.95206610177304,0.9777946600216224,-10.4311204,6.604122800000002,88.8941322
199.853,10.8143664,1.8960546,-8.3557086,-0.8532766,0.4445706,0.0041849999999999,87.7650314,63.378239400000005,-54.70065000000001,4.352524,-3.161716,-5.779734,-0.9067842,0.3663561999999999,0.0683558,76.9120636,69.89851819999998,33.7971038,13.797224716867667,0.9621546074913948,7.895963421013802,0.98038103104952,-10.852967800000002,6.5202788,88.49775380000001
219.839,14.82798,1.8407652,-8.760548799999999,-0.86037,0.4598204,-0.0114214,88.159027,63.5398872,-54.5211814,2.4973432,-2.5399044,-7.218820600000001,-0.9150672,0.3574244,0.064826,76.7683638,70.0124496,33.5866662,17.32064152042621,0.9756032931136096,8.049795542416588,0.984531661505713,-11.390663200000002,6.472562399999998,88.10784759999999
239.824,18.8552868,1.8428512,-8.253500800000001,-0.8692683999999999,0.4740772,-0.0188255999999999,88.64174499999999,63.6848274,-54.3359588,1.7982058,-1.3422520000000002,-8.319653800000001,-0.9232804,0.3509838,0.0632122,76.6611236,70.15731059999999,33.429806,20.664903007543884,0.9903187093121888,8.616949801554615,0.9897636622524794,-11.980621400000004,6.472483199999999,87.7657648
259.824,21.27485,1.5170062000000002,-7.2830116,-0.8798085999999999,0.484857,-0.0190462,89.15866539999999,63.8057402,-54.1681426,1.518988,0.7367079999999998,-9.1287978,-0.9310254,0.3502298,0.0645106,76.6478592,70.32780319999999,33.379073600000005,22.538030266619863,1.004744863543676,9.283588341513903,0.9968103258722594,-12.5108062,6.522063,87.5472162
279.795,21.545491,1.3651443999999997,-6.2753998,-0.8866892,0.489489,-0.0151698,89.6679108,63.9044272,-54.01491539999999,1.2821978,2.8176984,-9.5739756,-0.9333122,0.3543882,0.0704526,76.7293504,70.512282,33.4350864,22.482269554334863,1.0129399495279472,10.062030821910792,1.0008127835988303,-12.9385604,6.607854800000001,87.4500018
299.78,18.903743,1.6979696,-5.6943626,-0.8863718,0.4873571999999999,-0.0072158,90.1251206,63.99124959999999,-53.8597122,1.4102588,4.160722,-9.556582,-0.9303132,0.3532,0.080264,76.870253,70.6994906,33.5535984,19.81565960529328,1.0115453899834252,10.518017729923516,0.998336215806198,-13.2548676,6.708241000000003,87.4133106
319.765,13.611773199999998,2.3578954,-5.5943438,-0.8840047999999999,0.4790713999999999,0.0061288,90.4844254,64.0784034,-53.6968856,1.9849022,4.908268399999999,-9.165081,-0.9244864,0.3482376,0.086282,77.0564972,70.8812974,33.7096286,14.904251840269534,1.0054906538155588,10.584405754059336,0.991659777021696,-13.4279282,6.802894000000002,87.40651419999999
339.751,7.129766999999999,3.087836,-6.0302298,-0.878922,0.465608,0.0121962,90.7353332,64.1783882,-53.5141836,2.893996,5.4095942,-8.830462,-0.9175758,0.3417676,0.0866306,77.2910614,71.0589478,33.898081399999995,9.835241739682507,0.9947077153829864,10.752487218784948,0.9829828594699708,-13.4442718,6.880559600000001,87.412265
359.736,1.1049528,3.3316728,-6.6619888000000005,-0.8768587999999999,0.4524884,0.0131308,90.87422180000002,64.2958984,-53.3251684,4.0784594,6.2191144,-8.940183800000002,-0.9116572,0.3297684,0.0782478,77.6088256,71.2462372,34.148231599999995,7.530143365687875,0.986812811621657,11.629191776538825,0.9726195382343704,-13.2653962,6.9503388,87.4734
379.721,-3.8590582,2.1625108,-7.2459978,-0.8837192,0.4366586,0.0099444,90.8692718,64.43398599999999,-53.188687,4.2419466,8.6497514,-10.297444000000002,-0.906069,0.3137058,0.0576355999999999,78.096263,71.4768464,34.5702514,8.489597591682937,0.9857632821798346,14.101406425324727,0.9605697393224504,-12.773008800000005,7.0428604,87.7589384
399.707,-6.4490456,-1.5347314,-7.7218474,-0.8939156,0.4174783999999999,0.002826,90.6663512,64.59293840000001,-53.217787,1.7233754,14.655269,-13.310702,-0.9004586,0.2979062,0.0286429999999999,78.92722,71.7943756,35.4012144,10.177058361329763,0.9866008821534268,19.87263746875312,0.9488910452530364,-11.7391312,7.201437200000001,88.6190014
419.692,-6.8405788,-8.718656,-7.9465182,-0.9101954,0.4022202,-0.0024749999999999,90.1569212,64.76465619999999,-53.5777694,-3.2650234,25.1098528,-17.7619152,-0.8929389999999999,0.2875176,-0.0154344,80.33477020000001,72.22945419999999,36.9374876,13.636555000009228,0.9951094819637686,30.92977072356351,0.9382135411163708,-9.822151,7.464798000000002,90.515257
439.677,-7.5077422,-19.8763792,-8.262315,-0.9307174,0.4002527999999999,0.0070592,89.14389320000001,64.9369248,-54.472345,-8.381044,39.2291626,-21.755195800000003,-0.8818964000000001,0.284243,-0.0643928,82.614978,72.7597016,39.489501,22.79698427869525,1.0131569547090125,45.63395272298372,0.9288066408428616,-6.5289152,7.8227768,93.961846
459.663,-9.7793826,-35.1014486,-9.2977128,-0.9494012,0.4019967999999999,0.0157576,87.416676,65.10120859999999,-56.097133,-11.939548399999998,55.3860758,-23.867674200000003,-0.8707542,0.2762471999999999,-0.1185143999999999,86.0194474,73.3099626,43.2841238,37.60579052708383,1.0311218976093175,61.48037150372983,0.921179165707106,-1.3972285999999996,8.208754000000003,99.3812568
479.648,-11.783605,-53.5635456,-11.2116626,-0.9667336,0.4027808,0.0153472,84.84715539999999,65.2379502,-58.6163454,-13.5835652,72.5487932,-23.913969400000003,-0.8615682,0.2851684,-0.1679532,90.6959412,73.77808999999999,48.434294,55.97864005400224,1.0473976144547208,77.58684534625155,0.9229458581087192,5.848785800000002,8.5401398,107.0506394
499.633,-13.6346576,-72.3249198,-14.286530399999998,-0.9796732,0.4212694,0.0168052,81.4272198,65.31501779999999,-62.04226559999999,-11.0824996,86.3303408,-21.6751922,-0.8665226,0.2772998,-0.1932842,96.4985276,74.0533448,54.69941620000001,74.97268077650548,1.066541091998635,89.69706515229518,0.9301157870719324,15.0713078,8.738326999999998,116.7416818
519.619,-14.9679958,-87.6706896,-17.243265400000002,-0.9966336,0.4377464,0.0574501999999999,77.2947964,65.2918976,-66.2234904,-1.5457774,93.5995776,-16.2142564,-0.911312,0.253483,-0.1751102,102.95469819999998,74.0590896,61.4466398,90.59536916897686,1.090046314998569,95.00617066945554,0.961980651976452,25.6599018,8.767191999999998,127.6701302
539.604,-15.2161054,-97.666733,-19.4724676,-1.003596,0.4441663999999999,0.1022571999999999,72.74386419999999,65.14124000000001,-70.8753878,12.8291466,93.59209,-10.100441999999996,-0.980029,0.2332523999999999,-0.1436858,109.5150574,73.78714299999999,68.0079214,100.74471496247456,1.1022455520694106,95.00571162644778,1.0175996914643792,36.7711932,8.645902999999999,138.8833092
559.589,-14.9739228,-100.773224,-19.2738942,-1.0009640000000002,0.4402821999999999,0.1652912,68.12553,64.8317964,-75.62431360000001,27.6934882,87.9171128,-7.976272799999999,-1.0405994,0.2189466,-0.1004602,115.7942796,73.3416398,73.9761068,103.68675921740116,1.1059378489455365,92.52010019207438,1.0681184282259903,47.6687496,8.509843399999998,149.60042040000002
579.575,-15.7437232,-98.220743,-15.89468,-0.9877202,0.4496335999999999,0.2409563999999999,63.74595539999999,64.32644660000001,-80.09872759999999,34.8822788,78.7146386,-8.223479000000001,-1.081519,0.2051725999999999,-0.0700528,121.3703904,72.81073,79.0762922,100.7363887975575,1.1116751119090325,86.48926702818669,1.1030351480980105,57.62443499999999,8.484283399999999,159.1750198
599.56,-18.1340164,-92.2046906,-9.1281272,-0.9717124,0.4580486,0.3039906,59.8259588,63.61244280000001,-84.0270188,34.6233822,68.7770852,-9.6315648,-1.0970711999999998,0.2083461999999999,-0.0747632,126.0679062,72.2658524,83.2817778,94.4132947503506,1.1164424719456352,77.60047090109657,1.1191795624465806,66.2419474,8.6534096,167.3087966
619.546,-22.5641384,-86.4197342,-1.1241770000000002,-0.9488226,0.4694656,0.3388598,56.4020828,62.6987306,-87.3371858,25.2352162,60.7341514,-12.3368024,-1.0658226,0.2226093999999999,-0.1202226,129.9839798,71.73901980000001,86.87521960000001,89.32398655938019,1.1115251863588878,66.91524472342239,1.095438831331937,73.581897,9.0402892,174.2124054
639.531,-27.000426800000003,-82.9944214,8.285764799999999,-0.9298908,0.480104,0.369477,53.4377616,61.5734116,-90.060901,9.099148599999998,55.4220696,-14.803774999999998,-1.0203998,0.2232602,-0.1727759999999999,133.2245652,71.24284660000001,90.103102,87.66841466128982,1.109824312343913,58.082286957752885,1.0587315121975354,79.7868036,9.669435,180.164003
659.516,-29.583085600000004,-82.99425360000001,18.188505600000003,-0.9207676,0.5017156,0.3954828,50.8830688,60.2208596,-92.2948976,-8.601169000000002,51.7338876,-14.1305162,-0.9894134,0.2146094,-0.2275806,135.800769,70.7385314,93.0068786,89.96680954773974,1.1206864689059826,54.31433256935463,1.0376844415159554,84.9177002,10.5176718,185.3017762
679.502,-31.8824726,-84.793843,27.9180634,-0.9218098,0.5154096,0.4178322,48.6730668,58.653655400000005,-94.1132066,-17.677184800000003,47.619742,-12.0528188,-0.982672,0.1895516,-0.2654683999999999,137.86893,70.22643880000001,95.5665664,94.79401950442242,1.13576586958098,52.20529792679616,1.0353972860912473,89.1958632,11.5727834,189.679773
699.487,-34.2950676,-88.17971639999999,37.5114846,-0.9298084,0.5192776,0.4636496,46.714754600000006,56.87185000000001,-95.6055436,-19.239555400000004,44.0888566,-9.703274,-0.986563,0.1726124,-0.2862264,139.5924348,69.71089620000001,97.797731,101.7788068458706,1.1615351213598666,49.07281624895914,1.041646363052125,92.8776802,12.8390462,193.4032746
719.472,-36.3249824,-92.4532928,47.6696548,-0.9325302,0.52547,0.5111948,44.9927926,54.86502779999999,-96.7922836,-17.250523,40.905028,-8.3671844,-1.0002352,0.1713294,-0.2939112,141.08509220000002,69.20980979999999,99.7484298,110.17945218902663,1.1861919820834568,45.17534321106943,1.0565074595613797,96.0922996,14.344782,196.5407134
739.458,-38.7243812,-97.0547134,57.261499,-0.9291506,0.5320018,0.5548702000000001,43.4677804,52.646058200000006,-97.7049254,-14.051298200000002,37.6063738,-8.285012,-1.009274,0.173209,-0.302027,142.4401062,68.7445968,101.490715,119.15567279909948,1.2059136335292175,40.99170349388756,1.0676402359812036,98.9723258,16.0985386,199.1956404
759.443,-41.627164400000005,-102.0109344,65.7213402,-0.9112978,0.5306185999999999,0.5850708000000001,42.0877122,50.234400400000006,-98.3879942,-11.2235146,34.684489199999994,-9.0578102,-1.0014504,0.1891988,-0.311431,143.702185,68.3146194,103.0809754,128.29008578541783,1.2059550654827236,37.56361266785389,1.0656868007733793,101.6144728,18.080219,201.4689696
779.428,-43.5718826,-107.5419372,72.0653938,-0.878951,0.5323665999999999,0.618014,40.8079132,47.64950879999999,-98.9153594,-11.6682106,32.914887,-9.181273,-0.9801044,0.2123374,-0.3185718,144.82035820000002,67.89284519999998,104.5350068,136.59135475419373,1.199129001147316,36.10862360613113,1.052226115477733,104.012445,20.2433364,203.4503662
799.414,-44.059417,-113.711383,76.42219539999999,-0.8363106,0.52979,0.6511872000000001,39.6014824,44.909437,-99.352945,-14.2353946,31.1710374,-9.0353396,-0.9638704,0.2260606,-0.319534,145.7611662,67.4852632,105.860576,143.91616587412395,1.184963135804739,35.43892483833611,1.0403131836252582,106.1596838,22.5758262,205.213521
819.399,-42.7557382,-119.8136946,79.4331222,-0.7815264,0.523262,0.6751208,38.475338,42.03423479999999,-99.7343538,-15.8386078,29.124804,-8.2306792,-0.9582646,0.220722,-0.317772,146.54171739999998,67.100516,107.05121319999998,149.97664973311393,1.1577455372980714,34.15932940170151,1.0334255120138849,108.0663794,25.0662812,206.785567
839.384,-40.2006104,-125.2055066,81.8987716,-0.7231538000000001,0.509697,0.6967238,37.440104000000005,39.044014,-100.0690814,-15.6206766,26.651172599999995,-7.328229,-0.9522162,0.2157212,-0.3064698,147.18839699999998,66.7505068,108.0962082,154.91906515688828,1.1261289907243663,31.74891303136564,1.0233157215561186,109.74829300000002,27.7064928,208.1652896
859.37,-37.4025102,-128.7201,84.0686232,-0.6635466,0.5032518,0.7194394000000001,36.5056558,35.970606999999994,-100.341231,-14.532664000000002,24.0363106,-6.3465110000000005,-0.9555208,0.2078762,-0.2937778,147.7235656,66.4412218,108.9997924,158.22561524612468,1.1005223827106654,28.796193360749776,1.0210474570419927,111.2179098,30.4706148,209.3410234
879.355,-35.4646592,-131.1219266,86.8431304,-0.6108988,0.4966836,0.7446606,35.6619416,32.8275128,-100.5307268,-11.3997114,20.7758116,-5.9910942,-0.9594858,0.1943962,-0.2859866,148.2157684,66.19123540000001,109.7892486,161.22168273882806,1.0837026121324798,24.44342401046257,1.0198976509217188,112.5538268,33.3637226,210.31997540000003
899.34,-33.450064,-132.67180760000002,89.77405680000001,-0.5589154000000001,0.4896466,0.7571095999999999,34.9153474,29.6304744,-100.626468,-7.5700944,17.544377,-5.744204999999999,-0.9548666,0.2001662,-0.2877096,148.6752136,65.99026799999999,110.462364,163.64625442638504,1.0608275843231452,19.952628514184926,1.017159547637518,113.7598662,36.3597936,211.088832
919.326,-32.192808,-133.18192419999997,91.6515242,-0.5016774,0.4907479999999999,0.7624778000000001,34.2440888,26.406113600000005,-100.6410278,-5.869229000000002,13.9634166,-4.1987596,-0.9443104,0.2178744,-0.2900428,148.9943084,65.82699740000001,110.9494856,164.84478671987958,1.036284810593883,15.717965338369618,1.011590930937679,114.7502196,39.4208838,211.5905134
939.311,-32.1197794,-133.2453916,91.8996672,-0.4480546,0.4972687999999999,0.776294,33.6045884,23.179396200000003,-100.6051802,-5.849471000000002,10.982139,-2.2739164,-0.9358618,0.2308751999999999,-0.3031626,149.159381,65.6845368,111.2691696,165.01988802205864,1.0250178332451587,12.648888638506982,1.010469311118868,115.5547926,42.5051406,211.8743498
959.296,-33.4462626,-133.85632619999998,90.3315612,-0.3998172,0.5038096000000001,0.7971764,32.9448654,19.9625774,-100.5633056,-6.277248000000002,8.0197024,0.8266194,-0.9302154,0.2483548,-0.3153072,149.1171934,65.550438,111.3731674,164.91197498816848,1.0242890798914923,10.217767303600438,1.0131137287847007,116.172328,45.587860600000006,211.936473
979.282,-34.8883686,-134.414337,87.335324,-0.34809,0.504905,0.8133494000000001,32.251709000000005,16.7713388,-100.5402328,-7.450682800000001,5.062346799999999,4.8975186,-0.9385586,0.2673578,-0.318977,148.8148864,65.42046380000001,111.220343,164.0483802812573,1.018642701640453,10.25308332878613,1.026702861291328,116.5631774,48.649125,211.7605758
999.267,-35.9976956,-134.5837462,83.4161072,-0.2906118,0.5043846,0.8214816,31.531472399999995,13.618196,-100.5458526,-9.975329600000002,1.1603445999999995,9.289759,-0.9456434,0.2655288,-0.3131308,148.2134186,65.3155412,110.7935304,162.37877253550775,1.0068222594653735,13.680395553399263,1.0309208900306754,116.6819462,51.69734520000001,211.339383
1019.252,-37.1801346,-134.6506592,80.1410812,-0.2453882,0.4922396,0.8460554,30.7757584,10.5024996,-100.5697678,-10.187088400000002,-2.8610698,11.9314036,-0.9465612,0.2552169999999999,-0.3141522,147.4400818,65.25166019999999,110.1781954,161.04581747991364,1.0091208710439796,15.947441247296686,1.0294685168567712,116.6643234,54.7491606,210.7479632
1039.238,-38.6888634,-135.3453248,77.76837780000001,-0.2021798,0.4813708,0.8535266,29.9874374,7.406249,-100.5985704,-10.3871124,-7.428328400000001,14.5039974,-0.9420866,0.2567614,-0.3050482,146.4610658,65.23516099999999,109.3408754,160.8201034760421,1.0005509359988825,19.32454675814383,1.0229897275890705,116.4736284,57.828912,209.9394458
1059.223,-40.0411468,-136.37052620000003,76.3499802,-0.1569698,0.469352,0.8600363999999999,29.1729848,4.3122932,-100.6174454,-10.9160732,-12.2225916,16.1889632,-0.9422316,0.2524394,-0.2997724,145.3036196,65.2764558,108.3168246,161.33670794231682,0.9922668125766376,23.035514516048977,1.020484948694825,116.1306348,60.9641626,208.93427000000003
1079.218,-41.5551634,-137.7221284,75.0577622,-0.1063324,0.4575912,0.8609180000000001,28.3321512,1.2089592,-100.6259384,-11.729966800000003,-17.5841194,17.5737642,-0.9317494,0.2582707999999999,-0.2976014,143.9441744,65.3751542,107.0884172,162.25869444408374,0.980752817141608,27.48873522662984,1.0116458588928043,115.6120232,64.166195,207.7143556
1099.194,-44.4671012,-139.60404979999998,73.7553176,-0.062048,0.4434776,0.8782484,27.432802400000003,-1.9109492,-100.6270706,-12.6092992,-22.592888,18.8020154,-0.9299616,0.2659292,-0.3006449999999999,142.3889436,65.5197176,105.6639298,164.03188922879838,0.9858207687548076,31.983570744954385,1.012884165594566,114.9561412,67.4306668,206.2910004
1119.179,-48.1276412,-142.1000244,71.83685299999999,-0.0128742,0.4313386,0.8703784000000001,26.4667856,-5.0557016,-100.6336426,-14.773701,-27.9025516,20.0667744,-0.9304104,0.27762,-0.2906239999999999,140.57433799999998,65.71178300000001,104.0053422,166.3406752147536,0.971482008100078,37.40975891192777,1.013508108603064,114.1075524,70.76748460000002,204.6389848
1139.164,-50.7609732,-143.9210418,69.61262959999999,0.0398349999999999,0.4123844,0.8699344,25.4473634,-8.213478599999998,-100.6408524,-16.2851404,-32.3746772,21.0475318,-0.9314504,0.2810411999999999,-0.2828632,138.54645399999998,65.9366806,102.147429,167.73747605360964,0.9635525833558436,41.90852081049776,1.0132105376829832,113.0990906,74.1501592,202.7882814
1159.15,-51.5270438,-145.6944518,67.493579,0.0892908,0.3855858,0.8625438000000001,24.406761600000003,-11.3830136,-100.6419388,-17.5980132,-36.9835226,22.0111426,-0.9267932,0.2888826,-0.2695528,136.2827576,66.1881072,100.0635528,168.63360499704345,0.9490158391959116,46.49689678945918,1.0075006224002243,111.875996,77.5711208,200.7054916
1179.135,-51.4870818,-146.89517800000002,65.5826772,0.1369078,0.3612376,0.8548014,23.3609254,-14.556309,-100.62854,-18.6390312,-40.8945684,22.218862,-0.9284806,0.2904492,-0.2568842,133.8308654,66.4595168,97.7991318,168.90885252304267,0.93804146112875,50.134389766625226,1.0061940441915962,110.46994,81.01582579999999,198.4276718
1199.12,-51.0784674,-147.0907042,63.756095,0.1885078,0.3388364,0.8295286,22.3193696,-17.7214932,-100.5914504,-18.415353400000004,-44.696555800000006,21.6530932,-0.924994,0.2956189999999999,-0.2424262,131.224179,66.7503752,95.364969,168.25434539302034,0.915676250016216,52.96946088414807,1.0008870843623872,108.9048094,84.4718684,195.9564194
1219.106,-51.195967800000005,-146.289328,61.3730566,0.2371568,0.3128588,0.8116068000000001,21.2678414,-20.8563092,-100.5335616,-17.9226628,-47.035777,20.922030600000003,-0.9171718,0.309914,-0.2335884,128.5113768,67.030754,92.8090898,166.69807042103704,0.9015706152764298,54.5097929207548,0.9958987592751584,107.2435354,87.88706319999999,193.3426514
1239.091,-50.6810058,-145.1270844,58.249889200000005,0.283813,0.2865958,0.7891582,20.221502,-23.9494064,-100.4666152,-18.948143,-48.7459562,20.0630718,-0.9129638,0.3215486,-0.2224024,125.6865416,67.29476319999999,90.1581102,164.38821298121294,0.8862604787385479,56.01541947582579,0.9931561960729844,105.4650396,91.2441696,190.6247254
1259.077,-49.976903400000005,-142.936435,54.68646220000001,0.3323844,0.2674568,0.7629592000000001,19.18728,-26.981248800000003,-100.3946656,-20.1616726,-48.904666,19.7077264,-0.9176724,0.3237359999999999,-0.2127244,122.80463240000002,67.5179506,87.4739412,160.99417527325076,0.8741391594558844,56.44956933811279,0.9960819754282878,103.6173524,94.4991994,187.8686068
1279.062,-49.822992600000006,-139.5980348,50.6875762,0.3818462,0.2405738,0.7294258000000001,18.151022,-29.933369400000004,-100.3197968,-19.4096384,-48.373065,20.5252622,-0.9103162,0.3238794,-0.1988861999999999,119.914459,67.6699326,84.7662568,156.64983974671813,0.8577553680429637,56.01762105526911,0.9864730965805604,101.763437,97.603302,185.0860536
1299.069,-48.4919722,-135.6507904,46.7623656,0.4270594,0.2126832,0.6993756,17.1309574,-32.7944854,-100.2374422,-17.968768200000003,-47.1458448,21.1908692,-0.907386,0.3290148,-0.1810493999999999,117.0614058,67.7455734,82.0695954,151.45734429369335,0.8466050463858339,54.72348901507037,0.9820279918899462,99.9304484,100.5400588,182.3070376
1319.033,-44.3463606,-131.2038314,43.9104172,0.4704654,0.1845838,0.6820406,16.165482599999997,-35.5560946,-100.1217484,-17.4307954,-45.796472,21.0900894,-0.916281,0.3211438,-0.1624888,114.269876,67.7704268,79.4274032,145.2899508265555,0.8488746973894086,53.34736494732835,0.9844322329977214,98.1043934,103.3265214,179.54915160000002
1339.018,-40.891635,-125.73797439999998,41.66522139999999,0.5136464000000001,0.1665632,0.6561042,15.2384212,-38.2060354,-99.9616944,-14.533734,-44.3474394,21.3000142,-0.9165418,0.31413,-0.1530262,111.6087798,67.73946980000001,76.8608534,138.62955923431082,0.8497344556300163,51.29927299913353,0.9808891608809222,96.3703586,105.9455052,176.8225478
1359.003,-38.2098136,-119.6310698,40.2237512,0.5551883999999999,0.1392214,0.6305976,14.305884799999998,-40.7360632,-99.7275422,-12.815375800000002,-42.0545714,20.4369744,-0.9119514,0.3311488,-0.139542,109.1071578,67.66226939999999,74.4290496,131.8693780884657,0.8516279063289788,48.48186006290579,0.9801973543462562,94.801273,108.3983326,174.1565918
1378.989,-33.8543864,-113.6537032,39.0907564,0.5898262,0.122567,0.6121602000000002,13.4038814,-43.1441154,-99.4203202,-14.0123276,-38.9844478,17.8028252,-0.9113052,0.3402634,-0.1271026,106.784143,67.5777496,72.2149596,124.86541140571448,0.8588700286769123,45.0896116654646,0.9810256978557492,93.3802616,110.721865,171.63527979999998
1398.974,-29.945254,-107.5601548,38.3454004,0.6179622,0.1050266,0.5994384,12.5110682,-45.4238778,-99.0282136,-17.526366799999998,-34.199934400000004,15.4605862,-0.9086624,0.343781,-0.12444,104.6809538,67.4800338,70.3111326,118.0520007012198,0.86731439670454,41.4226842662336,0.9794580372505808,92.1698856,112.9039116,169.3393462
1418.959,-27.2172938,-101.3801712,36.71857920000001,0.6451123999999999,0.0958976,0.5811046,11.6280664,-47.5720392,-98.5827868,-19.5668836,-28.8836064,13.9289614,-0.9031998,0.3462463999999999,-0.1204196,102.8319456,67.3608276,68.7237532,111.206898404746,0.8735267107883307,37.56516495596365,0.9747601388532258,91.2038792,114.9328668,167.30653999999998
1438.945,-24.0085574,-95.318155,35.7826814,0.6674724,0.0768997999999999,0.5620930000000001,10.7365906,-49.5928958,-98.0571734,-22.075037400000003,-23.2624952,11.9099276,-0.9027386,0.3546068,-0.1138117999999999,101.2372648,67.23524619999999,67.4647278,104.60574453254002,0.8760031533338222,34.20960880481774,0.9765429270418378,90.5006742,116.828142,165.5219012
1458.93,-20.020327,-88.99094099999999,33.9134568,0.6882446,0.0690139999999999,0.5467989999999999,9.880099,-51.4741252,-97.4860902,-24.4714252,-17.030737799999997,9.9882718,-0.903189,0.3463062,-0.1060551999999999,99.9232512,67.1180678,66.5603286,97.31558778211163,0.8817214458241106,31.443000093537812,0.973101258516543,90.0431522,118.592193,164.0464188
1478.915,-17.117531,-82.3020234,33.3053666,0.7062634,0.057986,0.5314448,9.000577000000002,-53.2130266,-96.8276034,-27.565572,-10.5124138,8.9651176,-0.916434,0.3479406,-0.1068384,98.8816848,66.993852,66.0165192,90.4205749131828,0.8857787205745011,30.834152123440077,0.986067128140331,89.88110780000001,120.2068786,162.84412260000002
1498.901,-15.1533118,-75.191407,32.604207599999995,0.7280626000000001,0.0506788,0.5152974,8.0828666,-54.802868,-96.0861056,-28.490146200000005,-6.1259174,6.6012856,-0.9103791999999998,0.3434716,-0.097058,98.0454712,66.9012892,65.716153,83.34509522684323,0.8934063469300854,29.879629617211872,0.977846247200039,89.96260459999999,121.7041572,161.80225860000002
1518.886,-12.0502148,-68.0423272,32.9087348,0.7399688,0.0357732,0.5015124,7.1156378,-56.2420624,-95.2237092,-29.7363136,-1.4428556,2.2931425999999995,-0.9089584,0.3447992,-0.0945691999999999,97.435373,66.8790618,65.68793500000001,76.53725101971412,0.8946218386365493,29.85948227588568,0.9767472522816943,90.3197352,123.1211242,160.9116442
1538.872,-9.390851,-61.1892572,32.742823599999994,0.7600288000000001,0.0287655999999999,0.481179,6.111362999999999,-57.540683,-94.2650758,-31.125253800000003,3.6049672,-2.0287042000000004,-0.9059344,0.3462924,-0.0903659999999999,97.0590746,66.9277708,65.94415740000001,70.03146276133799,0.9000024814486903,31.39893076776004,0.974064462629204,90.9477116,124.4684538,160.20923320000003
1558.857,-5.792010400000001,-54.8424074,33.4065566,0.7793116,0.0191348,0.4651992,5.064190999999999,-58.7079788,-93.1828844,-31.121126600000004,6.6914232,-6.259795,-0.8982509999999999,0.3521493999999999,-0.0891124,96.8545122,67.0474472,66.3865632,64.47662411890286,0.907801193073814,32.44202057111658,0.9689195419409808,91.7903212,125.755426,159.56944760000002
1578.842,-5.396662399999999,-48.3834544,32.2951384,0.7941854,0.0123676,0.4638263999999999,3.9774132,-59.73463280000001,-92.0551484,-29.3283318,8.8591386,-10.862598,-0.8945565999999999,0.3456076,-0.0857892,96.818097,67.2556214,66.9721802,58.42138811267332,0.9197925507634208,32.50586744288645,0.962827040863498,92.8406838,126.9902542,159.02732859999998
1598.828,-2.5053812,-42.6889476,32.009331,0.8129010000000001,-0.0057968,0.442677,2.867016,-60.6408522,-90.8463256,-27.496925800000003,11.3954492,-13.7350192,-0.9028758,0.353688,-0.0861928,96.9583938,67.50995800000001,67.70934600000001,53.41554505217017,0.9256373831151375,32.780908214155005,0.9735035235382972,94.0913778,128.1508102,158.5556716
1618.813,2.1641148,-37.2831736,30.9680312,0.8427127999999999,-0.0115772,0.4226658,1.8193268,-61.438107200000005,-89.610257,-25.2066868,10.9286968,-13.876902,-0.8998820000000001,0.3674769999999999,-0.0838456,97.1208204,67.7574128,68.42158959999999,48.515331421721626,0.942838943475141,30.77956923508236,0.9756316129012836,95.3014936,129.19552000000002,158.0318466
1638.798,3.3627344,-32.2155496,29.6182052,0.8625448,-0.0126798,0.4412106,0.7907786,-62.1163314,-88.3747284,-23.426683000000004,8.7769558,-13.177265,-0.9069126,0.3746416,-0.0884346,97.2206556,67.99067699999999,69.02638859999999,43.89063337369729,0.9689226506215242,28.2751612263815,0.9852245789496322,96.429877,130.10700839999998,157.401117
1658.784,4.2396134000000005,-27.148801400000004,27.040291000000003,0.8745276000000001,-0.0284893999999999,0.4148699999999999,-0.1775254,-62.6818436,-87.19482719999999,-21.412868600000003,6.328816999999999,-11.6678338,-0.9145204,0.3758772,-0.0892506,97.2370268,68.1984696,69.49698040000001,38.55138229172572,0.968363199411316,25.193316809915636,0.992772330948219,97.4145522,130.8803132,156.6918076
1678.769,11.4363218,-22.4618544,25.213654,0.8933546,-0.0275916,0.4016818,-0.9571744,-63.148179000000006,-86.06799319999999,-18.805492800000003,3.5655894000000004,-9.8777202,-0.9128652,0.3860046,-0.088906,97.160202,68.369809,69.8106264,35.65182614441609,0.979893874959406,21.53901909488295,0.99510135233965,98.1173764,131.517988,155.8786196
1698.755,14.8791552,-17.1889426,22.0553842,0.9029562,-0.0261506,0.4006854000000001,-1.5607152,-63.5052492,-85.0635026,-17.291635000000003,1.0383992,-8.7594682,-0.9182364,0.3850583999999999,-0.090553,96.9869996,68.525415,69.9868518,31.674737242499603,0.9882117904437084,19.41152227463361,0.999813934442064,98.5477148,132.0306642,155.0503544
1718.74,15.5374346,-11.2553734,18.8055802,0.9005808,-0.0279136,0.3976356,-2.0297826,-63.7390092,-84.19638979999999,-15.9573302,0.6442946,-8.2626416,-0.9222234,0.3754224,-0.0936747999999999,96.8268374,68.6767166,70.1468982,26.865315017347868,0.9848548201541992,17.98117762699295,1.000106467374529,98.85662,132.4157258,154.34328799999997
1738.725,20.0781122,-4.2151112,15.2958876,0.8944606,-0.0359594,0.3727768,-2.2727472,-63.8362298,-83.4827758,-14.059058600000004,0.7341738,-8.0019912,-0.9166188,0.3705808,-0.0942354,96.7122958,68.8226578,70.31443200000001,25.59027020990572,0.9696986057631308,16.193455562409092,0.9931769552578432,98.985043,132.6588876,153.7972078
1758.71,23.524273,3.6012980000000008,11.740281,0.8864436,-0.0254896,0.390125,-2.2868046,-63.779184,-82.946083,-12.065957,1.1592082,-7.880186599999999,-0.9075946,0.3667498,-0.1014828,96.6736422,68.9633682,70.5185152,26.536672086422104,0.9688289277855612,14.457815285430083,0.9841403011994988,98.9604468,132.74255219999998,153.4645982
1778.696,23.600068,11.7037606,7.223878600000001,0.8700977999999999,-0.0365986,0.387844,-2.1231772,-63.5613106,-82.6092924,-9.743142600000002,1.734194,-7.5882436,-0.9000748,0.3587584,-0.1068104,96.7217332,69.0977294,70.7641328,27.31530054409569,0.9533271250849836,12.47067349771101,0.9748080306982292,98.8449104,132.65904,153.3734252
1798.681,25.4181546,19.8240792,1.0135753999999997,0.8270500000000001,-0.0484198,0.4041962,-1.6720323999999998,-63.1743118,-82.55374119999999,-6.840221200000002,2.7923056,-6.828585800000001,-0.894861,0.3496442,-0.1165564,96.897786,69.2161086,71.082074,32.2506439391349,0.9218084115620122,10.060575562893131,0.9677875129880524,98.5698184,132.39042039999998,153.6358152
1818.667,23.3663748,27.5292688,-7.862928600000001,0.8296698000000001,-0.0296592,0.4058259999999999,-0.9193166,-62.633686,-82.8827878,-3.5908042000000018,4.0153658,-6.3327616,-0.8947054,0.3432364,-0.1215744,97.2105514,69.3228834,71.4755326,36.95502344912565,0.924081374908444,8.31389841127385,0.9659654827215516,98.129868,131.95656939999998,154.35832039999997
1838.652,23.041468,35.515663,-15.6823562,0.816408,-0.0361716,0.4156104,0.0817084,-61.928279,-83.5061032,0.0374237999999984,5.1771728,-6.174895,-0.8981062,0.3345888,-0.1214302,97.6582518,69.4269408,71.9357332,45.146515501290594,0.9168219083871852,8.058154069195457,0.9660692030263256,97.5765434,131.3552198,155.4418364
1858.637,23.8028336,42.897959,-23.5077604,0.8009103999999999,-0.0357128,0.4306257999999999,1.328667,-61.06288440000001,-84.3987592,3.4797923999999982,6.3194574,-6.4062894,-0.9089446,0.3244646,-0.116126,98.2300306,69.5382628,72.4563082,54.40059349656746,0.9100392587892238,9.648058916386493,0.9720816891590542,96.9013636,130.6011472,156.8550674
1878.622,24.148933,50.0522438,-30.9782068,0.7905086,-0.0316122,0.4459055999999999,2.768786,-60.0389732,-85.51429279999999,6.373657199999999,6.975593600000001,-7.2329362,-0.9198326,0.3161564,-0.109986,98.8922622,69.66862180000001,73.0133518,63.62426715488905,0.9081492068895728,11.899486469959248,0.9788482014488864,96.1234762,129.707595,158.5276446
1898.608,23.9021068,57.1469414,-36.7095502,0.8078454,-0.0113072,0.4529683999999999,4.2946268,-58.8585786,-86.7483948,9.063937599999996,6.3619814,-7.8083028,-0.9295258,0.3152959999999999,-0.0953512,99.555513,69.8130584,73.517818,72.00468524158661,0.926241013166422,13.549884308256196,0.9861651138744872,95.2608862,128.671637,160.2662128
1918.593,26.495051,64.015049,-39.722028,0.7833728000000001,-0.0256406,0.473987,5.822483999999999,-57.5177302,-87.9492524,10.907198599999996,5.09957,-8.065922,-0.9366558,0.311904,-0.0816262,100.1687516,69.96812440000001,73.9329378,79.86083980523738,0.915966189505486,14.492470224044826,0.9905912524427418,94.3462676,127.4858546,161.88219020000005
1938.579,26.7496708,69.5976608,-43.6742264,0.7722786,-0.0076334,0.4955255999999999,7.3545664,-56.039319,-89.1669282,12.1075484,3.6336462,-8.674629,-0.9460964,0.3078304,-0.0703076,100.7164872,70.1424454,74.255362,86.41074775963165,0.917615455988444,15.331187209500705,0.997397168571718,93.3619208,126.1817644,163.4222902
1958.564,24.280240600000003,74.37352899999999,-46.9161934,0.7685458,0.0059139999999999,0.5064226,8.8015298,-54.44838120000001,-90.3635148,12.906001999999996,2.1507976,-9.058975399999998,-0.9468618,0.3092266,-0.0584408,101.1851472,70.32749340000001,74.4794234,91.22544109322756,0.9204137503777308,15.91401436589696,0.9977893993982097,92.3836174,124.7758746,164.8429382
1978.549,21.998989400000003,79.06243420000001,-49.4546912,0.7605535999999999,0.0224769999999999,0.5217638,10.1436246,-52.7455628,-91.5107834,13.143137,1.9447446,-8.1067112,-0.941483,0.3147366,-0.0556862,101.6326004,70.487854,74.67675919999999,95.81539812544747,0.922596584099681,15.564152666952468,0.9942586783825426,91.4889758,123.2334168,166.1875426
1998.534,19.4860304,83.46008739999999,-51.5302482,0.7467352,0.0406925999999999,0.5356211999999999,11.36617,-50.9382682,-92.5954514,11.4511242,5.8063752,-6.8732236,-0.944179,0.3112734,-0.0460428,102.2308456,70.6079256,75.0719146,100.00329019146804,0.9198692388069296,14.563084874524272,0.9952311555716088,90.8646756,121.5461938,167.66736600000002
2018.52,17.151752,87.9550704,-52.8966714,0.7306405999999999,0.0653086,0.550996,12.4647234,-49.02731680000001,-93.60285960000002,10.5743774,9.4144914,-6.0547098,-0.946907,0.3126997999999999,-0.0485904,103.002626,70.6916964,75.6697646,104.0592852701672,0.917440729212694,15.39836408455524,0.9983862271391768,90.5379026,119.71901320000002,169.2726242
2038.505,14.9457798,93.0558806,-53.660956,0.7161150000000001,0.0863569999999999,0.5659878,13.428377799999998,-47.0074278,-94.5144792,9.5247416,14.8437546,-4.1276852,-0.9485806,0.3155248,-0.0471268,104.0180344,70.7064042,76.5495558,108.45400613580615,0.9168535403339184,18.113407693807662,1.000790682105724,90.5896566,117.713832,171.06403500000002
2058.491,14.5288514,98.4758224,-53.7111154,0.6885968,0.1082392,0.5942510000000001,14.284692,-44.8671706,-95.3157136,9.114448399999995,20.4729476,-2.4488178,-0.9505238,0.3156335999999999,-0.0533128,105.3098664,70.6538376,77.7314986,113.1081740541847,0.9159779082422675,22.543545898686947,1.0029767287725275,91.0251744,115.5210082,173.04721220000002
2078.476,15.624267,103.2524734,-53.3110002,0.6589902000000001,0.13299,0.6179203999999999,15.069739800000002,-42.6251616,-96.0074968,9.196715799999998,25.839299800000003,-1.4387268,-0.9578136,0.314482,-0.0508156,106.8525224,70.54711,79.1805174,117.24868325413892,0.9131155701948138,27.46486720276084,1.0093998443987993,91.7827826,113.1722716,175.18801420000003
2098.461,17.0019754,107.4699828,-52.4720284,0.6291908,0.1638316,0.641514,15.7977202,-40.295813,-96.591884,11.093326,26.6757084,-0.7012396,-0.9552646,0.3187516,-0.0681065999999999,108.4579224,70.40515280000001,80.6555434,120.7980882917644,0.9133794765371072,28.898910660450767,1.009342135987238,92.6602022,110.7009658,177.24742740000002
2118.447,20.5278988,110.962004,-51.7354546,0.5934614,0.1849406,0.6699415999999999,16.516048,-37.8911256,-97.076909,13.167287399999998,27.4812752,0.5788371999999999,-0.9535138,0.322817,-0.0762837999999999,110.0992568,70.2202498,82.1265716,124.13910835634242,0.9139043747728096,30.478402133255567,1.0095635692822318,93.5832088,108.1113754,179.2034806
2138.432,24.5043838,113.4225234,-51.223639000000006,0.549503,0.2181035999999999,0.7118234,17.253104200000003,-35.42272799999999,-97.4813006,14.825478799999996,26.7384292,0.9810342,-0.9527072,0.320611,-0.0904092,111.708769,70.0200286,83.52910160000002,126.84240155501462,0.9253190153290486,30.58922761094552,1.009265200875112,94.4556648,105.4427566,181.0104022
2158.417,26.293051400000003,115.2600172,-50.857275400000006,0.5088458,0.246979,0.7424446,17.9773262,-32.9089656,-97.8171848,16.3985828,24.5113166,0.4541089999999999,-0.9548142,0.3117242,-0.1012735999999999,113.2334714,69.8386458,84.80847940000001,128.6959928590583,0.9333523764837158,29.494480403929348,1.0095040740107195,95.2561452,102.7476114,182.6256642
2178.403,27.777585,116.523915,-50.2994882,0.4668164,0.2648883999999999,0.7675031999999999,18.683500400000003,-30.3649398,-98.0854602,18.3088126,21.1272592,-1.3147996000000002,-0.9575384,0.3065277999999999,-0.1140442,114.6546246,69.7069044,85.9371522,129.92095869620647,0.9365599701961216,27.98754005113818,1.011852340611534,95.9711242,100.0718442,184.0226124
2198.388,29.1736086,117.819806,-49.4548052,0.4219655999999999,0.2853554,0.8003148,19.3731276,-27.7899606,-98.2825,20.1960216,18.9363686,-4.0805578,-0.9556214,0.2997653999999999,-0.1213584,116.058621,69.636128,87.0078568,131.0663339000278,0.9486761570691864,27.984215125350104,1.008860454386869,96.6854934,97.4260886,185.2903568
2218.373,26.794312400000003,118.6598648,-48.3041246,0.3731008,0.3085784,0.8383804000000001,19.9775118,-25.193504,-98.412099,21.036652,16.584258,-7.449496400000001,-0.951598,0.292056,-0.1339918,117.4497024,69.63801240000001,88.0458328,130.88692503346314,0.9681459244408148,27.804196398984107,1.0043850174147562,97.4721906,94.8315164,186.4579318
2238.359,23.2835298,118.97078100000002,-46.9155114,0.3316426,0.3218162,0.8448522,20.4812918,-22.6004048,-98.4801424,22.3271596,14.1614878,-10.0096712,-0.948935,0.2933666,-0.1467412,118.8151978,69.6946042,89.02825779999999,129.98936380189335,0.9629785670314994,28.270891567927787,1.0040291708899696,98.333906,92.295009,187.5084002
2258.344,21.3325812,119.2652268,-45.9633852,0.290608,0.335215,0.8566178000000001,20.9250546,-20.0074232,-98.5015672,23.364453,13.0842204,-11.1933826,-0.9472772,0.300681,-0.1594842,120.182892,69.766905,89.99052280000001,129.58358739961483,0.9646844878849458,29.02389190813265,1.0065676169291755,99.2578374,89.7743282,188.49209
2278.33,18.8185966,119.2403092,-45.5762696,0.2453564,0.354617,0.8832372,21.307683200000003,-17.4120548,-98.4952486,23.1415122,12.2543438,-11.3902136,-0.9449618,0.3046854,-0.1703646,121.515767,69.83801100000001,90.9201782,129.03327968689717,0.98288398663006,28.55583118602875,1.0073778304914,100.2080838,87.2500658,189.41542680000003
2298.315,17.3449298,118.1977768,-45.7074134,0.200267,0.357,0.8889511999999999,21.6545184,-14.8338304,-98.481209,22.7488726,10.367982799999998,-10.6474066,-0.9547674,0.3017916,-0.1830368,122.7475876,69.9085966,91.7490706,127.90906406485838,0.9786675162027396,27.173029628987823,1.0179201481882358,101.0930692,84.74242699999999,190.2302796
2318.3,18.5709842,117.4066224,-45.871463,0.1647386,0.3678906,0.8912998,22.0270846,-12.2744202,-98.4608522,22.7754228,9.1810698,-9.5064514,-0.9598512,0.3027609999999999,-0.1885606,123.8945098,69.96542500000001,92.487297,127.41031180910436,0.9782114461497372,26.33219597017677,1.0239793206577952,101.8674252,82.23984519999999,190.9481492
2338.305,19.7466328,116.5567308,-46.6774452,0.1250192,0.3809479999999999,0.8961908000000001,22.4269018,-9.7256916,-98.4447222,21.54856,6.978094199999999,-8.042857999999999,-0.957875,0.3085402,-0.1919266,124.8648222,70.014418,93.0648894,127.09911444270848,0.981788739534774,24.0358440988836,1.0244790824748935,102.4379204,79.74010960000001,191.50961160000003
2358.271,20.9544388,115.4585756,-47.5542366,0.0833864,0.3966394,0.9029703999999998,22.8550342,-7.1916308,-98.4347888,18.3844906,4.0262516,-6.638591,-0.9580086,0.3110061999999999,-0.193964,125.5894224,70.0692992,93.4491926,126.61428277888967,0.9897634306305116,19.956730369308293,1.0257326003439688,102.7343882,77.26093,191.8839814
2378.256,21.2778862,114.3954012,-48.5098602,0.0456886,0.4043827999999999,0.8892296,23.2931766,-4.6733782,-98.4319414,15.1359962,1.1737132,-4.8746306,-0.9593524,0.3038372,-0.1951658,126.0688644,70.1292464,93.6413358,126.06451837639588,0.9779274914951313,15.944842649857822,1.0250676860477264,102.7756878,74.8026246,192.0732772
2398.241,22.6954744,114.0762804,-49.4688484,0.0132668,0.4138198,0.8848520000000001,23.7616386,-2.158841,-98.4294556,11.863607599999998,-1.0760425999999998,-2.5440461999999995,-0.9562302,0.3122578,-0.19236,126.29281919999998,70.1732452,93.6331236,126.3948150446159,0.976926761204892,12.180936911072438,1.024150134820515,102.5311806,72.3320862,192.0625792
2418.227,23.7303922,114.3800096,-50.801007,-0.0199683999999999,0.4199018,0.8727608,24.2542892,0.365687,-98.4276504,8.699831399999999,-4.4561886,0.4310459999999999,-0.9581579999999998,0.3066164,-0.1787637999999999,126.1916978,70.214894,93.3481246,127.38390958938244,0.968724766204746,9.78419561749007,1.0217812221328986,101.9374086,69.849207,191.775775
2438.212,24.6149452,115.5751618,-51.3737608,-0.0568014,0.4303006,0.8746078,24.7671914,2.911333,-98.4026228,7.019559399999999,-7.8270854,2.7610288,-0.9593878,0.2939458,-0.1674698,125.8267138,70.266017,92.81852560000002,128.8517630885616,0.9763830238298696,10.870177554366393,1.0172881686319368,101.0595224,67.35468399999999,191.2211484
2458.198,23.5868804,117.0673554,-51.5431478,-0.098242,0.4274771999999999,0.8546484,25.2635746,5.485396799999999,-98.3442914,7.5528134,-10.929709399999998,4.8831002,-0.9592202,0.2847962,-0.1600868,125.2625124,70.3222792,92.0656586,130.06845394824396,0.9606311127099724,14.154441189496248,1.0133311655903612,99.9989378,64.83688240000001,190.40995
2478.183,24.2109786,119.35679480000002,-50.750183,-0.140204,0.4235495999999999,0.8473606,25.7782086,8.092974,-98.22884960000002,9.917751399999998,-13.5490562,6.3567278,-0.956307,0.2738266,-0.1489828,124.5750322,70.3893202,91.131714,131.93861081666904,0.9576384556337114,17.954016404867556,1.0058329681474951,98.7968236,62.2963462,189.3605636
2498.168,24.231907,121.9862396,-49.1629952,-0.189795,0.4324867999999999,0.8459872,26.312887,10.734831000000002,-98.0357084,12.4469778,-16.139458400000002,6.8269592,-0.9534142,0.2680766,-0.1411,123.7993136,70.478073,90.05052359999999,133.7341694019912,0.9688969587954542,21.494574797317767,1.0003863804696662,97.4864266,59.743242,188.086232
2518.154,23.7138036,123.9961562,-46.8493112,-0.24545,0.4411536,0.8366241999999999,26.8670924,13.395675399999998,-97.7531066,14.5537728,-18.9493734,6.729970799999999,-0.9535364,0.2701604,-0.1387596,122.9291688,70.5927856,88.82477880000002,134.65604031557075,0.9771398330426408,24.82304497710746,1.0007359963773064,96.0620764,57.1971102,186.5778854
2538.139,24.9860602,125.7847914,-43.4868152,-0.299324,0.4393855999999999,0.8186648,27.4884082,16.059309000000002,-97.359282,17.3974588,-20.9928702,4.9727796,-0.958712,0.2512999999999999,-0.1396338,122.081833,70.7613356,87.5609176,135.41499196211063,0.9761488704200808,27.71462987091694,1.000888598719378,94.5934248,54.7020266,184.9201996
2558.124,28.0388552,128.0054946,-37.7513186,-0.3554942,0.4544075999999999,0.8108051999999999,28.2464466,18.7061104,-96.79525,20.7981166,-22.1223506,1.6801710000000003,-0.9559376,0.22503,-0.1420902,121.3636522,71.0025344,86.3590544,136.3698870893274,0.9951218345099456,30.41024539140973,0.9922927092999324,93.1172056,52.296424,183.1543044
2578.11,28.561958200000003,129.092636,-31.278835,-0.4210473999999999,0.4632029999999999,0.8135767999999999,29.099348400000004,21.3072904,-96.0524674,23.3711154,-22.9383612,-2.5477438,-0.944824,0.2307736,-0.1518149999999999,120.7810456,71.3109344,85.245767,135.86412199180572,1.0265208920202256,32.84613292386519,0.9843762693492564,91.6816972,50.003644,181.2982344
2598.095,28.3182804,128.0438872,-25.4259902,-0.476176,0.459399,0.7949390000000001,30.0290896,23.8291552,-95.1585786,24.6350138,-21.8537998,-6.887843000000001,-0.931686,0.2353482,-0.1635786,120.4140946,71.6689514,84.3326582,133.58009968460811,1.034272226204494,33.6439422752049,0.974774607905438,90.385005,47.8397962,179.49123679999997
2618.08,31.655174,125.5369124,-20.0017678,-0.534428,0.4704118,0.790562,31.1089654,26.2425192,-94.1295136,23.9169284,-18.2628868,-10.9746696,-0.9279106,0.2402616,-0.1834494,120.356836,72.046965,83.75967700000001,131.00243177521807,1.0639026386879769,32.03117030627362,0.9759085000077006,89.24787059999998,45.8044458,177.88919059999998
2638.066,32.8439882,120.891574,-17.401294200000002,-0.5840732000000001,0.4877423999999999,0.7849204000000001,32.26973,28.533521399999994,-93.0371398,21.156995,-13.6369716,-13.2630264,-0.928215,0.2690316,-0.1907656,120.5331116,72.3980424,83.4934234,126.476500840726,1.0932219290025975,28.45159575729152,0.9850647705440084,88.2633816,43.864521,176.53056320000002
2658.051,33.0460944,115.4699644,-18.2345028,-0.6078810000000001,0.4937652,0.7762682,33.458482399999994,30.714,-91.955162,17.190071999999997,-9.4002754,-13.7111526,-0.935542,0.2938812,-0.191445,120.8432846,72.6995714,83.454538,121.48190863661218,1.1026856765294817,23.91358313974541,0.9991277103065652,87.3848022,41.9855714,175.4097
2678.036,33.886933799999994,110.3010266,-21.3061044,-0.6160804,0.5163323999999999,0.7440452000000001,34.683306200000004,32.8097724,-90.91725,13.270166799999998,-5.1649788,-12.4572246,-0.9479294,0.2959045999999999,-0.1905846,121.2603516,72.9350954,83.61102919999999,117.33963881009343,1.0953344083872103,18.91974570757009,1.0111637698427884,86.5770454,40.125323,174.5282792
2698.022,34.974921,106.2920834,-24.447484,-0.6353818,0.5392084,0.7246142000000001,35.9494172,34.8445018,-89.9123656,10.713445599999998,-1.8526344,-10.6572656,-0.9550894,0.2835118,-0.1861422,121.7561478,73.1113892,83.9034654,114.53790449628042,1.1043194597775772,15.224568332572389,1.0135204099338306,85.8067306,38.2668874,173.81583099999995
2718.007,32.7506518,102.9016568,-28.375138,-0.6428288,0.5400181999999999,0.6861050000000001,37.1775834,36.844142,-88.95268540000001,10.0174726,0.2392378,-8.4338564,-0.9556902,0.2753104,-0.168358,122.25720979999998,73.234488,84.2182038,111.6535025067681,1.0842456333625143,13.097210611138562,1.0087041146382818,85.07962640000001,36.390346,173.17088919999998
2737.993,33.0284608,100.8730496,-30.3037804,-0.6514124,0.5288280000000001,0.6494768000000001,38.4417894,38.81280360000001,-87.98525839999999,9.350231599999995,1.337527,-6.080174799999999,-0.955594,0.2605376,-0.1579834,122.7207672,73.3140152,84.5082002,110.3837418506576,1.0610453723550186,11.233180095054228,1.002994759969024,84.2789778,34.5012116,172.4934586
2757.978,35.5140344,99.34265580000002,-30.6231476,-0.67006,0.5246523999999999,0.6184012000000001,39.8178284,40.739509600000005,-86.9630614,8.814460199999997,1.5740225999999995,-3.793970799999999,-0.9633834,0.2506948,-0.1429157999999999,123.090149,73.3615448,84.7125412,109.85439030686504,1.0519793669969006,9.72452930449322,1.0056740943428144,83.27232059999999,32.622035200000006,171.6756026
2777.963,38.6238344,98.2684646,-29.3828098,-0.6942752000000001,0.5212748,0.5889407999999999,41.3506484,42.6109292,-85.83820019999999,8.657997799999999,0.1147281999999998,-1.9404987999999992,-0.9715966,0.2437926,-0.1351979999999999,123.3007614,73.399913,84.755052,109.59854574921629,1.0490932924934369,8.873535037260037,1.0107983400017633,81.95011300000002,30.788983800000004,170.5932522
2797.949,41.0357576,97.4281266,-28.0306668,-0.7135772,0.5231155999999999,0.5585876,43.0425398,44.4226746,-84.59301439999999,8.391438599999997,-2.0542312000000003,0.2344550000000007,-0.9755072,0.2514336,-0.1311188,123.2888412,73.4232254,84.57216919999999,109.37043263992426,1.046356754743314,8.642399941431105,1.015886456339605,80.24630140000001,29.000550800000006,169.1651836
2817.934,42.6230044,97.0485262,-26.2376256,-0.7391759999999999,0.5305186,0.5400404,44.8926872,46.1712518,-83.2041258,6.960648399999998,-4.2805854000000005,2.2661536000000004,-0.9714098,0.2524213999999999,-0.1421278,123.0679092,73.43168779999999,84.1993192,109.19500876322267,1.0580523510460718,8.479946323763416,1.0136833204935554,78.175222,27.26043600000001,167.403445
2837.919,40.9151508,95.774605,-25.4726258,-0.7695641999999999,0.5385135999999999,0.5017389999999999,46.8244078,47.86372,-81.69670860000001,4.521892399999999,-6.0195838,3.8377494000000008,-0.9661948,0.2555492,-0.1492676,122.6559204,73.4274948,83.6768536,107.21790518863718,1.0648793262279064,8.450515987772613,1.010504132390086,75.83151260000001,25.563774800000004,165.3735622
2857.905,38.8875682,93.4264742,-25.3845372,-0.8040497999999999,0.5316374,0.4662005999999999,48.8014204,49.4980514,-80.1097106,2.1897027999999987,-6.8318122,5.0981864,-0.961969,0.2599012,-0.1635668,122.130365,73.403221,83.082472,104.33179654741454,1.0707368516116178,8.801134066558788,1.0097955678179025,73.3289446,23.9051696,163.1921826
2877.89,37.7857454,90.604024,-25.942558400000003,-0.8341082,0.5218508,0.435596,50.8251966,51.073578600000005,-78.46671280000001,-0.1513188000000015,-7.084829600000001,5.9482356,-0.9645784,0.2556699999999999,-0.1664692,121.5281038,73.3673796,82.4555602,101.53752043832668,1.0760151588076627,9.251984359767205,1.0116771388121804,70.7029072,22.293801,160.922273
2897.875,34.8811318,87.4371066,-26.6357548,-0.8645486,0.5113597999999999,0.4145754,52.8452284,52.5860062,-76.7842512,-1.5339416000000017,-7.392648400000001,5.555729200000001,-0.9692392,0.2373226,-0.1686568,120.9231858,73.3487762,81.85216820000001,97.83355457098786,1.0866489263341494,9.3739188252281,1.0120235963027937,68.0779574,20.76277,158.63641940000002
2917.861,29.5824214,83.2690356,-27.1402072,-0.890274,0.490943,0.374205,54.799597600000006,54.030362,-75.0834654,-0.9903772000000014,-6.997613799999999,3.3095646000000007,-0.9708494,0.2191242,-0.1736776,120.4622468,73.3712204,81.3848632,92.44156420409692,1.0833476848869896,7.803887732009183,1.0103107844855264,65.6626492,19.3408584,156.4683286
2937.846,26.7679712,78.871178,-26.7975872,-0.9074656,0.4715478,0.3440514,56.7304266,55.3909996,-73.36198859999999,0.9740361999999988,-6.166812200000001,0.6803516000000007,-0.9723318,0.2153905999999999,-0.1827634,120.2014558,73.42906020000001,81.08355859999999,87.4945580079888,1.0789914312496462,6.280222729219231,1.012533802023004,63.4710292,18.0380606,154.4455472
2957.831,24.6853486,73.862047,-26.340297600000003,-0.9219782,0.4679578,0.3176526,58.6322158,56.656751400000005,-71.6487746,0.7064449999999987,-4.8184418,-1.693458799999999,-0.964075,0.2170814,-0.190373,120.1081314,73.509027,80.9615448,82.21179781631282,1.0816337079357503,5.155991526884978,1.0063830379035408,61.47591560000001,16.852275600000002,152.6103194
2977.817,21.0986844,67.67619640000001,-26.048453,-0.9334612,0.4634517999999999,0.298968,60.4195664,57.8218308,-69.992244,-1.0411178000000012,-2.8729664,-4.19828,-0.95722,0.2134006,-0.1922128,120.1854858,73.61182099999999,81.0535964,75.52313517244492,1.084213654153405,5.192631044798561,0.9993776588278328,59.7659194,15.7899902,151.0458404
2997.802,17.488606,61.450845400000006,-25.5836192,-0.9295316,0.4548676,0.2709222,62.08364340000001,58.8884934,-68.4003388,-2.439768400000001,-1.5999164,-6.395316599999999,-0.9632824,0.20874,-0.1813948,120.3691696,73.744789,81.2871748,68.82281098275881,1.0697347182274493,7.029386655097518,1.0021923184782449,58.28552619999999,14.8562956,149.6875136
3017.788,16.6495228,56.8516486,-24.660184,-0.914742,0.4492044,0.2556294,63.7124566,59.8620742,-66.8368272,-2.049242400000001,-2.322137,-7.333152,-0.9734468,0.2122382,-0.1599746,120.5070694,73.90577379999999,81.4686462,64.16729098940876,1.0506587979395214,7.960328693956725,1.0090766069108132,56.7946128,14.043699600000002,148.3054734
3037.773,16.8847966,54.3658454,-23.7722108,-0.897804,0.4476696,0.251248,65.3748924,60.7599426,-65.249299,1.112826399999999,-5.3074748,-7.193652599999998,-0.9805596,0.2168484,-0.1325586,120.46538839999998,74.0992614,81.40201420000001,61.691648613079785,1.034207740584144,9.008679652349658,1.012962062551545,55.09049600000001,13.3393188,146.6513132
3057.758,17.015749800000002,54.2404136,-23.2485528,-0.878252,0.4478456,0.2437538,67.139788,61.6077774,-63.5520624,7.3412786,-10.8910502,-6.080474199999999,-0.9860162,0.224987,-0.1024042,120.093985,74.33132020000001,80.868396,61.417044996072974,1.0155334420676654,14.473476169828851,1.01653023418346,52.954197,12.723542800000002,144.4204584
3077.744,18.1424696,56.3818466,-22.8677782,-0.8631774,0.4491761999999999,0.2261884,69.1150634,62.4264862,-61.66657180000001,14.895533599999998,-18.060762,-3.769356,-0.9835804,0.2366419999999999,-0.0787012,119.272316,74.58752899999999,79.71490179999999,63.49013395022293,0.9989973347370652,23.71236154211784,1.0147037588920225,50.1572526,12.1610428,141.3814736
3097.729,21.2004138,59.8018234,-22.4838548,-0.8605496,0.446518,0.2040032,71.4024292,63.223497,-59.5272606,22.1838338,-25.8315378,-0.2488841999999991,-0.9780256,0.2507774,-0.0627758,117.9059098,74.84048320000001,77.8488878,67.31448101206382,0.9907276336079458,34.05073817883925,1.011614639905809,46.5034806,11.6169862,137.3761484
3117.714,26.3895226,63.4754678,-22.454676600000003,-0.8707008,0.4472772,0.1829756,74.0688858,63.9965866,-57.10988460000001,28.362638200000003,-33.3160586,4.204818400000001,-0.9761456,0.2624189999999999,-0.0549575999999999,115.9622574,75.0585008,75.2589174,72.31704098409541,0.9958196859652052,43.95542633258961,1.0122965483286603,41.8933716,11.0619142,132.36880200000002
3137.7,31.6058464,66.3314278,-22.2054458,-0.8939104,0.4550436,0.1556042,77.1084244,64.7243568,-54.4213644,32.8129254,-39.456858,8.6258788,-0.9729562,0.263841,-0.0550108,113.5234742,75.21902480000001,72.0641084,76.75851525286133,1.0150631252226434,52.03784681950645,1.009594982414275,36.415049800000006,10.494668,126.4854728
3157.685,34.790502200000006,67.336152,-21.5708618,-0.9180932,0.4563386,0.1226988,80.4174546,65.3842406,-51.5329686,35.2559738,-42.6785522,11.556539000000004,-0.9652374,0.2537096,-0.0671372,110.8438248,75.31848600000001,68.56648799999999,78.80252843843279,1.0325672071384218,56.55082758132662,1.0002795624797898,30.4263702,9.934245399999998,120.09945659999998
3177.67,37.0944118,66.0581056,-20.3608124,-0.9375306,0.455044,0.0860056,83.8799606,65.952948,-48.551512,36.8281722,-42.4118454,12.936125,-0.9598744,0.2404849999999999,-0.0867554,108.22762,75.3603606,65.09742059999999,78.4489093858973,1.0456699436742551,57.64045652006912,0.9933370014398536,24.3476594,9.407412599999995,113.6489326
3197.656,38.992717600000006,62.24618,-18.4430954,-0.9507898,0.4597342,0.0533131999999999,87.3505492,66.4069076,-45.6221846,36.075,-38.189672,12.403125,-0.9487416,0.2354333999999999,-0.1037952,105.960814,75.3555526,62.001336,75.73088351761949,1.0574493253711594,53.978645613179374,0.9830121835202044,18.6102648,8.948644999999996,107.6235206
3217.641,38.470848,55.9953064,-16.0631372,-0.952249,0.4632964,0.0300894,90.6267318,66.7402436,-42.9051246,33.3932902,-31.925573,10.482360600000002,-0.939834,0.2323329999999999,-0.1100216,104.17357339999998,75.3269134,59.4542244,69.81049248769851,1.059399397888407,47.3733461506381,0.9743568765660556,13.546841599999995,8.586669799999996,102.359349
3237.626,34.7902522,47.9885468,-13.1311942,-0.9444146,0.4607656,0.022143,93.5017348,66.9595704,-40.5515892,28.1159252,-25.1296364,7.759224200000001,-0.9349476,0.2344786,-0.1068046,102.850641,75.2956588,57.49571,60.70988826569777,1.051053846044778,38.49947318644848,0.9698012431343238,9.348906199999997,8.336088399999998,98.0472992
3257.612,29.1841568,39.63553280000001,-10.192665,-0.9369138,0.4600938,0.0157334,95.8905088,67.08394639999999,-38.6081162,22.4861342,-19.9520162,6.125802200000001,-0.9398968,0.2452322,-0.0870198,101.8006944,75.25694419999999,55.9382782,50.26510607040522,1.0439067550813337,30.679547491757383,0.9752524145876902,5.910185599999997,8.1729978,94.5463944
3277.597,20.971112,32.5026146,-7.5513356,-0.929543,0.456665,0.0123739999999999,97.7755416,67.13686700000001,-37.031501000000006,15.2072604,-17.2029504,5.446412200000001,-0.9433822,0.2650758,-0.0600261999999999,100.7712082,75.203833,54.5563926,39.41104113946376,1.0357346315297176,23.59800155077919,0.9817526672787396,2.9956665999999985,8.066965999999997,91.5878936
3297.582,10.599731,26.7130426,-5.3424320000000005,-0.9247506,0.4449755999999999,0.005476,99.1716644,67.1436602,-35.760538600000004,8.3621746,-16.3591424,5.843941400000001,-0.9532896,0.2667203999999999,-0.0482138,99.65372,75.1355116,53.226049,29.23153300626568,1.0262538396379914,19.279500906169662,0.99107285491772,0.4820555999999982,7.991851399999999,88.9865876
3317.568,0.5289706000000003,22.0681242,-3.4809112,-0.9299128,0.4272662,-0.0191526,100.1644348,67.12369559999999,-34.7112016,2.788542,-15.8593162,6.6822986,-0.9606952,0.2618858,-0.0490836,98.4755828,75.0480954,51.94703440000001,22.347229322324846,1.0235531463256025,17.43407558194321,0.996959697948538,-1.688852,7.924399800000001,86.65823599999999
3337.553,-6.768469399999999,18.3823036,-2.4667108,-0.9368392,0.4105222,-0.0567346,100.8781266,67.09693320000001,-33.8147698,0.1056562,-14.1189788,7.078537,-0.964799,0.2510116,-0.0621043999999999,97.4188978,74.9504804,50.8461014,19.74350338293956,1.024409575407532,15.794379115616316,0.998849783618598,-3.4592288000000027,7.853547199999999,84.6608712
3357.538,-11.1740922,14.5282352,-1.3432590000000002,-0.9425874,0.391628,-0.087209,101.3549868,67.0673754,-33.0882156,-1.3680252000000002,-9.7954068,5.572252400000001,-0.9686588,0.2371749999999999,-0.0803768,96.7251248,74.8759932,50.1478692,18.377548782732177,1.0244261353088178,11.352157686300302,1.0005060126859209,-4.629862000000003,7.808617799999996,83.2360848
3377.524,-11.3280726,9.3698448,0.1147371999999999,-0.9507864,0.3726917999999999,-0.1059824,101.60374,67.03744520000001,-32.6108772,-2.019452,-2.8611683999999995,2.3285254000000006,-0.9717842,0.2231361999999999,-0.1046056,96.6242398,74.8532514,50.073176,14.70144159706869,1.0267064942435886,4.205532253105155,1.0025450746332754,-4.979500200000001,7.815806199999997,82.6840532
3397.509,-8.6385368,2.6319554,1.1979883999999998,-0.9576296,0.3644386,-0.115595,101.5989898,67.0168764,-32.469857000000005,-2.8507412,6.4531572000000015,-2.3471177999999995,-0.965998,0.2191441999999999,-0.1237886,97.2879774,74.8953902,50.8049218,9.10970271079567,1.0311314891860883,7.434979838867497,0.998248432950235,-4.311012399999998,7.878513799999999,83.27477879999999
3417.494,-5.7617352,-6.0398102,2.351482,-0.9618606,0.3655114,-0.1091872,101.2326828,67.0067522,-32.7796982,-6.1900506,18.870842,-8.517846,-0.955161,0.2096154,-0.1449102,98.896266,75.0096512,52.5833382,8.672160478408312,1.034744529826643,21.60969931996372,0.9885697334544488,-2.3364167999999976,8.002899,85.3630364
3437.48,-5.3346638,-17.0550554,3.5914206,-0.9635352,0.3681222,-0.0958744,100.34068,67.00765999999999,-33.665097200000005,-12.4865258,33.5295006,-15.6423818,-0.942158,0.1979494,-0.1656266,101.5791702,75.17868659999999,55.6049484,18.22722838179749,1.0359082663765358,39.04900569049661,0.9768714513956892,1.238490200000004,8.1710266,89.27004559999999
3457.465,-7.7798654,-29.6518046,5.1475922,-0.9630616,0.3786694,-0.0758308,98.7862518,67.0010284,-35.208085000000004,-18.7936238,47.679816,-21.7663792,-0.930551,0.1941961999999999,-0.1776244,105.33831639999998,75.343303,59.8687324,31.084618819219887,1.037607088506801,55.68070054164167,0.967051061304831,6.552064600000004,8.342274600000001,95.0768174
3477.45,-12.3466762,-42.917248,6.3746346,-0.961318,0.399028,-0.0573418,96.511496,66.96800540000001,-37.4231942,-24.162149,59.180551,-25.582158,-0.9273314,0.2053092,-0.1789694,109.8910722,75.4327456,65.06645040000001,45.110603580141415,1.0424220469345609,68.85197069727754,0.9665016498521664,13.379576200000002,8.464740200000003,102.4896446
3497.436,-17.547217,-55.2326492,7.7354792,-0.9634966,0.4212189999999999,-0.0282198,93.5551408,66.87791899999999,-40.2553764,-27.5653574,66.160784,-26.557923,-0.9368356,0.2094478,-0.1711167999999999,114.8201524,75.4047122,70.7283706,58.46698213991366,1.0519256158515202,76.43573471981753,0.975095011572944,21.2650116,8.5267932,110.983747
3517.421,-21.8881874,-65.4841376,9.0579224,-0.9666708,0.4368229999999999,0.005568,90.055986,66.703749,-43.568386,-26.4358608,68.1575912,-25.4160114,-0.9548562,0.2125202,-0.1563086,119.775754,75.24404480000001,76.39889840000001,69.63699435700592,1.0608005333358574,77.39693540385319,0.9906298887679698,29.719768,8.540295799999999,119.9672844
3537.406,-23.2898882,-72.6049346,11.2794756,-0.9676322,0.4526344,0.0436314,86.2598952,66.400113,-47.1627212,-20.7849132,66.0665154,-22.5961064,-0.9712648,0.2221654,-0.144415,124.4558626,74.943497,81.67351239999999,77.07867403147107,1.0691555890543527,72.8517748463968,1.0067613763455567,38.1959674,8.543383999999998,128.8362336
3557.392,-21.302832,-76.8821806,13.673512,-0.9644508,0.4734814,0.0815612,82.4266662,65.9440324,-50.8374062,-14.8123446,61.5707366,-19.282294799999995,-0.9837498,0.2362656,-0.1446062,128.58294080000002,74.5339968,86.2633454,80.94223418861988,1.0774981258044212,66.19794597092749,1.0220058981345654,46.1562746,8.589964399999996,137.10075160000002
3577.377,-17.1521522,-79.0298812,16.268466999999998,-0.9545518000000002,0.4851559999999999,0.1214458,78.74016879999999,65.3299958,-54.4550516,-8.0806272,56.2238502,-15.811986599999996,-0.9893098,0.2333164,-0.1553912,132.14784100000003,74.05999460000001,90.1399858,82.48988705355444,1.0776337808165073,58.96131602581475,1.028259134616581,53.4076722,8.729998799999995,144.5950374
3597.362,-13.0481754,-80.4284758,18.6785236,-0.94125,0.5001,0.1658301999999999,75.269461,64.56201860000002,-57.9395808,-1.9288890000000003,51.5634574,-12.8535352,-0.9840674,0.2310466,-0.1723422,135.24373480000003,73.5451844,93.4091356,83.59355145378206,1.0786803176715702,53.17634924431702,1.0254135814466083,59.97427380000001,8.983165799999997,151.3487164
3617.348,-10.208601,-82.10864699999999,21.0646836,-0.9306244,0.5134042,0.2004999999999999,72.0203904,63.6457238,-61.2767802,3.1074892,47.4226608,-9.6221118,-0.9762246,0.2313185999999999,-0.1978629999999999,137.9099914,72.9940628,96.1319428,85.3801284943746,1.081594145903629,48.48866137533261,1.0225813078284385,65.88960100000001,9.348339,157.408723
3637.333,-9.2092794,-84.445111,22.4197362,-0.9245878,0.5231272,0.2311706,68.9492876,62.60615459999999,-64.4769388,6.609091599999999,43.2415542,-6.039686999999999,-0.974761,0.2281464,-0.2153814,140.12585140000002,72.42285460000001,98.3175506,87.85460813268234,1.087181913753646,44.15869020325101,1.024011198385994,71.17656380000001,9.8167,162.79448940000003
3657.319,-9.991494,-87.36645200000001,23.8234072,-0.9249558,0.5181595999999999,0.262858,66.01369100000001,61.450914,-67.5487482,9.5186318,39.55874179999999,-3.0643899999999995,-0.9730388,0.2132164,-0.2286296,141.9872742,71.8506776,100.075676,91.10588135810636,1.0923034977467572,40.80305001118345,1.022026043469813,75.97358320000001,10.3997636,167.6244242
3677.304,-13.328651000000002,-91.0519332,25.349668,-0.928712,0.5177768,0.2977182,63.1520546,60.1717438,-70.49730539999999,10.0667896,36.587288,-1.3992063999999993,-0.9706784,0.201116,-0.2426727999999999,143.57561040000002,71.291002,101.539241,95.45005576031524,1.1041897120393216,37.97272277037048,1.0205656713521185,80.4235558,11.1192582,172.0365464
3697.29,-18.7835052,-94.8862488,26.9272854,-0.9304072,0.5088275999999999,0.3220052,60.33699420000001,58.77187740000001,-73.31175700000001,8.321268199999999,33.90463319999999,-0.2745793999999993,-0.972651,0.2027196,-0.253897,144.8927888,70.74975900000001,102.7586426,100.40567204071182,1.108264604307401,34.91193278421831,1.0254798343381306,84.55579459999998,11.9778816,176.0703996
3717.297,-24.281757,-97.993042,28.0639736,-0.9203788000000002,0.4985866,0.3482822,57.583358,57.2630364,-75.9661714,4.9162118,31.206431,0.4216246000000007,-0.9730366,0.1983964,-0.259367,145.9553132,70.2409196,103.7840744,104.78466785576174,1.1031709858520755,31.594117198040927,1.0263686458390668,88.37195519999999,12.9778832,179.7502458
3737.26,-29.2514174,-100.9106308,29.235931800000003,-0.9088646,0.4893651999999999,0.3890302,54.9031944,55.6440874,-78.45579239999999,1.2349941999999998,28.540236000000004,0.6756916000000007,-0.971317,0.187309,-0.26157,146.80871580000002,69.7750154,104.6673524,109.05659327421328,1.1031127125621571,28.574933783791003,1.0232107509550512,91.9055214,14.130928,183.1231448
3757.245,-33.9952522,-103.4714172,30.0130062,-0.8927132,0.4835549999999999,0.4206626,52.3109894,53.92827619999999,-80.76963520000001,-1.0043960000000005,25.6848542,0.8949494000000007,-0.9718096,0.1732988,-0.2682255999999999,147.50324700000002,69.3561174,105.42919,112.97252715009652,1.0989628376419287,25.72005989551024,1.0229327178406995,95.1922576,15.4278412,186.1988252
3777.231,-37.9105934,-105.7045684,31.1183884,-0.8768448000000001,0.475642,0.4564646,49.83051,52.116977,-82.89499980000001,-1.1146901999999996,23.126675400000003,1.216024400000001,-0.9703048,0.1634808,-0.2767942,148.09364920000002,68.9764528,106.0823516,116.52906491165052,1.097019619926736,23.185434320718187,1.022170438833622,98.2631392,16.859475800000006,188.9773514
3797.216,-40.962123000000005,-107.825099,32.219039599999995,-0.8571213999999999,0.4721149999999999,0.4837467999999999,47.477488,50.215844,-84.83350979999999,-0.7100011999999999,20.4066154,0.8043870000000005,-0.9643424,0.1614874,-0.2817777999999999,148.6160734,68.6459322,106.6555816,119.75898299406728,1.0915862925454862,20.434801007919983,1.017562368294622,101.1385854,18.430088200000004,191.4890914
3817.201,-43.8850364,-110.6518692,33.44785399999999,-0.8388228,0.4741882,0.5221838,45.230088,48.2128884,-86.6110504,-1.2887964,18.2382954,-0.0007721999999992,-0.954025,0.1696302,-0.291801,149.08056620000002,68.3534334,107.1813202,123.6466397217836,1.095971742245903,18.283774661010423,1.0119713083768926,103.8504782,20.140545000000003,193.7923706
3837.187,-46.9114152,-113.6225234,34.3519844,-0.8162687999999999,0.4816041999999999,0.544557,43.083535600000005,46.1146964,-88.2351654,-2.8621358,16.5198264,-0.4907775999999993,-0.947028,0.1806076,-0.3041732,149.4686064,68.0869584,107.66082,127.63548696216183,1.093059781329493,16.773113851531573,1.0109413798831266,106.3850708,21.972262,195.8959854
3857.172,-48.7266152,-116.8838714,34.4742394,-0.792355,0.4844737999999999,0.57497,41.0306838,43.929763,-89.7406494,-4.7322178,15.06638,-0.5902853999999993,-0.938784,0.188867,-0.317417,149.7731658,67.8382522,108.0919114,131.24250685090223,1.092305730924927,15.8031050260539,1.0088308551159606,108.742482,23.9084892,197.8325608
3877.158,-49.30345079999999,-120.1871522,34.1653214,-0.7626073999999999,0.4849569999999999,0.5978838,39.0835226,41.6668914,-91.14206099999998,-6.155862600000001,13.822898599999998,-0.6915579999999992,-0.9371022,0.1938364,-0.3170202,150.0055724,67.6122162,108.477968,134.3244244398586,1.0836135735058876,15.147455975289208,1.0080847635084265,110.9220498,25.9453248,199.620029
3897.143,-48.7205636,-123.307857,34.229759200000004,-0.7300861999999999,0.4816709999999999,0.6333498,37.252461800000006,39.3240486,-92.4452242,-6.6734992,12.6458618,-1.2146253999999992,-0.9402184,0.1896794,-0.3174376,150.21892699999998,67.4149322,108.854764,136.9313599228609,1.079891096746093,14.350216970465118,1.0103244747984086,112.9664652,28.0908836,201.2999882
3917.128,-47.9537674,-125.5209642,34.8664054,-0.692207,0.4810386,0.6580056,35.552967,36.9120166,-93.630118,-6.799572,11.0207114,-2.1828577999999994,-0.9442852,0.185499,-0.3150106,150.42825620000002,67.2598068,109.2302996,138.81909986406097,1.0693549621946494,13.13221715173393,1.0125789332454038,114.8752892,30.3477902,202.8604176
3937.114,-46.3504036,-127.3877154,36.2251984,-0.6514978,0.4749982,0.6884336,33.996230999999995,34.4300376,-94.6922274,-6.5659398,9.163056,-3.3961974,-0.9424376,0.1861562,-0.3148866,150.64236139999997,67.149382,109.6068452,140.31484222217424,1.0601950268780929,11.773160896553092,1.0109383421118026,116.6461304,32.7193444,204.2990726
3957.099,-44.342051600000005,-128.8642382,37.966578600000005,-0.6041179999999999,0.4722255999999999,0.713605,32.5899698,31.881042399999995,-95.6280504,-6.9189066,7.196190799999999,-4.041569999999999,-0.9369146,0.1985436,-0.311525,150.80773,67.07738040000001,109.9416794,141.46968055931058,1.0474672649989405,10.769898729070212,1.00711288067382,118.2177602,35.196338000000004,205.5697298
3977.084,-42.5211486,-129.4709596,38.870694,-0.5548524,0.477477,0.7346472,31.320999,29.2905522,-96.4528734,-8.1567636,5.3304288,-3.327875799999999,-0.930975,0.2071968,-0.3172928,150.8664366,67.025261,110.1889572,141.70994428779423,1.0370882217934017,10.296650958364085,1.0051465990028916,119.5454376,37.7347088,206.6418306
3997.07,-40.097570000000005,-129.8386872,39.120044,-0.5098944000000001,0.4771248,0.7596605999999999,30.1790652,26.6749618,-97.1910632,-9.4068368,4.1568608,-1.2482017999999993,-0.9241386,0.2114354,-0.3261965999999999,150.788574,66.9670242,110.31485739999998,141.4081951524956,1.0318549322064414,10.359830019162192,1.0025673554603105,120.6095088,40.292062400000006,207.5059206
4017.055,-37.6143242,-130.6923036,39.2171738,-0.4695439999999999,0.4817212,0.7843964,29.151058,24.0320916,-97.862581,-10.489564,3.8207752,1.2803168000000007,-0.9229204,0.2177547999999999,-0.3257256,150.5714842,66.8887268,110.31409139999998,141.53904876802264,1.0333463092295825,11.236925164269506,1.0026446948717975,121.4204262,42.8566352,208.1766724
4037.04,-36.306460400000006,-131.0492676,38.8378296,-0.426767,0.4839544,0.8009698000000001,28.2035354,21.3781568,-98.4800004,-12.0290444,3.9551764,3.9416566,-0.923451,0.2213824,-0.3218212,150.2151916,66.78362580000001,110.1961822,141.42293524500124,1.028540010928306,13.261899799222276,1.0026668445701197,122.0116562,45.405469,208.6761826
4057.026,-36.240409,-131.1516694,38.3027794,-0.3862281999999999,0.4803032,0.8194645999999999,27.301390399999995,18.7210664,-99.0511446,-13.9073476,4.5404512,6.4153458,-0.923831,0.2216547999999999,-0.3246366,149.7439086,66.643193,109.9928742,141.3549806008237,1.025370965582037,15.974563408756586,1.003983809124231,122.4425182,47.9221266,209.0440188
4077.011,-35.989768999999995,-131.392978,38.3440818,-0.349352,0.4721468,0.8374524000000001,26.4439822,16.0560646,-99.5731614,-15.836671999999998,5.6007324,8.5729668,-0.9237472,0.2248578,-0.3260668,149.181079,66.4616972,109.73112179999998,141.52613451043922,1.022886085016313,18.85905997672991,1.0050818264156007,122.7370968,50.4056326,209.3042832
4096.996,-35.459771,-131.7338106,38.4382514,-0.3087252,0.4675642,0.8460373999999999,25.6369296,13.380947,-100.0486648,-17.502952999999998,6.2661434,10.6544296,-0.9233236,0.2341,-0.3242844,148.5207702,66.24580979999999,109.3998992,141.73458076721684,1.0147447030832135,21.42743071231193,1.0062254480981483,122.88384059999998,52.86486279999999,209.448564
4116.982,-34.1713974,-131.7619142,37.9582138,-0.2623448,0.4511636,0.8595606,24.8815406,10.7041328,-100.4915314,-19.0066134,6.9049864,12.9887548,-0.9219314,0.2415156,-0.3251988,147.7647034,65.9921172,108.9964446,141.31423293073985,1.005593264259641,24.034099554087057,1.0069963013193048,122.8831628,55.287984400000006,209.48797600000003
4136.968,-32.8616556,-131.80974759999998,37.4765632,-0.2122494,0.4358746,0.8723471999999999,24.1740298,8.0231394,-100.906511,-20.1930056,6.539377400000001,15.514622000000005,-0.9261674,0.24694,-0.3283433999999999,146.8972992,65.71539299999999,108.4953994,140.91909295915974,0.9980110781315804,26.29114732650795,1.0132002786943557,122.7232694,57.6922536,209.4019104
4156.952,-30.9433008,-131.5368838,37.23536,-0.1647932,0.4201626,0.8797982,23.5243716,5.3442194,-101.2896256,-20.689588800000003,5.015823200000001,17.335925800000002,-0.9309536,0.2478622,-0.3219178,145.93167119999998,65.44682780000001,107.895764,140.16387444182465,0.9888064936721644,27.45454225496848,1.0157466935701245,122.40729960000002,60.1026084,209.1853896
4176.938,-29.3407864,-131.06522239999998,37.2973542,-0.1132222,0.3990028,0.8836422,22.919915600000003,2.6668906,-101.6376954,-20.1689562,1.9838072,18.048535800000003,-0.9336124,0.249432,-0.3130696,144.8904878,65.22228559999999,107.2003234,139.39177486369897,0.9761383296446872,27.13801631896061,1.0158055968057669,121.9705722,62.555395,208.8380188
4196.923,-28.1849934,-129.8179124,37.6347238,-0.056669,0.3803214,0.8779878,22.3516222,0.0004334000000001,-101.9425706,-18.795079800000003,-1.6626362,18.050721600000003,-0.9348646,0.2467236,-0.3058047999999999,143.8043398,65.057799,106.4226668,138.07047717870176,0.9584979498192993,26.11221810001259,1.014081323579702,121.4527176,65.0573656,208.3652374
4216.909,-27.0522164,-128.0808914,38.7361764,-0.0034903999999999,0.3635355999999999,0.8709126000000001,21.8156198,-2.6495346,-102.1879548,-16.4131056,-6.607605599999999,17.544723800000003,-0.932878,0.2472296,-0.2997397999999999,142.6709902,64.975841,105.5388182,136.51750259971408,0.943747356127836,24.91721935570238,1.010558155528023,120.8553704,67.6253756,207.726773
4236.894,-25.6312382,-126.1352766,40.2548142,0.04373,0.3472849999999999,0.8722387999999999,21.3103094,-5.2780934,-102.3667176,-13.7557928,-11.9309164,16.5559156,-0.9271288,0.2529717999999999,-0.2917224,141.48761919999998,64.9829622,104.5413756,134.8611079626004,0.9398508968716472,24.61030156366728,1.0043229072596322,120.17730980000002,70.26105559999999,206.9080932
4256.879,-25.1605942,-123.8822064,41.7186318,0.092028,0.3377264,0.8580978,20.8179504,-7.880979399999999,-102.47984780000002,-11.6565088,-17.1205406,15.7371506,-0.9219922,0.2630412,-0.2855514,140.22620260000002,65.06914520000001,103.412979,133.1176201796488,0.9267470574033672,26.01240121264868,1.0003998659537297,119.40825220000002,72.95012460000001,205.8928268
4276.864,-24.9460828,-121.3914028,42.6624038,0.1374293999999999,0.3286122,0.8511024,20.3280392,-10.447588,-102.5355012,-10.6020718,-21.6188164,15.4108642,-0.9180334,0.2742908,-0.2861048,138.8641634,65.2110352,102.1513518,131.06586290415424,0.9226310818842816,28.58796747549755,0.9999383596318524,118.5361242,75.6586232,204.686853
4296.85,-24.2671662,-118.9417706,43.5121642,0.1759563999999999,0.3198936,0.8493972,19.8442224,-12.9734078,-102.5364412,-10.4065486,-25.0474422,15.345306400000002,-0.9133366,0.2831104,-0.2861236,137.4008852,65.3868042,100.7746902,128.95483155822123,0.9245367344728708,31.16326431932932,0.9980991724095758,117.5566628,78.360212,203.3111314
4316.835,-24.0069412,-116.6160322,43.7923942,0.2091056,0.3128178,0.8468156,19.3571294,-15.4529504,-102.494182,-10.9911792,-27.786755600000003,15.558964200000002,-0.9164734,0.2945248,-0.2828022,135.81958020000002,65.5808914,99.2829848,126.85978867087825,0.9266481470070288,33.68963006560811,1.0033172155641703,116.46245079999998,81.0338418,201.7771668
4336.821,-24.1040878,-114.202391,43.3627442,0.2484046,0.3041125999999999,0.8323304,18.8609674,-17.8848612,-102.4219332,-11.526477000000002,-30.0032606,15.3954714,-0.911744,0.3015574,-0.2796154,134.1455262,65.7870102,97.7023908,124.51313482256248,0.9203060434138636,35.63812366400985,1.0001993596018346,115.2845588,83.6718714,200.124324
4356.806,-24.0807324,-111.94560099999998,42.593261,0.2868293999999999,0.2900802,0.8315429999999999,18.3516018,-20.268536,-102.3255388,-12.5662044,-31.792049599999995,15.6669238,-0.9084522,0.3132628,-0.2777488,132.3601014,65.9864914,96.0242872,122.1715398068868,0.9262188661355372,37.60447329968133,1.0002816490619628,114.0084996,86.2550274,198.349826
4376.791,-24.6496282,-110.14364500000002,41.45021920000001,0.3242173999999999,0.2799964,0.8228382,17.824543,-22.6108778,-102.2166856,-13.8657422,-33.7362788,16.1321242,-0.9048882,0.3254068,-0.268586,130.4385622,66.17668760000001,94.228581,120.23870997317093,0.9276732236380222,39.88283772793024,0.9984240979571156,112.6140192,88.7875654,196.4452666
4396.777,-25.0211256,-109.1491748,39.541176,0.3581809999999999,0.2610392,0.8232732,17.2839332,-24.9193166,-102.1131044,-16.0620972,-36.115599,16.775357200000002,-0.9086496,0.3398772,-0.257417,128.3385254,66.357849,92.289163,118.75648902386304,0.9349940398397628,42.938794426237,1.00370519503936,111.0545922,91.27716560000002,194.4022674
4416.762,-25.39853,-108.7493456,37.12912239999999,0.4006267999999999,0.2443057999999999,0.806686,16.741219199999996,-27.2113934,-102.0314516,-18.622101,-38.8635094,17.4324452,-0.9004673999999999,0.3458812,-0.2399908,126.0360214,66.5299848,90.1877638,117.68635105560594,0.9332360148364828,46.48704286345919,0.9940175687888216,109.2948022,93.7413782,192.2192154
4436.747,-26.2510602,-108.8189196,34.592740799999994,0.4356196,0.2214288,0.7923422,16.186018,-29.4919762,-101.9756348,-20.9411134,-41.2293954,18.347626400000003,-0.9023674,0.346649,-0.2159478,123.5352662,66.6852658,87.9243148,117.16370231684928,0.9309142341131325,49.74965999878972,0.9904877112355306,107.3492482,96.177242,189.8999496
4456.733,-26.9061562,-109.5941316,32.529503,0.4685386,0.1966192,0.7873787999999999,15.6156888,-31.7735234,-101.9366654,-21.6299246,-43.7608558,19.017983800000003,-0.913016,0.3334034,-0.1857418,120.8709808,66.8307782,85.5006148,117.44353318954572,0.9370981294336468,52.38845145990804,0.989573675708282,105.255292,98.6043016,187.4372802
4476.718,-26.9628628,-110.38107,31.8485374,0.5033991999999999,0.1664806,0.7724126,15.0212392,-34.06813820000001,-101.8795822,-20.1539216,-46.4380584,18.33272,-0.9247196,0.3200962,-0.1572442,118.1090986,66.9844342,82.9412658,118.00553342634284,0.936881939934675,53.84015644868761,0.9911072869837252,103.0878594,101.0525724,184.820848
4496.704,-27.2147456,-110.85318300000002,32.7620766,0.5397156,0.1450148,0.7529738000000001,14.3795514,-36.3781374,-101.764366,-16.867342400000002,-48.4820914,17.174854000000003,-0.9306618,0.314447,-0.1299992,115.3163374,67.1394712,80.2803328,118.75362824961805,0.9377055852392264,54.12943779569586,0.9909127579100392,100.936786,103.5176086,182.0446988
4516.7,-28.1211204,-110.4648026,34.1825156,0.5722812,0.1285636,0.7309862,13.6667528,-38.6885466,-101.571652,-12.859241799999998,-49.6316924,15.747851600000004,-0.9399412,0.3192812,-0.113855,112.556314,67.28329140000001,77.57011259999999,119.00300163757429,0.9372167282485092,53.63450214344035,0.9991961294740288,98.8895612,105.971838,179.1417646
4536.674,-27.7599288,-109.4973236,36.0685088,0.6057308,0.1132784,0.7159614000000001,12.8912014,-40.9864174,-101.2787672,-9.0973656,-50.0011894,14.229522200000002,-0.9483044,0.3297648,-0.1052052,109.86694479999998,67.40828239999999,74.856047,118.5799934626405,0.9446388327107668,52.77651280934568,1.009501952690256,96.9757434,108.39469979999998,176.1348142
4556.66,-26.446765,-108.1825974,37.7031158,0.639881,0.1036148,0.6884914,12.0712128,-43.266828200000006,-100.8855406,-6.5614368,-49.0562538,13.3126132,-0.9485972,0.349341,-0.1002968,107.2805236,67.48762819999999,72.19944620000001,117.57733922913854,0.945623671876926,51.25226004756496,1.015842128590403,95.2093108,110.7544564,173.0849868
4576.655,-24.330596,-106.5323548,38.5601182,0.6699418,0.1014278,0.6666596,11.2290292,-45.5144562,-100.4057754,-5.417406000000001,-47.68144,12.9230708,-0.9411548,0.3615976,-0.0944632,104.7837586,67.5135452,69.61490180000001,115.87926146013476,0.9505496495566342,49.69782457154688,1.0126442998620195,93.5547294,113.0280014,170.0206772
4596.63,-22.536526,-104.4938248,38.872908800000005,0.6965242,0.0960166,0.6387028,10.3523572,-47.7186524,-99.8413362,-6.220196200000001,-45.3919214,12.599308000000002,-0.9377382,0.375687,-0.0852699999999999,102.3864794,67.4867936,67.15471740000001,113.7451425954308,0.949898107898442,47.5169436225557,1.0137872689120926,92.0341222,115.205446,166.9960536
4616.616,-20.118494,-102.28691419999998,39.3855156,0.7225218,0.0832393999999999,0.6060148,9.433091,-49.879551000000006,-99.174164,-8.128289,-43.4205178,12.6786298,-0.9332504,0.3817468,-0.0782799999999999,100.0644152,67.40855580000002,64.8146126,111.4387071733338,0.946689224089215,45.9582212633723,1.0113430114508133,90.6313242,117.2881068,163.9887766
4636.601,-17.050062599999997,-99.614885,39.7273094,0.7441924,0.0743817999999999,0.5776106000000001,8.478687599999999,-51.982183,-98.4005526,-10.751068,-41.6633042,12.821288200000003,-0.9276834,0.3843982,-0.0696007999999999,97.7979784,67.2854218,62.5885308,108.59138575591744,0.9449809445810852,44.89768157833788,1.0065797227042874,89.3192908,119.2676048,160.9890834
4656.586,-14.709069,-96.002745,39.7550888,0.7579081999999999,0.070011,0.5474707999999999,7.476115,-54.0044494,-97.5237764,-14.4857924,-38.0133122,11.6207424,-0.9200528,0.386455,-0.0641549999999999,95.6735416,67.147203,60.5935532,104.9445131670907,0.9375770136905448,42.30711216565985,0.9999802427237452,88.1974266,121.15165240000002,158.1173296
4676.572,-12.3014322,-91.7641188,39.9581062,0.7720243999999999,0.0564597999999999,0.5191524000000001,6.398396,-55.9332092,-96.5173722,-19.1317834,-33.5766754,10.787697400000004,-0.914262,0.3923314,-0.0619478,93.7081012,66.988861,58.867624,100.83962011234568,0.9320561129230148,40.12222180008788,0.996813153000501,87.30970519999998,122.9220702,155.3849962
4696.557,-8.798169,-86.83388959999999,39.5336334,0.7849742,0.0471104,0.4892056,5.278463,-57.753506400000006,-95.3966476,-22.1492098,-29.3905646,10.5094758,-0.906175,0.3913377999999999,-0.06681,91.9301272,66.8111846,57.4047784,95.814614389576,0.9261349812663164,38.27325259057525,0.9893240017475772,86.6516642,124.564691,152.80142600000002
4716.543,-4.6184066,-81.2836042,38.443834800000005,0.7911906,0.0371766,0.4783034,4.145854399999999,-59.442752,-94.1826918,-24.5884006,-23.7254676,9.5051054,-0.8969668000000001,0.3919464,-0.0656796,90.4072314,66.6333418,56.2681886,90.03489559828941,0.9252776921375984,35.46595953262564,0.9810633163213066,86.261377,126.0760938,150.45088040000002
4736.528,-3.8026736,-74.7882666,35.81577660000001,0.7998526,0.0311352,0.4540003999999999,2.9940358,-60.9858986,-92.9441802,-26.7323678,-17.418570600000002,8.2940424,-0.8973516,0.3909312,-0.0648818,89.16380480000001,66.4696058,55.4793122,83.00912601034852,0.9202445031653056,32.96691112729033,0.98095705569981,86.169769,127.4555044,148.4234924
4756.514,-0.8435438,-68.03248740000001,33.4389366,0.8087008000000001,0.0143004,0.4304274,1.852595,-62.3817046,-91.668692,-26.962615,-12.6108208,6.746575000000002,-0.896912,0.3826246,-0.0623004,88.15268879999999,66.3381742,54.94677879999999,75.81090547482268,0.9162255355705604,30.521003966425525,0.9771049381255424,86.3000938,128.7198788,146.6154708
4776.499,1.4350814,-60.4492752,30.64198,0.8153197999999999,0.0048153999999999,0.4193775999999999,0.7423674,-63.6110808,-90.3924012,-25.1926004,-7.427453199999999,4.705009000000001,-0.8994396,0.3746064,-0.0532524,87.41205620000001,66.25329119999999,54.6712332,67.78720579246766,0.9168681125063516,26.682790064803037,0.9757855128433092,86.66968879999999,129.864372,145.0636344
4796.484,3.754226,-52.4423942,27.8951932,0.8181656,-0.016998,0.3987418,-0.3395068,-64.6690436,-89.1135652,-23.8967626,-2.0117226,1.5526226000000014,-0.8976164000000001,0.3621328,-0.0380555999999999,86.9249376,66.2413114,54.64694199999999,59.51840661469858,0.9103180236019718,24.03149865318724,0.968660722377118,87.2644444,130.910355,143.76050719999998
4816.47,5.3604276,-44.5058368,25.7656296,0.8252404,-0.0274507999999999,0.3831694,-1.3987868,-65.5555664,-87.8368152,-21.411187,2.846788,-1.5604005999999986,-0.9034166,0.3480908,-0.0257658,86.6880646,66.3046842,54.844239,51.704655128986914,0.910271417385584,21.655899443301667,0.968500198580176,88.0868514,131.86025060000003,142.6810542
4836.455,9.7590592,-37.0758838,25.3286838,0.830434,-0.0502102,0.3693639999999999,-2.4411362,-66.28554840000001,-86.49415,-17.7120536,6.2274448,-4.996938799999999,-0.900104,0.3395336,-0.0128843999999999,86.65496060000001,66.4429366,55.186155,45.95000129554503,0.9102590054682458,19.428517926935797,0.9620999345745326,89.09609680000001,132.728485,141.680305
4856.44,11.9667048,-29.4201504,25.0684158,0.8427516,-0.0595904,0.3586392,-3.4823268,-66.85476080000001,-85.111757,-15.023511200000002,9.2338462,-8.029106799999997,-0.8980862000000001,0.3409504,-0.0058,86.7987426,66.64184259999999,55.66381319999999,40.461991350533566,0.9178253378782698,19.37618023315189,0.9606454277674984,90.2810694,133.4966034,140.7755702
4876.426,14.1435284,-21.8426304,24.4115852,0.8498452000000001,-0.0736426,0.3414426,-4.4886952,-67.26599139999999,-83.72637940000001,-13.2968014,11.3670876,-11.4634622,-0.8964454,0.3431886,-0.0110281999999999,87.08084699999999,66.90730740000001,56.2527132,35.68004190537715,0.9188270487924048,20.914745362732592,0.9599554112282298,91.5695422,134.17329880000003,139.9790926
4896.411,15.7243852,-14.6807904,22.9690002,0.862129,-0.0800488,0.3434802,-5.3998702000000005,-67.526581,-82.4123688,-10.9859932,12.091649,-15.019104199999996,-0.8953384,0.3498318,-0.0239842,87.4643142,67.2368194,56.8975228,31.469935921039166,0.931478862247813,22.191744255468176,0.961555188564567,92.8641844,134.7634004,139.3098916
4916.396,17.596679599999998,-8.1430726,19.55778,0.871283,-0.0893408,0.3391366,-6.107799,-67.659636,-81.2802398,-8.4708082,12.1680776,-17.6945676,-0.8890774,0.3614784,-0.0368366,87.92954399999999,67.6069474,57.57211160000001,27.54014384207764,0.9392174817864072,23.08493938895614,0.9604593650732342,94.037343,135.2665834,138.8523514
4936.381,18.5207682,-2.2143516,13.7531066,0.8802614,-0.0803092,0.3440024,-6.4778026,-67.6819764,-80.49076240000001,-5.9336324,12.8911212,-18.8463182,-0.886398,0.3702204,-0.0485919999999999,88.5102264,67.98941339999999,58.312886000000006,23.174773976837773,0.9484974175717928,23.591793254160876,0.9618345707262552,94.988029,135.6713898,138.8036484
4956.367,18.2347206,2.6303050000000003,6.5882934,0.8886959999999998,-0.0786354,0.357346,-6.4798742,-67.61577919999999,-80.1041918,-2.2081266,12.7827276,-18.7779932,-0.8956636,0.370963,-0.045873,89.1692016,68.3654496,59.05752700000001,19.56602028204951,0.9610724583844652,22.82294846413749,0.9705313822143826,95.6490758,135.9812288,139.1617188
4976.352,17.7224876,6.440553,0.0670433999999996,0.9057976,-0.0721384,0.3583558,-6.150477199999999,-67.4910844,-80.0854952,1.6578988000000003,11.4040674,-17.308024999999997,-0.9106074,0.3748494,-0.0271743999999999,89.8195618,68.7066986,59.7135352,18.856611161485148,0.9767763921768174,20.793487227865583,0.9851174334212546,95.970039,136.19778300000002,139.7990304
4996.338,16.9112644,9.626791,-4.9808654,0.9253434,-0.0645602,0.3586133999999999,-5.574191600000001,-67.319455,-80.3500382,4.6335668,9.4317088,-15.219855599999995,-0.9277488,0.3730262,-0.0062434,90.4058548,69.00557859999999,60.24163119999999,20.086686852174143,0.9945008788367962,18.4951636019504,0.9999526797961192,95.9800464,136.3250336,140.5916694
5016.323,15.779221,12.816134599999998,-7.5038234,0.9395758,-0.0540486,0.3614062,-4.8813982,-67.0932954,-80.7635774,6.294226,6.9025948,-13.551369599999996,-0.9454542,0.368588,0.0100536,90.8748962,69.2731826,60.6123014,21.668975219667075,1.0081360902705745,16.459122514516597,1.014811230187467,95.7562944,136.366478,141.3758788
5036.308,15.2560926,16.4354444,-7.301745599999999,0.950107,-0.0494876,0.3554666,-4.2052908,-66.801761,-81.17072759999999,6.559597599999999,3.9997058,-12.455791599999998,-0.953991,0.3686201999999999,0.0165309999999999,91.1906266,69.51761020000001,60.8147414,23.58363167225068,1.0156322354663228,14.634640806767685,1.022865071204428,95.3959174,136.3193712,141.98546900000002
5056.294,17.1142064,20.8058536,-6.0316242,0.9494538,-0.042236,0.346793,-3.5486498,-66.427257,-81.5166198,5.9252668,1.2270464,-11.633559,-0.9477966,0.3729128,0.0037743999999999,91.3698654,69.7397918,60.8820564,27.607247150276677,1.0116875915416972,13.113127945895144,1.0185266798031165,94.9185152,136.1670488,142.3986762
5076.279,19.5219956,25.461758600000003,-5.926629399999999,0.9364034,-0.0323508,0.3486708,-2.849845,-65.9577868,-81.8561966,4.9668312,-0.4492048,-10.7086554,-0.9329858,0.3722865999999999,-0.0233686,91.4846968,69.93873900000001,60.8953316,32.627203362470986,0.999734579058282,11.81298004728636,1.0047914743901645,94.3345418,135.8965258,142.7515282
5096.264,21.9382446,30.83922,-7.7447344,0.9117348,-0.0176486,0.3543634,-2.0287756000000003,-65.37593799999999,-82.2769456,4.5299954,-0.7768308000000002,-8.875593199999999,-0.9180988,0.3715996,-0.0507824,91.6173384,70.096106,60.9311006,38.630622273843485,0.9783379977658844,9.995022714718363,0.9917512396923736,93.646114,135.472044,143.20804619999998
5116.25,24.4493522,36.9899368,-11.853335,0.8876836000000001,-0.0111762,0.3623948,-1.0151422,-64.66484559999999,-82.85810699999999,5.189733200000001,-0.5820478,-6.289832799999998,-0.909096,0.3656074,-0.0730064,91.8073012,70.2011384,61.0093004,45.896925802169626,0.9588728133712208,8.17521296240183,0.9825753114096242,92.8224434,134.865984,143.8674074
5136.235,26.663733200000003,43.164953,-17.9493554,0.8640616,-0.0076922,0.3717902,0.2358897999999999,-63.821339,-83.659616,7.402945,-0.2209446,-3.4075045999999984,-0.907511,0.3563934,-0.083079,92.0723952,70.25172280000001,61.11844719999999,53.8177219410902,0.940685692115831,8.152514875074765,0.978516525627217,91.8365054,134.0730618,144.7780632
5156.22,28.688402000000004,49.668920400000005,-24.9494458,0.842367,-0.007156,0.3874567999999999,1.7165944,-62.83148,-84.68212120000001,9.949168,0.3414452,-1.1379547999999988,-0.9123236,0.3397348,-0.0809522,92.4103316,70.266066,61.2515846,62.549987280112845,0.9272303612863634,10.019853783547449,0.9768865564295784,90.6937372,133.09754600000002,145.9337058
5176.206,30.1396072,56.3357378,-31.6762884,0.8175098000000001,-0.0035804,0.4145869999999999,3.367568400000001,-61.67926200000001,-85.8762924,12.4543608,1.8472482,-0.3973491999999986,-0.9237412,0.3254632,-0.0691444,92.8585968,70.2740632,61.4516036,71.31268135781052,0.9166337725227016,12.59687720174014,0.9818375869679464,89.49102839999999,131.9533252,147.327896
5196.191,30.4974338,62.4744904,-37.270005600000005,0.799253,9.96000000000004e-05,0.4348468,5.0904598000000005,-60.377582,-87.1604522,14.0340278,3.4686648,-0.7992921999999985,-0.93249,0.3155641999999999,-0.0519599999999999,93.3981964,70.29497699999999,61.719219800000005,78.88097829356015,0.9098885137198952,14.478412889778792,0.9858084022880104,88.3077366,130.67255899999998,148.879672
5216.177,30.4479538,68.0708146,-41.6777192,0.7862762,0.004225,0.4497837999999999,6.8100732,-58.9404506,-88.4618988,13.3805148,5.9948026,-2.3572985999999987,-0.936815,0.311081,-0.0343823999999999,94.0386276,70.3457062,62.1120176,85.42684571391219,0.9058441256937532,14.850343134606277,0.9877124491549956,87.22855440000001,129.2861568,150.5739164
5236.162,31.1454456,73.4469796,-44.9369958,0.7702866,0.012203,0.4760644,8.486705800000001,-57.36557799999999,-89.7197922,10.3694508,10.506504799999998,-4.561226799999998,-0.9409234,0.3054772,-0.0270108,94.8662612,70.4337006,62.7694936,91.56326329655684,0.9056090063023446,15.450467401573386,0.9896376850666307,86.3795554,127.7992786,152.4892858
5256.147,31.2972644,78.3193024,-47.5291124,0.7533698,0.0291606,0.5024176,10.0880216,-55.6640406,-90.9076188,6.496654599999999,16.168606,-6.826160999999999,-0.9433576,0.305024,-0.0254365999999999,95.9419678,70.55066079999999,63.7732978,96.81140641927472,0.9060021197183592,18.714347837230616,0.9917712552163024,85.8539462,126.2147014,154.6809166
5276.133,31.009244,83.16160740000001,-49.722661,0.7422337999999999,0.048222,0.5230278,11.5907992,-53.84341919999999,-92.0074874,3.237979,22.1951494,-8.127225799999998,-0.9426114,0.3032024,-0.0306312,97.3102828,70.66982719999999,65.1560188,101.73381530112884,0.9092823844765056,23.85709462815929,0.990649391656382,85.71948360000002,124.5132464,157.1635062
5296.118,29.960807400000004,88.0680604,-52.1823358,0.7284372,0.0666966,0.5425008,12.988298200000004,-51.90290160000001,-93.0290726,2.3251238,28.231523400000004,-8.600077199999998,-0.9421052,0.3058828,-0.0422402,99.0208968,70.76462380000001,66.91966399999998,106.66128356729028,0.910700998569805,29.603824786943225,0.9914185441572696,86.0325986,122.6675254,159.94873660000002
5316.103,29.890970600000003,93.086995,-55.1460214,0.7097134,0.0869666,0.55955,14.315020800000005,-49.8383202,-93.9898178,3.540047,33.6116478,-8.233949999999998,-0.937044,0.3111933999999999,-0.052832,101.0602508,70.81042160000001,69.0057282,112.24857432408372,0.9079386004323862,34.78609971232696,0.9887790503259866,86.74523000000002,120.6487418,162.995546
5336.089,30.7253036,97.5662704,-58.5342904,0.686469,0.110529,0.5897386000000001,15.5995298,-47.6510856,-94.90421,3.650673,38.0019258,-8.0812542,-0.9378084,0.3177014,-0.0679076,103.3490082,70.8037444,71.35348839999999,117.85365736246636,0.9117280099525078,39.02281957145911,0.9924868849563102,87.7494784,118.45483,166.2576984
5356.074,29.846622000000004,101.5074996,-62.46089859999999,0.6645442,0.1458358,0.6020884,16.832971,-45.355670200000006,-95.798111,6.969474,40.3602618,-7.028971599999998,-0.9404916,0.3258128,-0.0845026,105.81181180000002,70.7300322,73.8157946,122.86560614661192,0.9085139050833728,41.55635621845137,0.998908964681547,88.9788408,116.08570240000002,169.6139056
5376.059,28.2372798,104.40097500000002,-66.65255579999999,0.6453154000000001,0.1713298,0.6308201999999999,17.9992686,-42.9678612,-96.6788652,9.2290864,39.9763148,-4.920984799999998,-0.9431948,0.3441648,-0.0872166,108.21404420000002,70.58090820000001,76.17060260000001,127.04121672168536,0.9185423183355462,41.3218812757744,1.0078058223793114,90.2147756,113.5487694,172.8494678
5396.045,27.9844026,105.9791046,-70.1578354,0.6246084,0.201002,0.6543258,19.1277444,-40.5176142,-97.5453324,6.942024999999999,37.8920488,-3.8348745999999982,-0.9498226,0.3470436,-0.0810052,110.37899940000004,70.4002824,78.328145,130.14153552463608,0.9266497234123582,38.71311582086789,1.0144772418338226,91.251255,110.9178966,175.8734774
5416.03,26.4633928,106.5489456,-72.33060459999999,0.6000686,0.2333462,0.6909342,20.1788168,-38.0257434,-98.3751846,5.2271356,34.1512802,-2.9606861999999987,-0.967363,0.332516,-0.0852902,112.2629014,70.2188218,80.22603020000001,131.47130990737253,0.9444166678378988,34.67561893686355,1.026466016115994,92.0840846,108.2445652,178.6012148
5436.016,22.2647668,106.5400466,-72.96524199999999,0.5745666,0.2663142,0.7160456,21.0902536,-35.5205612,-99.1477324,8.1114998,29.6986426,-0.7427717999999984,-0.9741526,0.3218816,-0.077328,113.87798,70.01748359999999,81.78085180000001,131.03597944956613,0.9559138728131108,30.79541380197399,1.028863777226762,92.7877264,105.5380448,180.9285842
5456.001,18.270696,106.0769424,-71.6334686,0.5464146,0.284332,0.7503246,21.8399754,-33.0233568,-99.8250518,10.4900058,23.6703976,-0.3384649999999986,-0.9686786,0.3048949999999999,-0.0679176,115.1916808,69.8533128,82.9674942,129.29613244379942,0.9707732004347462,25.89290448718228,1.0177976181504451,93.3517054,102.8766696,182.792546
5475.986,15.413095599999997,105.6747038,-68.2687714,0.5080726,0.3079042,0.7619710000000001,22.4505558,-30.5521848,-100.3826126,13.7381832,18.797398,-1.7500953999999986,-0.9721302,0.2898908,-0.0792046,116.3599532,69.7542206,83.9293044,126.74908949439414,0.9662000662851354,23.348290796464468,1.0175201080754326,93.9093974,100.3064054,184.311917
5495.972,13.6584836,105.6254606,-64.52923799999999,0.4681592,0.3313439999999999,0.7961678,22.94646,-28.0990826,-100.8195084,18.97622,14.9647512,-2.2245747999999983,-0.9676152,0.2939082,-0.0990276,117.462779,69.68435980000001,84.70840760000002,124.52836888867638,0.981246680828771,24.26910457777741,1.016104163390762,94.516319,97.7834424,185.527916
5515.957,10.4975284,105.4586988,-60.7887924,0.4216308,0.3662364,0.8144197999999999,23.323819,-25.6671744,-101.1527376,22.2948248,11.747065,-2.8605067999999987,-0.9599304,0.3047362,-0.1165751999999999,118.49429,69.6403962,85.34006959999999,122.1761537148237,0.9875126545141788,25.36208288232192,1.013864044973309,95.170471,95.3075706,186.4928072
5535.942,8.0093008,104.8639846,-57.6867654,0.37917,0.379786,0.8293033999999999,23.6031662,-23.2659612,-101.4054582,22.062767200000003,7.3491308,-4.179456799999999,-0.9582644,0.3169936,-0.1362658,119.3426406,69.6491638,85.7809862,119.9515196561034,0.9878013079296664,23.62717247535072,1.0184910264690406,95.7394744,92.915125,187.1864444
5555.928,8.3169642,104.1607238,-55.328013,0.3390582,0.396853,0.8331988000000001,23.8609968,-20.894773,-101.6018616,19.8787994,5.218523599999999,-4.201115599999999,-0.964047,0.3282294,-0.1551574,120.0531036,69.6696868,86.1205278,118.2362774218308,0.9831953045645002,20.97734555261368,1.0301431822849287,96.1921068,90.5644598,187.7223894
5575.913,9.199566,103.59693,-54.0220704,0.2992708,0.4083738,0.8584726,24.11453,-18.5402926,-101.7622238,16.9345306,3.290056,-3.383114999999998,-0.9583072,0.327549,-0.1617554,120.5971146,69.6911926,86.3447986,117.19786691879598,0.9966480708905426,17.57976854878065,1.0255758608713446,96.4825846,88.2314852,188.1070224
5595.898,8.0734622,103.1938828,-52.681457,0.2558348,0.4215152,0.8608712000000001,24.3339792,-16.202077999999997,-101.8889786,15.1945596,0.9951174,-3.0418901999999983,-0.9634822,0.3113191999999999,-0.1636668,121.0023912,69.7369032,86.45670799999999,116.14428161075264,0.992081514650646,15.527974628604689,1.0256726648535195,96.668412,85.93898119999999,188.3456866
5615.884,6.703886800000001,103.2469498,-51.38273399999999,0.2184612,0.4185373999999999,0.8584793999999999,24.5108164,-13.875583400000002,-101.9787354,13.562274,-1.5610909999999998,-3.0617219999999983,-0.9629218,0.3089118,-0.1621155999999999,121.2543762,69.809793,86.4404268,115.52082104341922,0.9797375828907248,13.990940739158356,1.0241710603497054,96.7435598,83.6853764,188.4191622
5635.869,6.9727824,104.128279,-49.997406,0.1785722,0.4169752,0.8597018000000001,24.6778318,-11.5445206,-102.0267838,12.9705092,-3.8172576,-2.8153507999999983,-0.9552786,0.3057646,-0.1597302,121.3788802,69.90164940000001,86.3014024,115.7197424324321,0.9720306234636438,13.810567136041266,1.0156588654775578,96.7010484,81.44617,188.3281862
5655.855,7.6447102,105.2302642,-48.6805664,0.1337068,0.4162169999999999,0.8673086,24.8442518,-9.2002218,-102.0319962,11.9193036,-5.8663736,-2.9576639999999985,-0.947837,0.3023974,-0.1601838,121.3924178,70.0161316,86.0663438,116.19659049502526,0.9712560461017476,13.60999316166786,1.0077192148005316,96.548166,79.2163534,188.09834
5675.84,7.490808599999999,106.54738460000002,-47.2479606,0.087323,0.428473,0.8563105999999999,25.008846,-6.8413368000000006,-101.9933274,11.5923282,-8.559031999999998,-3.1970199999999984,-0.950862,0.2957448,-0.1608942,121.2841354,70.1646134,85.7079346,116.7939517245705,0.9615000061000312,14.760082613384627,1.0087073279027372,96.2752894,77.0059502,187.701262
5695.825,7.166220200000001,108.2485398,-46.553028000000005,0.0452674,0.427583,0.8506360000000001,25.164382,-4.4570902,-101.9201554,11.7179142,-11.330457,-3.1859089999999983,-0.9494814,0.297797,-0.157638,121.0366972,70.3391846,85.1998322,118.05204571186329,0.9531306121868924,16.608395021304485,1.0074957673355058,95.8723152,74.7962748,187.1199876
5715.811,8.872472400000001,109.9766344,-45.6600586,0.0006269999999999,0.4236946,0.8639664,25.347952400000004,-2.0465516,-101.807846,12.0372428,-13.4588352,-3.1702795999999984,-0.9447906,0.291558,-0.157674,120.693199,70.53460379999999,84.58247080000001,119.4086338243406,0.9622657884010634,18.33265206971122,1.0012474396912885,95.3452466,72.5811554,186.3903168
5735.796,9.781521799999998,111.388666,-44.3365456,-0.0425529999999999,0.43451,0.8533950000000001,25.560953,0.3800054000000001,-101.6514542,12.3036408,-14.9229858,-3.897290799999998,-0.9442092,0.2806334,-0.1551457999999999,120.3029906,70.759706,83.9095856,120.28650114507572,0.9585889233315812,19.729773381926893,0.9971741762690408,94.7420376,70.3797006,185.56103980000003
5755.781,10.6264282,112.930617,-42.3917,-0.0884648,0.443996,0.8607798000000001,25.8008848,2.8188814,-101.436377,13.2332168,-15.815484799999998,-4.782038799999998,-0.9450044,0.2806618,-0.1488408,119.896852,71.0075728,83.2014466,121.0921197319646,0.9725740758127784,21.16873830485744,0.9969743957310238,94.0959672,68.1886914,184.6378236
5775.767,10.0589912,113.9859362,-40.8752786,-0.1323912,0.4481148,0.8612462000000001,26.0416482,5.2630564,-101.1727082,12.978313599999998,-15.465572599999998,-5.478056199999998,-0.9366762,0.2826332,-0.1533782,119.521768,71.2566908,82.53129279999999,121.51035081827295,0.979836374519195,20.91959988805173,0.990337670506338,93.4801198,65.99363439999999,183.704001
5795.752,10.953865399999998,114.3259034,-39.1853296,-0.1742446,0.4529747999999999,0.8558161999999999,26.3164284,7.6976344,-100.8627396,13.0687952,-14.495489600000004,-5.111071999999998,-0.9347046,0.2874545999999999,-0.1653184,119.1931762,71.48029779999999,81.9073502,121.35027569514658,0.983854012669888,20.175125370426706,0.9917827431957464,92.8767478,63.7826634,182.7700898
5815.737,13.881282199999998,114.6833954,-37.5640008,-0.2112264,0.4672384,0.8440296,26.677145000000003,10.1196524,-100.5031678,13.2606054,-13.388248,-4.013364599999998,-0.947207,0.2960026,-0.155527,118.863295,71.67119600000001,81.28089299999999,121.47438138180074,0.9875800120332936,19.266445844954028,1.0044935479059882,92.18615,61.5515436,181.7840608
5835.723,16.033421399999998,115.76551519999998,-36.7588472,-0.244668,0.4848793999999999,0.8356846000000001,27.111951800000003,12.5465918,-100.0957398,12.237572,-12.5490638,-2.393948799999998,-0.9537008,0.3059626,-0.154685,118.4933884,71.81887520000001,80.6352266,122.51505196825552,0.9966640424162598,17.69090618280126,1.0134524052684468,91.3814366,59.272283400000006,180.7309664
5855.708,15.2430204,116.6108246,-37.20552239999999,-0.2720492,0.4894021999999999,0.8358406,27.5509662,14.97971,-99.6655228,11.2081268,-12.648957,0.7120814000000013,-0.9573654,0.3148238,-0.1476955999999999,117.9866364,71.90742660000001,79.8690156,123.34782114761364,1.0060590386224062,16.915238085021244,1.0185659156004383,90.4356702,56.9277166,179.53453840000003
5875.694,14.5517656,117.9453644,-37.7329012,-0.2983822,0.5031978,0.8209098000000001,28.008648,17.428862,-99.2034744,12.7900878,-12.6280002,4.326700200000001,-0.9530266,0.3193693999999999,-0.1428614,117.4012864,71.926935,78.9874666,124.68614477356772,1.0080341576244924,18.487105495549837,1.015217165720655,89.3926384,54.498073,178.190941
5895.679,14.1028042,119.717473,-38.6797236,-0.3406032,0.5070026,0.793963,28.4890824,19.9182408,-98.7111328,14.6932742,-11.978497999999998,8.191212600000002,-0.9493346,0.3247508,-0.1286048,116.764029,71.8692308,78.01313640000001,126.5989077582491,1.0017182346478477,20.651215095262277,1.0115524995969511,88.27494659999999,51.95099,176.72426919999998
5915.664,16.768306000000003,121.4315324,-39.7403232,-0.37931,0.4998095999999999,0.7768765999999999,29.0507324,22.4431494,-98.1891342,16.9423648,-11.1037752,12.551884,-0.9466648,0.3307692,-0.1235717999999999,116.1041886,71.7208818,76.9676102,128.86460505182308,0.9986105166578808,23.83038691792204,1.0103724545844073,87.0534562,49.277732400000005,175.15674439999998
5935.65,21.635929,122.9809572,-39.3732744,-0.4258114,0.4987064,0.7786846000000001,29.7535716,24.9832776,-97.6030426,19.3209402,-10.5157256,15.327148200000002,-0.9481062,0.3300463999999999,-0.111708,115.4507966,71.5188402,75.878926,130.93007291871095,1.01802412940366,26.81045853862322,1.0101062666350509,85.697225,46.5355626,173.4819686
5955.635,25.9760084,124.1637284,-38.313778,-0.4723277999999999,0.5062070000000001,0.752486,30.610592200000003,27.526508,-96.9297578,20.2175184,-9.7781796,16.6248432,-0.9445618,0.321994,-0.1077188,114.8438066,71.2894486,74.81835779999999,132.51162230996616,1.022533255057184,27.941837054295146,1.003733266325611,84.2332144,43.7629406,171.74811559999998
5975.62,30.7963404,125.1269454,-36.1115818,-0.5232858,0.4966858,0.7378358,31.640864,30.05571680000001,-96.1399278,18.9527374,-9.1659222,16.981616,-0.9437756,0.3134124,-0.09981,114.250322,71.0539948,73.79760719999999,133.8253092178955,1.0319527509362627,27.048025190413945,0.9994507250130544,82.60945799999999,40.998278,169.93753499999997
5995.606,34.6953304,125.1069898,-32.99448460000001,-0.5653328,0.4930696,0.7222227999999999,32.84279120000001,32.5374062,-95.21421519999998,15.3034972,-8.7722344,15.7732792,-0.9374884,0.3034556,-0.0988346,113.6615998,70.8409776,72.85677319999999,133.9558168292893,1.041309069412074,23.66316672890811,0.9903222099211348,80.81880859999998,38.3035714,168.07098839999998
6015.591,34.680408,124.3936414,-29.0561956,-0.6220344,0.4975808,0.7123251999999999,34.1584334,34.9489056,-94.1327364,11.511397,-7.5575146,13.505296400000002,-0.9270128,0.2865502,-0.1113977999999999,113.1656174,70.663112,72.089482,132.36605011310007,1.068606867780214,19.287854174912127,0.97666433247494,79.007184,35.7142064,166.2222184
6035.576,31.377312,122.2332898,-25.9112708,-0.676121,0.4946926,0.6659008,35.5253608,37.2797696,-92.9157168,7.3702282,-5.590478,11.384551800000002,-0.9217462,0.2713268,-0.1319776,112.7930572,70.510962,71.53489219999999,128.82898275678133,1.0701795412809945,14.669073852000423,0.9698723506289064,77.2676964,33.231192400000005,164.450609
6055.562,30.7664364,120.2761778,-22.200588,-0.7242316000000001,0.4864208,0.6286444,37.0107726,39.5193196,-91.5447054,3.1866656,-3.6859012,9.758615600000002,-0.9325542,0.2711974,-0.1387864,112.492964,70.3746904,71.14384,126.11819322555412,1.0753187372879542,10.907395827187544,0.9810540405754212,75.4821914,30.855370800000003,162.6885454
6075.547,31.105373000000004,117.017253,-19.5371308,-0.7646065999999999,0.4731318,0.6086914,38.6074608,41.6486334,-90.0604738,-3.2119699999999995,-2.1452178,7.377361400000002,-0.9369276,0.279759,-0.1404866,112.1999816,70.2671846,70.8959626,122.6469779857272,1.0858094553690163,8.327314808300862,0.9878435658049912,73.59252079999999,28.6185512,160.9564364
6095.533,31.5827362,113.7358872,-16.932149,-0.790735,0.4774862000000001,0.5813349999999999,40.3375016,43.6583746,-88.449492,-9.4342762,-0.7779115999999999,5.141417800000001,-0.9428918,0.2787621999999999,-0.1483865999999999,111.9190382,70.191411,70.791031,119.24772087049764,1.0914235170823652,10.772413418981738,0.9943700989649878,71.5815366,26.533036400000004,159.240523
6115.518,31.2715546,110.411754,-14.7731348,-0.8098402,0.4804592,0.5419728,42.1892946,45.5494094,-86.71463179999999,-14.9269544,-0.6578352,3.0762840000000016,-0.9513104,0.2777986,-0.148751,111.5822584,70.1554308,70.7431,115.70181960659164,1.0864698377500042,15.25484310173967,1.0021429036375602,69.39296379999999,24.6060214,157.4577318
6135.503,31.90470280000001,107.1681444,-12.9784192,-0.82324,0.4772080000000001,0.5229716,44.1674372,47.3197646,-84.86828919999999,-17.8247702,-0.410806,1.5926064000000015,-0.9502554,0.287591,-0.144658,111.2218642,70.14133159999999,70.73280340000001,112.56713818795656,1.0857950392549047,17.900491317217107,1.0033044629992234,67.054427,22.821567,155.6010926
6155.489,30.0625088,102.774547,-11.7440296,-0.842525,0.4805918,0.501225,46.2005312,48.960112800000005,-82.944603,-19.8154488,0.5477972,-0.4275703999999986,-0.9395016,0.2883244,-0.1526284,110.9280166,70.15419639999999,70.8337402,107.72318310211116,1.0918073797503112,19.82762994824912,0.9945298610521858,64.7274854,21.1940836,153.7783432
6175.474,27.2921062,98.5319918,-10.1763386,-0.8577762,0.497069,0.4554136,48.2912064,50.4709534,-80.9256744,-19.0756696,1.5256874,-1.5434373999999986,-0.9477648,0.2940586,-0.160211,110.7323302,70.17822279999999,71.02204119999999,102.74711838396829,1.0909899848818043,19.19872630511206,1.0051846302416287,62.4411238,19.7072694,151.94771559999998
6195.459,24.345483800000004,93.7918244,-9.0001206,-0.8796669999999999,0.5041401999999999,0.4460762,50.3846442,51.848494800000005,-78.8611496,-18.0986342,2.7339598,-2.7059247999999987,-0.9464494,0.3103657999999999,-0.1686474,110.646672,70.20535579999999,71.3059858,97.31706467290844,1.1076801651882549,18.502895046902275,1.0102154929007772,60.26202780000001,18.356861,150.1671354
6215.444,20.3959212,88.02162480000001,-9.173487,-0.8869042,0.5032892,0.4037998,52.4257688,53.1112428,-76.8024048,-18.4221272,4.4225946,-3.7965525999999983,-0.9369132,0.3257596,-0.1726964,110.6618148,70.23035580000001,71.7042142,90.8182409968821,1.096792303626498,19.3222132586693,1.0068513832236414,58.236046,17.119113000000006,148.506619
6235.43,19.045948600000003,81.9585022,-9.5140612,-0.8895716,0.4981487999999999,0.3759666,54.429791,54.2613932,-74.7863098,-18.0628126,5.6196524000000005,-4.057343799999998,-0.9459482,0.3264024,-0.1667856,110.741362,70.2538116,72.1645596,84.67857817334082,1.0866649634471337,19.347034161104457,1.0144821142712963,56.311571,15.992418400000002,146.95086940000002
6255.416,21.0892404,76.9626326,-9.8231682,-0.8844752,0.4958958,0.344246,56.4789938,55.3128336,-72.793727,-15.656702,4.782413200000001,-3.5816133999999984,-0.968376,0.3256894,-0.1428816,110.7798112,70.28253620000001,72.5344724,80.4020989207189,1.070847483252718,16.75803532874298,1.0316204797632316,54.30081740000001,14.969702600000003,145.3281994
6275.401,24.8125742,73.6065764,-10.5252742,-0.8733876,0.4900138,0.3384338,58.61183,56.284256000000006,-70.8082778,-11.9225928,1.9040884,-2.9177047999999983,-0.9744904,0.3227331999999999,-0.1146024,110.687439,70.32629840000001,72.69103379999999,78.38605312646331,1.0570983213526737,12.421222685773309,1.032919148897996,52.075609,14.042042400000003,143.4993116
6295.386,26.802203,71.8756088,-11.6513252,-0.8596123999999999,0.4805533999999999,0.307532,60.8411872,57.2080376,-68.76251199999999,-8.153293,-2.5287814,-1.9619331999999985,-0.9742772,0.3152576,-0.0806162,110.36916039999998,70.39188220000001,72.5333756,77.59004191866377,1.031717490163523,8.759001312598212,1.0271817699414452,49.5279732,13.1838446,141.2958876
6315.371,29.9019944,72.3199036,-12.0450548,-0.8507089999999999,0.4733576,0.2899996,63.2543502,58.0885552,-66.5806608,-3.938241599999999,-8.052256,-0.3264069999999985,-0.9787348,0.3124844,-0.0532804,109.7717224,70.46923819999999,71.994388,79.17942327995277,1.0158114924329809,8.96967753707766,1.0287891474926047,46.5173722,12.380683,138.57504880000002
6335.357,32.2032724,74.89286340000001,-12.1613558,-0.8512886,0.4737902,0.268476,65.91171260000002,58.9350952,-64.17399739999999,-1.0006401999999992,-14.239169999999998,1.0927582000000016,-0.9740252,0.317716,-0.0387866,108.8552138,70.5559418,71.05673399999999,82.42505878926539,1.010568551203727,14.316052653662014,1.0252672564900334,42.94350119999999,11.620846600000002,135.2307314
6355.342,32.7660632,77.8110444,-12.9665304,-0.8610543999999999,0.4682503999999999,0.2364736,68.797744,59.76053999999999,-61.5283828,0.6338638000000008,-19.5531968,2.1053414000000013,-0.9545618,0.3213296,-0.0422948,107.6728316,70.64471280000001,69.8012668,85.41840807963638,1.0082623073171384,19.67642627173529,1.0080822347221678,38.87508759999999,10.884172800000002,131.32964959999998
6375.327,32.70946,79.84523159999999,-13.6682342,-0.8809250000000001,0.4617046,0.1894182,71.89840240000001,60.5519638,-58.6479294,0.6394840000000007,-22.2160348,2.7948442000000013,-0.9417112,0.3188131999999999,-0.0536435999999999,106.3553664,70.7247788,68.3992954,87.3612637780343,1.0124619734969804,22.400274465357352,0.995660321857128,34.456964,10.172815000000003,127.0472248
6395.313,34.682702600000006,80.80280760000001,-14.816090400000002,-0.9003466,0.4556502,0.1489652,75.21891020000001,61.3023888,-55.5970368,1.5363576000000008,-22.4900288,3.033509600000001,-0.9391388,0.3107912,-0.0768165999999999,105.0842636,70.7941988,67.0213138,89.17118430537771,1.020015556598349,22.74563629783083,0.9922064531630704,29.865353399999996,9.491810000000005,122.6183506
6415.298,35.3206334,79.19556259999999,-15.587665199999998,-0.9303966,0.4525508,0.12034,78.6302324,61.986476800000005,-52.4845688,2.4936642000000004,-19.8433588,1.5595510000000012,-0.9354002,0.2992325999999999,-0.1035948,104.0559692,70.87349400000001,65.873511,88.10482158029153,1.0415957831482423,20.06014578535012,0.9875452220783816,25.4257368,8.887017200000004,118.3580798
6435.284,33.9565214,74.40265339999999,-16.088915800000002,-0.9487886,0.4544176,0.077993,81.97845620000001,62.5851546,-49.4482102,3.391844400000001,-14.8125572,-0.8309059999999986,-0.9276398,0.2954302,-0.1214949999999999,103.3953782,70.9671326,65.0917666,83.35258478396864,1.0548829654178324,15.218635419048557,0.9810991981655476,21.416922,8.381978000000004,114.5399768
6455.269,31.7800268,67.68986340000001,-15.9085098,-0.9521852,0.459782,0.058896,85.13014840000001,63.0835784,-46.6092562,3.494731800000001,-8.4292814,-3.340525199999999,-0.926045,0.301105,-0.1292162,103.141278,71.0706224,64.73667780000001,76.45239299443854,1.0590207181349385,9.717254956321373,0.9823036136513192,18.0111296,7.987044000000003,111.345934
6475.254,27.601440000000004,59.7255606,-15.870226,-0.9464532,0.4656686,0.0580946,87.94894280000001,63.4952904,-44.0689486,3.4624196000000014,-3.4099808000000005,-5.294013999999999,-0.9330136,0.307927,-0.1221992,103.1800736,71.1851578,64.6940034,67.6819484969881,1.056407065181486,7.186299658031858,0.9900838649299362,15.231130800000004,7.689867400000002,108.762952
6495.24,19.9894692,51.6377242,-14.9806538,-0.9410926,0.481719,0.0684472,90.3419422,63.818784400000006,-41.84615039999999,4.245827,-1.6430146,-6.487001599999999,-0.9463486,0.3150488,-0.0973886,103.3004044,71.3156784,64.726651,57.3624740377232,1.0594307414473114,7.925133036621197,1.00215565583065,12.9584622,7.496894000000003,106.5728014
6515.225,9.963488000000002,44.951554,-14.7294668,-0.9264368,0.4934854000000001,0.0789984,92.288428,64.0855966,-39.9032656,6.4840742,-3.2149882000000005,-6.094634399999999,-0.9548822,0.327891,-0.0660494,103.305394,71.44301,64.5972466,48.34118836306533,1.052641311943418,9.46170892740356,1.0117682773235182,11.016965999999996,7.357413400000001,104.5005122
6535.21,-0.5448803999999996,40.350125000000006,-14.9802006,-0.9139922,0.4944986,0.0845204,93.8513384,64.3248636,-38.155517,8.503932800000001,-7.1964276,-4.326651399999999,-0.9571816,0.3371802,-0.0447189999999999,103.0533798,71.54961399999999,64.1585282,43.04458028814046,1.0426189644731003,11.950956263248544,1.0158183359300028,9.2020414,7.224750400000003,102.3140452
6555.196,-9.5722348,37.1078636,-15.3218514,-0.909751,0.4859428,0.0698876,95.1352112,64.5544876,-36.5237352,10.2342626,-11.7306322,-1.9637385999999983,-0.9547606,0.3320907999999999,-0.0393695999999999,102.5349884,71.6304642,63.4027298,41.27202866768506,1.033765719835302,15.690893284531812,1.0116333664728343,7.399777199999997,7.0759766000000015,99.926465
6575.181,-15.324841600000005,34.66614499999999,-15.374483,-0.9098634,0.4700631999999999,0.036008,96.2605864,64.7785004,-34.9527016,11.7425594,-14.757221,-0.1423329999999985,-0.9483412,0.3190507999999999,-0.0504362,101.8736892,71.6910676,62.46122820000001,40.901920575242,1.024747478512536,18.859574003361224,1.001842430159813,5.613102799999996,6.912567200000001,97.4139298
6595.166,-16.0344542,32.0350666,-14.8523526,-0.9109446,0.4470674,-0.0061141999999999,97.3138762,64.99164719999999,-33.4571622,12.2892418,-14.938945999999998,0.7952260000000014,-0.9405082,0.306825,-0.0698186,101.2418442,71.7348634,61.5346284,38.78068580251077,1.0147545062001746,19.36052571602484,0.991751930574476,3.927967999999999,6.743216199999997,94.9917906
6615.152,-12.0811524,28.4000412,-13.612906,-0.9123662,0.4280532,-0.0391966,98.3319746,65.185008,-32.0990738,10.738768600000002,-12.307514799999998,0.1927664000000014,-0.9338736,0.2960558,-0.0887032,100.7815308,71.78040779999999,60.8170952,33.73170308831973,1.008552427186728,16.335030776877463,0.9836855164029,2.449556200000001,6.595399799999998,92.916169
6635.137,-6.7345714,23.3108502,-11.994565599999998,-0.9177114,0.4137907999999999,-0.056308,99.2603072,65.358238,-30.9646366,8.476257,-7.125872800000001,-2.114702199999998,-0.9337664,0.2791166,-0.1067598,100.653032,71.85665900000001,60.4924034,27.06695019615696,1.0082597040041816,11.273728810225732,0.9804200227762384,1.3927247999999992,6.498420999999996,91.45704
6655.122,-2.6414596,16.9228018,-10.1673328,-0.9244878,0.4059372,-0.0690456,100.0056152,65.51236259999999,-30.1264754,5.8083118,-0.1093731999999988,-5.731202399999999,-0.9351982,0.2671352,-0.1238134,100.974103,71.979509,60.6933936,19.9181622105673,1.0120424880270789,8.160583889199549,0.9804522662434108,0.9684877999999998,6.467146399999999,90.819869
6675.108,0.2457892,9.0105886,-8.152181200000001,-0.931384,0.4047044000000001,-0.069934,100.4552934,65.6504714,-29.6813658,1.6307874000000009,8.397001000000001,-9.488987599999998,-0.936091,0.2670354,-0.140521,101.808185,72.13493659999999,61.5188628,12.153566454622284,1.0179157976922062,12.775366100858069,0.9835244870236634,1.3528915999999982,6.484465199999997,91.2002286
6695.093,1.2307124,-0.3297454000000002,-6.5097002,-0.9384718,0.4067132,-0.0604925999999999,100.4929582,65.78684539999999,-29.707897,-4.950206,18.295863200000003,-13.457804799999996,-0.9309284,0.268743,-0.1584292,103.2077774,72.30908199999999,63.0738486,6.633218052666064,1.024599580862807,23.245551396137135,0.9818097052831573,2.7148191999999964,6.522236599999997,92.7817456
6715.078,-0.7841335999999997,-10.9294642,-4.914556,-0.9444934,0.415069,-0.0516988,99.9995866,65.92183539999999,-30.2677294,-11.8309542,28.36604400000001,-17.5351136,-0.9255252,0.2602644,-0.1751406,105.19749,72.49414220000001,65.38961259999999,12.009201217352745,1.0329679681994015,35.38480095263133,0.9772454571451126,5.197903399999996,6.572306799999998,95.657342
6735.064,-4.153175599999999,-22.7945716,-2.828088,-0.9486098,0.4237071999999999,-0.0406962,98.8842072,66.0413072,-31.4258254,-17.115968799999997,37.303759,-20.5646916,-0.92225,0.2583248,-0.1866664,107.7190414,72.6558426,68.3724426,23.341796069019757,1.0397329102622077,45.90678995634268,0.9757669341005568,8.834834199999994,6.614535399999999,99.798268
6755.049,-6.359460199999999,-35.2436448,-0.6830242000000002,-0.9491008,0.4267597999999999,-0.0255871999999999,97.1414368,66.1336656,-33.2094776,-20.3191828,43.965203200000005,-21.7120942,-0.9285256,0.2664018,-0.180138,110.5908354,72.75709079999999,71.79236,35.81932097181264,1.0409471457574204,53.07752176417792,0.9826390018427928,13.449398599999997,6.623425199999997,105.0018376
6775.035,-6.5759606,-46.7728604,2.0414482,-0.9522642,0.4420335999999999,0.0069104,94.8386672,66.1612184,-35.58309379999999,-20.5063402,46.9840478,-21.7142518,-0.9465006,0.2718894,-0.1547642,113.5802474,72.800093,75.3458254,47.27696308524823,1.0498802616292773,55.67332815006324,0.9968646794998608,18.7415802,6.638874599999999,110.9289192
