Timestamp (ms),Wrist Gyroscope X (deg/s),Wrist Gyroscope Y (deg/s),Wrist Gyroscope Z (deg/s),Wrist Accelerometer X (g),Wrist Accelerometer Y (g),Wrist Accelerometer Z (g),Wrist Roll (deg),Wrist Pitch (deg),Wrist Yaw (deg),Arm Gyroscope X (deg/s),Arm Gyroscope Y (deg/s),Arm Gyroscope Z (deg/s),Arm Accelerometer X (g),Arm Accelerometer Y (g),Arm Accelerometer Z (g),Arm Roll (deg),Arm Pitch (deg),Arm Yaw (deg),Wrist Gyroscope Magnitude (deg/s),Wrist Accelerometer Magnitude (g),Arm Gyroscope Magnitude (deg/s),Arm Accelerometer Magnitude (g),Difference Roll (deg),Difference Pitch (deg),Difference Yaw (deg)
0.0,30.41810417175293,-201.1409149169922,1.2776837348937988,-0.1956527084112167,-0.0112554430961608,0.930467963218689,-0.6012098789215088,-15.76125144958496,-73.6728744506836,-43.8154182434082,-8.38372802734375,5.242778301239014,-0.8116744756698608,-0.0403793007135391,-0.4114602506160736,171.85206604003906,75.81991577148438,41.30411529541016,203.43195715220045,0.950882378574906,44.917307307954246,0.9109036613259934,172.45327591896057,91.58116722106934,114.97698974609376
19.444,22.638317108154297,-198.62628173828125,2.2833943367004395,-0.0744483694434166,0.0633657872676849,0.8096258640289307,-0.4672894477844238,-17.721145629882812,-73.62429428100586,-37.83720779418945,-15.042370796203617,0.2450776100158691,-0.7994857728481293,0.0156137645244598,-0.3089199960231781,171.54373168945312,76.04103088378906,41.28063011169434,200.0665922334815,0.8274531253162736,41.87847038669852,0.8639725805073621,172.01102113723755,93.76217651367188,114.9049243927002
42.351,9.469532012939451,-195.63172403971356,-0.8517009417215983,0.0344646920760472,0.0634035021066665,0.7976659933725992,-0.5154048005739847,-19.63428560892741,-73.65011850992839,-36.32780202229818,-11.48768138885498,1.0050067106882732,-0.8944362998008728,0.0140645025918881,-0.3165367444356282,171.16167195638022,76.14470672607422,41.18576304117838,196.88588254304747,0.823739051699229,39.149065460566405,0.9539851363014096,171.6770767569542,95.77899233500165,114.83588155110677
63.36899999999999,8.19342577457428,-192.5509452819824,-0.427664652466774,0.0758437663316726,0.019151646643877,0.7633623778820038,-0.526392474770546,-21.501445770263672,-73.64665412902832,-33.800551891326904,-6.026500701904298,4.279196679592133,-0.9149806350469588,0.014311590231955,-0.3047496229410171,170.61439514160156,76.1296558380127,40.88000297546387,193.5050416630019,0.7926425125564812,37.2419707249752,0.9687884309799476,171.1407876163721,97.63110160827635,114.5266571044922
74.45599999999999,12.526670169830322,-190.5887969970703,0.1352171778678894,0.1064051210880279,0.0301419258117675,0.7887008428573609,-0.420726775447838,-23.35002098083496,-73.62897338867188,-31.67175178527832,2.353368377685546,7.771288633346558,-0.9148937821388244,0.0036575227975845,-0.3146517872810364,169.99842224121093,75.9593017578125,40.49053726196289,191.83984152677368,0.8185016131319971,39.37626831042413,0.9713379846307522,170.41914901665876,99.30932273864748,114.11951065063477
98.213,11.895105457305908,-185.3608673095703,2.137036693096161,0.201349738240242,0.0353099428117275,0.7277045011520386,-0.2145550244254991,-27.044322204589843,-73.5582290649414,-27.751275253295898,10.539205932617188,8.151850938796997,-0.8941984891891479,0.0309387370944022,-0.2726923018693924,169.01473083496094,75.7145782470703,39.98111114501953,186.6476510878634,0.7653398872948841,38.63061601469468,0.93767438373875,169.22928585938644,102.75890045166015,113.53934020996094
119.441,9.712853002548218,-178.13660888671873,2.703616034984589,0.2992614895105362,0.0191543206572532,0.6821718990802765,-0.0598783545894548,-30.59457817077637,-73.48342895507812,-31.570448684692384,17.45377368927002,9.494185543060302,-0.840050458908081,0.0181058096699416,-0.2792431026697158,167.9717987060547,75.32688903808594,39.48673858642578,179.33862413593843,0.766456033741114,41.38109219947338,0.8881206198741654,168.03167706064414,105.92146720886232,112.97016754150393
141.917,11.427930021286013,-168.38834228515626,5.01574057340622,0.3655374020338058,-0.0004716984927654,0.6261529207229615,0.1037731833057477,-33.95540771484375,-73.36143341064454,-39.10352210998535,23.70406036376953,10.059243535995485,-0.8312482357025146,0.0081184296868741,-0.2821246594190597,166.85502014160156,74.81410522460938,39.071746063232425,169.47670578404245,0.7562380920085232,49.85901788319629,0.8807393203176392,166.7512469582958,108.76951293945312,112.43317947387696
164.638,10.351024055480956,-158.34856872558595,5.337298774719239,0.4210531771183013,0.0128344222903251,0.6227778792381287,0.2436037100153043,-37.11103782653809,-73.24026336669922,-46.7647346496582,31.826309776306157,11.91768126487732,-0.8941816091537476,0.0244344296865165,-0.3044750243425369,165.65838623046875,74.13043365478515,38.73682632446289,159.43144808987986,0.776925266586977,60.6528356217003,0.9480634342685236,165.41478252045346,111.24147148132325,111.9770896911621
174.519,5.828269004821777,-145.3787857055664,5.914662456512451,0.4748367547988891,-0.0293342098593711,0.5277532279491425,0.2791754901409148,-40.01130828857422,-73.10588836669922,-54.09493255615234,32.81978893280029,7.508842945098877,-0.8806861281394959,0.0477681423537432,-0.3030919939279556,164.6769805908203,73.44229125976562,38.76508331298828,146.0419242518251,0.7249673136755762,65.55456301213943,0.9355183668116748,164.3978051006794,113.45359954833984,111.8709716796875
197.075,0.4602043390274047,-129.23355865478516,4.306520080566406,0.5688817620277404,-0.0279715295881033,0.4740275740623474,0.2187731206417083,-42.59093704223633,-73.00205535888672,-61.67858505249024,31.036086082458496,5.562515020370483,-0.8695756912231445,0.0217546152882277,-0.3324814021587371,163.69570922851562,72.80241241455079,38.94458160400391,129.41410998215744,0.7539946204678345,70.62121686627286,0.9351409253089242,163.4769361078739,115.3933494567871,111.94663696289062
221.991,-4.303764748573303,-112.33425598144532,2.23321590423584,0.5951374530792236,-0.049531478062272,0.4684944331645965,0.088494998216629,-44.842567443847656,-72.93576202392578,-60.25530319213867,30.139943885803223,6.750051498413086,-0.9551571726799012,0.0232758950442075,-0.35678631067276,162.70032348632813,72.17217407226562,39.077186584472656,113.01907467476876,0.7715883846389647,69.16830754130129,1.023505451019282,162.61182848811148,117.01474151611328,112.01294860839845
241.948,-5.317967438697815,-96.56336364746092,1.3611195042729378,0.6034947037696838,-0.071862506493926,0.444596540927887,-0.0507574200630187,-46.77584533691406,-72.87895202636719,-50.65733108520508,25.740872287750243,7.324039459228516,-0.9175575137138366,0.0424427706748247,-0.3562034606933594,161.80581970214843,71.61373748779297,39.12113647460937,97.47003726088688,0.7672181054625995,58.93088365701253,0.9882070944432176,161.85657712221146,118.38958282470703,112.00008850097656
264.352,-7.876771712303162,-78.49096603393555,0.9620766177773477,0.6535381197929382,-0.0707125674933194,0.3956341087818145,-0.2404078811407089,-48.36368179321289,-72.83939971923829,-39.76777305603027,14.715628623962402,3.189514017105102,-0.8165077924728393,0.027915571257472,-0.3618533432483673,161.20094299316406,71.28779907226563,39.23858337402344,79.82809138084207,0.7728385430486522,44.08007283499544,0.8955590538599647,161.44135087430476,119.65148086547852,112.07798309326172
284.60200000000003,-14.219653868675232,-59.148075866699216,-0.1382917031645774,0.7020680546760559,-0.052453626319766,0.3841247200965881,-0.5365517497062683,-49.56328125,-72.8434555053711,-27.56295137405396,3.543024253845215,5.7428868293762205,-0.8035440564155578,0.0132702218368649,-0.3623354792594909,160.51715393066405,71.16025848388672,39.01477890014648,62.65396258700852,0.805055400072208,33.50704036621644,0.8831753920145358,161.05370568037034,120.72353973388672,111.85823440551758
294.658,-18.83043518066406,-40.55770201683045,-1.06993275731802,0.6977699041366577,-0.07010655477643,0.3916705846786498,-0.9124356150627136,-50.39907150268554,-72.88573608398437,-12.31501817703247,-3.7712257385253904,10.950910234451294,-0.85693918466568,0.0402415493503212,-0.3604161143302917,159.70886840820313,71.13045806884766,38.34355850219727,48.33088219374336,0.8051301589398893,26.257969433010693,0.9320937956165763,160.62130402326585,121.5295295715332,111.22929458618164
314.53700000000003,-18.732152938842773,-21.54823126792908,0.2724578753113746,0.703036093711853,-0.072019301354885,0.3809644579887389,-1.3120752036571504,-50.85033416748047,-72.91738433837891,1.4992220878601077,-6.007009267807007,12.152751588821411,-0.8497153282165527,0.0505126221105456,-0.3752282798290253,159.06183776855468,71.12620391845704,37.55646667480469,38.22301744270882,0.8042965164089537,22.981563777689736,0.9317143645289756,160.37391297221183,121.9765380859375,110.4738510131836
336.746,-21.744540023803715,-0.2580937862396212,0.3987529695034027,0.7256099581718445,-0.0480517752468585,0.3789337754249572,-1.763876473903656,-50.87592239379883,-72.97883911132813,14.07980375289917,-8.888146257400512,10.794114542007446,-0.8651704072952271,0.0454415006563067,-0.3762714505195618,158.69395446777344,71.18859558105468,36.79278335571289,36.07464368598417,0.8203438947453101,26.215919567712284,0.9462467633828224,160.4578309416771,122.06451797485352,109.771622467041
354.37800000000004,-27.40887756347656,21.655057001113896,0.4220873475074768,0.7241893768310547,-0.0546397194266318,0.3706956923007964,-2.306034708023071,-50.456730651855466,-73.05411071777344,26.31486959457397,-9.72638201713562,9.731064701080324,-0.8998108148574829,0.0596178865060209,-0.3546827733516693,158.60576782226562,71.27872619628906,36.06910018920898,42.88851265929084,0.8157509872752972,34.33693376317063,0.9709212735206232,160.9118025302887,121.73545684814454,109.12321090698242
376.963,-31.48717155456543,43.53150429725647,0.952751612663269,0.7170274734497071,-0.0627320632338523,0.3661486506462096,-2.912908673286438,-49.6002555847168,-73.13622589111328,37.92698669433594,-8.612402296066284,6.283893966674805,-0.9292694330215454,0.0847753718495368,-0.3434733152389526,158.91326293945312,71.37742156982422,35.52614822387695,56.21382512087173,0.808019953077992,42.46867693819559,0.996244169158796,161.82617161273956,120.977677154541,108.66237411499024
399.436,-35.572884750366214,65.64297523498536,1.916211771965027,0.7162511825561524,-0.0582718864083289,0.3617115616798401,-3.578755617141724,-48.29406585693359,-73.23618621826172,48.10805969238281,-11.557200002670289,0.4091817855834961,-0.9277851581573486,0.0899669602513312,-0.3376766562461853,159.67771911621094,71.57510223388672,35.249819946289065,75.16354957120984,0.8049655868561285,50.59406100756603,0.99353617502545,163.25647473335266,119.86916809082032,108.4860061645508
414.181,-41.53675079345703,86.8274299621582,2.37223870754242,0.714910352230072,-0.0562150105834006,0.3681771099567413,-4.32217698097229,-46.55919952392578,-73.3869140625,56.00340042114258,-15.298544120788574,-3.991355323791504,-0.9435356855392456,0.0990277096629142,-0.3000889033079147,160.74009704589844,71.88881988525391,35.1226188659668,96.60736542551568,0.8068722368881376,58.537976793601786,0.9964149834868956,165.06227402687074,118.4480194091797,108.5095329284668
437.963,-47.21009216308594,104.53609619140624,3.6865301370620727,0.6942846059799195,-0.0582870356738566,0.3927630364894867,-5.155748510360718,-44.47559585571289,-73.56142730712891,60.60633926391601,-19.50290584564209,-4.878911113739013,-0.9714823961257936,0.1074902772903441,-0.2750569581985473,161.83803100585936,72.3016128540039,34.9401969909668,115.01234024254268,0.802393290385808,64.32924822681755,1.016739885210835,166.9937795162201,116.7772087097168,108.5016242980957
459.2240000000001,-50.7996467590332,117.28520965576172,5.770139074325561,0.6739555835723877,-0.0437256368808447,0.4179601490497589,-6.054516124725342,-42.13749771118164,-73.74682159423828,61.402252197265625,-30.450564575195312,-4.090722060203552,-0.9816537022590636,0.1037341237068175,-0.256600883603096,162.6841583251953,72.92791290283203,34.4835090637207,128.04205867636887,0.7979103349429971,70.71268799761629,1.0216142293908956,168.7386744499207,115.06541061401369,108.230330657959
481.634,-53.83678665161133,126.91235809326172,9.704775094985962,0.6550010800361633,-0.0532939079217612,0.4509807288646698,-7.034057044982911,-39.59969711303711,-73.91039276123047,60.44501342773437,-42.79887504577637,-3.073285222053528,-0.993813157081604,0.1085571885108947,-0.2352570056915283,163.14893798828126,73.79093627929687,33.662484359741214,138.3661610752737,0.8009069688752829,76.60054877918795,1.0288318836357555,170.18299503326415,113.39063339233398,107.57287712097168
504.0630000000001,-55.572872924804685,133.86390991210936,14.556868171691894,0.6127393007278442,-0.0829242336563765,0.4767325758934021,-8.082813930511474,-36.91463890075684,-74.01211853027344,54.80391540527344,-49.90785865783691,-2.70178701877594,-1.0239595413208007,0.1060673058032989,-0.1962138399481773,163.26425476074218,74.80428771972656,32.59765892028808,145.97063695797257,0.7863134862481782,77.07208528134666,1.0495238033236134,171.34706869125367,111.7189266204834,106.60977745056152
514.424,-56.42281188964844,139.66532287597656,19.38301286697388,0.560486912727356,-0.0855795199982821,0.5165497124195099,-9.172141456604004,-34.10608062744141,-74.05589599609375,47.40861206054687,-55.64488220214844,-1.3813117265701294,-1.0026483416557312,0.1179760396480559,-0.168329794704914,162.88896484375,75.9191680908203,31.18302993774414,152.19839987825054,0.7752800247710196,74.80964420016728,1.0254937016715924,172.061106300354,110.02524871826172,105.23892593383788
536.899,-55.6804084777832,146.74405822753906,25.58890037536621,0.5103512883186341,-0.0920033420436083,0.5496813118457794,-10.27029514312744,-31.14129638671875,-74.05384674072266,33.92737579345703,-60.970366668701175,-3.2243461847305297,-0.991070020198822,0.1260733634233474,-0.138568490743637,162.1253173828125,77.14764862060547,29.66020622253418,159.37202187800372,0.7671547514612838,72.53356739504429,1.0106355368360656,172.39561252593995,108.28894500732422,103.71405296325683
559.145,-52.88616943359375,154.79090881347656,31.71455116271973,0.4410394251346588,-0.1290128558874129,0.5974097669124603,-11.341154289245605,-27.98878707885742,-74.01008605957031,19.581863403320312,-57.00069961547852,-5.135400247573853,-0.9535519361495972,0.160323505103588,-0.1244786649942397,161.15414123535157,78.30089263916015,28.233823013305663,166.89167430002394,0.7688728916251495,65.19303958521581,0.9777743969096594,172.49529552459717,106.28967971801758,102.243909072876
580.619,-48.15498352050782,162.15155334472655,36.67249145507813,0.3468396991491317,-0.1540382146835326,0.6243417143821717,-12.319662857055665,-24.671586990356445,-73.93780364990235,3.114195632934572,-47.513312911987306,-10.451737785339356,-0.9061866760253906,0.1533132284879683,-0.1001559317111968,160.52655334472655,79.30228271484376,27.50029983520508,173.37702342121122,0.7487771282979945,56.27294182083917,0.9269956061922338,172.84621620178223,103.9738697052002,101.43810348510742
601.449,-49.87420120239258,169.3302032470703,40.14964599609375,0.2714219212532043,-0.1279383413493632,0.6958940982818603,-13.31942195892334,-21.195024681091308,-73.89526672363282,-11.404230880737304,-37.01160717010498,-16.464690494537354,-0.9302625179290772,0.1502045542001723,-0.1077444478869437,160.62242126464844,80.1307586669922,27.815961837768555,181.2816078530324,0.7746626243581825,51.73935074763246,0.951396079000106,173.94184322357177,101.32578334808348,101.71122856140136
624.011,-53.71661376953125,176.1586456298828,43.41506271362304,0.1820535123348236,-0.1589282266795634,0.7729651927947998,-14.392619323730468,-17.56856002807617,-73.89216613769531,-22.38019218444824,-23.158635520935057,-14.668744087219238,-0.897478985786438,0.160157811641693,-0.1465732499957084,160.80386962890626,80.67823791503906,28.45463638305664,189.5076652171067,0.829206368618727,47.07240152099831,0.9323621305100334,175.1964889526367,98.24679794311524,102.34680252075196
634.158,-41.98091144561768,180.4365264892578,46.323307800292966,0.0786976158618927,-0.2421790592372417,0.7891276478767395,-15.234030532836917,-13.83734769821167,-73.90343475341797,-23.474245071411133,-3.083047294616699,-12.014445734024047,-0.8800925493240357,0.1248336747288703,-0.1709586650133132,161.49530944824218,80.81167144775391,29.63404502868652,192.79022494780057,0.8549433172601972,44.21283116718831,0.9176814929699768,176.7293399810791,94.64901914596558,103.5374797821045
661.551,-28.050840187072755,183.8064971923828,46.46109848022461,0.0073051542043686,-0.2566509239375591,0.830087673664093,-15.784192657470705,-10.037231969833377,-73.97584381103516,-18.96608762741089,12.487887001037596,-5.515632104873657,-0.9432911038398742,0.0866620227694511,-0.1561396300792694,162.15975341796874,80.61902160644532,30.693437576293945,195.20030429515108,0.889356528327381,43.34048581580228,0.972022782427494,177.94394607543944,90.65625357627869,104.66928138732912
681.418,-23.599138832092287,184.65440368652344,45.96914138793945,-0.068798667192459,-0.2259553186595439,0.9051565289497376,-16.2388484954834,-6.223513340950012,-74.09549865722656,-16.64258909225464,26.268819999694824,0.549901819229126,-1.0094014644622802,0.054162648320198,-0.1670814633369445,162.78989868164064,80.13341674804687,31.66825294494629,195.2750416674227,0.95827187098833,43.95904006372572,1.03719263857817,179.02874717712402,86.35693008899689,105.76375160217285
704.058,-19.619145393371586,184.08115234375,45.63250503540039,-0.1549827426671981,-0.278939551115036,0.942624807357788,-16.617825317382813,-2.425253891944885,-74.24679412841797,-15.95045576095581,32.07766456604004,6.234636735916138,-0.9735138893127442,0.0431503906846046,-0.199385592341423,162.93097534179688,79.49092712402344,32.13326568603516,193.61021998144923,1.0109810480156831,41.36003855743475,1.008315407747778,179.54880065917968,81.91618101596832,106.38005981445312
724.117,-8.520520591735842,180.5134063720703,47.11640243530273,-0.2240726500749588,-0.2965148985385894,0.9395091533660888,-16.7825927734375,1.3128202199935912,-74.36405029296876,-13.047117137908936,30.84300136566162,5.975013399124146,-1.0119806766510009,-0.0178151503205299,-0.1846089333295821,163.15016174316406,78.87606964111328,32.61745681762695,188.0908810057393,1.0250945608123403,38.37490988738404,1.0348141415354857,179.93275451660156,77.56324942111969,106.9815071105957
734.0989999999999,-8.340629959106447,175.86512451171876,47.31928634643555,-0.2766570419073105,-0.2888161659240722,0.9804253816604614,-16.946547317504884,4.968786311149597,-74.46341552734376,-11.189961910247805,22.610229682922363,5.842553961277008,-1.0385876893997192,-0.0111954733729362,-0.177871200442314,163.11317138671876,78.43135223388671,32.80401077270508,183.70549206836185,1.0695503541062286,29.941270898414377,1.0594526542409,180.05971870422363,73.46256592273713,107.26742630004884
753.9879999999999,-11.577771091461182,170.0823760986328,50.26226577758789,-0.354363477230072,-0.2957233190536498,0.9732288479804992,-17.172683334350587,8.524953198432922,-74.48178253173828,-13.33000421524048,13.300496673583984,1.2082922816276551,-1.0277227878570556,-0.0205371856689453,-0.1995969682931899,163.27415161132814,78.1895767211914,33.23442840576172,178.7120888506317,1.0864357313229935,23.985320803631947,1.0507013818486133,180.44683494567872,69.66462352275849,107.7162109375
776.525,-10.703028202056888,165.8086700439453,52.39124298095703,-0.3943417191505432,-0.3239737510681151,0.964762282371521,-17.36849899291992,12.025449657440186,-74.44907836914062,-9.274226474761964,1.229084777832032,0.8009845137596132,-1.0309878826141357,0.0116029277443885,-0.2236512720584868,163.1345458984375,78.16723175048828,33.27732543945312,175.1780063686695,1.0960530505040889,17.52969347644296,1.058881706127711,180.50304489135743,66.14178209304809,107.72640380859374
796.652,-6.269530963897707,161.182958984375,54.448055267333984,-0.4438017845153809,-0.298896887898445,0.9679461479187011,-17.463582229614257,15.455504608154296,-74.35818023681641,-7.036525058746338,-8.273090744018555,0.0015468001365661,-1.0325220584869386,0.0082320991903543,-0.201064920425415,162.8408416748047,78.33956146240234,33.1170166015625,170.63990724299802,1.1109363034659896,17.471175894290774,1.0546640589344378,180.3044239044189,62.88405685424806,107.4751968383789
814.093,-4.095626449584963,155.72789611816407,55.94830627441407,-0.5094170570373535,-0.2940095156431198,0.9796424746513368,-17.48839912414551,18.80050563812256,-74.19755554199219,-7.011104869842529,-15.552581596374512,-2.0666452050209045,-1.0110623598098756,0.0264983374625444,-0.2145305812358855,162.50215759277344,78.65981903076172,32.91138687133789,165.87827327417034,1.1490237693476109,19.038418901064404,1.0373570028469916,179.99055671691897,59.85931339263916,107.10894241333008
836.399,-3.191838836669924,148.0120101928711,56.9902847290039,-0.5779173076152802,-0.2790168732404708,0.9347579836845398,-17.45905113220215,21.99913692474365,-73.96815185546875,-5.448593521118164,-20.29444713592529,-2.0817277133464813,-0.980994951725006,0.0292365094646811,-0.221298861503601,162.01858520507812,79.06241912841797,32.527091598510744,159.1215384719505,1.145030152286055,23.16852666950802,1.0089570974426112,179.47763633728027,57.06328220367432,106.4952434539795
860.232,0.2890645027160623,141.31705780029296,55.79673843383789,-0.6002042412757873,-0.2804478973150252,0.925324535369873,-17.343640518188476,25.06393699645996,-73.70707092285156,-1.8936211585998532,-17.720511090755462,-4.075383704900742,-0.9816641449928284,0.0244109211489558,-0.2318790197372435,161.91693115234375,79.41995544433594,32.4589786529541,152.85869885152084,1.1488280522500791,23.73138803820096,1.011538103803146,179.26057167053222,54.356018447875975,106.16604957580566
881.488,6.848547077178952,134.51231994628907,56.09131851196289,-0.6583676099777221,-0.242422929406166,0.909304177761078,-17.055887031555176,27.987921905517577,-73.38919372558594,-0.9743769645690914,-17.529435956478117,-5.445598024129867,-0.9824408173561096,0.0341041041538119,-0.2246258676052093,161.9411834716797,79.78147583007812,32.50172157287598,146.99499929121103,1.1608893186544225,24.02882460241305,1.012083646041671,178.99707050323485,51.79355392456055,105.89091529846192
894.211,10.537284302711484,128.07359008789064,54.51993179321289,-0.7030155420303345,-0.2475072741508483,0.8876784324645997,-16.66911163330078,30.777602767944337,-73.03236541748046,4.479512023925781,-14.17055686712265,-2.5008006036281585,-0.9591978549957276,0.0557982990518212,-0.2340017914772033,161.82891235351562,80.0561279296875,32.295806884765625,140.20145594814548,1.167818819874123,19.50742628494799,0.9935174345288632,178.4980239868164,49.27852516174316,105.32817230224607
916.534,17.97201015949249,121.38339385986328,52.28089218139648,-0.7282709240913391,-0.2357001662254333,0.8574842214584351,-16.101500511169434,33.42100524902344,-72.66072998046874,7.12200939655304,-9.761588037014008,-1.0820678651332856,-0.9702898144721984,0.0586299313232302,-0.2215401589870452,161.75225830078125,80.23847045898438,32.07289848327637,133.92464798786355,1.1575026919823803,14.79168971821737,1.0003503196727328,177.85375881195068,46.817465209960936,104.73362846374512
939.435,24.879647564888,115.29855346679688,49.43335800170898,-0.7424419164657593,-0.2022665232419967,0.8610923051834106,-15.367504119873049,35.93381690979004,-72.26609497070312,6.815904545783996,-2.6443724989891058,-1.3566712141036987,-0.9701340675354004,0.0592209365218877,-0.2218776762485503,161.98294067382812,80.28277587890625,32.168087768554685,128.97451314290817,1.1610725336424783,13.23574240045506,1.00026100675741,177.35044479370117,44.34895896911621,104.4341827392578
961.61,27.29971668720245,107.90013732910155,47.62162704467774,-0.7881134271621704,-0.1742257148027419,0.8446663618087769,-14.532524490356446,38.29362258911133,-71.83231353759766,8.888804745674133,3.341439723968506,0.0798972368240356,-0.9569200277328492,0.0675476152449845,-0.2313505202531814,162.27158203125,80.1965560913086,32.28075180053711,122.36554519366408,1.1722426109090598,17.835505498528043,0.989642976444572,176.80410652160646,41.902933502197264,104.11306533813476
984.072,26.69296352863312,101.10264434814454,43.32016830444336,-0.807002854347229,-0.1990632057189941,0.8307923913002014,-13.704714965820312,40.49525680541992,-71.40137176513672,12.37589943408966,7.679562759399414,-0.0241960287094116,-0.9668299913406372,0.0564157653599977,-0.2251556247472762,162.78799133300782,80.03253326416015,32.554100799560544,114.4442017279032,1.177263165282755,19.892735312543927,0.9969961333436542,176.49270629882812,39.53727645874024,103.95547256469726
994.164,31.2587947845459,95.17203063964844,39.73689002990723,-0.8132031679153442,-0.2080482780933379,0.8220198631286622,-12.795902252197266,42.54679718017578,-70.99265747070312,15.306382775306702,11.477457809448245,-1.3469737768173218,-1.0062833666801452,0.0352379925549029,-0.2042957216501236,163.65369262695313,79.8132308959961,33.1225887298584,108.2156456854484,1.1763865619818226,21.32721828099716,1.029700410052195,176.4495948791504,37.26643371582031,104.11524620056151
1016.542,36.68813400268554,90.35673675537107,36.49787635803223,-0.8099686503410339,-0.2129061043262481,0.8176816582679749,-11.777740097045898,44.4669792175293,-70.57850341796875,17.5446946144104,12.307017421722412,-1.5011476278305054,-1.0422676086425782,0.0386158969253301,-0.1766969874501228,164.6011962890625,79.59085540771484,33.72894287109375,105.10174817976966,1.172041796310706,23.136470908214807,1.060434376080371,176.3789363861084,35.12387619018555,104.3074462890625
1039.472,37.074284362792966,85.2065185546875,32.432389450073245,-0.8031983971595764,-0.200577688217163,0.8408422231674194,-10.758238601684573,46.24447479248047,-70.19400482177734,19.1656343460083,11.164533329010007,0.2185981750488281,-1.0430508852005005,0.0395072262734174,-0.1734683230519294,165.32619018554686,79.38432312011719,34.07607879638672,99.67746082946375,1.1815579616257337,23.662971571634017,1.0605293811292411,176.08442878723145,33.13984832763672,104.27008361816408
1061.694,35.156455230712886,79.07010269165039,28.006498336791992,-0.823504364490509,-0.203597855567932,0.8599001646041871,-9.805897426605224,47.86224136352539,-69.84605102539062,16.93479404449463,9.02731866836548,-0.1321120262145996,-1.0079346656799315,0.0193416249006986,-0.1840201511979103,165.91925048828125,79.22537078857422,34.33521347045898,92.13223643811344,1.2095545152135865,20.680757814219845,1.0308902169538725,175.72514791488646,31.36312942504883,104.1812644958496
1081.444,35.46660537719726,68.73159561157226,24.24702262878418,-0.8584053635597229,-0.1946874946355819,0.8759694933891297,-8.85277214050293,49.24996643066406,-69.51399383544921,15.602083015441895,15.51836280822754,-1.2899678230285645,-0.9568779230117798,-0.0073680475354194,-0.2227774187922477,166.7386474609375,78.93755798339843,34.852108001708984,81.81849168881084,1.244572624977525,24.300803999076155,0.9906692298643448,175.59141960144044,29.68759155273437,104.3661018371582
1103.873,37.88001747131348,52.75474185943604,20.31903800964356,-0.8990605473518372,-0.1702291905879974,0.8868256330490112,-7.847164440155029,50.305474853515626,-69.17898254394531,16.59846935272217,23.783893203735357,-3.05422248840332,-0.9340517401695252,-0.002806444093585,-0.2686395213007927,167.8413848876953,78.46782531738282,35.639302825927736,69.64541313389068,1.2760778510817117,31.00930555038432,0.979890990794834,175.68854932785035,28.162350463867188,104.81828536987304
1113.943,33.20974922180176,32.460645294189455,14.549288892745972,-0.9581629514694214,-0.1437564939260482,0.9201354146003724,-6.968441009521484,50.93926773071289,-68.90343017578125,18.64683589935303,33.39998512268066,-6.269665145874024,-0.9325980544090272,-0.0197218183428048,-0.3166447579860687,169.4027099609375,77.79717712402343,36.85345687866211,55.52506080090626,1.3371765887328404,39.95479771373133,0.9882317163541564,176.37115097045898,26.857909393310543,105.75688705444335
1136.15,25.51075038909912,9.092664337158205,8.586969137191772,-1.0253252744674684,-0.1411522477865218,0.9802304863929748,-6.30978832244873,51.091939544677736,-68.72442016601562,19.904153060913085,44.36697311401368,-11.483991146087646,-0.95123211145401,-0.0260367434471845,-0.3609712064266204,171.46316528320312,76.90646514892578,38.555912017822266,46.89437880189256,1.42625690673751,50.15657574033563,1.0190326021490137,177.77295360565185,25.814525604248047,107.28033218383788
1163.743,21.41269884109497,-17.531884765625,2.764052534103393,-1.0545164585113525,-0.1252045348286628,1.053242027759552,-5.790429401397705,50.691175079345705,-68.63252258300781,24.18542900085449,55.11490936279297,-13.549297523498534,-0.9768410444259644,-0.025106468424201,-0.3768779397010803,173.71048889160156,75.78636322021484,40.36473388671875,48.82676447076664,1.497324941980473,61.8626673282141,1.048578988252946,179.50091829299927,25.09518814086914,108.99725646972657
1173.934,19.340167522430416,-45.650578308105466,-3.626664209365845,-1.0403391003608704,-0.1291985645890235,1.118428432941437,-5.395015716552734,49.71725234985352,-68.64262237548829,29.360763931274413,61.22378311157227,-13.42781581878662,-0.9993160963058472,-0.0163289561867714,-0.3719601511955261,175.8313201904297,74.53222351074218,41.9253044128418,60.988238703315744,1.536019055843736,69.59442253745866,1.067911009641825,181.22633590698243,24.81497116088867,110.56792678833008
1196.242,16.161992931365965,-75.00025501251221,-9.482404947280884,-1.0134902954101563,-0.1325236245989798,1.1860434055328368,-5.129841423034668,48.1592514038086,-68.73480529785157,35.7813304901123,66.37002487182617,-12.04226231575012,-1.0078698992729187,-0.0040350399911403,-0.3504782378673553,105.74665832519533,73.1895751953125,43.13749923706055,80.89763428045653,1.571107950868626,77.26132013222828,1.0704785613097267,110.87649974822996,25.030323791503907,111.8723045349121
1213.824,11.68146409988403,-104.4676513671875,-15.862196922302246,-0.9487059593200684,-0.1349652841687201,1.2376256704330444,-5.03190803527832,46.00802459716797,-68.93245697021484,40.23986549377442,66.75470809936523,-9.605789899826048,-1.0077062726020811,0.0249638445675372,-0.3323748886585235,35.354592895507814,71.84884643554688,43.93787689208985,106.39783698282396,1.5707666000048357,79.62924227035977,1.0661543856541629,40.38650093078612,25.840821838378908,112.87033386230468
1236.111,11.679310703277585,-132.61383819580078,-21.79591979980469,-0.8648746013641357,-0.1358175858855246,1.2741147994995117,-4.986267566680908,43.29537811279297,-69.20026245117188,43.20547027587891,60.49268264770508,-4.961216306686401,-1.0134456992149352,0.0526179686188697,-0.2967281937599181,-35.44748229980469,70.64723205566406,44.23723602294922,135.00059688571417,1.551331425620543,75.36308513033569,1.0618998397619648,-30.461214733123786,27.35185394287109,113.4374984741211
1257.599,14.796863365173335,-158.4137435913086,-27.32829113006592,-0.7822936177253723,-0.139304183423519,1.287658452987671,-4.922095584869385,40.060357666015626,-69.54043121337891,43.28405838012695,46.0133695602417,-0.0497111797332763,-1.036190891265869,0.1005554720759391,-0.2603406995534896,-106.63526306152345,69.74762725830078,44.116372680664064,161.52814567701446,1.516695152719876,66.03081445994229,1.0751348133101772,-101.71316747665404,29.687269592285155,113.65680389404297
1273.952,18.20877227783203,-181.98761901855468,-31.907686233520508,-0.71785968542099,-0.127902154624462,1.302685761451721,-4.808337116241455,36.3436882019043,-69.94340667724609,35.22193660736084,28.28097629547119,4.042051362991333,-1.056394386291504,0.1360990285873413,-0.2257160454988479,-178.22398376464844,69.20670166015626,43.75236282348633,185.76679831938705,1.4951931135754173,53.41950786749209,1.0900540181891372,-173.41564664840698,32.86301345825196,113.69576950073242
1296.225,18.507483291625974,-203.30105895996093,-35.22884864807129,-0.6701309442520141,-0.1122986987233161,1.288323736190796,-4.687224292755127,32.19984512329101,-70.38867492675782,17.874323844909668,7.454981422424316,4.982759308815003,-1.0876830101013184,0.1563888326287269,-0.2091542720794677,-178.1662384033203,69.07674407958984,43.38302307128906,207.24354175820156,1.4574435364125595,43.06617308187007,1.119995434021526,-173.47901411056517,36.87689895629883,113.77169799804688
1319.708,19.89600887298584,-221.9319396972656,-37.71579513549805,-0.6202809810638428,-0.1008512824773787,1.276422333717346,-4.517655086517334,27.69121780395508,-70.84988403320312,-0.5954011917114272,-16.39630718231201,5.335224080085753,-1.1109558820724488,0.1658632516860961,-0.2069213390350341,-178.4643341064453,69.42032928466797,43.02763748168945,226.08241472912735,1.4233717373507786,45.67348099020472,1.1431469546711326,-173.94667901992798,41.72911148071289,113.87752151489258
1341.198,24.061150741577144,-238.00039978027343,-38.8601676940918,-0.5784102797508239,-0.0891102179884909,1.2518649578094485,-4.229148864746094,22.879228019714358,-71.30982208251953,-18.777095222473143,-36.38419933319092,5.609948658943177,-1.1312782287597656,0.1734455853700637,-0.1999612748622893,-107.15054626464844,70.16348724365234,42.65789413452149,242.40332638754407,1.3827987035472205,53.90317285254088,1.1624819920205591,-102.92139739990236,47.28425922393799,113.96771621704102
1363.728,26.223054504394533,-252.38700256347656,-39.17524337768555,-0.5394198536872864,-0.0732060275971888,1.2303470611572265,-3.85791916847229,17.80446329116821,-71.76855926513672,-39.6674783706665,-52.67014961242676,4.557796978950501,-1.1553897857666016,0.1678816705942153,-0.192733746767044,-36.2813720703125,71.23813323974609,42.27781600952149,256.815290793201,1.3465366335074462,68.10424479355196,1.1839875782779852,-32.42345290184021,53.43366994857788,114.0463752746582
1374.478,22.222112464904782,-263.25543823242185,-38.95966110229492,-0.4833495318889618,-0.0590632714331149,1.1753351926803588,-3.5267242908477785,12.527031207084656,-72.22782135009766,-57.89990921020508,-65.41175994873046,3.939429020881653,-1.169913363456726,0.1582569867372512,-0.1789755836129188,34.10604248046875,72.56907806396484,41.77575759887695,267.1965565313679,1.2740871457364586,87.6569229472837,1.1952201365193338,37.632766771316525,60.04204685688019,114.0035789489746
1396.211,19.20374517440796,-270.46925048828126,-38.81460723876953,-0.3972329825162887,-0.0525029614567755,1.1095007181167602,-3.217886209487915,7.106068873405457,-72.6959732055664,-70.20446472167968,-76.70591278076172,5.2687538146972654,-1.1600419282913208,0.1400164157152175,-0.1799226865172385,103.87516784667967,74.12604370117188,40.89018859863281,274.1521557622968,1.1821342236205208,104.39123097815131,1.1831103914999748,107.0930540561676,67.01997482776642,113.58616180419922
1418.619,15.451505577564236,-274.79054565429686,-37.95661315917969,-0.3251789540052414,-0.0443237382918595,1.0336328506469727,-2.942209768295288,1.5976305723190312,-73.16437225341797,-76.50694351196289,-80.77447509765625,8.376502799987794,-1.147394061088562,0.1159683734178542,-0.1670156702399253,172.88031616210938,75.74529418945312,39.34260025024414,278.1651582878732,1.0876382669268765,111.74043934251084,1.166614294717213,175.82252593040465,74.1476636171341,112.50697250366213
1442.194,11.56537352800369,-276.5888977050781,-36.32676544189453,-0.2562840729951858,-0.0274242820218204,0.9791409254074096,-2.70145468711853,-3.9552037477493287,-73.62157135009765,-75.43884658813477,-82.68917083740234,11.153558921813964,-1.1204262733459474,0.0844703912734985,-0.1873454615473747,169.1046875,77.35702667236328,36.97001495361328,279.4384804600293,1.0162009688127809,113.03587377426,1.1432695965114514,171.80614218711852,81.31223042011261,110.59158630371094
1463.653,7.898259651660917,-275.6218688964844,-34.84478759765625,-0.1863739907741546,-0.0209299651905893,0.9281749844551086,-2.493333220481873,-9.491061425209043,-74.07473449707031,-65.64683303833007,-84.10562286376953,17.44675979614258,-1.0817551612854004,0.0526346828788518,-0.1861134007573127,163.95262145996094,78.89914398193359,32.993403625488284,277.9802318295791,0.9495597225163508,111.0884818914876,1.1032810680218392,166.4459546804428,88.39020540714264,107.0681381225586
1473.757,9.61748362779617,-273.3412658691406,-32.97905006408691,-0.1303638845682143,-0.0097925109788774,0.8744481086730957,-2.2084784746170043,-14.978061485290528,-74.52264404296875,-49.50581016540527,-80.39831161499023,26.04060344696045,-1.0294551134109498,0.0393014427274465,-0.2036793649196625,157.20465393066405,80.19808959960938,27.07307109832764,275.5736561507084,0.8859067456051373,103.42834160740036,1.052779353076127,159.41313240528106,95.1761510848999,101.59571514129638
1498.549,11.07758351564407,-270.18623046875,-31.660697555541997,-0.0870301213115453,0.0050599617883563,0.8265825867652893,-1.8423627495765689,-20.398527526855467,-74.99001922607422,-30.587875270843504,-74.49547805786133,35.91023960113525,-1.0205854892730712,0.0269956897944211,-0.2035625457763671,148.9280242919922,81.14359436035156,19.22406470775604,272.3315836176175,0.833575307286506,94.53056927883776,1.0430294080770492,150.77038704156877,101.54212188720705,94.21408393383028
1521.005,15.561879539489745,-267.145068359375,-29.6553524017334,-0.038495772704482,0.0247574852779507,0.7995440244674683,-1.33429746478796,-25.75364742279053,-75.47878723144531,-14.022630214691162,-64.25750198364258,46.397392654418944,-0.95587477684021,0.0524850707501173,-0.2046418249607085,139.78754577636718,81.59882049560547,10.181182360649109,269.2789412546782,0.8047009207124519,86.15858029972892,0.9825847388095412,141.12184324115515,107.352467918396,85.65996959209443
1541.085,19.231798744201654,-263.1817657470703,-27.39064598083496,0.0232865277677774,0.0335048764944076,0.7253638505935669,-0.6971913322806358,-31.024529647827148,-76.00094909667969,-7.074436092376709,-55.30113067626953,55.71791458129883,-0.9431793093681335,0.0931328903883695,-0.1726213186979293,130.25830535888673,81.58970489501954,0.6071806669235216,265.39031075101536,0.7340639673537559,82.35858178919021,0.9668096070578684,130.95549669116735,112.61423454284667,76.60812976360322
1563.398,22.49196872711181,-258.0012969970703,-25.188295364379883,0.1038443360477685,0.0475504476577043,0.6493497252464294,0.0782136216759681,-36.18594932556152,-76.57960815429688,-11.38473196029663,-42.13275871276856,56.50377883911133,-0.9646427512168884,0.1335370674729346,-0.1636061906814575,121.6205062866211,81.1943588256836,-7.9696034669876115,260.3303288035132,0.6730294179462624,75.58255318500048,0.9897129482304396,121.54229266494512,117.38030815124512,68.61000468730927
1573.588,26.000850868225097,-251.98446350097657,-22.28673191070557,0.1807625297456979,0.0619317967444658,0.6057233810424805,0.9987611547112464,-41.22115173339844,-77.21523590087891,-25.02096509933472,-23.287572860717773,47.505554389953616,-0.9809062600135804,0.1607991799712181,-0.1632345676422119,115.47479553222657,80.65192260742188,-13.727017140388488,254.4874307463,0.6498694502864368,75.41930393435123,1.009546669460876,114.47603437751532,121.87307434082032,63.48821876049042
1603.41,29.224649047851564,-245.1761199951172,-17.595787525177002,0.2585929065942763,0.079495121538639,0.5512417495250702,2.0552995815873145,-46.11251678466797,-77.87964324951172,-47.78184432983399,-2.4498546600341795,40.8556604385376,-0.9204004049301148,0.1608059726655483,-0.1863934576511383,111.89365692138672,79.95928344726562,-16.410474395751955,247.6543611486653,0.6323132628379412,83.4969438648777,0.9572784090146008,109.8383573397994,126.0718002319336,61.46916885375977
1613.445,32.317862319946286,-236.37572631835937,-12.893803787231445,0.3492000341415405,0.0727249935269355,0.4672735273838042,3.253855562210083,-50.82933349609375,-78.59862213134765,-72.31303329467774,23.00022315979004,30.466848182678223,-0.945844030380249,0.1467596106231212,-0.2000225216150283,111.17194519042968,79.219384765625,-15.67961769104004,239.06736747454244,0.6089809457727895,98.35995126198604,0.983034430986447,107.9180896282196,130.04871826171876,62.91900444030762
1637.2,35.134609603881835,-227.48859558105468,-7.387094783782961,0.4366624057292938,0.0628782178275287,0.4039282739162445,4.564915132522583,-55.36829223632813,-79.34962310791016,-95.30491409301756,51.66932334899902,17.904994010925293,-0.8470587313175202,0.1169484429061412,-0.2282238006591797,113.06806182861328,78.44473571777344,-11.788266158103944,230.56182521142483,0.6219999538805112,117.4185543585398,0.8946618307637347,108.5031466960907,133.81302795410156,67.56135694980621
1653.497,34.3761905670166,-216.02572021484372,-2.024313545227051,0.5159808397293091,0.0450072101317346,0.3323191165924072,5.9334183692932125,-59.68295440673828,-80.15948944091797,-111.58346405029296,64.5129524230957,11.78374423980713,-0.7543017446994782,0.0778661224991082,-0.2375003576278686,115.87747192382812,77.67203063964844,-6.621561408042908,218.9624892069345,0.6408274772649989,131.22538516922145,0.8022154784459479,109.94405355453492,137.35498504638673,73.53792803287506
1675.965,31.85875129699707,-201.56348571777343,1.8036555290222167,0.5894536197185516,0.001041882392019,0.214141547679901,7.373175239562988,-63.70730056762695,-81.07173004150391,-116.4413604736328,56.87871055603027,15.997794723510742,-0.7578126966953278,0.0576129797846078,-0.2161803305149078,117.66295471191408,76.89033966064453,-2.4031743764877325,204.2297063271291,0.6556738767765646,135.54171711275313,0.7996070185238249,110.28977947235109,140.59764022827147,78.66855566501617
1698.847,32.16703109741211,-181.73131408691407,4.016774082183838,0.6730117201805115,-0.0475937687791883,0.0949923813343047,8.959134960174561,-67.33511276245117,-82.12117462158203,-107.91504364013672,41.65265235900879,16.410149383544923,-0.7969268023967743,0.0907314550131559,-0.1941587507724761,118.32550048828124,76.21888275146485,0.4846610681153825,184.7391943541135,0.7132743220292672,126.75470356147116,0.8358481013808194,109.36636552810668,143.55399551391602,82.60583568969741
1713.411,29.246674728393558,-156.385546875,4.423136353492737,0.7430872797966004,-0.061095927748829,0.0175647661089896,10.65748920440674,-70.44453582763671,-83.32830657958985,-93.32234497070311,17.364804458618163,17.200803375244142,-0.7934185445308686,0.1104051362723111,-0.1977695494890212,117.24027404785156,75.72069091796875,1.278285755310207,159.32748542090036,0.7685756913563271,108.23967630593005,0.8363213266580782,106.58278484344484,146.16522674560548,84.60659233490006
1735.883,21.78450946807861,-125.03838272094728,1.8229950189590451,0.7935294508934021,-0.0824377562850713,-0.0605920538306236,12.40686206817627,-72.91402587890624,-84.72655639648437,-70.07522640228271,-7.853063201904296,19.8243408203125,-0.8904738664627075,0.1305478285998105,-0.1839990943670272,114.70923309326172,75.41250762939453,0.1020716086961321,127.23911801086328,0.8129259189806586,79.45615472883527,0.9239549598078228,102.30237102508544,148.32653350830077,84.8286280051805
1758.935,16.615970015525814,-90.02719287872316,-1.94311797618866,0.8253494381904602,-0.1133684061467647,-0.1259202018380164,14.137194061279295,-74.66473541259765,-86.1854034423828,-43.44487190246582,-18.688177490234374,20.346979904174805,-0.9208962440490722,0.1498827084898948,-0.1948606610298156,111.98747253417967,75.19591369628907,-1.8215888603590435,92.75169311144884,0.8453263684334195,56.86351952589946,0.9570726623741648,97.85027847290038,149.86064910888672,84.36381458202376
1780.924,10.652323317527769,-51.859525489807126,-5.835931181907654,0.8475914001464844,-0.1092871151864528,-0.1300826281309127,15.5963623046875,-75.64456176757812,-87.4770751953125,-16.98351936340332,-15.988052940368652,17.410116577148436,-0.8813379883766175,0.1362504318356513,-0.2221748799085616,110.12175598144532,74.99722137451172,-3.406685505714268,66.39326247266902,0.8670139459108803,43.88141465576035,0.9214072241230308,94.5253936767578,150.64178314208985,84.07038968959823
1802.325,0.1330098867416353,-14.76815128326416,-8.80064399242401,0.8403160572052002,-0.0803317526355385,-0.0927335768938064,16.475689506530763,-75.88517150878906,-88.38145294189454,7.968314743041992,-5.589820671081543,13.300609397888184,-0.8611673474311828,0.1164552196860313,-0.228630581498146,109.60519714355468,74.79288635253906,-4.1101740360260015,52.45894772050213,0.8525629239088971,40.81853359739081,0.8998351322825533,93.12950763702392,150.6780578613281,84.27127890586853
1813.564,-10.435301041603092,20.54891414642334,-9.854479122161866,0.8241490125656128,-0.0661061139777302,-0.0700884044170379,16.585720443725585,-75.43448486328126,-88.70511016845703,31.1685359954834,6.391026878356934,7.924778461456299,-0.8550240755081177,0.1178688958287238,-0.2215738475322723,110.56211547851562,74.59330902099609,-3.7696039438247686,51.51971702543867,0.8356410322410299,44.33469957791512,0.8924523199652684,93.97639503479004,150.02779388427734,84.93550622463226
1835.824,-18.12381479740143,53.69808940887451,-8.901509523391724,0.7979790568351746,-0.047921166755259,-0.036078955605626,15.905703735351562,-74.34501342773437,-88.36592712402344,49.70453357696533,15.940859413146972,2.329533863067627,-0.8214464902877807,0.1224031582474708,-0.2206782519817351,112.67456970214845,74.40998840332031,-2.614283967018128,63.81412425138524,0.8060040533482538,55.86624337816791,0.860812019738454,96.76886596679688,148.7550018310547,85.7516431570053
1858.91,-26.205179595947264,83.80485916137695,-7.041194343566895,0.770046865940094,-0.0058412784710526,-0.0014654446393251,14.537637519836426,-72.67784576416015,-87.4747528076172,67.78781585693359,19.53598480224609,-1.9449725151062007,-0.8453919529914856,0.1379808545112609,-0.209059166908264,115.53926391601564,74.28097686767578,-1.0555962324142465,88.72057773697868,0.7727366275273286,71.97776164693404,0.8833313320838665,101.0016263961792,146.95882263183594,86.41915657520295
1880.721,-32.31119918823242,108.49357604980467,-4.050565648078918,0.753705906867981,0.0334440236911177,0.0330975260585546,12.72441234588623,-70.53969268798828,-86.23638153076172,82.89678039550782,15.692051696777344,-7.299050235748291,-0.8596661567687989,0.1851572036743163,-0.2022034853696822,118.63720092773436,74.27354431152344,0.4312908887863152,113.51383624896825,0.7570658381614842,86.99932980679687,0.9041504628340176,105.91278858184816,144.81323699951173,86.66767241954804
1903.336,-38.258531188964845,130.48426361083983,-1.8224279046058656,0.7405302047729492,0.0507812209427356,0.086949136480689,10.727856254577636,-67.98124694824219,-84.91422729492187,89.75531768798828,8.622467803955079,-11.193837642669678,-0.8652979373931885,0.2067823350429534,-0.1911014795303343,121.5471435546875,74.38710327148438,1.580947041511535,136.06874107723996,0.7533905870364437,93.33887842371378,0.9114286010186604,110.81928730010986,142.36835021972655,86.49517433643341
1913.375,-42.038577270507815,149.5820510864258,0.4662142157554626,0.7255134463310242,0.0493405155837535,0.1256618719547986,8.728018665313721,-65.0444564819336,-83.64965515136718,94.17784881591795,-3.1388378143310547,-12.08523406982422,-0.8890304684638977,0.2047279506921767,-0.1729433923959731,123.816943359375,74.6348876953125,1.9773269176483148,155.43079567093451,0.744623825213667,97.47605572208712,0.930312190572084,115.08892469406128,139.6793441772461,85.6269820690155
1935.805,-45.68285903930664,164.53338623046875,2.282534682750702,0.7174935102462768,0.0580610960721969,0.1562817305326461,6.836100339889526,-61.80452194213867,-82.55723876953125,98.47759704589843,-23.27119026184082,-12.305903434753418,-0.939125120639801,0.194685386121273,-0.1542789950966834,124.88386535644533,75.11728210449219,1.0413504600524894,170.83251962489567,0.7412328200585442,104.77000504260286,0.9743689307060752,118.0477650165558,136.92180404663085,83.59858922958374
1961.059,-49.24739379882813,177.8707061767578,5.920561444759369,0.7083587050437927,0.0457952622324228,0.2060858815908432,5.01689293384552,-58.29276733398437,-81.594775390625,97.3260055541992,-40.867956733703615,-15.103508567810058,-0.9540344715118408,0.193499456346035,-0.140190939605236,124.78824310302734,75.83937377929688,-1.0670113086700446,184.74358993512087,0.7434286467653852,109.9658797273078,0.9866691555175516,119.77135016918184,134.13214111328125,80.52776408195496
1983.261,-50.47071380615235,189.63245239257813,10.194883120059966,0.6843987464904785,0.0221263002604246,0.2559311658143997,3.304317343235016,-54.53789520263672,-80.74737091064453,89.22628021240234,-47.21353378295898,-15.44868507385254,-0.983530855178833,0.1857030734419822,-0.1124260462820529,123.96020050048828,76.64178924560547,-3.757482814788819,196.70832324680944,0.7353236422850771,104.49117087024464,1.0096993103944167,120.65588315725329,131.1796844482422,76.98988809585572
1993.211,-48.89952926635742,199.38993225097656,14.468596267700196,0.6554492473602295,0.0270366560667753,0.3196611076593399,1.730521380901337,-50.57269287109375,-80.00124969482422,80.8289779663086,-52.38442840576172,-13.682724666595458,-0.9886436700820924,0.1941906943917274,-0.0845677714794873,122.35491638183592,77.46538391113282,-7.069473171234131,205.9992193752625,0.7450332489830969,98.3772177782399,1.013963570168228,120.6243950009346,128.03807678222657,72.93177652359009
2023.257,-51.695979309082034,207.3896667480469,17.126870727539064,0.6133848190307617,7.662288844588194e-05,0.3722855269908905,0.2297462344169616,-46.43797988891602,-79.38793640136718,71.11879425048828,-52.07012939453125,-7.534257221221924,-1.0197922229766845,0.2104903385043143,-0.0385717120021581,120.10568389892578,78.15976104736328,-10.835535764694214,214.59223570653265,0.7358653122980783,89.935977508202,1.0467759292094416,119.87593766450884,124.5977409362793,68.55240063667297
2043.152,-52.18414001464844,215.11829528808596,19.582014656066896,0.5596443593502045,-0.0332774106413125,0.4399483263492584,-1.183964264392853,-42.14206314086914,-78.88016052246094,57.2574649810791,-43.950640487670896,-8.170833301544189,-1.0354134798049928,0.2396645158529281,-0.0165267652831971,117.92658233642578,78.74312591552734,-14.236676597595215,222.3376167946563,0.7293984982318585,74.4366401020989,1.0659368189595244,119.11054660081864,120.88518905639648,64.64348392486572
2053.21,-49.031547546386726,220.41372680664065,21.357542419433592,0.4984467446804047,-0.0280954000540077,0.504056304693222,-2.4199632525444037,-37.73127212524414,-78.50675048828126,43.86519317626953,-28.60212163925171,-7.591873645782471,-1.0025006532669067,0.3084462881088257,0.008724267873913,116.53441009521484,79.14660339355468,-16.55412940979004,226.94628503268615,0.7249448337839263,55.92270352052748,1.0572033045175726,118.95437334775924,116.87787551879885,61.95262107849121
2075.647,-49.53019332885743,225.5778015136719,21.61313819885254,0.4201780229806899,-0.0279481225647031,0.6134550869464874,-3.5583647966384886,-33.21042938232422,-78.27300109863282,29.837289762496948,-11.729169368743896,-8.942766284942627,-0.943613862991333,0.332453978061676,0.0053648204542696,116.4808364868164,79.41053924560546,-17.220846366882324,232.10453308332367,0.7682695075745583,48.30639566672933,1.0098493916900066,120.0392012834549,112.62096862792968,61.05215473175049
2093.379,-47.18375091552735,230.2837036132813,21.66236991882324,0.3195110917091369,-0.0769177594222127,0.657888776063919,-4.583924150466919,-28.590596008300786,-78.13513641357422,17.877497243881226,-0.5407046318054199,-8.530999994277954,-0.9411042332649232,0.3039885699748993,-0.0006189475767314,117.17793121337893,79.56009216308594,-16.8769172668457,236.3421847083643,0.7649733403615103,39.648617448562206,1.001452029344622,121.76185536384584,108.15068817138672,61.258219146728514
2116.51,-36.600385475158696,234.0646728515625,22.237380599975587,0.2312648013234137,-0.0965834432281553,0.714753246307373,-5.349175977706909,-23.89218807220459,-78.08744812011719,12.577268362045288,12.549777698516843,-11.347963571548462,-0.9301469922065736,0.2854658931493759,-0.0244481104426085,119.04882354736328,79.6321304321289,-15.226288986206054,238.4891526917856,0.7816588353222814,37.12949533671191,0.9863744309620458,124.3979995250702,103.5243185043335,62.86115913391113
2137.987,-29.50387172698975,236.06930236816407,22.369715881347656,0.1339141607284545,-0.0789265924133359,0.7846263408660888,-5.9378743171691895,-19.151664352416997,-78.1134246826172,9.835349798202516,30.16231164932251,-6.962823343276978,-0.946999990940094,0.2650830924510955,-0.022557033598423,122.13825378417968,79.43793640136718,-12.273159408569336,239.38158769207087,0.8196330429150148,40.84291802839871,0.9993877648787884,128.07612810134887,98.58960075378418,65.84026527404785
2153.153,-26.446995353698732,236.6130859375,22.563914489746093,0.0405510529875755,-0.0834325674921273,0.8731265306472779,-6.453224563598633,-14.401066303253174,-78.17057189941406,0.1491559505462646,44.35676307678223,-4.249190092086793,-1.0047554135322572,0.203604581952095,-0.0511622764170169,125.93770599365234,79.00544586181641,-8.391680029034614,239.50452592075004,0.8889503690186938,48.30192009798202,1.0340360442232177,132.39093055725098,93.4065121650696,69.77889187037945
2175.607,-23.259586906433107,236.28219909667968,23.489722442626952,-0.0410484448075294,-0.1103858426213263,0.9149312734603882,-6.899746417999268,-9.654825937747956,-78.25390930175782,-1.1693723678588868,40.80816116333008,1.1414014816284173,-1.0300842761993407,0.1762688010931014,-0.0740925282239913,128.9226318359375,78.48044281005859,-5.30973167717457,238.75997720479532,0.9305417596593376,43.68080812626459,1.051192363488724,135.82237825393676,88.13526874780655,72.94417762458325
2198.27,-15.533673667907715,233.20859375,26.318392944335937,-0.139205078780651,-0.1397813156247138,0.9555262207984924,-7.19501428604126,-4.962749922275544,-78.30823669433593,0.0157333374023437,43.3615047454834,1.9804328441619865,-1.018547284603119,0.148025528434664,-0.0669423528015613,131.92694702148438,77.89060974121094,-2.228801253437997,235.654362586751,0.991791998840412,45.73167408999927,1.0372914776893485,139.12196130752562,82.85335966348649,76.07943544089794
2221.57,-6.401149368286136,227.17548828125,30.623601531982423,-0.258423364162445,-0.1135823547840117,0.9769792437553406,-7.306284141540527,-0.3797545075416568,-78.27364959716797,-2.540671539306641,44.5845531463623,-0.6906223773956306,-1.0266682505607605,0.1210833706893026,-0.0920015707612037,134.90304565429688,77.29791564941407,0.8796118706464761,230.89806138620295,1.03696734082626,46.36230296805319,1.0448230181900184,142.2093297958374,77.67767015695571,79.15326146781445
2243.045,-2.558460855484012,219.28822631835936,34.42150115966797,-0.34673061221838,-0.0816725105047225,1.0273573040962218,-7.335460758209228,4.055585420131683,-78.14657897949219,-5.3478827476501465,33.21319546699524,-4.245643663406373,-1.0111523270606997,0.1439983435906469,-0.1496609561145305,137.12738342285155,76.87771453857422,3.2776660889387124,223.4743839345661,1.1095173503891549,36.23838959676657,1.04032542376557,144.4628441810608,72.82212911844253,81.4242450684309
2254.31,-7.402139139175418,211.47364807128903,35.58370399475098,-0.4518899053335189,-0.0917445510625838,1.0403905272483829,-7.456479549407959,8.338942754268647,-77.98089294433593,-9.1225474357605,14.198718690872193,-7.847311735153198,-0.9695111989974976,0.162586508039385,-0.1761873267590999,138.27529602050782,76.76200256347656,4.6491575002670285,216.8483636895992,1.1549425064388916,33.21816254571653,1.0095631914209235,145.73177556991578,68.42305980920791,82.63005044460297
2275.436,-3.289553689956668,202.41661987304687,38.63874130249023,-0.5561401784420014,-0.1005888074636459,1.0205222964286804,-7.47305850982666,12.451338481903075,-77.73513946533203,-12.811603450775149,5.578243303298951,-13.55613603591919,-0.9667239189147948,0.1196949680335819,-0.1866214655339717,139.2380615234375,76.85771026611329,5.904217433929443,208.08721521571545,1.1778211157164813,36.9998819907436,1.0033584622854483,146.71112003326417,64.40637178421021,83.63935689926147
2298.134,1.8224782466888392,193.874365234375,41.25830764770508,-0.6081681609153747,-0.0752628296613693,1.0227034449577332,-7.3502326011657715,16.404988479614257,-77.40055999755859,-12.619755172729493,1.9873148441314692,-17.4794828414917,-0.9941383600234984,0.0989069040864705,-0.2268334329128264,140.27472839355468,77.05156097412109,7.229018592834473,200.8033549907876,1.1994567499671314,35.391494088132305,1.0368766557535405,147.62496099472045,60.64657249450684,84.62957859039307
2321.585,-0.6238108158111608,184.58673400878905,41.86675720214844,-0.6593672275543213,-0.0672343589365482,1.0377069354057311,-7.230836009979248,20.17881088256836,-77.01409606933593,-8.869793701171876,-3.3737660884857177,-16.57694516181946,-0.981484055519104,0.1143356230109929,-0.2471488714218139,141.03270263671874,77.298095703125,8.188531303405762,191.6491092936371,1.240965674847164,32.129112342971965,1.0292149634104493,148.263538646698,57.11928482055664,85.2026273727417
2343.03,-0.8883326888084447,176.72645263671876,42.65958633422852,-0.6970353484153747,-0.0905899264849721,1.0171727061271667,-7.058979225158692,23.80553474426269,-76.56067504882813,-4.671757602691651,-4.234711694717407,-15.79302306175232,-0.9756009817123412,0.110794099792838,-0.2444365024566649,141.78504638671876,77.54532165527344,9.055635356903077,184.17914302182808,1.2405214597788017,34.65409079585843,1.022219061410742,148.84402561187744,53.73978691101074,85.6163104057312
2352.996,7.755394613742825,168.2936279296875,45.16965103149415,-0.7308430075645447,-0.0843618408776819,1.008155453205109,-6.643801975250244,27.275780868530276,-76.00646362304687,6.270410060882568,-0.4600227832794189,-13.478241300582884,-0.9939521431922912,0.0922707762569188,-0.2288057714700698,142.81922607421876,77.7039779663086,9.988459968566891,175.2611462350715,1.251167609439544,27.767983191770487,1.0318295488312657,149.463028049469,50.42819709777832,85.99492359161377
2378.015,12.47697283029556,159.07996520996093,45.070857238769534,-0.7560446739196778,-0.0707760916091501,1.0003573775291443,-6.077610206604004,30.564447784423827,-75.37601013183594,11.10283136367798,7.2437659740448,-11.27489619255066,-1.007567036151886,0.1048407837748527,-0.2191508710384368,144.25796813964843,77.70854034423829,11.236872673034666,166.37764164930218,1.258657814473381,23.878474515219164,1.0436007207095763,150.33557834625245,47.14409255981445,86.61288280487061
2399.579,11.211931097507474,149.1187713623047,43.06222457885743,-0.7752183198928833,-0.0623901681043207,0.9785551190376282,-5.489915275573731,33.648005676269534,-74.70979461669921,12.454374885559082,9.786803579330444,-9.057336378097537,-0.999593150615692,0.1522519409656524,-0.221589896082878,145.6621124267578,77.6291717529297,12.423010826110838,156.18190584082953,1.2520742011768131,24.66465837443779,1.0369572997060004,151.15202770233154,43.98116607666016,87.13280544281005
2421.671,7.535308611392972,139.39639282226562,41.3090316772461,-0.8099171400070191,-0.0424080693162977,0.97953679561615,-4.918492603302002,36.52611045837402,-74.00401153564454,8.562423610687256,11.990714788436888,-10.84546995162964,-0.973746943473816,0.1361309178173541,-0.2516488105058669,147.17530822753906,77.52354125976562,13.802014541625976,146.0516398142069,1.2764649073922434,25.14380939300275,1.021023173929566,152.09380083084108,40.9974308013916,87.8060260772705
2442.731,6.542166423797605,127.48164978027344,39.22465057373047,-0.8666037321090698,-0.0460786294192075,0.970382797718048,-4.332090187072754,39.15525588989258,-73.28218078613281,8.00899534225464,19.448307228088375,-12.281857299804688,-0.9641210317611696,0.1054499201476573,-0.2658164709806442,149.12623291015626,77.30186920166015,15.64112949371338,134.0704559984237,1.3058853961867596,29.045296978840724,1.0109773567128797,153.458323097229,38.14661331176758,88.92331027984619
2462.927,8.277768182754514,112.96923217773436,36.55524253845215,-0.8991788387298584,-0.0601098123937845,0.9548255681991578,-3.691234588623047,41.47739410400391,-72.55761413574218,8.797211360931396,30.65272369384765,-12.667509651184082,-0.9716946363449096,0.0724269479513167,-0.2921802818775177,151.60006408691407,76.87372436523438,18.0003173828125,119.42314951647282,1.3159681190350447,35.213764463024454,1.0208235113907884,155.29129867553712,35.39633026123047,90.55793151855468
2473.097,8.926915597915647,96.82160339355468,33.83684310913086,-0.9250867605209352,-0.0575632248073815,0.9734197616577148,-3.0135653972625733,43.45452194213867,-71.82707366943359,13.710580158233643,37.75453796386719,-12.187020874023435,-0.99735347032547,0.0596348287537693,-0.3093888938426971,154.248486328125,76.2918914794922,20.441637802124024,103.59018738546892,1.3466961312674577,42.44377133792951,1.04896275222996,157.26205172538758,32.83736953735352,92.26871147155762
2493.299,7.115282678604123,79.26881866455078,31.214724731445312,-0.9539457440376282,-0.0631348673254251,1.0189546823501587,-2.357851612567901,45.05494155883789,-71.11459655761719,19.11066408157349,44.2034351348877,-12.570443725585935,-1.0226610064506532,0.0480570884421467,-0.3151102542877196,157.0434997558594,75.58093566894532,22.92743797302246,86.386267396725,1.400426900567397,50.31726844551692,1.073672918834513,159.40135136842727,30.525994110107423,94.04203453063964
2515.447,7.2235784053802465,60.16537246704102,28.213558197021484,-0.945386004447937,-0.0990674171596764,1.0711780071258543,-1.711948847770691,46.26433181762695,-70.44085845947265,24.158073043823244,46.40524291992188,-10.637619400024414,-1.0405694842338562,0.0680408710613846,-0.290544033050537,159.6702423095703,74.79424133300782,25.14077491760254,68.31877597928458,1.4347431795990406,53.82275280970962,1.0837857013560588,161.382191157341,28.529909515380854,95.5816333770752
2534.1710000000003,6.074934530258177,39.24724102020264,24.533206367492674,-0.910524845123291,-0.1194787815213202,1.1288965344429016,-1.1298117905855178,47.0434799194336,-69.8328872680664,22.99233055114746,48.14773254394531,-10.422352600097655,-1.0302875280380248,0.0598988080397247,-0.2798948228359222,162.0728302001953,73.95624542236328,27.15402717590332,51.80927708206875,1.4589158605391694,54.828756000269536,1.0702815464198965,163.20264199078082,26.912765502929688,96.98691444396972
2555.169,5.159302806854246,16.4428991317749,19.757501983642577,-0.8731623411178588,-0.1370775252580642,1.1980795860290527,-0.6343582674860955,47.362004089355466,-69.3228759765625,22.34761791229248,47.825192260742185,-10.491081047058106,-1.026468825340271,0.0687561886385082,-0.2811294198036194,164.19778137207032,73.1074005126953,28.902909088134766,41.92520754786674,1.4934794534832858,54.35148470528113,1.0674188197715844,164.8321396395564,25.745396423339844,98.22578506469726
2577.791,2.181683540344236,-9.728508949279783,13.887832152843476,-0.8539597511291503,-0.1419807016849517,1.261353754997253,-0.3009546659886836,47.16007995605469,-68.95373077392578,20.31795177459717,44.413700866699216,-10.884638023376464,-1.015384078025818,0.0851365342736243,-0.2815517902374267,166.01542053222656,72.31292114257812,30.38451156616211,41.42155957780908,1.5326486239499544,50.686653589322646,1.057677019116,166.31637519821524,25.15284118652344,99.33824234008787
2594.207,-2.0854682922363303,-38.49420566558838,6.310854613780975,-0.8344205141067504,-0.1372721105813979,1.3100747108459472,-0.1971672557294368,46.39126434326172,-68.76884613037109,16.57529773712158,41.438847351074216,-10.076182556152345,-0.988275110721588,0.0958610787987708,-0.2952485859394073,167.4897918701172,71.55653381347656,31.592467498779296,50.83915496699605,1.560961958521483,46.420728103789976,1.0366885414640727,167.6869591258466,25.165269470214845,100.3613136291504
2616.039,-4.04963541030884,-68.54613666534424,-2.025756561756134,-0.812128484249115,-0.1349076688289641,1.3369903802871703,-0.2957183383405208,45.01997528076172,-68.79546203613282,14.092183876037598,41.28150863647461,-9.227319622039795,-0.9842814803123474,0.0832385212182998,-0.3047952711582183,168.79489135742188,70.79882354736328,32.67551345825196,71.46738991582166,1.5707684063541054,45.05375627797268,1.0344788739184667,169.0906096957624,25.778848266601564,101.47097549438476
2637.657,-1.0721108436584494,-99.08629989624023,-9.7528205037117,-0.8185426235198975,-0.1244958952069282,1.3694292783737183,-0.4719420664012432,43.02565383911133,-69.01721649169922,15.374193000793458,38.40366897583008,-5.675867366790771,-1.00643150806427,0.089808340370655,-0.3231138765811919,169.80316162109375,70.07919311523438,33.41765823364258,100.04552890080524,1.6010601548067414,42.70728719635535,1.0615027808247977,170.275103687495,27.053539276123047,102.4348747253418
2660.107,1.7883073806762677,-129.763916015625,-16.00144816637039,-0.8415634870529175,-0.0937648676335811,1.40013325214386,-0.6818761087954044,40.4056266784668,-69.38072204589844,17.59172668457031,31.283275032043456,-1.3629001617431649,-1.0259196996688842,0.0978714361786841,-0.3250541925430297,170.48623962402343,69.48889465332032,33.76280059814453,130.9867202083528,1.6367426018758309,38.45507484137441,1.0813383817971896,171.16811573281885,29.08326797485352,103.14352264404296
2682.7290000000003,4.786464595794676,-158.95140380859374,-20.9335563659668,-0.8384571194648742,-0.0722364448010921,1.3994288206100465,-0.8839163184165955,37.20041351318359,-69.84688262939453,17.649306869506837,20.7100923538208,3.2351490020751945,-1.0516052722930909,0.1257146880030631,-0.3157721132040024,170.81873474121093,69.08527069091797,33.725520324707034,160.57627789279857,1.6333033321422463,35.01929783168746,1.108190438404963,171.70265105962753,31.88485717773437,103.57240295410156
2692.897,7.333848857879637,-186.64930725097656,-24.602658081054688,-0.8127048254013062,-0.0456453774124383,1.3905749797821043,-1.0384374260902405,33.43959503173828,-70.37154846191406,11.93716163635254,2.0664842605590805,5.613729858398437,-1.0792728781700134,0.1538895204663276,-0.293072247505188,170.75548095703124,69.04327697753907,33.371849822998044,188.51912415951955,1.612316810571206,36.9355151607376,1.1335800082489174,171.79391838312148,35.60368194580078,103.7433982849121
2715.175,10.934742927551268,-211.69671325683595,-27.39781723022461,-0.7767780661582948,-0.0280012499541043,1.3830043077468872,-1.100850486755371,29.18182182312012,-70.92042083740235,0.9333095550537108,-20.120651054382325,6.3989953041076655,-1.1128364086151123,0.1929465860128402,-0.2685752630233765,170.2047332763672,69.43233947753906,32.72402114868164,213.7900340790493,1.5881420673633104,44.962406370304045,1.1655362288877036,171.30558376312257,40.25051765441894,103.644441986084
2737.636,14.609926986694337,-234.2928009033203,-28.673892211914065,-0.7269827842712403,-0.0064001996070146,1.3637431383132934,-1.042846393585205,24.49596214294433,-71.46345977783203,-16.040660858154297,-46.09985179901123,6.423390483856201,-1.1271143674850463,0.2321384042501449,-0.2296197324991225,168.97284545898438,70.32530212402344,31.71038665771484,236.53379051923744,1.5479552965776562,61.120128283719694,1.1761755522040378,170.01569185256955,45.8293399810791,103.17384643554688
2760.1110000000003,16.873303031921388,-253.91455688476563,-30.3522575378418,-0.6492095768451691,0.0009888658300042,1.3228049516677856,-0.9009596645832062,19.43621044158936,-72.02459869384765,-37.0944278717041,-68.35576858520508,6.982335281372071,-1.137668490409851,0.2687801003456115,-0.1813780546188354,166.83951416015626,71.62977905273438,30.19529571533203,256.3250751441857,1.4766699002130406,81.4749611418516,1.1843245004736722,167.74047382473947,52.19356861114502,102.21989440917967
2783.04,17.210396385192873,-271.6431488037109,-31.859969329833984,-0.5649719893932343,0.0147706607356667,1.2610346794128418,-0.7126497000455856,14.023264837265014,-72.61241760253907,-57.659031295776366,-84.89935760498047,8.678498268127441,-1.1395302295684815,0.2825347483158111,-0.1652856141328811,163.5461639404297,73.21412353515625,27.916444396972658,274.0952895148307,1.3831183037763684,103.88593191834156,1.186810464942633,164.25881364047527,59.19085869789124,100.52886199951172
2792.938,19.64623107910156,-285.480322265625,-33.51317520141602,-0.4774339854717255,0.0197015298530459,1.1978514194488523,-0.4263526052236557,8.336089181900025,-73.24211273193359,-72.31258697509766,-95.4977783203125,13.638945388793946,-1.1477736711502076,0.2799833655357361,-0.1386133641004562,158.6491943359375,74.89841918945312,24.297761154174804,288.1352509213245,1.292609263072567,121.25954875206844,1.1905833997427022,159.07554694116115,66.5623300075531,97.5398738861084
2817.799,22.09932060241699,-296.07163696289064,-34.04587631225586,-0.4064261972904206,0.0236014449968934,1.1566258430480958,-0.0280290573835372,2.435750818252563,-73.90776214599609,-80.49552917480469,-101.3445053100586,19.62730293273926,-1.1430540323257443,0.2438174217939376,-0.134718245267868,151.97650451660155,76.52682647705078,19.03817157745361,298.86256433464905,1.229804400428126,131.58727702320752,1.1800351387628167,152.0045335739851,74.09107565879822,92.94593372344973
2840.071,25.937863159179688,-304.1253601074219,-33.50664176940918,-0.3412757277488709,0.0187132159247994,1.0853745698928834,0.5069397002458573,-3.633713293075561,-74.61226806640624,-74.41386642456055,-102.39820098876952,28.226058387756343,-1.1334914922714234,0.1959091737866401,-0.1281215280294418,143.3789505004883,77.89044494628907,11.710630702972413,307.18572760687846,1.1405471921781936,131.88957674649166,1.1630556163226404,142.87201080024244,81.52415823936462,86.32289876937867
2860.0530000000003,26.7565544128418,-308.5696044921875,-32.57231178283691,-0.2574844956398011,0.0427874062210321,0.9860798716545104,1.1393341153860093,-9.792335844039917,-75.36715393066406,-60.19513683319092,-101.93194732666016,38.49965057373047,-1.115944004058838,0.1668002173304557,-0.1205698803067207,133.01902923583984,78.8267333984375,2.3233778953552244,311.5625906748968,1.0248712467845504,129.37367934082903,1.139812677589985,131.87969512045385,88.61906924247742,77.69053182601928
2883.002,29.099184799194337,-307.2353820800781,-31.66456184387207,-0.1715745070017874,0.0283948849886655,0.911964762210846,1.91287522315979,-15.915820980072022,-76.19304962158203,-45.91387119293213,-100.56087188720704,48.06174087524414,-1.0962009191513062,0.1610322102904319,-0.0908889120444655,121.55840759277343,79.23903045654296,-8.472473239898681,310.3344979907989,0.9341628471936044,125.30068849400068,1.1176048884152583,119.64553236961363,95.154851436615,67.72057638168334
2902.8230000000003,35.009199905395505,-304.026953125,-27.34370651245117,-0.1118567147292197,0.0229421470314264,0.8506884932518005,2.8975629687309263,-21.96675033569336,-77.04816284179688,-36.25741901397705,-96.5850845336914,52.798746490478514,-1.057932472229004,0.1453969284892081,-0.0732100752182304,110.08938293457032,79.14960021972657,-19.45074739456177,307.4562447628799,0.8669183874730022,118.87703506368128,1.0762961481446167,107.1918199658394,101.11635055541991,57.59741544723511
2912.797,39.49123649597168,-298.9961730957031,-22.2903039932251,-0.033022350911051,0.0372389391064643,0.7432872295379639,4.0732944250106815,-27.908138275146484,-77.94778747558594,-29.084145545959476,-94.18330230712893,57.38533020019531,-0.9894193291664124,0.1665526643395423,-0.0624890622682869,99.16770782470704,78.56509094238281,-30.00977964401245,302.66929297201915,0.7573223045309194,115.19744971054423,1.0107281604103993,95.09441339969636,106.4732292175293,47.938007831573486
2932.832,38.67228965759277,-291.3429931640625,-18.09782667160034,0.0594124845229088,0.0487275846302509,0.659997820854187,5.357436561584473,-33.686581420898435,-78.93411102294922,-31.402414894104005,-88.98226776123047,58.40809173583985,-0.9679134130477904,0.1931501865386962,-0.0339398886077106,89.58793640136719,77.59331817626953,-39.1630355834961,294.7446484730094,0.6749004323956884,112.20800834735462,0.9902803998208696,84.23049983978271,111.27989959716795,39.77107543945313
2954.902,39.26646003723145,-281.9665161132813,-13.714894008636474,0.1237562171183526,0.0409190513193607,0.6000917792320252,6.806445121765137,-39.2660472869873,-80.03155975341797,-41.16695594787598,-83.32417907714844,57.726663970947264,-0.9527051210403442,0.205133107304573,-0.0316774795763194,81.72618713378907,76.36647338867188,-46.38386306762696,285.2291291244654,0.6248041751161183,110.41104903805528,0.9772691961126968,74.91974201202393,115.63252067565918,33.64769668579102
2977.855,41.27529525756836,-272.5668334960937,-9.234207916259766,0.1808350235223769,0.0600244492292404,0.5461490273475647,8.488586807250977,-44.64353408813477,-81.27621459960938,-50.84689712524414,-75.0062255859375,55.97312698364258,-0.9410067439079284,0.1835630178451537,-0.0611312587745487,75.58143157958985,75.03288269042969,-51.65541381835938,275.9174514639368,0.5886937414681797,107.6772092692108,0.9631454627810624,67.09284477233886,119.67641677856446,29.62080078125
3000.192,39.99100570678711,-261.87486267089844,-6.588601779937744,0.2335063248872756,0.0655954770743846,0.4702244400978088,10.41579580307007,-49.78488464355469,-82.76737365722656,-56.2473861694336,-62.61372985839844,54.57599029541016,-0.9186653852462768,0.1747490227222442,-0.0890277264639735,70.99400634765625,73.69212646484375,-55.2255500793457,265.0755998755765,0.5381964474761419,103.23013409256365,0.9419289960651248,60.57821054458618,123.47701110839844,27.54182357788086
3023.1620000000003,37.3436996459961,-249.40532836914065,-5.4229203224182125,0.2895397841930389,0.0695749826729297,0.4050203710794449,12.685421943664553,-54.63883209228516,-84.63911437988281,-61.28335647583008,-42.23250789642334,51.11971206665039,-0.9190212607383728,0.1662594616413116,-0.0912797091528773,68.0578369140625,72.49470672607421,-56.98703842163086,252.31115412392552,0.5179936157701933,96.4217365654029,0.9409124341170052,55.37241497039795,127.13353881835936,27.652075958251952
3032.876,36.42865905761719,-234.7809326171875,-4.657955884933472,0.3527297377586364,0.0751816980540752,0.3362870275974273,15.430109977722168,-59.16222457885742,-86.9892364501953,-66.28997344970703,-19.2238805770874,46.47169952392578,-0.896835446357727,0.1783742457628249,-0.0961774956434965,66.54053344726563,71.52236328125,-57.1670166015625,237.6973777272539,0.5126762678904226,92.2822177846988,0.9219258418061492,51.110423469543456,130.68458786010743,29.82221984863281
3055.009,35.92412147521973,-220.0873870849609,-4.647519159317016,0.3988401532173156,0.0757869534194469,0.2628364339470863,18.838646697998048,-63.33149642944336,-90.01142120361328,-71.0452163696289,6.349131202697755,39.05199394226074,-0.8490848302841186,0.1884361892938613,-0.0991109337657689,66.30807189941406,70.86482238769531,-55.89991683959961,223.0668713304398,0.5012768444921989,90.82048699759892,0.8786181517861529,47.469425201416016,134.19631881713866,34.11150436401367
3077.611,32.19802322387695,-204.6931304931641,-4.343880081176758,0.4641331732273102,0.0789457879960536,0.1777098251506685,23.022354507446288,-67.11730117797852,-93.87251739501951,-75.32516174316406,26.40364475250244,28.522407722473144,-0.7966932654380798,0.1797442361712455,-0.0791734870523214,66.86164093017578,70.55133056640625,-53.71429061889648,207.297799034716,0.5219218643370709,90.71492629286618,0.8237986760624445,43.83928642272949,137.66863174438475,40.15822677612304
3100.048,26.599929809570312,-187.6193115234375,-4.3663978099823,0.5375571608543396,0.0820638328790664,0.1105281481519341,28.14359893798828,-70.46784973144531,-98.76617431640624,-77.51480560302734,38.94198169708252,17.840372848510743,-0.8101026296615601,0.1889639690518378,-0.058358222618699,67.80317535400391,70.53205718994141,-51.07405242919922,189.59937297449724,0.568317218344922,91.27550732462852,0.8364557769944145,39.659576416015625,140.99990692138672,47.69212188720703
3122.603,22.41000785827637,-169.21636352539062,-3.836825895309448,0.6085930585861206,0.0631180797703564,0.0309685448184609,34.29988403320313,-73.3458984375,-104.75204315185547,-75.20739364624023,38.6973014831543,10.840742492675782,-0.8138302206993103,0.2024998471140861,-0.0352255675941705,68.63273620605469,70.6402374267578,-48.60463180541992,170.78273399924586,0.6273342495635135,86.80780204370272,0.8406535394819846,34.33285217285156,143.98613586425782,56.14741134643555
3132.57,19.091661834716795,-148.56573486328125,-3.902265024185181,0.6810969471931457,0.0484140400774776,-0.0641076019033789,41.36409034729004,-75.69431762695312,-111.68038177490234,-68.37653732299805,33.420169067382815,5.893653202056885,-0.7994591593742371,0.2020782873034476,-0.0235620953142642,69.22903289794922,70.79468536376953,-46.52982177734375,149.8750266404942,0.6979906075306961,77.47324795139505,0.8267599436988178,27.86494255065918,146.48900299072267,65.15055999755859
3155.513,13.370278835296627,-123.49958724975586,-3.913746213912964,0.7734004735946656,0.0510660399682819,-0.1468279724940657,48.67569732666016,-77.46959991455078,-118.91696319580078,-53.60908908843994,21.82858967781067,3.6921414375305175,-0.8237322092056274,0.1950839444994926,-0.0064939223229884,69.46735534667968,70.90869445800782,-45.14858627319336,124.45569145695076,0.795787666170275,59.7085925363462,0.8478661510227432,20.791658020019533,148.3782943725586,73.76837692260742
3177.369,2.360180950164792,-94.68450965881348,-5.50271463394165,0.8477267265319824,0.0469722610898315,-0.1753764275461435,55.31549072265625,-78.65937042236328,-125.65650939941406,-35.33756866455078,14.112452173233034,3.796321678161621,-0.8389199614524842,0.2135771423578261,-0.0036490999162196,69.70137329101563,70.9704376220703,-44.16375579833984,98.85754867360112,0.8716987350893067,41.85510642709663,0.8665963466584307,14.385882568359374,149.6298080444336,81.49275360107421
3200.438,-7.083199787139895,-63.446808910369874,-7.273748254776001,0.8646528363227844,0.0046613511629402,-0.2234420895576477,60.394761657714845,-79.31181945800782,-130.97694702148436,-14.468241500854491,9.747818994522095,6.237223434448242,-0.8247016429901123,0.2147609025239944,-0.001415941864252,70.18643188476562,70.96105651855468,-43.35733108520508,75.01502622523574,0.8989067405686402,30.424205060088344,0.8528593360125386,9.791670227050782,150.2728759765625,87.6196159362793
3221.0040000000004,-13.278834056854253,-29.560692882537843,-10.002659845352174,0.9013176679611206,0.0060535561293363,-0.2334047317504882,63.12326049804688,-79.47087249755859,-134.0210205078125,5.692103195190432,14.643800592422483,6.71779842376709,-0.8321624279022217,0.2146830797195434,-0.005953250080347,71.34925079345703,70.96696319580079,-42.26019821166992,57.7631078124795,0.9368551670489748,29.96433261505921,0.8602515264518227,8.225990295410156,150.43783569335938,91.76082229614258
3242.675,-24.548201656341558,3.9136097908020018,-12.7091495513916,0.8945513606071472,0.0336918544024229,-0.1849370382726192,63.06471481323242,-79.20724029541016,-134.45367126464845,23.258239364624025,22.030221033096318,6.391696786880493,-0.8368444919586182,0.2108157455921172,-0.0229872860014438,73.29894409179687,71.01108093261719,-40.70509262084961,53.82230568734349,0.925245726029586,36.527617881250606,0.8639273438248438,10.234229278564452,150.21832122802735,93.74857864379882
3255.503,-34.88907718658447,34.70574922561646,-13.74861946105957,0.8719867706298828,0.0284993667155504,-0.1366473756730556,60.37983169555664,-78.58588409423828,-132.4196029663086,37.138893699646,33.08456592559814,4.112371230125428,-0.8218595385551453,0.2106419324874877,-0.0395587287843226,76.14695892333984,71.13052215576172,-38.4966926574707,62.38398475736797,0.8937400216506386,50.52079203538066,0.8495615797222044,15.767127227783202,149.71640625,93.92291030883788
3274.811,-38.17819690704346,62.53641595840454,-13.217177772521971,0.8326937556266785,0.0390028160065412,-0.1102940678596496,55.78514556884765,-77.63093566894531,-128.49559631347657,51.43914604187012,40.350973510742186,2.363489985466003,-0.8352143287658691,0.2123121142387389,-0.0430573411285876,79.70185241699218,71.28494415283203,-35.8444522857666,77.67934640015667,0.8534106951043414,65.84991608330252,0.8630210775598547,23.91670684814453,148.91587982177734,92.65114402770996
3300.97,-43.87850666046143,87.08296661376953,-12.003245735168456,0.8308120489120483,0.0946043115109205,-0.0557272501289844,49.98162841796875,-76.32680816650391,-123.43374481201172,63.77761459350586,45.11476440429688,-1.1534541368484494,-0.8370929837226868,0.2199429988861083,-0.0614506348967551,83.81144561767579,71.47651062011718,-32.87107467651367,98.7958509841702,0.842915333483498,78.8858700041408,0.8681463893509223,33.82981719970703,147.8033187866211,90.56267013549804
3319.807,-54.18270492553711,107.9893585205078,-8.418054056167602,0.7925597071647644,0.1214310221374034,-0.005341463536024,43.58136367797852,-74.67676849365235,-117.93897399902345,73.09172134399414,48.11210861206055,-7.083826947212218,-0.85390784740448,0.2235606849193572,-0.072507457435131,88.34671325683594,71.72637634277343,-29.65020637512207,121.525929556665,0.803301664556774,88.60191751573609,0.8861914853740969,44.76534957885743,146.40314483642578,88.28876762390136
3343.147,-61.507605743408206,125.9665756225586,-4.239989423751831,0.7641349315643311,0.1299298278987407,0.0287854313850402,37.17886352539063,-72.66810455322266,-112.55103912353516,82.9840919494629,46.56418991088867,-12.10998980998993,-0.8730917334556579,0.2481004357337951,-0.0918610721826552,93.06414184570312,71.98767547607422,-26.44873275756836,140.48631971852322,0.7804530373612415,96.789637921055,0.9137114412437808,55.8852783203125,144.65578002929686,86.1023063659668
3363.17,-65.20510864257812,143.16626892089843,0.5983322620391842,0.7501189947128296,0.1392667800188064,0.0640647083520889,31.154176712036133,-70.27902679443359,-107.57652435302734,91.38482360839843,37.901370429992674,-15.32032413482666,-0.8941599726676941,0.2682558000087737,-0.1000651016831397,97.4770263671875,72.25597381591797,-23.74410209655762,157.55807217135455,0.76930206603846,101.5887036159136,0.9404045972099496,66.32284965515137,142.53500061035157,83.83242225646973
3373.164,-67.8974998474121,159.53964080810547,5.859071207046509,0.7327632784843445,0.1371712699532508,0.1041081763803958,25.65531196594238,-67.50853042602539,-103.14465637207032,98.32998657226564,26.70834083557129,-19.49020347595215,-0.9169334769248962,0.2547283738851547,-0.1137366831302642,101.4551239013672,72.60546569824218,-21.64447479248047,173.89098763225175,0.7566052866023091,106.5042120918157,0.9609478744716992,75.7998119354248,140.11399612426757,81.50018157958985
3395.107,-70.4860610961914,173.99054870605468,12.161818361282348,0.7132303476333618,0.1359109506011009,0.1404265895485877,20.672539520263676,-64.39345092773438,-99.24396362304688,103.18742370605467,17.417160034179688,-25.305036544799805,-0.952550446987152,0.2397357285022735,-0.1206383943557738,105.13385620117188,73.07362670898438,-19.962957763671877,188.49277565657,0.7429288698543604,110.66035499102384,0.9935361746436386,84.4613166809082,137.46707763671876,79.281005859375
3417.281,-74.1198974609375,188.09103393554688,17.457504177093504,0.6961850762367249,0.1337982878088951,0.2018199384212494,16.234064483642577,-60.93543395996094,-95.92950439453124,109.77057495117188,4.392238807678224,-27.768917083740234,-0.9773595213890076,0.2320479571819305,-0.1145430490374564,108.24990997314453,73.62393035888672,-19.00839500427246,203.23486372968944,0.7425345220622231,115.20055805882552,1.0155498573466513,92.01584548950196,134.55936431884766,76.92110939025879
3458.165,-73.37575988769531,200.53656311035155,25.295335388183595,0.6930373907089233,0.1045205324888229,0.2232380598783493,12.26154308319092,-57.17533721923828,-93.02669525146484,110.6542022705078,-9.151017189025875,-26.77099952697754,-0.9854939222335816,0.2362640857696532,-0.0846767475362866,110.4799026489258,74.22552642822265,-18.99194183349609,215.28823471480365,0.7402191293404555,115.20538947523136,1.0224191552705677,98.21835956573486,131.40086364746094,74.03475341796874
3460.386,-74.20500335693359,211.0094757080078,32.49444313049317,0.6537505507469177,0.0783665832132101,0.2782020330429077,8.716879749298096,-53.15515289306641,-90.53677520751953,106.09030303955078,-18.070600509643555,-27.12716598510742,-1.0075119256973266,0.2271328628063201,-0.0697875683661549,112.01659545898436,74.89998779296874,-19.59779624938965,226.29454041053967,0.723292368083973,112.04669748858136,1.0399322745304116,103.29971570968628,128.05514068603514,70.93897895812988
3477.3,-75.82715454101563,219.2113586425781,39.57140617370605,0.5987015545368195,0.0630855455994606,0.3655360728502274,5.525998660922051,-48.90547561645508,-88.40593872070312,98.5093521118164,-18.617907524108887,-24.311508178710938,-1.0241336584091187,0.2492635786533355,-0.0444629398640245,113.23742980957032,75.5163330078125,-20.367665481567386,235.5771120875372,0.7280126863514754,104.18523904654036,1.0595082434113432,107.71143114864826,124.42180862426758,68.03827323913575
3499.85,-75.13275909423828,227.31082458496093,46.04323883056641,0.5485839664936065,0.0379241954535246,0.4415497779846191,2.674480029940605,-44.43606796264648,-86.5781463623047,87.69600067138671,-14.295812034606934,-22.605716705322266,-0.9653360247612,0.32454594373703,-0.0260127482470124,114.56363830566406,76.045703125,-20.80520172119141,244.0674500164351,0.7299902174217657,94.05447064879336,1.0309338686949407,111.88915827572346,120.48177108764648,65.77294464111328
3523.987,-72.21928100585937,233.48096313476563,51.7743034362793,0.4852313399314879,0.0058589953929186,0.5203664720058441,0.1415498465299606,-39.77475814819336,-84.9977294921875,75.47871170043945,-4.1644233703613285,-23.28392791748047,-0.904060399532318,0.390389347076416,-0.0369528693612664,116.5240982055664,76.47352294921875,-20.3393180847168,249.88134872172492,0.7411288105554306,84.55291927918691,1.0005228961705896,116.38254835903643,116.2482810974121,64.65841140747071
3532.126,-67.25337066650391,238.65579833984376,54.65883865356445,0.3930052340030669,-0.0338364150375126,0.5964198470115661,-2.027670791745186,-34.96430778503418,-83.68803558349609,58.37795219421387,8.572568130493163,-28.149184799194337,-0.909208333492279,0.3999641835689544,-0.0277434282004833,119.4004684448242,76.85020904541015,-18.580970001220702,254.14082095027717,0.7317434090704108,73.95076695773116,1.0089958370396392,121.4281392365694,111.81451683044432,65.1070655822754
3554.586,-60.16126327514648,242.7613494873047,55.08440246582031,0.3313310474157332,-0.0363636150956153,0.6537779092788696,-3.810610607266426,-30.02903594970703,-82.65742645263671,42.55689764022827,24.17541389465332,-30.170534896850587,-0.9462421536445618,0.3824219465255737,-0.0162251479923725,123.28032531738282,77.08041076660156,-15.465331840515136,256.5062707524756,0.7411203462861862,66.49459985181583,1.041687992510662,127.09093592464924,107.1094467163086,67.19209461212158
3577.005,-59.81778793334961,244.4894927978516,53.22463912963868,0.2751143217086791,-0.0409553060308097,0.7541637659072876,-5.396306324005127,-25.04501342773437,-81.88065948486329,32.71753187179566,34.38986701965332,-32.176567459106444,-0.9488681197166444,0.3749640315771103,-0.0558214351534843,127.86459045410156,77.19295806884766,-11.425267934799194,257.6820485612729,0.8170828202982936,61.74980196350758,1.0455157517402536,133.26089677810668,102.23797149658203,70.45539155006409
3599.604,-58.59438400268554,244.4512451171875,53.44508056640625,0.2007549889385699,-0.1078502869233488,0.785110592842102,-6.817574214935303,-20.046826362609863,-81.27466278076172,28.59254560470581,34.78367195129395,-27.097920608520507,-0.9789323449134828,0.2986438244581222,-0.02426737844944,132.17088317871094,77.18386383056641,-7.585938787460327,257.3755087699461,0.8371243383449334,56.63005331428085,1.0444576063452906,138.98845739364623,97.23069019317629,73.6887239933014
3623.252,-48.16405105590821,244.13648071289063,54.905704498291016,0.1376619733870028,-0.1344179226085543,0.7932244300842285,-7.9426493644714355,-15.043952751159669,-80.77806243896484,21.04805555343628,42.95213279724121,-21.858275413513184,-1.0692047476768494,0.2610082000494003,-0.0266439527273178,136.33958435058594,76.90511322021484,-3.727094841003418,255.6035242200852,0.8323878731313513,56.826796893388426,1.1105716654042257,144.28223371505737,91.94906597137452,77.05096759796143
3633.206,-44.907670211792,243.87532653808597,53.85357437133789,0.0595856823027133,-0.1218955500051378,0.8715156316757202,-8.927252006530761,-10.044784396886826,-80.4120101928711,17.997547245025636,51.99281349182129,-16.411613845825194,-1.1265952229499816,0.2934378176927566,-0.0666473969817161,140.37418212890626,76.33646392822266,0.0648797988891601,254.61445442198607,0.9031424058264744,61.55200408146745,1.1775477304058068,149.301434135437,86.38124832510948,80.47688999176026
3656.804,-42.15798721313477,242.2289581298828,55.364505767822266,-0.0529864244163037,-0.1473818009719252,0.948980736732483,-9.821529960632324,-5.0739520490169525,-80.10179138183594,9.919785118103029,44.40862827301025,-11.64696559906006,-1.061017632484436,0.3074483066797256,-0.0981192797422408,143.45836791992187,75.77941131591797,3.0468053817749023,252.9862700279196,0.9834585206596768,58.77575645876196,1.117831404863218,153.2798978805542,80.85336336493492,83.14859676361084
3679.35,-31.649922561645518,239.6551818847656,59.47878189086914,-0.1820932291448116,-0.1716988921165466,0.9597217082977296,-10.48215675354004,-0.1405761182308193,-79.76974334716797,-5.727613639831544,43.81891193389893,-12.02407855987549,-0.9911660432815552,0.2319491446018218,-0.0947980552911758,146.03673400878907,75.20111846923828,5.836924505233765,249.55857669617188,1.0141294673452506,62.911147569145626,1.0466219317230825,156.5188907623291,75.3416945874691,85.60666785240173
3699.524,-16.90448551177979,235.08004455566407,60.26124954223633,-0.3161678224802018,-0.1581504344940185,0.9644495248794556,-10.81299934387207,4.708799415826798,-79.44658660888672,-15.73807601928711,46.95344066619873,-14.102930641174316,-1.0342575192451475,0.2285899937152862,-0.1937090322375297,148.56212768554687,74.5653060913086,8.783557844161987,243.75775988777127,1.0576377868556557,62.811844504140346,1.1016231765334143,159.37512702941893,69.8565066754818,88.23014445304871
3723.401,-13.350633430480965,227.3746551513672,59.80762634277344,-0.4623312115669251,-0.1308912679553031,1.0413230180740356,-11.02819309234619,9.39903035759926,-79.1247573852539,-22.34346389770508,31.98835163116455,-14.337603569030762,-1.006256639957428,0.1872776389122009,-0.2296972200274467,150.2482421875,74.1561065673828,10.999239349365237,236.08299461348915,1.1690667610425218,49.563585623662114,1.0738995711234565,161.2764352798462,64.75707620978355,90.12399673461914
3733.233,-8.931588172912603,215.0355255126953,62.44759368896485,-0.6221759855747224,-0.1341549739241599,1.0532066822052002,-11.10989589691162,13.85752534866333,-78.71114807128906,-25.81644229888916,13.713310050964358,-16.636591339111327,-0.9261225819587708,0.1091466397047042,-0.2850274130702018,151.26388244628907,74.06731567382812,12.593082618713378,224.5503257577696,1.25158982177987,39.32897767502778,0.9910704787520532,162.37377834320068,60.2097903251648,91.30423069000246
3763.196,-9.42073764801026,201.96279602050785,62.783878326416016,-0.73227596282959,-0.1407938465476035,1.0366074800491334,-11.159920501708983,18.061062812805176,-78.23563385009766,-21.22622947692871,10.24580879211426,-21.17533893585205,-0.941543471813202,0.049108749628067,-0.3213510394096374,152.56170654296875,74.07647399902343,14.384093093872073,212.23234648205897,1.2915953787051,38.38334984872621,1.0064080617559352,163.72162704467777,56.01541118621826,92.61972694396974
3783.314,-6.198460626602179,189.02019958496092,63.298764038085935,-0.7955264687538148,-0.1559474542737006,1.02940514087677,-11.084408569335938,22.020688819885255,-77.67919464111328,-8.213759613037109,7.298974227905276,-21.18506603240967,-0.9913496613502504,0.0538067713379859,-0.3558595776557922,154.0019958496094,74.12176971435547,16.052231216430663,199.9959688947209,1.3181238112246738,30.87094705434014,1.062494468733976,165.0864044189453,52.101080894470215,93.73142585754394
3793.371,-2.0613907337188784,175.11747131347656,66.18552627563477,-0.8521159529685974,-0.1421779885888099,1.0838815689086914,-10.824687004089355,25.72217254638672,-76.97769165039062,0.3433927536010742,3.25991020202637,-19.61749267578125,-0.9724530577659608,0.0338613227009772,-0.3516805827617645,155.40655517578125,74.2141342163086,17.501494026184083,188.6398235390073,1.3921141676572388,29.39213418207468,1.04204897137352,166.2312421798706,48.49196166992188,94.4791856765747
3814.683,0.7126920223236013,159.28852386474608,66.9819839477539,-0.8967119574546814,-0.1570939123630523,1.0269556760787963,-10.41217098236084,29.11524887084961,-76.14412689208984,8.449641227722168,5.399250221252444,-19.386213302612305,-0.9591011643409728,0.0362168684601783,-0.3493938505649566,156.9958465576172,74.2558609008789,18.97583103179932,174.35877375885642,1.3755008729158118,33.47379817167101,1.029008346264952,167.40801753997803,45.140612030029295,95.11995792388916
3833.088,1.1448263645172048,146.05325775146486,66.22291793823243,-0.8643494486808777,-0.1435355875641107,1.008437156677246,-9.892817115783693,32.244650268554686,-75.22300567626954,16.25465488433838,14.150257682800296,-17.021167755126953,-0.9835017085075378,0.0529205188155174,-0.3371131002902984,158.7933776855469,74.10593872070312,20.50668754577637,161.8961214699626,1.3398774783763254,36.27672930213163,1.0497611581844462,168.68619480133057,41.86128845214844,95.7296932220459
3854.705,6.019801378250117,134.02068634033202,64.87409210205078,-0.8544868111610413,-0.1527097705751657,1.0080048322677613,-9.21418752670288,35.12647743225098,-74.22675323486328,22.76128196716309,21.37537174224854,-14.9015308380127,-0.9922274351119996,0.0751433685421943,-0.334555447101593,160.73798522949218,73.79253540039062,22.05781936645508,149.77381398816573,1.334764027119729,36.41492500379572,1.057840249316825,169.95217275619507,38.66605796813965,96.28457260131836
3875.602,12.91047105789184,121.89762420654296,62.205511474609374,-0.862509834766388,-0.1629075620323419,1.0073099613189698,-8.340015697479249,37.73330230712891,-73.1895736694336,25.53312759399414,24.504343605041505,-12.6773307800293,-1.0038519620895383,0.0944965947419404,-0.3121556073427199,162.60539855957032,73.39619598388671,23.47125282287598,138.5288390023882,1.340529415776325,38.88304630819101,1.0615670073532428,170.94541425704955,35.66289367675781,96.66082649230955
3892.048,14.309384250640864,109.07918395996094,56.37656707763672,-0.8445822238922119,-0.170769128575921,1.0148947715759278,-7.41842622756958,40.04726409912109,-72.172607421875,23.87367477416992,28.45154590606689,-11.676190900802617,-1.0029099345207215,0.1043505806475877,-0.2857437044382095,164.3338195800781,72.9193832397461,24.78015060424805,125.36073054739306,1.3361835757858072,40.26482726193841,1.053266759195028,171.7522458076477,32.872119140625,96.95275802612304
3914.392,13.911950778961176,96.2650993347168,51.8130500793457,-0.8278646349906922,-0.1813323024660348,1.053921675682068,-6.481976127624511,42.06887741088868,-71.17241516113282,19.69568901062012,33.33006286621094,-11.397836065292362,-1.0034677505493164,0.0916480589658021,-0.3003656059503555,165.98538513183593,72.33735504150391,26.098119735717773,112.0648079337843,1.3551227455883066,41.13180789280203,1.0573229060348597,172.46736125946046,30.268477630615237,97.2705348968506
3936.732,14.969381475448603,81.25160369873046,45.661682510375975,-0.8423060178756714,-0.2244733244180679,1.0968441724777225,-5.551707649230957,43.76135025024414,-70.24175262451172,16.658469009399415,33.1578857421875,-12.454149770736697,-1.0038780689239502,0.0606252375990152,-0.3039745658636092,167.54720153808594,71.74719696044922,27.38978881835937,95.9948049864752,1.4018790284173055,40.01504724227681,1.053730266902408,173.0989091873169,27.98584671020508,97.6315414428711
3959.293,18.290731573104853,61.06981964111328,39.65921325683594,-0.8617247223854065,-0.2250214844942092,1.1642414808273316,-4.5678174018859865,45.02998657226563,-69.36099700927734,14.452306461334228,36.2258415222168,-12.241900777816772,-0.9969332456588744,0.0543623868376016,-0.312951585650444,168.99561157226563,71.08466033935547,28.613726806640624,76.4790419065451,1.4665873460265613,41.779071462387066,1.049371927227451,173.5634289741516,26.054673767089845,97.97472381591795
3980.617,13.963422155380243,36.77526321411133,31.08351058959961,-0.8779340386390686,-0.2171117573976516,1.216153573989868,-3.7515471935272218,45.80063247680664,-68.62040863037109,9.091339921951294,39.58191909790039,-12.359533452987671,-0.9740927815437316,0.0712604992091655,-0.3516210973262786,170.247021484375,70.33041534423828,29.750687408447263,56.77589795391096,1.5165218361771262,43.804678257499454,1.0401771557444683,173.99856867790223,24.52978286743164,98.37109603881837
4001.867,7.5465445995330755,8.966006469726564,21.621979856491087,-0.8939586758613587,-0.2049504905939101,1.267602729797363,-3.1886271476745605,46.00022048950196,-68.07334442138672,6.5796013355255125,40.78308792114258,-14.02940616607666,-0.9756324052810668,0.0699696086347102,-0.3946779489517212,171.47817993164062,69.54476623535156,30.92323226928711,47.74401608764197,1.5653351232019483,44.32182679236999,1.0558425349627718,174.6668070793152,23.544545745849607,98.99657669067383
4011.933,4.812004899978633,-21.1299690246582,10.13774561882019,-0.8927640318870544,-0.2068001329898833,1.3357694387435912,-2.8648718357086183,45.5914779663086,-67.78787994384766,8.757302904129029,40.59663009643555,-12.986448001861572,-0.9831967949867249,0.0610963761806487,-0.3959220945835113,172.6294403076172,68.76386871337891,31.96711387634277,50.47291811054572,1.6213209834223938,44.824177920688015,1.0629173491918391,175.4943121433258,23.17239074707031,99.75499382019044
4034.671,6.595326232910151,-54.23134307861328,-0.0110088825225815,-0.8901524066925048,-0.1885841190814971,1.3850613594055177,-2.6711076736450194,44.50948791503906,-67.71395263671874,11.544520235061643,40.04328079223633,-7.930675506591799,-0.9857952952384949,0.0721863254904746,-0.3948797285556793,173.5016876220703,67.9851806640625,32.6583927154541,65.15242597464267,1.6585666754385202,44.87096988113858,1.0663206985642713,176.17279529571533,23.475692749023438,100.37234535217286
4056.82,5.652901268005365,-88.09504852294921,-10.65569920539856,-0.8670865297317505,-0.1679979383945464,1.4048894882202148,-2.6633631229400634,42.73740234375,-67.88237152099609,14.29109148979187,35.41392440795899,-2.419910812377931,-0.9897716641426086,0.0975424662232398,-0.3932422995567322,174.0533935546875,67.29089050292968,32.94824905395508,90.51389377950017,1.6607294610968926,41.72186870009632,1.072163944795245,176.71675667762756,24.55348815917969,100.83062057495115
4076.976,5.096190452575678,-121.12894973754882,-20.03846592903137,-0.834172248840332,-0.1478917613625526,1.3962589979171751,-2.7947622299194337,40.28296737670898,-68.23892211914062,15.39506208896637,24.461496162414555,1.906710052490233,-1.0195682764053344,0.1203304268419742,-0.3746517121791839,174.30699157714844,66.82183685302735,32.88513374328613,123.1551535172385,1.6341296250396482,32.481975703963535,1.0957830252000147,177.1017538070679,26.53886947631836,101.12405586242676
4100.339,5.690447807312006,-150.8594772338867,-27.998089218139647,-0.8050072312355041,-0.1334637761116027,1.409669613838196,-2.9967674732208254,37.2191104888916,-68.7369613647461,11.940977501869202,12.655684089660648,5.146569633483885,-1.0332897663116456,0.1310813315212726,-0.3457888662815093,174.2484924316406,66.59978637695312,32.55121078491211,153.60970345827027,1.6290056876447572,27.94718441294909,1.099353854705909,177.24525990486146,29.380675888061525,101.2881721496582
4121.746,10.294785213470451,-178.52306060791017,-33.211787414550784,-0.7891072750091553,-0.1217719972133635,1.4034892082214356,-3.125051498413086,33.597058868408205,-69.30035400390625,1.9146084070205696,-2.5103429794311496,6.249379777908324,-1.0574370622634888,0.1559031277894973,-0.3237669169902801,173.8441955566406,66.67910766601562,32.04800605773926,181.9235064691105,1.6149879802675504,29.20138499600128,1.1178527045649262,176.9692470550537,33.08204879760742,101.34836006164552
4131.662,12.502285194396968,-203.78170166015624,-36.78922653198242,-0.7596420645713807,-0.0965776234865187,1.36171715259552,-3.1949872016906737,29.47762565612793,-69.9016326904297,-12.204207968711852,-20.19088039398193,4.776449251174926,-1.0750568866729735,0.1730369061231613,-0.2980996966361999,173.15140075683593,67.1089111328125,31.52219886779785,207.5198056703477,1.5627432138743242,36.2439317309275,1.1303102903593822,176.3463879585266,37.63128547668457,101.42383155822752
4159.755999999999,13.072776794433588,-225.90695190429688,-39.44658126831055,-0.7178812980651856,-0.07943252697587,1.3297977209091187,-3.214662456512451,24.92717685699463,-70.50985870361328,-29.37262189388275,-39.4542402267456,3.0017405986785874,-1.0952755212783811,0.1920758426189422,-0.2816516369581222,172.07251892089843,67.91258697509765,30.93904914855957,229.7715066321624,1.514248017002864,51.24905763438941,1.1490388110033296,175.2871813774109,42.98541011810303,101.44890785217284
4179.284,13.697721290588373,-245.30206298828125,-40.476324462890624,-0.6709558844566346,-0.0670597985386847,1.28318190574646,-3.164108467102051,20.00170974731445,-71.0946533203125,-45.89356174468994,-56.9998893737793,2.17673201560974,-1.0974937677383425,0.2065824508666991,-0.2574415951967239,170.49960021972657,69.04922943115234,30.18045654296875,249.0692416814869,1.4504955593495443,73.45982691976845,1.1481263959517851,173.6637086868286,49.04751968383789,101.27510986328124
4200.508,16.438824844360347,-262.3352996826172,-41.84934921264649,-0.5957261919975282,-0.049988305568695,1.2426685571670533,-3.0005868911743163,14.752049350738526,-71.67762756347656,-60.00478744506836,-72.25827560424804,4.596294927597045,-1.115300703048706,0.2409435242414474,-0.2350273430347442,168.17424621582032,70.44927978515625,28.932964706420897,266.21949799936425,1.3824739035966829,94.23190439034543,1.1662874227563829,171.17483310699464,55.697230434417726,100.61059226989748
4221.999000000001,19.11944770812988,-275.93580322265626,-42.326046752929685,-0.5056872069835664,-0.0435381263494491,1.1884698152542117,-2.727787327766418,9.232190370559692,-72.26291046142578,-72.82976303100585,-81.98025665283203,7.383045959472655,-1.1289728879928589,0.2601522624492645,-0.2055916160345077,164.991796875,72.00018920898438,27.062575149536134,279.9282289128449,1.2982756144218452,110.24667274298596,1.1777860631271282,167.7195842027664,62.76799883842468,99.32548561096192
4231.81,23.573320007324213,-285.45537719726565,-42.747982788085935,-0.4127291113138199,-0.0465917006134986,1.130619013309479,-2.317214274406433,3.514015245437622,-72.87483825683594,-84.02263031005859,-86.95648345947265,13.879184246063232,-1.1280035972595217,0.2423587054014205,-0.1818683624267577,160.57025756835938,73.56744079589843,24.150978088378903,289.81686224322414,1.2089079278614003,122.37169704083352,1.1696657887860498,162.88747184276582,70.05342555046082,97.02581634521484
4254.128,29.219505119323724,-292.290380859375,-40.769738006591794,-0.3230796158313752,-0.0170312754809855,1.055908167362213,-1.7336863428354263,-2.345616865158081,-73.4896255493164,-87.12763671875,-89.38615417480469,21.31002616882324,-1.1369042158126832,0.2102122366428375,-0.1777736991643905,154.79542846679686,75.03468017578125,19.92904663085937,296.7738791359657,1.1109383099555683,127.43777680747364,1.17233158647917,156.5291148096323,77.38029704093933,93.41867218017578
4271.628,30.18243141174316,-295.70526733398435,-39.22383880615234,-0.2287807777523994,-0.0046439107507466,0.9854177117347718,-1.064430221915245,-8.265976858139037,-74.13945159912109,-80.54388961791992,-87.07257537841797,31.41491413116455,-1.098834788799286,0.1813628569245338,-0.1773407250642776,147.75126037597656,76.22118682861328,14.280615763366225,300.0001797795913,1.0162017935909975,124.67854968291364,1.1306790713040389,148.8156905978918,84.48716368675233,88.4200673624873
4294.152999999999,34.11885833740234,-295.5091491699219,-36.44542388916015,-0.1471615254878998,-0.003433322533965,0.8853448629379272,-0.2418303102254867,-14.181786584854128,-74.82139282226562,-68.45240211486816,-82.95065612792969,43.97204418182373,-1.044051504135132,0.1474708721041679,-0.1715765565633773,139.5959228515625,76.97510986328125,7.252862505614756,299.86616712670474,0.9038470892599568,121.76621572034102,1.0702119037231608,139.837753161788,91.15689644813536,82.07425532788037
4317.3820000000005,39.8116111755371,-293.4827026367187,-32.77464332580566,-0.0804381549358368,0.030642980709672,0.7904485940933228,0.7738706260919571,-20.046656227111814,-75.54291076660157,-55.14914817810059,-81.0180679321289,57.41733779907226,-0.9879929304122924,0.1520017191767692,-0.1729210346937179,130.52337493896485,77.24677429199218,-0.9685223057866088,298.3922399891123,0.8028703474282087,119.3497702165348,1.0174159017568538,129.7495043128729,97.293430519104,74.57438846081496
4331.905,42.15155944824218,-288.6499389648437,-27.989291381835937,-0.0136586785316467,0.0632540304213762,0.7339244604110717,1.9198103576898573,-25.80428409576416,-76.30354919433594,-44.80355644226074,-81.9696258544922,62.65517959594727,-0.9940482139587402,0.158968399465084,-0.1796211898326873,121.07984161376952,77.14801177978515,-9.788805814087391,293.55394364241994,0.7430422527625701,115.67861484365044,1.0253032779510465,119.16003125607968,102.95229587554932,66.51474338024855
4354.023,43.47594375610351,-280.64763793945315,-23.224604606628414,0.0375287026166915,0.0571614991873502,0.6720405459403992,3.180745726823807,-31.39253845214844,-77.1170654296875,-42.62070274353027,-78.4425552368164,65.09921417236328,-0.9112608790397644,0.1666303321719169,-0.1710791945457458,111.8932647705078,76.67548828125,-18.398949094116688,285.5024102281178,0.6807226950742994,112.8130545597876,0.9443086672090456,108.712519043684,108.06802673339844,58.71811633557081
4376.686000000001,50.40566864013671,-269.30112609863284,-15.847918701171874,0.0879970893263816,0.0679372765123844,0.6146741151809693,4.639102101325989,-36.74898796081543,-77.9311294555664,-48.01166114807129,-74.2695083618164,62.13440475463867,-0.9083016157150268,0.1650340169668197,-0.1599309086799621,103.4406951904297,75.98772430419922,-26.14253635406494,274.75530259316224,0.6302626648690111,111.95279646864472,0.9390878938691016,98.8015930891037,112.73671226501465,51.78859310150146
4399.4980000000005,52.03733673095703,-256.2840118408203,-7.660074424743652,0.1297524720430373,0.0824172176420688,0.5625983238220215,6.180655288696289,-41.84299240112305,-78.73492279052735,-59.27717361450196,-63.47587280273437,51.203992462158205,-0.9102609038352968,0.1545234858989715,-0.1816474646329879,96.4035186767578,75.2836898803711,-32.19539222717285,261.91632894596574,0.590279251823271,106.31635689050964,0.9452381302763544,90.22286338806153,117.12668228149414,46.5395305633545
4420.974,48.08086700439453,-240.8693145751953,-0.2548484802246094,0.1746537595987319,0.0704974420368671,0.5005958318710327,7.699820232391358,-46.62637634277344,-79.54023742675781,-68.58612365722657,-43.27890357971192,37.27417068481445,-0.8962889075279236,0.128675615787506,-0.1858341068029403,91.36590881347657,74.70887298583985,-35.99835014343262,245.90132545667063,0.5449938449104406,98.45353751701646,0.9267359016216978,83.6660885810852,121.33524932861329,43.5418872833252
4431.361,44.996020507812496,-224.04845886230464,5.924145317077636,0.2331828713417052,0.0675446324050426,0.445233017206192,9.215948486328124,-51.07562255859375,-80.34462890625,-75.86304473876953,-16.706149673461912,28.705282783508306,-0.8518049478530884,0.1244642704725265,-0.199757233262062,88.45272369384766,74.20421600341797,-37.44117813110351,228.82091681089497,0.5187227660821618,94.55892071768574,0.8857592399594975,79.23677520751953,125.27983856201172,42.90345077514648
4453.968,42.63274688720703,-206.5929138183593,10.722309875488282,0.2931895434856414,0.0606618124991655,0.3756807178258896,10.74668836593628,-55.1773681640625,-81.17061004638671,-78.97396240234374,14.12218284606934,18.2263352394104,-0.8400850653648376,0.1435624748468398,-0.2187243133783339,87.80015258789062,73.8709716796875,-36.46692962646485,211.3035485089913,0.4944540796516536,95.24537471447194,0.8852659254035522,77.05346422195434,129.04833984375,44.703680419921874
4477.97,40.34875411987304,-189.84095153808596,12.562587547302249,0.3612874805927276,0.0584424402564763,0.3107933282852173,12.367257881164551,-58.94873733520508,-82.11382293701172,-84.47628021240234,45.422050094604494,6.859473133087159,-0.7930180788040161,0.1612992763519287,-0.2021263867616652,89.26152648925782,73.73319091796876,-33.17950820922852,194.5549407543542,0.5003955027178341,103.6602271814977,0.8404557577700871,76.89426860809326,132.68192825317382,48.9343147277832
4499.13,37.70087738037109,-173.4383087158203,12.242605400085449,0.4405177354812621,0.0626043524593114,0.2660175889730453,14.164566040039062,-62.38266220092773,-83.284423828125,-90.92398376464844,71.78842277526856,1.0917903900146484,-0.775909674167633,0.1707687839865684,-0.1755310982465743,92.38178253173828,73.64735412597656,-28.02892818450928,177.9870227738372,0.5349882298162562,118.38588713932424,0.8185199896140929,78.21721649169922,136.0300163269043,55.25549564361573
4519.2880000000005,34.08949432373046,-156.90040435791016,10.415286684036255,0.5225193798542022,0.0413868967443704,0.2051468543708324,16.167619132995604,-65.47072143554688,-84.73511505126953,-94.30018463134766,84.0329803466797,-3.499250602722168,-0.790133786201477,0.1725480988621711,-0.1670832365751265,96.2483657836914,73.57136840820313,-22.028481483459476,160.9938009581031,0.5845045115182245,127.5619254212746,0.8314244835242596,80.0807466506958,139.04208984375,62.70663356781006
4541.527,32.54609146118163,-140.2533386230469,8.632510995864868,0.6111945509910582,0.0115182776004075,0.1120329268276691,18.40884380340576,-68.20944900512696,-86.46298370361328,-90.9279296875,85.58423919677735,-7.88486614227295,-0.7814374566078186,0.1697289213538169,-0.1447881162166594,100.29752502441406,73.52187652587891,-15.909610939025878,144.32980779048927,0.6380307420272643,125.36612599751145,0.8181606853473042,81.8886812210083,141.7313255310059,70.55337276458741
4551.460999999999,29.77043075561523,-121.92701110839845,7.057045030593872,0.7172992229461669,-0.0015319108963012,0.045812190324068,20.7965877532959,-70.57080841064453,-88.38450927734375,-82.84587326049805,75.2638916015625,-7.749586749076843,-0.8239397287368775,0.154790662229061,-0.1169482797384261,103.82027435302734,73.43751220703125,-10.51107678413391,125.76429391067124,0.732605756685669,112.61163959475589,0.8475008745373327,83.02368659973145,144.0083206176758,77.87343249320983
4578.887,23.26873865127563,-101.0025993347168,5.347727346420288,0.8070708990097046,-0.0217585735023021,-0.004741471260786,23.110701751708984,-72.50004119873047,-90.34752044677734,-65.74631042480469,59.78201599121094,-3.3522491216659547,-0.8922091245651245,0.1642462834715842,-0.1379282295703887,106.58560485839844,73.26165618896485,-6.25969512462616,103.880843215309,0.8183666266453642,89.55537607141729,0.9181850265769748,83.47490310668945,145.7616973876953,84.08782532215119
4599.118,13.82649011611938,-76.43674430847167,3.7586327314376833,0.8845878362655639,-0.0455053120851516,-0.0706108294427394,25.047869873046874,-73.94168243408203,-92.09294128417967,-41.53884658813477,40.20056629180908,-1.474160265922546,-0.9283078193664552,0.1899304747581481,-0.1376830488443373,108.47803497314452,73.09926910400391,-3.4246417760849,78.85791728449723,0.8900308330037923,62.487579416376455,0.9580987398387132,83.43016510009765,147.04095153808595,88.66829950809479
4621.491,4.747052097320552,-48.143925476074216,1.9243176698684687,0.955226993560791,-0.049225953966379,-0.1027685269713401,26.34612464904785,-74.83762969970704,-93.34832458496092,-16.7391845703125,26.573077583312987,1.0610553503036502,-0.9200909972190856,0.2108163446187972,-0.1473094999790191,109.91580200195312,72.93292388916015,-1.582209539413452,58.75888323674396,0.962210526007808,45.37504125117815,0.9561055403564284,83.56967735290527,147.7705535888672,91.76611504554748
4642.883000000001,-7.283956050872808,-16.712732696533205,-1.5505652189254762,0.9830177068710328,-0.0499226361513137,-0.1101833328604697,26.795416259765624,-75.12679290771484,-93.96640167236328,8.953549194335938,21.14495143890381,3.687885451316833,-0.9235122561454772,0.2322562932968139,-0.152993094921112,111.41251831054689,72.72432861328124,-0.2122663974761963,49.03097079277588,0.990594708849993,41.09112184358884,0.9652296856802796,84.61710205078126,147.8511215209961,93.75413527488708
4653.643,-20.263955593109134,14.911846160888672,-6.352726435661316,0.9801878809928894,-0.0360654480755328,-0.0947003871202468,26.38297462463379,-74.79947204589844,-93.95659637451172,34.58179244995117,20.210806846618656,5.292072439193726,-0.9236852526664734,0.2559711426496505,-0.1543404102325439,113.25043029785157,72.46815643310546,0.9828441619873048,50.97105340635537,0.9867956025697544,47.55613832101589,0.9713096328592616,86.86745567321778,147.26762847900392,94.93944053649902
4671.714,-31.27330703735352,44.455422973632814,-10.47536904811859,0.9691766858100892,-0.0115085430443286,-0.0675486132502555,25.197808837890623,-73.89853210449219,-93.36983947753906,56.913682556152345,16.56492385864258,5.472711420059204,-0.912993848323822,0.2732620239257812,-0.1451378226280212,115.23944854736328,72.22543182373047,1.8730095148086547,62.37248486663911,0.9754018212407104,60.80267768495053,0.9645085686156352,90.04163970947266,146.12396392822265,95.24284899234772
4693.728,-38.99549636840821,70.67192268371582,-13.86383695602417,0.9372737169265748,0.0086055271327495,-0.0273089438676833,23.46470489501953,-72.48600921630859,-92.36858215332032,74.4558204650879,11.422088432312014,5.950359106063843,-0.8974802732467652,0.2882683455944061,-0.1432243734598159,117.22881317138672,72.01132202148438,2.398029446601868,82.49019116831144,0.9429685987746071,77.18035290288448,0.953856401648424,93.76410827636718,144.49733123779296,94.7666115999222
4716.367,-45.98644332885743,92.19350814819336,-16.831895446777345,0.8933525562286377,0.0371615685522556,0.0144600614905357,21.44686393737793,-70.6448745727539,-91.20797882080078,89.21637725830078,3.615908622741702,7.028052139282226,-0.909447455406189,0.2979495763778687,-0.1372534841299056,119.00943450927734,71.85198059082032,2.39636058807373,104.54325014344413,0.8980959642979375,91.78329002756058,0.9670426113415256,97.5625705718994,142.49685516357422,93.60433940887452
4731.332,-54.048431396484375,109.5627685546875,-19.05483169555664,0.8609604358673095,0.0696897312998771,0.0638480901718139,19.317515754699706,-68.45574722290038,-90.0881362915039,99.43491058349608,-9.430280876159667,6.884071922302246,-0.920134663581848,0.2961216390132904,-0.1391642302274703,120.2733169555664,71.82481842041015,1.6366987466812133,123.74790979260663,0.8684210008325939,102.45626547576146,0.9769947808619296,100.9558012008667,140.28056564331055,91.72483503818512
4753.691,-60.872250366210935,124.42991943359377,-18.879999923706052,0.8335095047950745,0.0913600839674472,0.1200288847088813,17.138446044921874,-65.98035507202148,-89.04251251220703,103.74114990234376,-25.909171104431152,5.740333461761475,-0.9370872616767884,0.2897421300411224,-0.1382734656333923,120.7534927368164,71.98719024658203,-0.0372360944747924,139.88882718475585,0.8516506351357458,109.08189825210412,0.9912620054902824,103.61504669189452,137.96754531860353,89.00527641773223
4776.371,-65.37637939453126,135.74608001708984,-17.719810485839844,0.7860517024993896,0.0878769077360629,0.1711020052433013,14.988863372802737,-63.287583923339845,-88.10871276855468,103.5522720336914,-38.98114242553711,3.901058006286621,-0.9366316318511962,0.2919054567813873,-0.1450295001268386,120.5523895263672,72.3053482055664,-2.421742510795593,151.84807447186077,0.816208160956356,112.43518259543484,0.9924972143882104,105.56352615356444,135.59293212890626,85.6869702577591
4798.707,-68.06968231201172,145.23796539306642,-16.035706329345704,0.7638540267944336,0.0899652048945426,0.1946935817599296,12.919964599609376,-60.40535354614258,-87.30325622558594,100.761474609375,-53.164825439453125,3.1930588722229003,-0.938215970993042,0.2771393418312072,-0.1483179926872253,119.46606750488282,72.76570739746094,-5.672897791862487,161.4402670277919,0.7985799480208134,116.04510322167982,0.9901031688229328,106.54610290527344,133.17106094360352,81.63035843372344
4811.151,-70.91773986816406,156.443603515625,-13.816965675354004,0.7369394898414612,0.0715051218867301,0.234498843550682,10.8997239112854,-57.30182113647461,-86.59743957519531,91.97533721923828,-62.04393768310547,4.662141990661621,-0.9201664566993714,0.2306270614266395,-0.1379782825708388,117.55341491699218,73.26641235351562,-9.59875066280365,172.62334928365513,0.7815807293702143,112.777041464705,0.962130698053586,106.6536910057068,130.56823348999023,76.99868891239166
4833.63,-69.12948913574219,165.89138488769532,-9.240937864780426,0.6958278179168701,0.0803224831819534,0.313343459367752,8.967922782897949,-54.01434097290039,-85.92647857666016,91.64346923828126,-60.81578750610352,19.514075088500977,-0.9120662450790404,0.1894967794418334,-0.0922710165381431,115.26268157958984,73.45075378417968,-13.90632963180542,180.3011797947352,0.7806355702348654,116.99166338360746,0.9451652819063364,106.2947587966919,127.46509475708008,72.02014894485474
4856.096,-68.91534729003907,172.65355224609374,-3.95031076669693,0.6417431831359863,0.0456651397049426,0.3979887008666992,7.082361698150635,-50.58156204223633,-85.27794952392578,87.0593475341797,-55.29060020446777,25.474453067779542,-0.925602650642395,0.2029382169246673,-0.1196115359663963,113.02836456298829,73.43699493408204,-18.058042144775392,186.21820178257423,0.783876752601293,111.58253883409692,0.9666838416894384,105.94600286483764,124.01855697631837,67.21990737915038
4878.726000000001,-67.2105812072754,180.6606628417969,-0.19432874917984,0.5826887428760529,0.0123100332915782,0.4121296107769012,5.31378185749054,-46.9794303894043,-84.7128402709961,85.59810943603516,-43.99796047210693,22.180162620544436,-0.8969584226608276,0.2826214253902435,-0.0900079980492591,111.47939910888672,73.38055877685547,-21.462344551086428,193.02697476347043,0.7436941607253422,106.9538401331262,0.9813144252816944,106.16561725139618,120.35998916625977,63.25049571990967
4901.154,-62.32158737182618,191.06188354492187,2.89273408651352,0.5208119988441468,0.0167471162974834,0.4473231971263885,3.7096199989318848,-43.1715560913086,-84.21625213623047,77.46973724365235,-31.536485481262208,17.574079513549805,-0.9055752754211426,0.3237776875495911,-0.0650801315903663,110.59884948730468,73.28384399414062,-23.996948242187504,201.70596476367015,0.7050856565163827,93.76283949332864,1.0014202610732144,106.8892294883728,116.4554000854492,60.219303894042966
4911.233,-61.56504592895508,199.62855224609376,4.429595458507538,0.4658651530742644,0.0586256243288517,0.5208095133304596,2.204304629564285,-39.19072494506836,-83.81865692138672,71.58334732055664,-10.59322299957275,8.935802841186524,-0.9267043113708496,0.3773792490363121,-0.0545476619154214,111.13877563476562,73.17167816162109,-24.92665176391602,209.52564049375232,0.7153857174872502,86.45680359230013,1.0328741877581789,108.93447100520136,112.36240310668946,58.89200515747071
4933.596,-72.86711959838867,205.8040893554688,2.0723506450653075,0.3708311527967452,0.0019211642444134,0.6456678926944732,0.5932333290576934,-35.083580780029294,-83.62139587402343,55.51258087158203,8.634171867370608,-10.488190078735352,-0.9287884593009949,0.4131166130304337,-0.0991774071007966,113.05297088623048,73.25791625976562,-24.08899726867676,219.84211259951925,0.7867936635028899,72.6573682859208,1.0425708057054783,112.45973755717276,108.34149703979492,59.53239860534668
4956.665,-70.85166091918946,211.67431640625,2.242148733139038,0.2828218922019004,-0.0385650530457496,0.6013920664787292,-0.8745160758495331,-30.85886459350586,-83.5750717163086,48.32158889770508,19.644500541687016,-22.104376220703124,-0.8818045854568481,0.4167875260114669,-0.0485711734741925,115.78482055664062,73.46647186279297,-22.244247055053712,224.6662568269316,0.7197709881683461,65.747092766527,0.992984756070572,116.65933663249018,104.32533645629884,61.33082466125488
