Timestamp (ms),Wrist Gyroscope X (deg/s),Wrist Gyroscope Y (deg/s),Wrist Gyroscope Z (deg/s),Wrist Accelerometer X (g),Wrist Accelerometer Y (g),Wrist Accelerometer Z (g),Wrist Roll (deg),Wrist Pitch (deg),Wrist Yaw (deg),Arm Gyroscope X (deg/s),Arm Gyroscope Y (deg/s),Arm Gyroscope Z (deg/s),Arm Accelerometer X (g),Arm Accelerometer Y (g),Arm Accelerometer Z (g),Arm Roll (deg),Arm Pitch (deg),Arm Yaw (deg),Wrist Gyroscope Magnitude (deg/s),Wrist Accelerometer Magnitude (g),Arm Gyroscope Magnitude (deg/s),Arm Accelerometer Magnitude (g),Difference Roll (deg),Difference Pitch (deg),Difference Yaw (deg)
0.0,1.128423,0.205993,1.079528,-0.931152,-0.365604,-0.095426,-104.713455,68.13353,76.912827,0.931481,-0.750532,0.133555,-0.919312,-0.380229,0.086123,-77.545227,66.968323,90.135498,1.5751673834110456,1.004896240114371,1.2036577895772536,0.9985618743543136,27.168228,-1.1652069999999952,13.222671000000004
19.983,1.2847665,0.2751335,1.1350935,-0.927482,-0.364233,-0.099004,-104.720646,68.14265449999999,76.8971635,0.6267265,-0.7709595,0.2142339999999999,-0.919568,-0.3810365,0.0842695,-77.52417,66.969765,90.1551935,1.7363066135008385,1.0013442617946138,1.016396016913929,0.9989471805788832,27.196476,-1.1728894999999966,13.258029999999998
39.967,1.0799813333333332,0.4851816666666667,1.157443,-0.9265166666666668,-0.3642933333333333,-0.0987323333333333,-104.739558,68.15083566666667,76.87370066666666,0.440344,-0.5437993333333333,0.1399316666666666,-0.9197946666666666,-0.3812603333333333,0.0828593333333333,-77.51777666666668,66.97037766666666,90.16098033333331,1.6557280055211026,1.0004453208285131,0.7135835092025942,0.9991232855470508,27.22178133333333,-1.180457999999997,13.287279666666668
59.951,0.8881264999999999,0.5403862500000001,1.161785,-0.92760125,-0.36312625,-0.09792725,-104.76006325,68.159893,76.85130699999999,0.320216,-0.2678542499999999,0.144359,-0.9197025,-0.381121,0.08231175,-77.52227225,66.972376,90.1559945,1.559015832317399,1.0009468011503846,0.4417280914545309,0.9989400028706992,27.237791,-1.1875169999999995,13.3046875
79.935,0.8398695999999999,0.5813159999999999,1.1290602,-0.9281442,-0.362388,-0.0973156,-104.779561,68.16855319999999,76.82979279999999,0.269714,-0.0700078,0.2333745999999999,-0.9203884,-0.3800101999999999,0.0821326,-77.5306932,66.9774004,90.1465882,1.5225262467636478,1.001122891827472,0.3634699957107876,0.9991337863075996,27.2488678,-1.1911528000000005,13.3167954
99.918,0.7617688,0.6602166,1.0869762,-0.9277008,-0.3617104,-0.0978492,-104.8141618,68.1848938,76.79288779999999,0.3362998,0.2652021999999999,0.3100527999999999,-0.9205626,-0.3797638,0.0816696,-77.5369768,66.98637699999999,90.1331314,1.4824624524538357,1.0005186923438465,0.5287367030505069,0.9991626333452226,27.277185000000003,-1.1985168000000015,13.3402436
119.902,0.5721768,0.7463059999999999,1.0001888,-0.9275646,-0.3624978,-0.0972151999999999,-104.85401,68.1986038,76.757727,0.5461906000000001,0.579625,0.3483616,-0.9205436,-0.379231,0.0819684,-77.5524202,66.9976044,90.105049,1.3728570835085785,1.0006155791756592,0.8692785034198879,0.998967211404118,27.3015898,-1.2009994000000035,13.347322
139.886,0.3842297999999999,0.730321,0.895465,-0.9282508,-0.3620993999999999,-0.0974306,-104.8956206,68.21054840000001,76.72568199999999,0.7595442,0.8299116,0.4626062,-0.9207442,-0.3788791999999999,0.0821947999999999,-77.57335359999999,67.012233,90.0662916,1.217726926890442,1.0011284857586262,1.2164148765312923,0.9990371940890488,27.322267,-1.1983154000000042,13.3406096
159.87,0.2860006,0.7130778,0.752246,-0.928065,-0.361688,-0.097708,-104.936737,68.2198212,76.6946854,1.0157468,1.1400916,0.6585494000000001,-0.920007,-0.377958,0.0822779999999999,-77.6008758,67.03215320000001,90.01471240000001,1.075244314827658,1.000834505217021,1.6629003969995195,0.9980154302900331,27.3358612,-1.1876680000000022,13.320027
179.854,0.248828,0.6549168,0.611739,-0.9279678,-0.3609878,-0.0980822,-104.974452,68.2268662,76.666504,1.1541494,1.7556226,0.965195,-0.918601,-0.3788276,0.0830276,-77.6498976,67.059619,89.936627,0.930083863222688,1.000528134308336,2.312114387130559,0.9971116938861564,27.3245544,-1.1672471999999998,13.270122999999998
199.837,0.3138204,0.6397878,0.5007216,-0.927542,-0.3604758,-0.0987596,-105.0095824,68.2318528,76.6346558,0.97621,2.2261422,1.4460374,-0.917903,-0.3757752,0.083376,-77.71756420000001,67.099556,89.84188839999999,0.8709384554556998,1.000015211255209,2.828377489112724,0.9953413865202432,27.292018199999998,-1.1322968000000002,13.207232599999998
219.821,0.5680137999999999,0.5918256,0.4218144,-0.928261,-0.3589154,-0.0988834,-105.0368148,68.23644420000001,76.6007752,1.1194056,2.7074994,2.1685486000000003,-0.9179776,-0.3731036,0.0825368,-77.79737980000002,67.1566772,89.7308716,0.9224015426337706,1.0001333287485823,3.64502742498238,0.9943346990772072,27.239435,-1.079766999999998,13.1300964
239.805,0.8665068,0.4632666,0.3306832,-0.9286608,-0.3576709999999999,-0.0983232,-105.0501632,68.2406876,76.57086340000001,1.2751536,3.2211273999999994,3.0153764,-0.918541,-0.3710106,0.0851249999999999,-77.8846724,67.2327804,89.6076112,1.036726268541528,1.0000034386720278,4.592839346667884,0.9942900480334498,27.1654908,-1.007907199999997,13.036747799999995
259.789,1.1588492,0.2981004,0.2139288,-0.928559,-0.3578046,-0.0976267999999999,-105.047029,68.2434936,76.5483796,0.7684197999999999,3.3055562000000003,4.3216426,-0.9193418,-0.3642758,0.0880874,-77.96618040000001,67.3373032,89.50056620000001,1.215549607498699,0.9998884639500548,5.494885398488784,0.9927968542111926,27.0808486,-0.906190399999997,12.9521866
279.773,1.5304525999999998,0.0905371999999999,0.0830976,-0.9289666,-0.3586462,-0.0971266,-105.0237976,68.2445434,76.53552859999999,0.0135151999999999,3.4245382,6.234005399999999,-0.9193268,-0.3541149999999999,0.0813782,-78.0565918,67.48464960000001,89.4014512,1.5353785710880428,1.000519673528492,7.11269765075948,0.988524966735024,26.9672058,-0.7598937999999975,12.8659226
299.756,2.4277524,-0.2112543999999999,-0.0980952,-0.929732,-0.3581258,-0.0965968,-104.96552119999998,68.2441466,76.5422044,1.2542858,4.3650596,8.8486572,-0.9184576,-0.3499796,0.07091,-78.1568054,67.68851,89.267453,2.438899917070842,1.0009928182658856,9.946140579277252,0.9854330578552356,26.8087158,-0.5556365999999968,12.7252486
319.74,3.8524492,-0.60266,-0.2933088,-0.9301616,-0.3571668,-0.0968353999999999,-104.85889120000002,68.2425246,76.57164780000001,3.2715444000000007,6.1501698000000005,11.620373,-0.9167564,-0.3509007999999999,0.0631259999999999,-78.2901582,67.951564,89.0564576,3.9103189085211554,1.0010723349638426,13.548456000191772,0.9836455460467456,26.568733,-0.2909605999999968,12.4848098
339.724,5.3733426,-1.1003752,-0.4949796,-0.9315274,-0.3564222,-0.0960792,-104.6957366,68.2402618,76.6326784,6.960618600000001,9.2183986,14.8292904,-0.911908,-0.3377156,0.0449582,-78.49954540000002,68.2946686,88.6887162,5.5071445488715804,1.0020036398517922,18.797258784479197,0.9734727868279628,26.1961912,0.054406800000001,12.056037800000002
359.708,6.6866646,-1.883844,-0.8748026,-0.9379316,-0.3594248,-0.0900749999999999,-104.4559416,68.2350022,76.75230719999999,12.9707806,14.930319,18.3666622,-0.9109128,-0.3294008,0.0222798,-78.8885606,68.731131,88.0054276,7.001830566230229,1.0084718036507516,26.990551220455025,0.9688980368090958,25.567381,0.4961288000000025,11.2531204
379.692,9.2681104,-3.4904512,-1.5491876000000002,-0.9467668,-0.3623092,-0.0842126,-104.072334,68.22512520000001,76.9761522,19.1226492,20.698693,21.006871,-0.9161018,-0.3317398,0.018352,-79.45531020000001,69.23391419999999,87.0030824,10.024026246282649,1.0172153616543749,35.14826074708606,0.9744899172240216,24.6170238,1.0087890000000015,10.0269302
399.676,13.6999156,-5.9239712,-2.20396,-0.947924,-0.356812,-0.0843096,-103.4815854,68.21597,77.3334658,22.911308400000003,24.6984258,22.3147052,-0.9234426,-0.3284842,0.0248906,-80.1603274,69.77072139999999,85.77259999999998,15.087695712306529,1.0163576249392532,40.40898857631706,0.9804425771623548,23.321258,1.554751400000001,8.439134200000002
419.659,18.4683008,-8.9141544,-3.1263232,-0.9505692,-0.3596571999999999,-0.0743932,-102.6321516,68.2000796,77.8704592,24.695454,27.1220582,22.0444572,-0.9373024,-0.3227801999999999,0.0291483999999999,-80.98416160000001,70.30624839999999,84.3784136,20.74401551911245,1.0190532143645492,42.79520513460515,0.9917522249939044,21.64799,2.1061687999999976,6.507954400000003
439.643,24.4681898,-13.242391799999998,-4.2644262,-0.9592208,-0.3785759999999999,-0.0541116,-101.418103,68.169031,78.6680772,23.917506,26.956374400000005,20.1493326,-0.955786,-0.3289577999999999,0.0382594,-81.8491732,70.79298399999999,82.95703139999999,28.14673308731899,1.0326434022368032,41.287877376760775,1.0115354139451571,19.5689298,2.623952999999997,4.2889542000000045
459.627,32.824235599999994,-19.3217816,-5.1931712,-0.9604228,-0.3771372,-0.0413408,-99.7299804,68.13361080000001,79.79389819999999,20.5776164,23.6713092,17.1974866,-0.9675592,-0.3325812,0.0509711999999999,-82.6376406,71.2001648,81.6871828,38.44126316908583,1.0326439290134428,35.77041684555456,1.024392075002301,17.0923398,3.0665539999999964,1.893284600000004
479.611,40.1571072,-25.8144172,-6.1122984,-0.9492406,-0.3710909999999999,-0.0365667999999999,-97.5898316,68.08398300000002,81.2484194,16.795811,19.5478926,14.242215000000002,-0.9703934,-0.3287914,0.0511226,-83.3182222,71.53115840000001,80.6129076,48.12834493080549,1.0198545866110522,29.44588358930805,1.025856059936422,14.271609400000004,3.4471753999999946,-0.6355117999999947
499.594,44.1429888,-31.4154852,-7.346933,-0.9465244,-0.395079,-0.0147718,-95.0892534,67.98923340000002,82.99680959999999,13.237529,16.5356148,11.4029654,-0.9699074,-0.3231768,0.0443868,-83.947075,71.7946824,79.6705492,54.6764446087603,1.025774859368078,24.05590053923189,1.023295556839391,11.1421784,3.805448999999996,-3.326260399999996
519.578,46.3204674,-36.85498199999999,-8.4164602,-0.9534596,-0.4130184,0.0166271999999999,-92.2795228,67.8468734,85.0209794,10.0022408,14.120201599999998,9.308229,-0.966058,-0.3173394,0.0429417999999999,-84.526091,72.00787820000001,78.849614,59.7888969681911,1.0392044415564057,19.64861423516346,1.0177506336738875,7.753431800000001,4.161004800000001,-6.1713653999999964
539.562,46.0124878,-41.7040282,-9.229406999999998,-0.9543426,-0.3979684,0.0419866,-89.267392,67.66212,87.2650102,6.5491302000000005,12.450068,7.3739638,-0.9607598,-0.3118684,0.0393599999999999,-85.0971602,72.17682040000001,78.11041580000001,62.78182026051166,1.034848549379512,15.883029991311057,1.0108761060657234,4.170231800000002,4.514700400000001,-9.1545944
559.546,40.6679962,-45.2407722,-10.382107,-0.952247,-0.40499,0.0655804,-86.2382294,67.4044036,89.63957520000001,3.095389400000001,10.611112,4.6935184,-0.9604178,-0.3143668,0.0408004,-85.6380186,72.28436880000001,77.4750276,61.71224781139442,1.0368664513683332,12.008590607782205,1.0113819793427408,0.6002108000000019,4.879965200000001,-12.1645476
579.53,33.972691999999995,-47.8956228,-11.5913396,-0.9555292000000002,-0.4309348,0.0931496,-83.2824844,67.0601028,92.0737442,-0.5747139999999995,8.272499,1.7383779999999998,-0.962909,-0.312501,0.048225,-86.1068298,72.3284484,76.990523,59.85393586765428,1.0523391572510454,8.47269106941124,1.0134970487904738,-2.824345399999996,5.268345600000004,-15.0832212
599.513,28.1955102,-51.138489400000005,-12.900884,-0.9616589999999998,-0.4299396,0.1241645999999999,-80.37489620000001,66.6372834,94.5709198,-4.501258399999999,5.344060000000001,-1.230253,-0.9665074,-0.3191834,0.0466872,-86.4865188,72.3050092,76.68183760000001,59.80438697565315,1.0606851275578062,7.094633669977581,1.0189181967823324,-6.1116225999999925,5.667725800000002,-17.8890822
619.497,21.3901922,-54.85445180000001,-14.5991132,-0.954459,-0.4192246,0.1453296,-77.5533966,66.123723,97.1280976,-8.761190399999998,2.117102,-4.6540174,-0.9676272,-0.3244387999999999,0.0450123999999999,-86.7647416,72.20632599999999,76.5689044,60.6604097485162,1.0525502080957088,10.143986201832044,1.021562063351532,-9.211344999999994,6.082603000000001,-20.559193200000003
639.481,13.4353722,-58.6085886,-16.996892600000002,-0.9464902,-0.4383564,0.1705836,-74.87777100000001,65.48720039999999,99.7077698,-12.879211399999996,-1.2113212,-7.688204400000001,-0.9669642,-0.3307098,0.0486293999999999,-86.9217028,72.0403882,76.66887539999999,62.48496012555755,1.0569289459116729,15.048251467583825,1.0231097470174155,-12.043931799999996,6.553187800000001,-23.0388944
659.465,9.4703842,-62.2957368,-19.3345014,-0.9413122,-0.45994,0.2000904,-72.295926,64.7277246,102.2914598,-17.258799999999997,-4.133792,-10.2078058,-0.9622676,-0.3318788,0.0460492,-87.00025500000001,71.8212308,76.9437854,65.91107603989701,1.0666065955360486,20.47324383163981,1.0189322846587203,-14.704328999999998,7.0935062,-25.3476744
679.449,8.6703978,-66.18364820000001,-21.497995,-0.9409332,-0.4640715999999999,0.241663,-69.7404436,63.854082600000005,104.8865358,-21.0103976,-6.3115442,-12.3497314,-0.9574822,-0.3384048,0.040067,-87.0435776,71.55508400000001,77.33614680000001,70.1257076690969,1.076623770106252,25.175151700650886,1.0163145853862767,-17.303134000000004,7.7010014,-27.550389000000003
699.432,8.153053199999999,-70.3462816,-23.6339604,-0.9373004,-0.4723271999999999,0.2751646,-67.2333604,62.8606172,107.4731874,-24.8539602,-8.1471358,-14.3841256,-0.9536104,-0.3425108,0.042669,-87.0618622,71.2461562,77.8360064,74.65678599844287,1.085053261731036,29.84959344184441,1.0141533841908728,-19.828501800000005,8.385539,-29.637181
719.416,9.218568,-74.4271058,-25.5386318,-0.9322492,-0.4874007999999999,0.3015616,-64.77850120000001,61.7474022,110.006215,-27.8530236,-9.4768582,-15.789374,-0.9505922,-0.3482596,0.0383365999999999,-87.0814528,70.90751019999999,78.3994326,79.22498209498687,1.0943434147176287,33.390209587795944,1.0131041282082311,-22.302951600000007,9.160108,-31.6067824
739.4,12.707978,-78.3821412,-27.2285308,-0.9271218,-0.4985516,0.3273168,-62.3519012,60.5203606,112.4632142,-29.9869554,-10.409417,-16.8521254,-0.9447734,-0.3507632,0.0314495999999999,-87.114279,70.547943,78.99642200000001,83.94430089929733,1.1023814301139327,35.93838598127083,1.008276091733787,-24.762377800000003,10.027582400000002,-33.4667922
759.384,16.0834812,-82.67701120000001,-28.6834534,-0.9237606,-0.4988328,0.356353,-59.94974199999999,59.183014,114.8445694,-30.556385,-10.5008506,-17.0488674,-0.9388412,-0.3566216,0.0275283999999999,-87.169937,70.1838654,79.5832048,88.97700291325648,1.108672751120546,36.53251164667615,1.0046688893414386,-27.220195,11.000851400000002,-35.2613646
779.368,17.7032256,-87.60241860000001,-30.1337604,-0.9189848,-0.4990732,0.3796958,-57.60793600000001,57.7282876,117.15307,-30.7663558,-10.033914200000002,-17.0154648,-0.9326974,-0.360936,0.0210659999999999,-87.2739272,69.8213884,80.1254854,94.31665524740968,1.112553828867134,36.56192180049066,1.0003214545428685,-29.6659912,12.093100800000002,-37.0275846
799.351,19.1263438,-92.8741274,-31.4348678,-0.913269,-0.5014532,0.4064576,-55.3313026,56.15200120000001,119.3895872,-30.4933986,-8.7801192,-16.619141000000003,-0.9275,-0.3654172,0.0184162,-87.4487274,69.4685624,80.5879412,99.89780518645397,1.118357437829695,35.820855641966055,0.997058241266918,-32.117424799999995,13.3165612,-38.801646000000005
819.335,21.3175948,-98.44462760000002,-32.5465844,-0.908843,-0.5063793999999999,0.430268,-53.10810240000001,54.4530694,121.5535582,-29.850985,-7.166581000000001,-15.8831904,-0.9234956,-0.3674498,0.012402,-87.7053864,69.133951,80.9511262,105.853978231647,1.1258535638427227,34.56467743206116,0.993990587653324,-34.597284,14.680881600000005,-40.60243200000001
839.319,24.1433892,-104.1146302,-33.2866712,-0.899021,-0.504132,0.4489294,-50.925784400000005,52.6379516,123.6466612,-28.363811,-4.9786424,-14.8398212,-0.9217684,-0.374815,0.0066083999999999,-88.0517518,68.821419,81.18811339999999,111.94088593236316,1.1242443853759556,32.39618724230937,0.9950813727600974,-37.1259674,16.1834674,-42.458547800000005
859.303,26.3869164,-109.6677796,-34.0033356,-0.8869828,-0.5018453999999999,0.4694424,-48.8040888,50.7059334,125.6601424,-26.795655,-2.4923578,-13.9958846,-0.9170772,-0.3761092,-0.0011582,-88.4996858,68.52915519999999,81.284207,117.81136647803127,1.1220354093854434,30.33321216123942,0.9912063672675432,-39.695597,17.8232218,-44.3759354
879.287,28.326934800000004,-114.8334,-34.6097894,-0.8731164,-0.5019343999999999,0.4914916,-46.758954800000005,48.6616692,127.5826506,-24.07408,0.615757,-12.6574874,-0.9113702,-0.3793426,-0.0056102,-89.04628,68.2648332,81.21614819999999,123.23539472503752,1.1206401664775718,27.20574336074292,0.9871818089728154,-42.2873252,19.603164,-46.36650240000001
899.271,30.3110244,-119.57828519999998,-35.0691202,-0.8557342,-0.5015844,0.5105314,-44.7968346,46.513311,129.4055328,-21.2069354,4.5339916,-10.5667118,-0.9018918,-0.3744713999999999,-0.0178732,-89.73653859999999,68.04533699999999,80.9334058,128.24807087497254,1.1155761927178978,24.12356912135729,0.976707274265652,-44.939704,21.532026,-48.472127
919.254,31.7088786,-123.6975174,-35.4774942,-0.8355368000000001,-0.4997059999999999,0.535987,-42.9304894,44.2693306,131.1236634,-18.7631208,9.6437726,-7.438529799999999,-0.8951978,-0.3776448,-0.0251334,-90.6267898,67.8840272,80.3824644,132.53369906444124,1.111354981434483,22.36937141945189,0.9719189183709924,-47.6963004,23.6146966,-50.74119900000001
939.238,32.4166446,-127.364914,-35.651937200000006,-0.8128622,-0.4973738,0.5568874,-41.171746,41.9418396,132.7389252,-15.2278214,16.1933494,-3.5179744,-0.8870204000000002,-0.373521,-0.041643,-91.7817168,67.7939484,79.4716506,136.1753310679392,1.103743280565748,22.505271677094537,0.9633572893304748,-50.6099708,25.852108800000003,-53.26727460000001
959.222,32.429634,-130.6536622,-35.645263799999995,-0.787234,-0.4970937999999999,0.579479,-39.5297218,39.5386436,134.2556122,-10.1934218,24.7468896,0.7922944000000001,-0.8860192,-0.3751504,-0.057671,-93.2710082,67.76989599999999,78.0926178,139.25747893387003,1.096647403769981,26.77577493339034,0.963895113396577,-53.7412864,28.23125240000001,-56.1629944
979.206,32.3648612,-133.8524536,-35.31252,-0.7598958,-0.495245,0.6063012000000001,-37.9928092,37.0656386,135.6885408,-5.744479599999998,34.1457778,4.4372702,-0.8914328000000001,-0.380536,-0.0852452,-95.1635406,67.7829682,76.185585,142.16517732548226,1.0910134655466357,34.908774746037665,0.9729988840357836,-57.1707314,30.7173296,-59.50295580000001
999.19,31.9730862,-137.2305298,-34.9270684,-0.7340882,-0.4908946,0.6347997999999999,-36.5565476,34.523070800000006,137.0498902,-0.1768111999999987,43.1586546,6.6575802,-0.9062658,-0.3894568,-0.0903506,-97.3745834,67.79256000000001,73.81187299999999,145.1702333722709,1.087581619819147,43.66948709570538,0.9905339621821356,-60.8180358,33.269489199999995,-63.238017200000016
1019.173,31.3698106,-141.2612,-34.4460892,-0.7090918,-0.4890712,0.661593,-35.214308200000005,31.9007734,138.35729980000002,1.9153340000000012,50.212268,6.8803906,-0.9158666,-0.385087,-0.0915896,-99.8533386,67.7589662,71.0995836,148.7458392819585,1.0861432304929586,50.7176511368966,0.997743595014631,-64.6390304,35.8581928,-67.2577162
1039.157,30.331233200000003,-145.9500672,-34.1271156,-0.6823242,-0.4831898,0.692945,-33.9633904,29.1809286,139.62493899999998,0.055250800000001,55.7609284,4.3010318000000005,-0.9217548,-0.391479,-0.0950622,-102.5570418,67.6113206,68.17839599999999,152.92503340621855,1.0859150380000635,55.92658637200592,1.0059446011748758,-68.5936514,38.430392,-71.446543
1059.141,29.1716546,-150.7720582,-33.9812148,-0.6509450000000001,-0.4877128,0.7257152,-32.8080544,26.365372200000003,140.85533460000002,0.1693162000000012,57.072467200000006,3.327838,-0.9370788,-0.3992065999999999,-0.095375,-105.2488738,67.39379579999999,65.2590852,157.28293589976514,1.090071428769638,57.1696570395949,1.0230244266477706,-72.4408194,41.0284236,-75.5962494
1079.125,28.8196886,-155.71627519999998,-33.899672599999995,-0.6065666000000001,-0.488159,0.7524926000000001,-31.7303402,23.4485498,142.05317380000002,-1.6599929999999987,55.9828486,1.1325388,-0.9491832,-0.3997882,-0.0859356,-107.8090164,67.099199,62.51044320000001,161.94851223629777,1.0828053207162034,56.018903579631726,1.0335203333117546,-76.07867619999999,43.6506492,-79.5427306
1099.109,27.931897600000003,-160.0099458,-33.4357636,-0.5465034,-0.4883514,0.7815966000000001,-30.7382702,20.4394126,143.22297659999998,-4.142527999999999,51.9478404,-0.086991,-0.9503094,-0.4090818,-0.0967038,-110.1492096,66.76152959999999,60.0462776,165.83523131702415,1.0714692255147042,52.11282210635629,1.0391282402831907,-79.4109394,46.322117000000006,-83.17669899999999
1119.093,27.062120200000003,-163.8613464,-32.5473328,-0.478239,-0.4821242,0.8120748000000001,-29.8266758,17.349944999999998,144.37406919999998,-3.0794843999999983,47.964274,-1.10736,-0.943171,-0.4069036,-0.1049777999999999,-112.210437,66.3959062,57.8558914,169.2401490962886,1.0585942405575803,48.075784452118086,1.0325514095805597,-82.38376120000001,49.0459612,-86.51817779999999
1139.076,26.7479346,-167.15810539999998,-31.856558,-0.4077043999999999,-0.4766078,0.8323934,-28.987578199999994,14.1940228,145.50195920000002,-0.3891853999999982,43.4617318,-0.8048575999999998,-0.948579,-0.412456,-0.1124477999999999,-113.94884499999998,66.041971,55.9508034,172.2559853644881,1.0422363672237502,43.47092582504981,1.0404645976206206,-84.9612668,51.8479482,-89.55115579999999
1159.06,26.8623468,-169.7578216,-31.702317600000004,-0.3281834,-0.458603,0.8444993999999999,-28.207531,10.9698738,146.597711,-0.8588497999999983,39.2746994,-2.7650680000000003,-0.9423084,-0.409133,-0.1219786,-115.4369064,65.66640340000001,54.324244,174.76939266127857,1.0154803258778182,39.38128028624698,1.0345113393566645,-87.22937540000001,54.696529600000005,-92.273467
1179.044,26.052475000000005,-171.1008574,-31.4857702,-0.2471158,-0.4512078,0.8536279999999999,-27.5100492,7.698355799999999,147.6562346,0.0497060000000017,34.521185599999995,-3.996232,-0.9319146,-0.4068924,-0.1389616,-116.65558760000002,65.29155740000002,52.97026,175.91358270960194,0.9966621592969606,34.75175673421283,1.0263218662512652,-89.14553839999999,57.5932016,-94.6859746
1199.028,25.9984358,-172.0225494,-31.4027738,-0.174079,-0.4406472,0.85688,-26.8768654,4.3916526,148.6783904,0.8084606000000016,30.486721,-5.7118868,-0.922402,-0.4030249999999999,-0.1558459999999999,-117.64741039999998,64.91161500000001,51.84773199999999,176.78747231762813,0.9791408415079212,31.027720133609684,1.018598338868172,-90.770545,60.51996240000001,-96.83065840000002
1219.011,26.165137800000004,-172.40620740000003,-31.7408392,-0.106594,-0.4332627999999999,0.8583408,-26.3046928,1.0596106,149.6573912,2.1956360000000017,26.1724572,-7.1879858,-0.9237886,-0.4061152,-0.1786171999999999,-118.4047056,64.5378592,50.9531496,177.24558008386293,0.9673819636754036,27.230230869225647,1.0248019502795849,-92.1000128,63.47824859999999,-98.7042416
1238.995,26.8156856,-172.32204900000002,-32.0379682,-0.0412314,-0.4265413999999999,0.8554064,-25.7804012,-2.2881034,150.596875,3.849677600000002,20.4484618,-8.3261584,-0.9234878,-0.4005602,-0.1865743999999999,-118.8807448,64.198078,50.332618,177.314412759202,0.9567432797887216,22.411705006801505,1.023761787384272,-93.1003436,66.48618139999999,-100.264257
1258.979,27.4843594,-171.9708496,-31.9601346,0.0159501999999999,-0.4193114,0.8459768000000001,-25.2985678,-5.638241,151.5071838,4.852563600000002,14.1505378,-10.251795,-0.9159648,-0.3949192,-0.196753,-119.0714964,63.8846006,50.008085,177.06160884682006,0.9443268529424758,18.135170091380417,1.0166928899017047,-93.7729286,69.52284159999999,-101.4990988
1278.963,27.572635400000003,-171.6843812,-32.1629818,0.0643338,-0.4083056,0.8353956,-24.86521,-8.9887502,152.390445,5.594199200000001,7.771772400000001,-12.3524442,-0.9102816,-0.389344,-0.2003856,-118.9821196,63.5980964,49.980307800000006,176.83391747398284,0.9320612154323128,15.629407814782876,1.0101265912359303,-94.1169096,72.5868466,-102.41013719999998
1298.947,27.0777766,-171.173932,-31.872970599999995,0.1128557999999999,-0.3944036,0.8150484,-24.492862,-12.3322454,153.25943,6.361507200000002,2.0964162,-14.4875538,-0.9103506,-0.379597,-0.2051758,-118.6508972,63.333834,50.208606,176.20898738943083,0.91246617780012,15.960982107851908,1.0074369490121948,-94.1580352,75.6660794,-103.050824
1318.93,25.3383696,-169.842273,-31.7446182,0.1643659999999999,-0.3815506,0.7872194,-24.2051828,-15.6569352,154.1118408,6.5650704000000015,-2.7980534,-15.8921874,-0.9069032,-0.3844885999999999,-0.2082628,-118.12706,63.0893952,50.6493026,174.63147327001656,0.8901187707563075,17.420989424912882,1.0068159174169031,-93.9218772,78.7463304,-103.4625382
1338.914,22.9936334,-167.3210054,-31.1953818,0.2169163999999999,-0.3713947999999999,0.7556856,-24.0151788,-18.9401394,154.95562120000002,8.243830400000002,-5.8828358,-16.894615800000004,-0.8944053999999999,-0.3817473999999999,-0.2211454,-117.4725678,62.8524834,51.2044166,171.75033586764303,0.8695099470985711,19.69762776943801,0.9972950340280852,-93.457389,81.79262279999999,-103.75120459999998
1358.898,20.436596,-163.8237124,-30.341075,0.2669954,-0.3546872,0.7291673999999999,-23.9173258,-22.1600056,155.7931336,9.893403800000003,-7.2761564,-17.2318198,-0.8894806,-0.3838196,-0.2277817999999999,-116.753589,62.618551,51.7989912,167.85840471284348,0.8536829919166481,21.16028129129638,0.9951772563376636,-92.8362632,84.7785566,-103.9941424
1378.882,17.889216,-159.5051852,-29.3495062,0.3139694,-0.3398188,0.6959972000000001,-23.9120964,-25.3000236,156.6291046,10.338800000000004,-7.019802,-16.6146632,-0.8857098000000001,-0.3855795999999999,-0.2338962,-116.0682482,62.389600400000006,52.3498022,163.16654580202643,0.8357426059365647,20.789791697095914,0.9939119227208416,-92.1561518,87.68962400000001,-104.2793024
1398.866,15.0259614,-153.59959419999998,-28.9839986,0.3587178,-0.3295278,0.6659148,-23.9956368,-28.3346572,157.4432342,8.865688600000002,-5.0957114,-15.160676600000002,-0.8787354,-0.3862038,-0.2371992,-115.52060860000002,62.16719440000001,52.7816046,157.03084738115552,0.825051241965443,18.28695775666493,0.988732895593264,-91.5249718,90.5018516,-104.6616296
1418.85,13.4914212,-146.5011354,-28.460968,0.3972508,-0.3217676,0.6334394,-24.1369744,-31.2382316,158.23358760000002,7.480448000000003,-2.6015068,-12.5972584,-0.8717621999999998,-0.3780344,-0.2386444,-115.143724,61.9721108,53.0548446,149.84868307389948,0.8139951228249221,14.88004902906979,0.9797093908826024,-91.0067496,93.2103424,-105.178743
1438.833,12.1815934,-138.4008454,-27.6920086,0.4387848,-0.3075114,0.6032026,-24.320656,-33.9950534,158.9953766,4.463969600000002,0.0537992,-9.6494316,-0.872086,-0.378527,-0.2283157999999999,-114.958943,61.810885,53.1769494,141.6687423728329,0.8068139429185394,10.632095237850503,0.977724289181076,-90.638287,95.8059384,-105.8184272
1458.817,9.6640454,-129.4544616,-26.7274464,0.4789714,-0.3015654,0.5795870000000001,-24.5662096,-36.5842334,159.7250274,1.7709752000000023,2.9962892000000005,-5.1374094,-0.8615226,-0.3764542,-0.2251558,-114.9996504,61.7060662,53.1043222,132.5375712494537,0.8101088711180245,6.205407115754779,0.9667647538476152,-90.4334408,98.2902996,-106.6207052
1478.801,7.096390999999999,-119.8754546,-25.1717034,0.5141943999999999,-0.2938554,0.563363,-24.8711042,-38.985584200000005,160.4281554,1.140957600000002,6.572119600000001,-0.4449398000000002,-0.8518661999999999,-0.380216,-0.2208334,-115.2400298,61.65261,52.817361600000005,122.69514266196164,0.8173889813727121,6.685245822505405,0.9586488512036092,-90.36892559999998,100.6381942,-107.6107938
1498.785,6.1754388,-110.3006912,-22.856098600000003,0.548231,-0.2907616,0.5419028,-25.2137972,-41.1948234,161.12383419999998,2.588473200000002,8.6007394,4.051747600000001,-0.8484311999999999,-0.3899595999999999,-0.2152268,-115.5766952,61.65831920000001,52.3846444,112.81303012854156,0.8238678183078886,9.8534039980068,0.9582413924496478,-90.362898,102.8531426,-108.7391898
1518.769,5.160212800000001,-100.6192122,-20.1582908,0.5846237999999999,-0.2806191999999999,0.5219532,-25.5887808,-43.21065660000001,161.8124238,4.065522400000002,9.5312086,6.1680226000000005,-0.846046,-0.4050756,-0.2125298,-115.933989,61.6859048,51.891237,102.74828635002764,0.8324465543957281,12.058893504618345,0.961794672328455,-90.3452082,104.8965614,-109.92118680000002
1538.752,3.677109,-91.0508972,-17.8100016,0.6138108000000001,-0.278979,0.5137725999999999,-25.9956464,-45.0291068,162.483191,5.727579800000002,8.4512406,7.465785599999999,-0.844886,-0.4151257999999999,-0.2131421999999999,-116.2351396,61.740294000000006,51.4219078,92.84924969279425,0.8476763917606766,12.647790031053797,0.9651898156541436,-90.2394932,106.7694008,-111.0612832
1558.736,3.002392,-81.47574080000001,-15.917313000000002,0.6426916,-0.2761532,0.4921428,-26.405367,-46.6617376,163.1202606,6.798131200000002,5.9799534,6.566129800000001,-0.8579276,-0.4331682,-0.2149367999999999,-116.4076708,61.7941812,51.07173,83.07028078543144,0.8552880322865742,11.18429662647737,0.9848209402359598,-90.0023038,108.4559188,-112.0485306
1578.72,2.5864988,-71.7921822,-14.623657,0.6748004,-0.2738842,0.470671,-26.7925404,-48.1151502,163.69943240000003,7.228729000000003,1.881224,4.7484804,-0.8686558,-0.446825,-0.2161674,-116.3980486,61.847166,50.9169586,73.31206411726549,0.8671212862632308,8.85107862369334,1.000471800862673,-89.6055082,109.9623162,-112.7824738
1598.704,0.7595841999999999,-62.4328614,-14.3270278,0.708675,-0.2735794,0.4556909999999999,-27.158671200000004,-49.4031324,164.1895722,7.424052800000001,-1.8706134,2.1740688,-0.8720406,-0.451422,-0.2186553999999999,-116.2178012,61.8846866,50.9517304,64.06015045510331,0.8858443606019966,7.958789456731523,1.00600537477765,-89.05913,111.28781899999998,-113.2378418
1618.688,-0.3621834,-53.31048440000001,-14.211943,0.7440756,-0.2818002,0.4408582,-27.485880200000004,-50.531597,164.5855866,8.034410800000002,-5.082796400000001,0.9007318000000002,-0.872893,-0.4491037999999999,-0.2202637999999999,-115.901929,61.928191600000005,51.1280236,55.17352850428481,0.9096239903073357,9.549758841067186,1.0060579278619497,-88.4160488,112.4597886,-113.457563
1638.671,-1.3510788000000002,-43.8224774,-14.486577,0.7845662000000001,-0.2800168,0.4198632,-27.7321536,-51.4912962,164.8488068,9.3223204,-6.2609352000000005,0.2245753999999999,-0.8700033999999999,-0.4475296,-0.2209983999999999,-115.513985,61.969076,51.358175,46.17462346976151,0.9328658194933076,11.231892152666903,1.0030099459578057,-87.7818314,113.4603722,-113.4906318
1658.655,-1.9891516,-33.8409706,-14.498206199999998,0.8189757999999999,-0.286366,0.405008,-27.882239400000003,-52.269715,164.9713136,11.808238400000002,-5.5632258,0.1228747999999999,-0.8656902000000001,-0.4403614,-0.2193504,-115.10376,62.00378980000001,51.55873340000001,36.86958093409206,0.9574749746106368,13.0536996146493,0.995716969307122,-87.22152059999999,114.2735048,-113.4125802
1678.639,-2.6049708,-23.085027,-14.0149654,0.8479762000000001,-0.2882922,0.3938868,-27.9336112,-52.85743179999999,164.95131840000002,14.1509974,-3.509882400000001,0.1350191999999999,-0.8609221999999999,-0.4333506,-0.2163263999999999,-114.721013,62.0230814,51.6761154,27.13159780814205,0.9784287605960488,14.580405757762888,0.9878141972608816,-86.7874018,114.8805132,-113.275203
1698.623,-3.1351768,-11.5691734,-12.573616,0.8635606000000001,-0.2903232,0.384497,-27.8945338,-53.2314302,164.8019958,15.7208858,-0.2031396000000001,0.2708075999999999,-0.8586772,-0.4257196,-0.2125712,-114.4253464,62.0206498,51.6599906,17.37155508415933,0.9888692599831388,15.72453028837261,0.9817078112623124,-86.5308126,115.25208,-113.1420052
1718.607,-4.3848332,0.7153143999999998,-10.8489304,0.867646,-0.2874705999999999,0.3817868,-27.7684066,-53.372265000000006,164.5129608,16.461709600000002,3.883309,1.1652532,-0.8581806000000001,-0.4200757999999999,-0.2090749999999999,-114.2694412,62.004043,51.468907,11.723383799343676,0.9905604917593878,16.953636387640366,0.978084850913764,-86.5010346,115.376308,-113.0440538
1758.574,-6.4538664,14.7804576,-8.0033666,0.8513368,-0.2856788,0.392886,-27.5277108,-53.13268000000001,163.97858879999998,15.896779600000002,7.422248999999999,1.6763832,-0.8666754000000001,-0.419758,-0.2028214,-114.2474852,61.9713776,51.1372466,18.004671485712876,0.9801765824583242,17.62406430146632,0.9841034233387872,-86.7197744,115.1040576,-112.8413422
1778.558,-8.2928456,28.0487662,-4.6013208,0.8306286,-0.276913,0.4055769999999999,-27.2509176,-52.63014940000001,163.3498564,13.6297818,10.4318382,1.901052,-0.8681938,-0.412152,-0.200234,-114.3772674,61.922509000000005,50.684993,29.608727203178027,0.9649442386148332,17.268705766596828,0.9816941480005064,-87.1263498,114.5526584,-112.66486340000002
1798.542,-9.8236794,40.480644600000005,-0.8841429999999999,0.8044319999999999,-0.2720592,0.4190792,-26.9518918,-51.866276000000006,162.65189500000002,11.2260926,13.652452,2.8904974,-0.8676695999999999,-0.404999,-0.2019391999999999,-114.6825806,61.86724019999999,50.0888634,41.66496097478003,0.9469711858347538,17.91004120306499,0.9785980611373598,-87.73068880000001,113.7335162,-112.5630316
1818.526,-11.670657,52.3367706,2.4639364,0.775969,-0.2619034,0.4345352,-26.6367352,-50.8535318,161.8848266,8.6335878,16.1203568,4.3473880000000005,-0.8711949999999999,-0.4081768,-0.2052598,-115.1421388,61.81485300000001,49.37573999999999,53.67879259290319,0.9271149442931012,18.79639657174106,0.9837279164379142,-88.5054036,112.66838479999998,-112.5090866
1838.51,-14.176536,63.5050676,5.7198098,0.7484514,-0.246232,0.4600638,-26.324904,-49.603576,161.0579008,6.287245200000002,18.8063838,5.6772396,-0.8731161999999999,-0.4094556,-0.2126549999999999,-115.7598908,61.7579346,48.5363418,65.31909374744909,0.9123970605259532,20.626210832667105,0.9875261698298428,-89.43498679999999,111.3615106,-112.521559
1858.494,-15.4801084,72.0541422,8.7860972,0.72493,-0.2455202,0.4770004,-26.097313,-48.277559,160.340167,4.082181800000002,21.5957872,7.3539,-0.8744182,-0.4057282000000001,-0.2165936,-116.5394792,61.7030214,47.5625746,74.22013654165168,0.9018497963121131,23.17589433540667,0.9879956216134969,-90.4421662,109.9805804,-112.7775924
1878.477,-16.4960404,80.2249712,11.9210484,0.6975,-0.2433764,0.4970594,-25.8961434,-46.770292000000005,159.6198454,1.1472298000000012,21.3850558,8.9628818,-0.8866448,-0.4130872,-0.2134798,-117.381691,61.6756638,46.5803664,82.76639866440006,0.8903967482001044,23.21572738347633,1.0011761389380591,-91.4855476,108.4459558,-113.039479
1898.461,-17.7562796,87.4869066,14.8902756,0.6657333999999999,-0.240396,0.5308808,-25.7272622,-45.0935724,158.90131219999998,-2.1472399999999987,19.1901114,9.3378956,-0.8936052,-0.4134062,-0.2118687999999999,-118.212445,61.67315979999999,45.6833656,90.50394797529252,0.884774333093021,21.449179690573462,1.0071362013545735,-92.4851828,106.7667322,-113.2179466
1918.445,-17.8914034,93.7860078,18.4481042,0.6385326,-0.248847,0.5569218,-25.5996438,-43.2638704,158.2195404,-5.240299599999998,15.4038918,9.0742848,-0.8973407999999999,-0.4191592,-0.2106786,-118.9635908,61.6966408,44.9440048,97.24325232764096,0.883068854612708,18.63017088261346,1.0125711919599727,-93.363947,104.9605112,-113.2755356
1938.429,-17.1734598,99.373848,22.245775400000003,0.608165,-0.2592356,0.5790116,-25.5096406,-41.2936976,157.5913116,-8.231382,9.392136,7.2053558,-0.9073112,-0.4191792,-0.2021099999999999,-119.5300964,61.745765000000006,44.478630800000005,103.27131213931855,0.8788186368454642,14.418218353077249,1.0196927318845026,-94.0204558,103.0394626,-113.1126808
1958.413,-16.5129706,104.2928848,26.1576482,0.5775982,-0.2677798,0.6018376,-25.459212200000003,-39.195527,157.02083140000002,-11.209143199999998,1.9487702,4.6724026,-0.9114494,-0.4244157999999999,-0.2060164,-119.8663818,61.8186204,44.3419098,108.78376063226304,0.8760902914112448,12.299347243939453,1.0263096692124458,-94.4071696,101.0141474,-112.6789216
1978.396,-16.3979472,108.6766966,29.8716024,0.5480942,-0.2770916,0.6330807999999999,-25.4547458,-36.979683,156.50491340000002,-13.603118999999998,-5.983909800000001,2.5630206,-0.9044892,-0.4292653999999999,-0.2028236,-119.9450714,61.928892000000005,44.5496116,113.89394051575404,0.8820307852863413,15.080487313701816,1.0215218594189557,-94.4903256,98.908575,-111.9553018
1998.38,-15.5528376,112.1611586,33.5403558,0.5177012,-0.290026,0.6568324000000001,-25.486147,-34.666373799999995,156.0503936,-14.2708966,-13.0521588,0.8912559999999999,-0.9081894,-0.4283494,-0.1970912,-119.7670822,62.080607,45.0616484,118.09729769599691,0.8851883499274039,19.360053625076688,1.0232966998237414,-94.2809352,96.7469808,-110.9887452
2018.364,-14.372923,115.4196012,37.0270622,0.488123,-0.3009592,0.6738137999999999,-25.5385186,-32.2645912,155.6483824,-16.4127446,-21.4253348,-0.9497984,-0.9077168,-0.4270996,-0.1864768,-119.3061692,62.2808764,45.939331800000005,122.06256015623153,0.8847968920967567,27.0060229133718,1.020361433150352,-93.7676506,94.5454676,-109.7090506
2038.348,-14.045699,118.314993,39.9099586,0.4557806,-0.3142162,0.6961776000000001,-25.621392000000004,-29.783990800000005,155.2875244,-18.6129618,-28.298463,-2.3164174,-0.9053116,-0.4282292,-0.1855428,-118.6277634,62.51643320000001,47.111731,125.65239362798611,0.889455466237945,33.95012731495496,1.018526127038006,-93.0063714,92.300424,-108.1757934
2058.332,-13.7907012,120.7071088,42.4703758,0.421921,-0.3244334,0.7209397999999999,-25.727360800000003,-27.236195,154.9593566,-19.5013522,-35.6077614,-3.988632,-0.8997373999999999,-0.428716,-0.1740132,-117.6669846,62.7819398,48.6187912,128.70167976773243,0.8961186062685006,40.793683270565296,1.0117338540293097,-91.9396238,90.01813480000001,-106.3405654
2078.316,-11.8555164,122.5260222,44.955487,0.3814228,-0.346721,0.7397981999999999,-25.8310024,-24.629861400000003,154.6697112,-20.1306998,-39.459604,-4.6850348,-0.9013994,-0.4176622,-0.1734108,-116.5626008,63.0606568,50.301648,131.05027736205952,0.9016652266357396,44.544976971054176,1.0084809850393015,-90.7315984,87.6905182,-104.3680632
2098.299,-9.167611,124.74949180000002,47.2874138,0.346011,-0.354539,0.7528286,-25.903810400000005,-21.9656918,154.4078644,-22.086783,-44.2976504,-5.5137362,-0.8992572000000001,-0.4312324,-0.1733712,-115.287459,63.341958,52.21705480000001,133.72576527991166,0.901206089426808,49.80470962803517,1.012266006319999,-89.38364859999999,85.30764980000001,-102.1908096
2118.283,-7.594552199999998,126.3572404,48.607367,0.2964924,-0.364604,0.7746382,-25.9594684,-19.2525828,154.1574188,-21.6908728,-46.412212,-5.8427638,-0.8958386,-0.4202508,-0.1677916,-113.9004442,63.6174402,54.2469748,135.59684934132727,0.9060398230613268,51.562828417197146,1.003639154866509,-87.9409758,82.870023,-99.910444
2138.267,-5.682803999999999,127.5011018,49.514025200000006,0.2434882,-0.3775229999999999,0.7971223999999999,-25.9934132,-16.5024496,153.91702260000002,-20.0089924,-49.252959,-5.765361400000001,-0.8991258,-0.4277676,-0.1603132,-112.3445436,63.8912988,56.4239638,136.8958140814489,0.9149941200084292,53.47385472538471,1.0085200275302617,-86.3511304,80.3937484,-97.4930588
2158.251,-2.8939516000000003,128.2089144,50.109665,0.1907752,-0.3932882,0.8143984,-25.989412800000004,-13.7269884,153.6853332,-19.9323724,-50.1287538,-5.8235362,-0.8987742000000001,-0.4245688,-0.153018,-110.72737279999998,64.14365560000002,58.6645248,137.683983142201,0.9242919122857454,54.259607452560935,1.0057177719634274,-84.73796,77.870644,-95.0208084
2178.235,-1.3488468,128.5097994,50.199758200000005,0.1380138,-0.3939916,0.8335638,-25.9616354,-10.9397454,153.45521860000002,-19.083716,-50.2528932,-5.3072926,-0.8926054000000001,-0.4235042,-0.1426218,-109.0630646,64.3793062,60.9351272,137.9731990382791,0.9322584397748512,54.01582033146656,0.998219006712475,-83.1014292,75.3190516,-92.5200914
2198.218,-1.1914928,128.1958482,49.552488,0.0817634,-0.404866,0.8506494,-25.9423162,-8.156025,153.2207062,-18.067193,-49.279342,-4.010327200000001,-0.8905581999999999,-0.4150934,-0.1275608,-107.3999358,64.60901659999999,63.178035,137.4446951242573,0.9456247317281418,52.63990629838994,0.9907917016242314,-81.4576196,72.76504159999999,-90.0426712
2218.202,-1.1610686,127.7625062,48.7700302,0.0318822,-0.4109321999999999,0.86236,-25.932816000000003,-5.3830832,152.9777802,-16.933520199999997,-48.6231674,-2.5767548000000007,-0.8943686,-0.4176992,-0.1200097999999999,-105.7285384,64.83310859999999,65.4019532,136.75935769265612,0.955796273937956,51.5518785270872,0.994369230438392,-79.7957224,70.21619179999999,-87.575827
2238.186,-1.247503,127.0743654,47.9784148,-0.0171057999999999,-0.411324,0.8722084000000001,-25.9354118,-2.6280992,152.7286042,-16.7322274,-47.2174796,-1.1760788000000004,-0.8914298,-0.4131547999999999,-0.1114646,-104.10044539999998,65.05021059999999,67.57114039999999,135.83585274981192,0.964483039975406,50.10829247625124,0.9888216897622342,-78.16503359999999,67.6783098,-85.1574638
2258.17,-2.0053526,126.234404,46.95242,-0.068389,-0.4129743999999999,0.8862434,-25.9623036,0.1047906000000001,152.46795360000002,-14.9851346,-46.30413059999999,0.9423679999999998,-0.8992609999999999,-0.4166249999999999,-0.1027376,-102.4700256,65.2753678,69.70095979999999,134.69846300586337,0.98012870298748,48.67766250601396,0.9963943753352684,-76.507722,65.1705772,-82.7669938
2278.154,-2.3028364,125.0257172,45.8029626,-0.1165824,-0.4176008,0.8829750000000001,-26.0104042,2.8067080000000004,152.1956696,-14.446596999999995,-45.46521,1.0987045999999996,-0.909396,-0.4232692,-0.0930702,-100.8380112,65.47300879999999,71.817244,133.17148493501355,0.9836801994425832,47.717885923651,1.0073827289628705,-74.827607,62.6663008,-80.3784256
2298.138,-2.9602038,123.81086580000002,44.307518,-0.163405,-0.4179348,0.876667,-26.0870602,5.4743296,151.9040802,-13.661049599999998,-45.1132172,0.8877791999999995,-0.9182348,-0.4215516,-0.0737052,-99.1673662,65.641797,73.95378120000001,131.5334537218706,0.9848429925450248,47.14461575000891,1.0130613781507218,-73.080306,60.1674674,-77.950299
2318.122,-4.1396812,122.741867,42.691066000000006,-0.2100608,-0.4195159999999999,0.881217,-26.203196400000003,8.1079334,151.5869018,-14.1925908,-44.9356622,0.3597983999999997,-0.9159308,-0.4203748,-0.0746044,-97.5072192,65.771956,76.09126140000001,130.02011379513434,0.9983299129254016,47.12507640160805,1.0105493651292052,-71.3040228,57.6640226,-75.4956404
2338.105,-5.5958228000000005,121.7025466,41.2219048,-0.2506168,-0.4258914,0.8700610000000001,-26.3728582,10.7064784,151.2434784,-15.3355452,-43.1399248,0.1395015999999996,-0.9158594,-0.4244126,-0.0510328,-95.9135624,65.8688264,78.17608500000001,128.6159730246381,1.000599024963147,45.7848394015672,1.0107071001447254,-69.54070420000001,55.162348,-73.06739339999999
2358.089,-7.834718599999999,121.0059754,39.4042518,-0.2894196,-0.4284594,0.8594352000000001,-26.6137258,13.271296,150.86007379999998,-16.9023672,-40.789576,-0.0862596000000003,-0.9105608,-0.4135221999999999,-0.0454952,-94.4500614,65.93892819999999,80.15299540000001,127.50107434043213,1.002980570754768,44.152995005344806,1.0010950971873351,-67.83633560000001,52.6676322,-70.7070784
2378.073,-10.3041498,120.776387,37.694590600000005,-0.3259298,-0.4310316,0.850261,-26.9333124,15.8104586,150.4297516,-15.628630599999996,-38.3348534,1.1758968,-0.9068714,-0.413065,-0.0357252,-93.0647036,66.0112228,82.0155976,126.94090483518784,1.007453345246121,41.41494673321455,0.9971533083122174,-66.13139120000001,50.2007642,-68.414154
2398.057,-13.2180808,120.8608444,36.2084204,-0.3688982,-0.4382272,0.8424075999999999,-27.346988,18.3330774,149.9480928,-14.52067,-34.13441999999999,2.8988384,-0.8920138,-0.4067731999999999,-0.0479894,-91.8704058,66.09639259999999,83.6495178,126.85862634042462,1.0187146437157168,37.207684018957885,0.9815579647382217,-64.52341779999999,47.7633152,-66.298575
2418.041,-15.677551400000002,120.81312400000002,35.0300552,-0.4125021999999999,-0.4408286,0.8189147999999999,-27.8504704,20.8420696,149.4148958,-9.8268348,-28.903095200000003,5.684174199999999,-0.8938240000000001,-0.408983,-0.0423456,-90.8133118,66.2196486,85.0300248,126.76238131186268,1.017403248098727,31.052623571329683,0.983860552672156,-62.9628414,45.377579,-64.384871
2438.024,-17.860179600000002,120.8116454,33.472387600000005,-0.4616008,-0.4440869999999999,0.8042118,-28.4446332,23.3336814,148.81689160000002,-2.8806479999999985,-25.726627,7.301401999999999,-0.9099518,-0.4074348,-0.0336492,-89.7499542,66.36712179999999,86.2641982,126.6287503343701,1.0281270259014106,26.897359365979344,0.9975708813086516,-61.305321000000006,43.0334404,-62.5526934
2458.008,-19.8548228,120.6789672,32.562241,-0.5084186,-0.4420362,0.7846957999999999,-29.124921800000003,25.8104288,148.1618378,2.519224400000001,-24.2888792,7.842956799999999,-0.9253312,-0.4099808,-0.0029172,-88.6002502,66.51365200000001,87.4673004,126.56194788252968,1.0342306190951998,25.64777019033846,1.0120921875589792,-59.4753284,40.7032232,-60.6945374
2477.992,-21.936022200000004,119.4585846,31.8645222,-0.5619175999999999,-0.4439038,0.7673812,-29.8912544,28.2565964,147.459677,3.140226000000001,-23.8033368,7.336544000000001,-0.9260124,-0.4055883999999999,0.0142238,-87.4361786,66.639151,88.668689,125.56627843345736,1.049607488043811,25.105472312012896,1.0110406676562322,-57.5449242,38.382554600000006,-58.790988000000006
2497.976,-22.9256356,117.5023224,31.8474904,-0.6021091999999999,-0.4431188,0.7297955999999999,-30.720869400000005,30.665196400000003,146.7245116,2.1195396000000017,-23.9059362,7.208052799999999,-0.9215518,-0.3977056,0.0382544,-86.24940939999999,66.7536484,89.9113648,123.881569177322,1.0447446469915218,25.058776085076985,1.00443559448775,-55.52854,36.088452,-56.81314679999999
2517.959,-24.441547,115.7605546,31.8123378,-0.631961,-0.4425766,0.6989654,-31.6298274,33.0328566,145.947821,-1.6071369999999987,-24.1206388,6.5743056,-0.926523,-0.3996872,0.0552971999999999,-85.102739,66.8458114,91.1884948,122.51497891014836,1.041057819136728,25.05213762494182,1.010570387306436,-53.4729116,33.8129548,-54.7593262
2537.943,-26.2141308,115.1317888,32.1034306,-0.6507376,-0.4422214,0.671998,-32.6355468,35.3730368,145.1141968,-6.658254799999999,-24.6523996,5.159492,-0.9276822,-0.4000392,0.0667754,-84.026329,66.8991516,92.4977402,122.3647812982818,1.0346982664891828,26.05174698015216,1.012464606679483,-51.3907822,31.52611480000001,-52.61645660000001
2557.927,-27.2118034,115.2455186,31.9509392,-0.6748316000000001,-0.445872,0.6626483999999999,-33.7387038,37.6877562,144.19739700000002,-11.1073506,-24.5022928,4.0679126000000005,-0.9185082,-0.400806,0.0557892,-83.0756836,66.919107,93.7708054,122.64939591137534,1.0456110322510566,27.208151402281835,1.003700751190254,-49.3369798,29.2313508,-50.42659160000001
2577.911,-26.6806924,115.8579682,31.7578514,-0.6864132000000001,-0.4427112,0.6226292,-34.9293226,39.9893906,143.17583940000003,-13.606960199999998,-22.4401732,4.3083458,-0.9033188,-0.3874186,0.0521598,-82.2786682,66.945378,94.9328842,123.05888536761624,1.0270459621810115,26.594596869716973,0.984275708729744,-47.3493456,26.9559874,-48.2429552
2597.895,-27.1195134,117.3026658,30.8723888,-0.7074922000000001,-0.4421422,0.5894998,-36.2570616,42.2828986,142.0088318,-13.925886999999998,-19.8737762,5.1583674,-0.9059916,-0.3856286,0.0346758,-81.6309906,66.9933394,95.945108,124.29194584146488,1.0215404800015122,24.80939466044744,0.9852576350955926,-45.373929,24.7104408,-46.063723800000005
2617.878,-27.9278512,119.6402008,29.9114724,-0.7341526,-0.4432332,0.5584238,-37.7635986,44.5771414,140.6575012,-11.288260599999996,-17.000502599999997,5.8738386,-0.9136238,-0.3851175999999999,0.0365872,-81.0574294,67.061885,96.8198914,126.44539810230197,1.0233634985064886,21.235439621655328,0.992150511243148,-43.2938308,22.4847436,-43.83760980000001
2637.862,-28.6941392,121.603488,29.2724216,-0.778529,-0.4476428,0.5508941999999999,-39.4573576,46.8603622,139.1154082,-8.700722599999997,-14.319383599999998,5.6385138,-0.9185562,-0.3851482,0.0354924,-80.56455079999999,67.1312452,97.5517442,128.326289529945,1.0535539377869934,17.678805341959336,0.9966666137578002,-41.1071932,20.270883,-41.563664
2657.846,-28.3406076,121.22554,29.4118422,-0.8169107999999999,-0.4438596,0.5015004,-41.3067312,49.1134628,137.4121398,-5.7708695999999975,-11.402485199999996,5.7491496,-0.913263,-0.3749755999999999,0.0423374,-80.1388488,67.2120802,98.1452012,127.92137448068044,1.0563414461569516,14.01329104099402,0.988154068555668,-38.8321176,18.0986174,-39.2669386
2677.83,-29.918149600000003,119.8442854,29.0943878,-0.8567828000000001,-0.4377638,0.4650066,-43.3529142,51.31002099999999,135.5452546,-3.234597799999998,-10.0975674,5.6266982,-0.9207626,-0.3761476,0.0455053999999999,-79.7201752,67.292848,98.6753618,126.90245001567708,1.0686182896665395,12.003467122427203,0.9956713935700272,-36.367261,15.982827,-36.8698928
2697.814,-31.4874616,117.1669294,28.9634736,-0.8860834000000001,-0.4424692,0.425359,-45.600804,53.4221914,133.51825580000002,-1.0865365999999983,-9.4708002,4.8131622,-0.930553,-0.3839579999999999,0.0586798,-79.2749786,67.3542128,99.184746,124.73344533850556,1.0778928813129809,10.679098678023742,1.0083630053215162,-33.6741746,13.9320214,-34.333509800000016
2717.798,-32.2429022,113.8011228,29.1650402,-0.91298,-0.4489922,0.411566,-48.023326,55.4291106,131.3441484,-1.2235287999999986,-9.664851999999998,2.0921772,-0.9378978,-0.3937864,0.0746462,-78.83000940000001,67.3551786,99.6941302,121.8232320318545,1.0975030972242583,9.964115231295414,1.0199470904141257,-30.806683400000004,11.926068,-31.6500182
2737.782,-31.7044278,109.0486936,29.1172242,-0.9348148,-0.449283,0.3851904,-50.583966,57.3093962,129.04058700000002,-2.711587399999998,-11.2704994,-1.033503,-0.9398478,-0.4084872,0.0893394,-78.36340320000001,67.279405,100.2576372,117.23737059105838,1.1063930443744665,11.638083665460051,1.0286676859516102,-27.7794372,9.9700088,-28.7829498
2757.765,-30.929168000000004,104.54008,28.3883684,-0.9408728,-0.4410976,0.3468978,-53.3010292,59.059677,126.5759446,-4.880573199999999,-13.9043964,-5.0460336,-0.9426908,-0.4162298,0.1072071999999999,-77.8497832,67.1072004,100.9167802,112.6549653588014,1.095512118668908,15.57609351221352,1.0360533647184975,-24.54875400000001,8.0475234,-25.6591644
2777.749,-31.267381400000005,100.6150724,27.1066346,-0.9439038,-0.4480717999999999,0.3124284,-56.2311066,60.6686768,123.9130294,-7.317653999999999,-17.3896418,-9.0928852,-0.9389266,-0.4141046,0.1124466,-77.27692859999999,66.8391264,101.6940644,108.79251616268569,1.090566012094747,20.9434539476277,1.0323323194496432,-21.045822000000005,6.1704496,-22.218965000000004
2797.733,-31.48100520000001,97.6383162,26.1383224,-0.9462932,-0.453251,0.2898169999999999,-59.3850998,62.14488300000001,121.0372954,-9.055355799999996,-19.8694652,-12.2256062,-0.9294312,-0.4004606,0.0992748,-76.6756576,66.50185839999999,102.5426576,105.86551079865411,1.0885316636902391,25.02519855977337,1.016890620273803,-17.290557800000006,4.356975399999998,-18.4946378
2817.717,-30.910704000000003,95.6104248,25.3803948,-0.9508628,-0.4516115999999999,0.2624784,-62.7888306,63.4975364,117.8925536,-8.604381599999998,-19.4189232,-11.6269486,-0.9054728,-0.3698768,0.0694258,-76.11284479999999,66.19159379999999,103.3455048,103.63874464897738,1.0848907835100083,24.213960739890503,0.9805660510254882,-13.324014200000004,2.694057399999994,-14.547048800000002
2837.701,-30.5477096,94.7915222,24.8072198,-0.9598182,-0.4407948,0.2362424,-66.513131,64.7397468,114.4146942,-4.794522799999998,-14.524576799999997,-6.6277894,-0.8825686000000001,-0.3391492,0.0310912,-75.68985740000001,66.0176284,103.9218384,102.63524441927603,1.0822945552464172,16.66968423304924,0.9460000931733782,-9.176726400000003,1.2778815999999935,-10.4928558
2857.684,-30.910826,94.5280746,24.6179638,-0.9696772,-0.4323314,0.2046485999999999,-70.58369,65.872377,110.5856552,2.0221716000000014,-6.798871799999999,-0.0328669999999995,-0.8849566,-0.3345367999999999,0.0105494,-75.4353866,66.0146622,104.1715378,102.45525947087124,1.0812332593422012,7.093300781185779,0.9461365357484932,-4.851696600000006,0.1422851999999963,-6.4141174
2877.668,-31.6114974,93.7077056,24.6475922,-0.9808058,-0.4190484,0.178896,-74.95377820000002,66.88854660000001,106.46126259999998,10.0847472,1.3867896000000013,4.9916438,-0.901828,-0.340617,0.0110164,-75.3285292,66.1490204,104.0848006,101.92116884113908,1.0814736971707637,11.337628469334073,0.9640721152185452,-0.3747510000000034,-0.7395262000000031,-2.376461999999998
2897.652,-32.3709234,89.7744644,24.136974,-0.9976782,-0.4058322,0.1518504,-79.4533876,67.766603,102.2215776,16.1602486,7.896774200000001,8.116527800000002,-0.9198404,-0.3536742,0.036426,-75.33269340000001,66.37261960000001,103.7409376,98.43741490892684,1.0877132477322504,19.73298510382452,0.9861636044256552,4.120694199999997,-1.393983400000002,1.5193600000000032
2917.636,-31.637471200000004,81.062239,22.7568614,-1.0072576,-0.394122,0.1130047999999999,-83.79840099999998,68.48437659999999,98.1526934,17.552250800000003,11.420472200000004,9.018737,-0.931684,-0.3611162,0.0656562,-75.4262054,66.6264846,103.2641066,89.9438208906135,1.087506371689288,22.800138387567795,1.0013744166678515,8.372195599999998,-1.8578919999999983,5.111413200000001
2937.62,-29.1327518,68.7175728,20.5812366,-0.9989178,-0.3933315999999999,0.0598055999999999,-87.698671,69.03349299999999,94.5154466,14.6966414,12.718959600000002,8.560516000000002,-0.9373258,-0.360473,0.085475,-75.6170822,66.8738066,102.7390806,77.42357095193222,1.0752317092174877,21.23783501049206,1.0078821432586451,12.0815888,-2.1596863999999982,8.223634
2957.603,-25.708000400000003,55.16105159999999,17.5310936,-1.0016566,-0.4105572,0.0599207999999999,-90.962088,69.41938480000002,91.495282,9.216102200000002,12.7484182,7.750128399999999,-0.9393832,-0.3566468,0.0903896,-75.9260406,67.1039366,102.2040464,63.332315140031184,1.0841880192420683,17.536339315245435,1.0088647164910862,15.0360474,-2.3154482,10.708764400000003
2977.588,-19.4573036,41.393316,14.5059166,-1.0031582,-0.4274041999999999,0.0814643999999999,-93.4666016,69.6847002,89.165036,4.331201600000002,12.825510400000002,7.632557,-0.938558,-0.3518405999999999,0.075428,-76.3634566,67.3326888,101.6392988,47.98348558894596,1.0934519527040223,15.540558248615133,1.0051727763704903,17.103145,-2.3520114000000008,12.474262800000002
2997.571,-11.480013,28.5266054,10.9498828,-1.0019836,-0.4400123999999999,0.1099288,-95.1645812,69.8602342,87.5348754,2.4977028000000017,14.320277400000004,7.7836156,-0.937577,-0.3487794,0.0516743999999999,-76.947064,67.5706984,100.9617368,32.64135180198905,1.0998483476789698,16.489194519400943,1.0016825567058258,18.217517200000003,-2.2895357999999986,13.426861400000002
3017.555,-3.4818690000000005,16.5260478,6.7597028,-1.0079274,-0.454723,0.139595,-96.0724166,69.9593354,86.58561540000001,5.171379200000001,16.860067000000004,8.104991000000002,-0.9379378,-0.345344,0.035758,-77.626837,67.8238998,100.1265394,18.1914059260238,1.114530131680952,19.408655316243905,1.0001342057788245,18.4455796,-2.1354356,13.540924000000004
3037.539,4.456037,4.6863422,2.1801372,-1.0174504,-0.4677572,0.1623862,-96.194345,69.98694780000001,86.31713859999999,9.720729600000002,18.8586448,7.4424334,-0.9434288,-0.3470524,0.0384946,-78.3247938,68.0659806,99.173471,6.824299756875696,1.1315349718689387,22.484013933511044,1.005974703083711,17.8695512,-1.9209671999999955,12.856332400000005
3057.522,11.8748236,-7.863977799999999,-2.8804232,-1.0222760000000002,-0.4771918,0.1637632,-95.4850982,69.93014539999999,86.78378000000001,13.495167,19.834433200000003,5.6232788000000005,-0.9473684,-0.3522068,0.043074,-79.012599,68.26833500000001,98.1492706,14.5310158000433,1.1399906226971694,24.640323398561165,1.0116382183175958,16.4724992,-1.661810399999996,11.3654906
3077.506,17.3189338,-21.7910008,-8.434497799999999,-1.0241498,-0.4798365999999999,0.1591092,-93.8783386,69.763881,88.0852936,15.541799200000003,19.7847504,2.785684400000001,-0.9512678,-0.3589054,0.0573537999999999,-79.6656952,68.4058624,97.1150162,29.0849434754924,1.1421215841863073,25.312919790885925,1.0183383385891154,14.2126434,-1.358018599999994,9.0297226
3097.49,21.5301388,-36.8435544,-14.1575332,-1.0275496,-0.4792268,0.1598786,-91.3803758,69.461986,90.2373184,15.062679000000005,18.503591400000005,0.0749538000000008,-0.9468244,-0.361122,0.0690474,-80.27385860000001,68.47722180000001,96.1363938,44.96031721287259,1.145023001094895,23.85943862347414,1.015703247393706,11.1065172,-0.9847641999999952,5.899075399999998
3117.474,25.7341368,-51.93719539999999,-19.8167786,-1.0301316,-0.4789894,0.1740914,-88.0900284,68.9968294,93.1414444,12.020796000000002,16.711251600000004,-2.127500999999999,-0.9396258,-0.3662149999999999,0.071994,-80.8696532,68.4896654,95.2353638,61.25702226635173,1.149308389504262,20.69521024336597,1.0110357096990392,7.220375199999998,-0.5071639999999974,2.0939193999999963
3137.458,29.1342192,-66.2885306,-25.3299172,-1.032271,-0.4844812,0.1968796,-84.1741686,68.3335938,96.6478424,8.549544200000003,15.566195400000003,-3.205280599999999,-0.9305646,-0.3706888,0.0670544,-81.4910888,68.4691346,94.381601,76.71099479774486,1.157180637364193,18.04646693908454,1.0039207905895564,2.6830797999999985,0.135540800000001,-2.266241400000001
3157.441,32.2592222,-79.6580124,-30.593627,-1.0377683999999998,-0.4893962,0.2354896,-79.8190966,67.4399566,100.583226,5.520241800000003,15.464879000000002,-3.6821818,-0.9272292,-0.3770906,0.0576242,-82.17868960000001,68.4319366,93.5228318,91.22514110420798,1.1712929797113785,16.828369345345365,1.002632464249308,-2.359593000000001,0.991980000000001,-7.060394200000002
3177.425,37.4361696,-92.1440658,-35.3555394,-1.0453484,-0.4995138,0.2692988,-75.18864160000001,66.2920676,104.7440552,3.101748200000002,15.957798400000003,-4.448668799999999,-0.9288514,-0.3849842,0.0590365999999999,-82.9310912,68.3741212,92.644922,105.55571904326,1.1894490983032606,16.854163454865965,1.0072055786537124,-7.742449600000002,2.082053599999999,-12.099133200000002
3197.409,43.3107218,-103.9572724,-39.913353,-1.0524172,-0.5068424,0.3020326,-70.4525888,64.86277220000001,108.9480958,0.2272038000000023,15.590405200000005,-5.798043399999999,-0.9320186,-0.3903106,0.0644326,-83.7085068,68.2834016,91.79928,119.48225330728997,1.2065218078246078,16.635193510602907,1.0124981951396654,-13.255918000000005,3.4206294,-17.1488158
3217.393,47.5866692,-115.8972138,-43.926477,-1.0584682,-0.5132112,0.3233256,-65.747944,63.1321974,113.09021,-3.264990199999997,14.384557400000002,-8.1333592,-0.9342434,-0.3995537999999999,0.0732374,-84.4802476,68.1360382,91.0312304,132.76366458404448,1.2199508636957637,16.844203290040628,1.0187333735069053,-18.7323036,5.003840800000002,-22.058979600000004
3237.377,50.847181,-127.864473,-47.452217,-1.0627958,-0.5164288000000001,0.3480956,-61.1801438,61.0946318,117.0811264,-7.696802999999997,12.400336600000005,-11.000025399999998,-0.930113,-0.4027202,0.074841,-85.23663939999999,67.92314160000001,90.3726626,145.55573561158482,1.231829600515607,18.27593179607414,1.0163143842030575,-24.0564956,6.828509799999999,-26.708463800000004
3257.361,53.2678138,-139.4137116,-50.5474518,-1.0576312,-0.5225776,0.3758924,-56.8603654,58.76387999999999,120.816484,-11.3551362,10.594061000000002,-13.713221399999998,-0.9222218,-0.4065438,0.0718366,-85.97185499999999,67.648282,89.8140368,157.5712151777499,1.2381301222460264,20.717762614666896,1.010411503701952,-29.1114896,8.884402,-31.0024472
3277.344,54.5680076,-150.0009752,-53.6161614,-1.0459636,-0.5248016000000001,0.4187812,-52.8509292,56.1497916,124.2489258,-13.626145599999996,10.007074400000002,-15.8122056,-0.9120274,-0.4107695999999999,0.0600636,-86.7219954,67.3260316,89.28811660000001,168.3824598277847,1.2429136194285426,23.14820139657088,1.0020645082427977,-33.8710662,11.176240000000002,-34.9608092
3297.328,54.70782380000001,-158.9696412,-56.4521462,-1.0173786,-0.5247592,0.461172,-49.2143142,53.277606000000006,127.3301362,-14.682465799999996,11.179718000000005,-17.4458554,-0.9081108,-0.4231954,0.0468156,-87.5436674,66.96483459999999,88.70748760000001,177.34468590508925,1.23414385195025,25.395250878174107,1.00297122195064,-38.3293532,13.6872286,-38.6226486
3317.312,54.6242346,-165.84628600000002,-59.5070054,-0.9816277999999998,-0.5298602000000001,0.5059006,-45.9809226,50.1783926,130.0217774,-14.5515474,13.7825698,-19.2856964,-0.9095758,-0.4374244,0.0335038,-88.4711606,66.56098019999999,88.0081222,184.47189834038485,1.2248593332939255,27.81447191048738,1.0098468924918471,-42.490238,16.3825876,-42.0136552
3337.296,55.107282,-171.2160156,-62.5953286,-0.9373064,-0.533003,0.5435366,-43.1245718,46.8864906,132.329448,-14.130209999999996,16.915463800000005,-21.4761818,-0.9117264,-0.4481414,0.0219482,-89.5126784,66.1086424,87.1735548,190.44661112739428,1.2075046670839498,30.77372474888052,1.016148348586052,-46.3881066,19.2221518,-45.1558932
3357.28,55.142253,-175.5894042,-65.5830674,-0.889503,-0.5303208,0.5782459999999999,-40.6092152,43.433590800000005,134.290976,-14.3544394,20.220503800000003,-22.751487,-0.9090924,-0.4543453999999999,0.0173826,-90.6688216,65.625778,86.2143614,195.38025914308727,1.1860961910560377,33.653363355320906,1.0164550600108595,-50.0596064,22.1921872,-48.0766146
3377.264,54.36716220000001,-179.0799986,-68.079554,-0.8362482,-0.5275034,0.6086244000000001,-38.4037266,39.851185,135.9496978,-14.955530399999995,23.403311400000003,-21.9105176,-0.9001338000000001,-0.4609708,0.0049482,-91.945436,65.1495146,85.1332182,199.14883855321887,1.1610316745421547,35.375890879674024,1.0113156881203416,-53.5417094,25.2983296,-50.8164796
3397.247,52.9768966,-181.548175,-69.7652724,-0.7808412,-0.5241728,0.6420688,-36.4695248,36.1734926,137.35381460000002,-14.573390199999997,27.179027800000007,-19.5125058,-0.8852394,-0.4597308,-0.0162238,-93.3570266,64.7065748,83.8934812,201.577490440386,1.138737216310559,36.49412468699123,0.9976293978564584,-56.8875018,28.533082200000003,-53.4603334
3417.231,51.272889,-183.1801056,-70.47819820000001,-0.7193712,-0.5155072,0.6701083999999999,-34.7628056,32.434989400000006,138.55411680000003,-12.070891999999995,32.470155600000005,-15.603459,-0.8743312,-0.464526,-0.0367862,-94.9174592,64.3145392,82.4303252,202.8571829035195,1.110084620374429,37.99322796405376,0.9907535901927784,-60.1546536,31.8795498,-56.1237916
3437.215,48.8471642,-183.7018768,-70.6162032,-0.6523546,-0.5031748,0.696812,-33.259427800000005,28.665398600000003,139.5843688,-7.517572599999997,38.4431414,-10.130382399999998,-0.8746496,-0.4612706,-0.0587614,-96.6248338,64.003167,80.7008438,202.77838431304212,1.0790265830090564,40.460025532207645,0.9905732639913516,-63.36540599999999,35.337768399999995,-58.883525
3457.199,46.131559800000005,-183.639508,-70.5809476,-0.5925163999999999,-0.4896808,0.7247404000000001,-31.9324926,24.881471800000003,140.4728484,-0.961790399999997,43.8055408,-5.190972,-0.8792232,-0.461679,-0.0789055999999999,-98.4133944,63.7573656,78.73309320000001,202.0724124470656,1.056461839135593,44.1225184668643,0.9961962799421608,-66.4809018,38.87589379999999,-61.73975519999999
3477.183,43.5576616,-183.2974578,-70.138281,-0.5387786,-0.4757474,0.7469488,-30.7535522,21.0796728,141.24720459999998,5.776227200000003,48.454123,-0.9823968,-0.8814888,-0.4517971999999999,-0.0913794,-100.248862,63.5640062,76.5595902,201.0338438712195,1.0366052663604213,48.80708903261697,0.9947328330751126,-69.4953098,42.4843334,-64.6876144
3497.167,41.5492448,-183.0811522,-69.4295012,-0.4892744,-0.462661,0.767183,-29.6941604,17.263072799999996,141.93096,11.128443400000004,51.55680540000001,1.4943092,-0.89498,-0.4532942,-0.0908456,-102.0698352,63.385940000000005,74.2749986,200.1636921901939,1.020791063296187,52.76532379835907,1.007331998495531,-72.3756748,46.1228672,-67.6559614
3517.15,39.7740364,-183.0146026,-68.474983,-0.4353148,-0.4481555999999999,0.779424,-28.7333852,13.431842,142.5456694,15.203334000000002,51.2832458,3.250274,-0.8990602000000001,-0.4460658,-0.0962828,-103.77592479999998,63.2195964,72.0220032,199.4119906957321,0.9989215127758536,53.58802987210716,1.008243184320886,-75.0425396,49.7877544,-70.52366620000001
3537.134,37.134758,-183.13508600000003,-67.2988784,-0.3777558,-0.4330579999999999,0.7933977999999999,-27.875642400000004,9.5931854,143.110144,18.089588000000003,50.1910844,3.4456398,-0.8978498,-0.4426594,-0.1040726,-105.3521302,63.035341800000005,69.84510639999999,198.6116537614144,0.9796523591777238,53.46260918519608,1.006435648136114,-77.4764878,53.44215640000001,-73.2650376
3557.118,34.50476139999999,-183.3161468,-65.822683,-0.312552,-0.4167002,0.8058426000000001,-27.109140000000004,5.756674,143.64151299999995,21.683855,48.4474182,3.2572922,-0.8954677999999999,-0.448966,-0.1172518,-106.7593842,62.8293748,67.7731522,197.80802267397692,0.9595364012682376,53.17849048612509,1.008553932418133,-79.6502442,57.07270080000001,-75.8683608
3577.102,32.8116354,-183.154245,-64.2750298,-0.2413656,-0.4056974,0.8110899999999999,-26.414354600000003,1.9499824,144.146231,24.778078800000003,45.55377800000001,1.9116254,-0.9038872,-0.4507928,-0.1277578,-107.9571182,62.5962868,65.86352459999999,196.85873192452868,0.9384640223951688,51.89175455467101,1.0181101484203563,-81.5427636,60.646304400000005,-78.2827064
3597.086,31.593102800000004,-182.4486878,-62.97444840000001,-0.1654045999999999,-0.388086,0.8055336000000001,-25.7748714,-1.8216484,144.6216034,27.625447600000008,42.4047462,0.0194523999999999,-0.9011762,-0.4526824,-0.1380008,-108.9343918,62.3295998,64.1342346,195.5797253698795,0.9093150201256548,50.60956662314573,1.0178821736904715,-83.15952039999999,64.15124820000001,-80.4873688
3617.069,30.086561,-181.1138184,-62.0098282,-0.0879956,-0.376107,0.8039111999999999,-25.1954878,-5.552733,145.06286319999998,30.954318,39.1426556,-2.5492592000000003,-0.9010238000000002,-0.4603951999999999,-0.1463968,-109.6693498,62.0214828,62.5987244,193.78502305810017,0.8918928851346444,49.96814998310544,1.0223696256245685,-84.473862,67.5742158,-82.4641388
3637.053,29.8347346,-179.51396499999998,-60.8363518,-0.0109979999999999,-0.3670768,0.7866380000000001,-24.650472200000003,-9.2485472,145.477954,34.6554944,34.8530662,-5.3513696,-0.899423,-0.4663452,-0.1540967999999999,-110.1205644,61.6800788,61.29667979999999,191.87609731023565,0.8681392032077806,49.44063786244893,1.0247855396434318,-85.4700922,70.92862600000001,-84.18127419999999
3657.037,29.7582862,-177.1579256,-59.6281112,0.0675332,-0.3534462,0.7684756,-24.128067800000004,-12.905124,145.86381219999998,36.5818876,29.9490066,-7.46104,-0.8965954,-0.4580246,-0.1580301999999999,-110.3224596,61.3344328,60.2316574,189.27756825819537,0.8485515288961774,47.862768563754,1.0191385527092771,-86.1943918,74.2395568,-85.6321548
3677.021,28.9662944,-174.15802019999998,-58.01958,0.147874,-0.3370106,0.746298,-23.642025,-16.5166714,146.22776779999998,38.240193600000005,24.848379800000004,-9.1493086,-0.8895294,-0.459937,-0.1594663999999999,-110.2831804,60.991342800000005,59.4009644,185.83953797463948,0.8321079071805292,46.51305443752929,1.0140188016808762,-86.6411554,77.5080142,-86.8268034
3697.005,28.0879578,-170.5167206,-56.0484276,0.2224638,-0.3293122,0.7257307999999999,-23.1972908,-20.0662506,146.57697439999998,39.53856040000001,18.8358468,-9.6714698,-0.8853452,-0.4569364,-0.1591543999999999,-110.001999,60.6835784,58.8155632,181.676392561019,0.8274187944734637,44.85113389056994,1.0089386105444471,-86.80470820000001,80.749829,-87.7614112
3716.989,27.9003984,-166.389563,-53.496898,0.2871286,-0.312596,0.6985551999999999,-22.77683,-23.5365848,146.922348,38.2326088,12.839276000000002,-9.8740902,-0.8816598000000001,-0.4409778,-0.155221,-109.54563600000002,60.4239096,58.460968,176.99106475139388,0.8173973694605335,41.52200670892183,0.9979373637006884,-86.76880600000001,83.9604944,-88.46138
3736.973,26.8648506,-161.27029720000002,-50.673829,0.345972,-0.2923502,0.6799928,-22.3906616,-26.9036216,147.2627258,35.9103736,7.189088400000003,-9.0543614,-0.8825086000000001,-0.4367846,-0.1530992,-108.9618042,60.22361980000001,58.3066246,171.1656095781448,0.8170406796946404,37.72557997534831,0.9965147168565852,-86.5711426,87.1272414,-88.9561012
3756.956,25.3631878,-155.72891839999997,-47.6379976,0.3949784,-0.2794518,0.6519858,-22.0548076,-30.1541182,147.6061462,33.011051,2.841899200000003,-8.366578399999998,-0.8773382,-0.426611,-0.1480224,-108.3064086,60.07169660000001,58.3023194,164.81555186556128,0.8119031521009387,34.17316949466216,0.9867268585591455,-86.25160100000001,90.2258148,-89.3038268
3776.94,23.6375302,-149.60951219999998,-44.6596498,0.438685,-0.2621141999999999,0.6276407999999999,-21.768154000000003,-33.275822999999995,147.95023500000002,29.028435,-0.5663561999999971,-7.106135,-0.8759608,-0.4262034,-0.1470082,-107.6398208,59.96648259999999,58.40435560000001,157.912074569795,0.8093709637065565,29.89093428671524,0.9851741329203888,-85.8716668,93.2423056,-89.54587940000002
3796.924,21.764038,-142.8889648,-41.7363412,0.4784468,-0.2451346,0.6056238,-21.5304202,-36.2553172,148.2927672,25.186895600000003,-2.836328199999997,-5.732470999999999,-0.8728769999999999,-0.4253368,-0.144976,-106.995967,59.9016792,58.5703086,150.44218752877765,0.8098039884279653,25.986259665239547,0.9817554130939334,-85.4655468,96.1569964,-89.72245860000001
3816.908,19.633855,-135.8890274,-38.8301468,0.5173082,-0.2271442,0.5852042,-21.345171200000003,-39.0878364,148.634326,21.696153200000005,-3.893446999999997,-3.9778518,-0.8685378,-0.4275724,-0.1474668,-106.4143784,59.874096,58.7473938,142.68530523634357,0.8134286797737832,22.39877894355946,0.979245895765124,-85.06920720000001,98.9619324,-89.8869322
3836.892,17.8098344,-128.8030502,-36.215679,0.5550504,-0.214339,0.5559818,-21.2093826,-41.7770348,148.9755248,18.276134800000005,-3.766752199999997,-2.1326028,-0.8583225999999999,-0.4323806,-0.1460636,-105.9266282,59.8762284,58.89574280000001,134.97774389731882,0.8143328038292452,18.78173368106746,0.9721138020685026,-84.7172456,101.6532632,-90.079782
3856.875,15.962427600000002,-121.1979064,-33.7902358,0.594834,-0.195138,0.5345338,-21.1070324,-44.314007,149.30252679999998,15.096416800000004,-3.0241383999999973,-0.0690357999999996,-0.8540764,-0.4423359999999999,-0.1494708,-105.5519548,59.9069176,58.988282000000005,126.8286704418524,0.8231844932592207,15.396492431828705,0.973369998502933,-84.4449224,104.2209246,-90.3142448
3876.859,14.285058800000002,-113.0805816,-31.579378799999997,0.633089,-0.1867842,0.504874,-21.0399442,-46.692724000000005,149.615921,13.046031600000005,-1.8677687999999968,0.6566868000000003,-0.8527486,-0.4490862,-0.1467622,-105.2616776,59.9412628,59.0300354,118.27314997626304,0.8310161100524105,13.195405956307154,0.974883445946868,-84.2217334,106.6339868,-90.5858856
3896.843,12.7808452,-104.6854262,-29.3673858,0.6710376,-0.1748506,0.4745544,-20.9978044,-48.9095804,149.9108552,10.304730800000003,-0.4628473999999972,0.6894854000000002,-0.8551672,-0.4598538,-0.1450295999999999,-105.0704668,59.9639854,59.019792200000005,109.47525661731991,0.8402773777113602,10.338137873571268,0.9817382758181736,-84.0726624,108.8735658,-90.891063
3916.827,10.9610484,-95.852786,-27.2997714,0.7095024,-0.169499,0.4464381999999999,-20.9845536,-50.9561494,150.18283100000002,7.875808200000003,-0.0028133999999971,0.8636924000000004,-0.8564244000000001,-0.4681639999999999,-0.1425106,-104.940648,59.9839424,58.9935738,100.26554086265726,0.8552371793987911,7.923025134393088,0.9863820532246722,-83.95609440000001,110.9400918,-91.1892572
3936.811,9.320153800000002,-86.5850858,-24.937514200000003,0.7466364,-0.1650778,0.4165497999999999,-20.9952294,-52.811918000000006,150.4336398,5.548679400000003,0.2950388000000029,0.3611608000000004,-0.8548490000000001,-0.4740955999999999,-0.1413992,-104.8607926,59.989299,58.9628014,90.58544013429652,0.8707642216684376,5.568242819862157,0.98768779708013,-83.86556320000001,112.801217,-91.4708384
3956.795,7.827850000000001,-76.58706040000001,-22.42509,0.7819516,-0.1699308,0.3908464,-21.0281846,-54.466726,150.6635562,3.3709152000000024,0.5415240000000029,-0.2130929999999997,-0.8503653999999999,-0.4813906,-0.1416533999999999,-104.8262314,59.977403200000005,58.9296204,80.18564533533325,0.8905535862171124,3.42077858897884,0.9873823519878608,-83.79804680000001,114.4441292,-91.7339358
3976.778,6.509096,-66.0538864,-20.0273332,0.8112272,-0.1680202,0.3751826,-21.0572522,-55.9096178,150.85173059999997,2.159651000000003,1.2963334000000029,0.2798420000000003,-0.8456956,-0.4832538,-0.1426722,-104.8461702,59.968908,58.8616608,69.32949094278092,0.9094406747944804,2.5343409933788665,0.9844240141964438,-83.788918,115.8785258,-91.9900698
3996.762,5.2551564,-55.170128,-17.6263604,0.8374432,-0.1660798,0.3625087999999999,-21.071355,-57.1332116,150.9884158,2.0672168000000037,1.763051000000003,1.2276814000000005,-0.8431277999999999,-0.4785272,-0.1404362,-104.8904618,59.9781328,58.76727459999999,58.15538043272981,0.92752695015925,2.98143182828473,0.9795790394568066,-83.8191068,117.1113444,-92.2211412
4016.746,4.4692524,-44.2889922,-14.8922456,0.8577566000000001,-0.1681492,0.3522116,-21.071106800000003,-58.133391800000005,151.0854738,1.774308400000003,2.250493200000003,2.4461968000000005,-0.843276,-0.4788882,-0.1377546,-104.9642686,60.008426,58.6445252,46.93898194589744,0.9423765433619196,3.7678599663319594,0.9795022460905336,-83.89316179999999,118.14181779999998,-92.4409486
4036.73,2.948437,-33.6143338,-12.017689399999998,0.8720247999999999,-0.1691116,0.3540459999999999,-21.0735062,-58.9181252,151.1469606,2.5764504000000032,1.9285874000000027,4.3874482,-0.8433592000000001,-0.4792478,-0.135855,-105.0258928,60.0775362,58.516555,35.819569736048805,0.9562293423575748,5.441254242431811,0.9794844434979456,-83.9523866,118.99566140000002,-92.6304056
4056.714,1.5132461999999998,-23.8484954,-8.8626468,0.8791188,-0.1639653999999999,0.35486,-21.0832898,-59.4959946,151.1844514,4.155432400000004,1.579717800000003,6.430867600000001,-0.8464713999999999,-0.4776646,-0.132731,-105.0594224,60.18915500000001,58.3836692,25.48699972941472,0.9621123305054352,7.817875980554847,0.980966268264164,-83.9761326,119.6851496,-92.8007822
4076.698,0.3796373999999999,-15.2450172,-5.3188784,0.8871124,-0.1604938,0.3597606,-21.1177034,-59.88304599999999,151.2258606,5.527871400000003,1.305871800000003,7.901388200000001,-0.847927,-0.4790926,-0.1312854,-105.0681274,60.32927480000001,58.2473892,16.150700957474296,0.9706463616500914,9.73111498545118,0.9827236503498428,-83.950424,120.2123208,-92.9784714
4096.682,-0.4920246,-7.2910938,-1.7752832,0.8925240000000001,-0.1633402,0.3623522,-21.1862684,-60.092502,151.28616319999998,6.378821200000003,1.5544622000000028,8.008989600000001,-0.8560217999999999,-0.4792896,-0.1225024,-105.060321,60.472068,58.1080292,7.520223896108802,0.9770251933071532,10.356139582185367,0.9886853294902074,-83.8740526,120.56457,-93.178134
4116.665,-0.9927306,0.3941721999999998,1.4861226,0.8983140000000001,-0.1615388,0.3633278,-21.2709546,-60.1348878,151.3544402,6.179626600000002,1.9931780000000032,7.1609514,-0.862626,-0.4758512,-0.119088,-105.061621,60.5988158,57.9622018,1.8301492151351924,0.9823797212658046,9.666424799700952,0.9923406331302976,-83.7906664,120.73370359999998,-93.3922384
4136.649,-0.7813122,7.7418022,4.399521,0.9003886,-0.159144,0.3618946,-21.3502106,-60.02105279999999,151.4221128,5.181967600000003,4.1744372000000025,6.4283606,-0.8612702000000001,-0.4706827999999999,-0.1215223999999999,-105.1558546,60.7004766,57.733895200000006,8.938777046511154,0.9833586046072512,9.252163754918415,0.9889875374976372,-83.805644,120.7215294,-93.6882176
4156.633,-0.6301996,15.2140098,7.193324200000001,0.9003082000000001,-0.1644045999999999,0.3585062,-21.4281502,-59.75008340000001,151.4898526,4.473122400000003,8.858472600000002,5.795946000000001,-0.8585362,-0.4664753999999999,-0.1294143999999999,-105.4296416,60.7632474,57.3185404,16.840640094029734,0.9829091631106306,11.492360542780087,0.9856123946272995,-84.00149139999999,120.51333080000002,-94.1713122
4176.617,-0.9348690000000002,23.0710908,9.5241502,0.8940656,-0.1634696,0.3605306,-21.485329,-59.3168306,151.5271422,3.6846680000000034,14.376999000000003,5.211154800000001,-0.8646552,-0.4661994,-0.1302787999999999,-105.9015198,60.7834798,56.69345500000001,24.97716252461768,0.9777821438152162,15.729940014691351,0.9909304017825066,-84.4161908,120.1003104,-94.8336872
4196.601,-1.404473,31.1878164,11.5948538,0.8839886,-0.1650539999999999,0.3657378,-21.5164254,-58.716951,151.5230194,2.378021600000003,18.1507542,5.329936600000001,-0.8631486,-0.4664836,-0.138097,-106.533336,60.7803014,55.9157754,33.30304897229699,0.9707949351921856,19.066019220563685,0.9908093843721504,-85.01691059999999,119.4972524,-95.607244
4216.584,-2.5846336,39.9551808,13.2567002,0.8704277999999999,-0.1658551999999999,0.3691018,-21.5184762,-57.943238,151.4564148,1.872598600000003,22.573469800000005,5.5665342,-0.8552634000000001,-0.4629542,-0.1536158,-107.339438,60.749504,54.952843400000006,42.17625995509344,0.9598899109497504,23.32497518386684,0.9845810726836264,-85.82096179999999,118.692742,-96.5035714
4236.568,-4.3541896,49.0799474,14.8383814,0.850473,-0.1667196,0.3786266,-21.4981394,-56.986418,151.321045,1.783276000000003,26.532144400000004,6.2757654,-0.8567926,-0.4640373999999999,-0.1601532,-108.286403,60.7010574,53.829411400000005,51.458505287574965,0.9457578183555873,27.32251802287748,0.9874580069470094,-86.78826360000001,117.6874754,-97.4916336
4256.552,-6.314277000000001,58.0196588,16.336995,0.8277102,-0.1656388,0.396151,-21.4579744,-55.8475516,151.1158936,0.6602476000000032,28.186474800000003,6.8763652,-0.864765,-0.4625578,-0.158103,-109.3040758,60.647252,52.646727,60.60567883401003,0.93245697061606,29.02064242755684,0.99336538200948,-87.8461014,116.4948036,-98.4691666
4276.536,-7.726026,66.77284180000001,18.3004782,0.8054745999999999,-0.1712858,0.412652,-21.4134718,-54.527596200000005,150.86885379999998,-1.399655399999997,27.951295800000004,7.4235592,-0.8674982,-0.4590258,-0.1616044,-110.3529176,60.5969668,51.4735534,69.66499395068645,0.9210916510482547,28.9541569266617,0.9946727070590808,-88.9394458,115.124563,-99.3953004
4296.52,-8.726111399999999,75.1318758,20.7378724,0.7798700000000001,-0.1754544,0.4308948,-21.3737138,-53.0301514,150.60068959999998,-4.439501799999997,25.628593,7.230516,-0.8670894,-0.4553354,-0.1665538,-111.3772858,60.5542194,50.3970704,78.42833118886642,0.9081034038293216,26.99656120727431,0.9934357162795991,-90.00357199999999,113.58437080000002,-100.2036192
4316.503,-9.7617186,82.91253220000002,23.7406074,0.7538282,-0.1775939999999999,0.4521119999999999,-21.3592294,-51.3619996,150.335971,-7.590994399999997,21.7980046,7.244793000000001,-0.8736613999999999,-0.4593003999999999,-0.1636416,-112.3213426,60.5345966,49.480945000000006,86.79513572523842,0.8967730172653724,24.1922141635548,1.000509706370048,-90.9621132,111.8965962,-100.855026
4336.487,-11.6259626,90.1250566,26.5868554,0.7289104,-0.1842734,0.4774433999999999,-21.3918626,-49.5335558,150.0789612,-11.721474399999996,14.931243000000004,5.696382,-0.8854984,-0.4597521999999999,-0.1618842,-113.0910006,60.5368694,48.85711980000001,94.68130604079302,0.8906285743110199,19.81877260389322,1.010784841604305,-91.699138,110.0704252,-101.2218414
4356.471,-13.1587304,96.6655992,29.6097798,0.702132,-0.1920079999999999,0.505212,-21.4724386,-47.555494800000005,149.83938600000002,-15.429216999999998,6.477686400000005,4.0001596,-0.8902576,-0.4595486,-0.1621072,-113.6297074,60.5710314,48.5822076,101.9516028036804,0.886056195978562,17.205302530188362,1.0149001204116392,-92.1572688,108.1265262,-101.2571784
4376.455,-13.989808,102.3939912,33.0299074,0.671693,-0.204372,0.5400468,-21.5968244,-45.436238200000005,149.63207699999998,-19.4226234,-3.775250199999997,2.274056,-0.8892876000000001,-0.458267,-0.165578,-113.8899064,60.6522874,48.7188676,108.49524848856338,0.8857708207111138,19.916378799921524,1.0140301538350622,-92.293082,106.0885256,-100.9132094
4396.439,-13.9756406,107.589354,36.722817000000006,0.6453962,-0.2167548,0.5569448,-21.7562818,-43.193805000000005,149.4671754,-21.4538678,-12.374923599999995,1.3932958000000002,-0.8922166,-0.4593572,-0.1642895999999999,-113.8916748,60.7852754,49.197255,114.5397438129367,0.8796058256654057,24.80621798807733,1.0168827715993425,-92.135393,103.9790804,-100.2699204
4416.423,-14.578585,112.0995834,39.85504160000001,0.6139208,-0.2247928,0.587907,-21.947344800000003,-40.8382898,149.3291688,-23.8165568,-20.5421096,0.2399284,-0.8980551999999999,-0.4562948,-0.163787,-113.6532988,60.962709800000006,50.0045838,119.8635727816984,0.8792412594126142,31.452570805312,1.0205558623236064,-91.705954,101.8009996,-99.32458499999998
4436.406,-14.6152344,116.12731319999996,42.9694192,0.5817712,-0.2389542,0.6125672,-22.166076,-38.3811738,149.22335199999998,-24.3268556,-28.019177,-1.1632425999999998,-0.8982806,-0.461556,-0.1626987999999999,-113.1489958,61.1660216,51.1261368,124.68171050319756,0.8779495505795991,37.124430184004645,1.0229432423129838,-90.9829198,99.5471954,-98.0972152
4456.39,-14.2672604,119.563658,45.9583878,0.5439314,-0.251045,0.650681,-22.3971818,-35.8291376,149.1458772,-25.2782472,-34.0021098,-1.6067519999999995,-0.8955462000000001,-0.4569348,-0.1593292,-112.449037,61.4022194,52.4919768,128.8844305679998,0.8844606965218749,42.39946820828144,1.0179283873427052,-90.0518552,97.231357,-96.6539004
4476.374,-13.7290704,122.6086256,48.4364196,0.5064718,-0.267053,0.6676219999999999,-22.6339424,-33.200578,149.0878786,-24.640674999999995,-37.1641392,-1.5800793999999998,-0.8930884000000001,-0.4575882,-0.1537793999999999,-111.613629,61.6526444,53.9952072,132.5422543539848,0.8795169832858487,44.61874894977341,1.0152053757039312,-88.97968660000001,94.8532224,-95.0926714
4496.358,-13.979163,125.372824,50.1251396,0.4647056,-0.279765,0.7000949999999999,-22.8736434,-30.4989854,149.0274262,-23.3994244,-39.6675874,-1.6534208,-0.8931592,-0.4500704,-0.1530432,-110.655252,61.909861,55.6092628,135.74347724968234,0.885636922740555,46.08453485422009,1.0117899695920296,-87.7816086,92.4088464,-93.4181634
4516.342,-14.1766142,127.9023712,51.58226620000001,0.4173298,-0.2998114,0.7293244000000001,-23.122503,-27.7292504,148.9666382,-20.945415399999995,-41.7922196,-1.4445484,-0.8880752000000001,-0.4506165999999999,-0.147255,-109.55557860000002,62.1690652,57.324942,138.63882261143843,0.8921687721352727,46.76950679078328,1.006686106030872,-86.43307560000001,89.8983156,-91.6416962
4536.326,-13.773342,129.59311979999998,53.0525092,0.3606854,-0.3116646,0.7728192,-23.3623742,-24.9006692,148.90793779999998,-20.1641258,-41.8911148,0.3523284,-0.887772,-0.4375416,-0.139345,-108.4397842,62.4518022,59.0386956,140.70767705339392,0.9080078725181628,46.49281238822245,0.9994992770080228,-85.07741,87.3524714,-89.8692422
4556.309,-12.7171466,130.8698822,54.1889824,0.3092676,-0.3329702,0.7792116,-23.5936082,-22.03514,148.8541688,-18.520845,-42.9395362,1.0887746,-0.8865908000000001,-0.4455398,-0.134683,-107.2348038,62.732396,60.8122126,142.21497002156727,0.9020456308149604,46.776178752809,1.001343332987083,-83.64119559999999,84.76753599999999,-88.0419562
4576.293,-12.806090800000002,131.8999756,54.7976128,0.253413,-0.3406521999999999,0.8039350000000001,-23.8214082,-19.1362938,148.79078680000003,-16.0827662,-43.1432844,1.9837416,-0.8885242,-0.4430878,-0.1276444,-105.95968779999998,63.0152962,62.6070008,143.40285176187106,0.9091609066380054,46.0861539749057,1.0010470245427234,-82.1382796,82.15159,-86.18378600000001
4596.277,-13.915799800000002,132.36277760000002,55.22835239999999,0.1928134,-0.3509955999999999,0.8360098,-24.067103,-16.212979,148.719156,-14.534000599999995,-42.3907034,3.0926674,-0.88643,-0.4435719999999999,-0.1193364,-104.6656494,63.295116400000005,64.38444,144.09623619955985,0.9269775100480916,44.91963379007663,0.9983764021895548,-80.5985464,79.5080954,-84.334716
4616.261,-13.9077996,131.732913,55.938978,0.1326651999999999,-0.3642754,0.853393,-24.3186606,-13.285741000000002,148.65518500000002,-12.502822599999998,-40.350753,5.205546200000001,-0.8827592000000001,-0.4348219999999999,-0.1108666,-103.4046752,63.59048839999999,66.0763566,143.79205999242035,0.9373239753602808,42.56291286876891,0.9902653078161427,-79.08601459999998,76.8762294,-82.5788284
4636.245,-13.660851400000002,130.640515,56.4006326,0.0805388,-0.3739528,0.8589632,-24.5710456,-10.3722144,148.5986908,-10.208082999999997,-39.1208892,6.215765,-0.8883257999999999,-0.434316,-0.0967973999999999,-102.1183394,63.883572400000006,67.74006820000001,142.94962181873126,0.9402898350442378,40.90580233742874,0.9935405635646688,-77.5472938,74.2557868,-80.8586226
4656.229,-13.565852,129.5638258,56.3602624,0.0294103999999999,-0.3829384,0.8766498,-24.8221086,-7.476141199999999,148.537732,-8.711348799999996,-36.354898,7.3326206,-0.8923745999999999,-0.4292333999999999,-0.0908832,-100.8974792,64.17237479999999,69.2948564,141.9411725829243,0.9570902056038189,38.0963716299756,0.9944010732309976,-76.0753706,71.648516,-79.2428756
4676.212,-12.5826302,128.0820128,56.407206,-0.0218326,-0.3927686,0.8926143999999999,-25.05585,-4.6052874,148.4791076,-7.963268799999997,-35.1580498,8.346449400000001,-0.8971506,-0.4302443999999999,-0.076898,-99.6814116,64.46094819999999,70.8226442,140.5172497395809,0.9754508202139562,37.00223416642695,0.997949269860808,-74.6255616,69.0662356,-77.65646339999999
4696.199,-11.301457,126.0753006,56.0958358,-0.0704774,-0.3990856,0.8942370000000001,-25.268281,-1.7736974,148.4221862,-5.622118999999997,-33.8819192,9.5779496,-0.8953972,-0.4297794,-0.0711636,-98.4534636,64.7521622,72.30877699999999,138.45377259505705,0.9817821510941824,35.6557118743355,0.99574632130737,-73.18518259999999,66.5258596,-76.1134092
4716.18,-11.0882978,124.1116074,55.2583922,-0.1107184,-0.4051935999999999,0.8903420000000001,-25.4818422,1.0109054,148.35707699999998,-5.075846799999997,-33.2219308,9.6419706,-0.9031694,-0.4331842,-0.0530786,-97.1993988,65.027742,73.8056536,136.30895549464913,0.9844538051851494,34.963245042019814,1.0030856663336187,-71.7175566,64.0168366,-74.5514234
4736.164,-12.2224774,122.80068660000002,53.7589042,-0.1509974,-0.4188054,0.8971228,-25.726914800000003,3.7529022,148.2658508,-5.787594999999998,-31.475612799999997,10.1379248,-0.902533,-0.4298216,-0.0465108,-96.0119812,65.295108,75.2422426,134.60838519204407,1.00151260409231,33.57064158263889,1.000737567213403,-70.28506639999999,61.5422058,-73.02360819999998
4756.148,-12.5921956,121.342012,52.6863326,-0.1854172,-0.4255778,0.887819,-25.9899498,6.451743,148.15491319999998,-5.182451999999997,-30.908453599999994,10.4021442,-0.91009,-0.426914,-0.034925,-94.8086868,65.55591580000001,76.6794282,132.88452471629128,1.0018575640627163,33.021128336767205,1.005852438044965,-68.818737,59.1041728,-71.47548499999999
4776.132,-13.9583282,119.8854538,51.066085,-0.2226568,-0.4349459999999999,0.8838828,-26.2925362,9.1029796,148.0137328,-6.660939399999998,-29.4458304,10.4125076,-0.9070726,-0.419187,-0.0287928,-93.6770402,65.8034058,78.06845100000001,131.0538133600014,1.00995191847834,31.935017710283084,0.999663677429364,-67.384504,56.7004262,-69.9452818
4796.115,-14.6455698,118.693486,49.6980622,-0.2563648,-0.4451048,0.8707708000000001,-26.625624,11.7133154,147.8418608,-9.191627599999997,-27.4910836,10.4119736,-0.9093578,-0.4180374,-0.0181276,-92.6545396,66.03700260000001,79.3899948,129.50881715170567,1.0109811965584323,30.800241714739307,1.0010072357887132,-66.02891559999999,54.3236872,-68.451866
4816.099,-15.6082154,117.7453918,47.9176872,-0.2966814,-0.4497244,0.8658856,-26.9952674,14.2865816,147.6278868,-10.822113199999997,-25.2063308,10.7038522,-0.9111896,-0.4085306,-0.019517,-91.7585754,66.2688706,80.6086928,128.07692385713105,1.019818494315866,29.44570764019923,0.9987715712681854,-64.76330800000001,51.982289,-67.019194
4836.083,-16.1966934,116.7073028,46.2576842,-0.3383114,-0.4524468,0.8507206,-27.4002166,16.822709,147.372,-9.108287199999996,-24.0945396,10.8180128,-0.9206916,-0.4085029999999999,-0.0145835999999999,-90.8608566,66.49461679999999,81.79008160000001,126.580807200347,1.0212190017153815,27.938094695140105,1.0073531678157963,-63.46064,49.6719078,-65.58191839999999
4856.067,-17.7535606,115.7633026,44.5010978,-0.3825679999999999,-0.4577411999999999,0.8455410000000001,-27.8620436,19.322368,147.0681976,-7.410257399999996,-23.457588999999995,9.999872,-0.9264285999999998,-0.4064881999999999,-0.00317,-89.9324172,66.6954102,82.96447880000001,125.2863873221756,1.0348066792799708,26.554996449699622,1.0116880233239889,-62.0703736,47.3730422,-64.1037188
4876.051,-18.5351076,114.726178,42.9333344,-0.4263286,-0.4642138,0.823564,-28.3722934,21.786928600000003,146.71634839999996,-5.460741999999998,-23.3618896,9.6383274,-0.9237296,-0.398188,0.0094634,-88.941429,66.8818726,84.16095399999999,123.89074757597312,1.03706710939283,25.85526917173253,1.005942152014578,-60.5691356,45.094944,-62.55539439999999
4896.035,-19.7289088,113.3875808,41.3858428,-0.4727602,-0.4609982,0.8118438000000001,-28.9326664,24.21222,146.32017539999998,-5.125038599999998,-22.500933,9.8226068,-0.9254922,-0.3934316,0.0120512,-87.97249140000001,67.0661468,85.3256422,122.30601500491116,1.0464759446378689,25.08070196125669,1.0057183838236428,-59.03982499999999,42.8539268,-60.99453319999999
4916.018,-20.632693,112.0089234,39.9137246,-0.5099146,-0.463414,0.7840684,-29.5510728,26.5960712,145.87347119999998,-4.781827799999997,-22.1222556,9.1928544,-0.929891,-0.3968333999999999,0.0221406,-86.995398,67.2287184,86.48954,120.68476437854102,1.0438049102048332,24.428848559852007,1.0112686217840046,-57.4443252,40.6326472,-59.38393119999999
4936.002,-21.6531794,111.0975404,38.4594164,-0.5405856,-0.4642372,0.7685736,-30.2341526,28.9387566,145.3686036,-6.597866999999996,-21.6422926,7.9495488,-0.9351316,-0.3972132,0.0330468,-86.0619432,67.3589278,87.6433532,119.54350827580228,1.048071728179021,23.981576346380677,1.0165340754559289,-55.8277906,38.4201712,-57.72525039999999
4955.986,-21.982001200000003,110.09704000000002,36.929345,-0.5718732,-0.463047,0.7519096000000001,-30.9728168,31.238182800000004,144.7997712,-9.119159999999995,-20.67917,6.8884102,-0.9343848,-0.3951954,0.041392,-85.21712959999999,67.4612288,88.75411840000001,118.18774520079242,1.0520549071504774,23.627046918266444,1.0153657746429114,-54.2443128,36.223046,-56.04565279999999
4975.97,-22.2893076,109.3282884,35.528846,-0.5982527999999999,-0.4563746,0.7232746000000001,-31.7730704,33.5006306,144.1616638,-11.852214999999998,-19.7548112,6.3241196,-0.9267766,-0.3832504,0.0427556,-84.4679306,67.5510406,89.82019520000001,117.09733889313073,1.0437003091108863,23.889789757739067,1.0038046506861182,-52.6948602,34.05040999999999,-54.3414686
4995.954,-23.208669800000003,108.922368,33.493776000000004,-0.6275670000000001,-0.4586370000000001,0.693971,-32.668413,35.7248414,143.428247,-12.180627199999998,-18.492753,7.065276,-0.9146586,-0.3739563999999999,0.0312432,-83.797676,67.65616159999999,90.8114702,116.2951316064049,1.0420095902145048,23.24365972605357,0.9886454780158356,-51.129263,31.9313202,-52.6167768
5015.937,-23.9267382,109.256598,32.0842452,-0.6531154,-0.4562196,0.6658846,-33.662606200000006,37.9272608,142.5927796,-9.354569399999995,-16.208191,8.5000784,-0.9175036,-0.3737986,0.0270268,-83.1780134,67.79152079999999,91.6884828,116.35674366996813,1.0383151494890557,20.553947478721547,0.9910946964307498,-49.5154072,29.864259999999994,-50.9042968
5035.921,-24.3502918,110.0091614,30.6246592,-0.6862961999999999,-0.4583757999999999,0.6385196000000001,-34.7706716,40.111085,141.6344758,-5.205890399999998,-14.405222199999995,8.295767399999999,-0.9266354,-0.3803824,0.0312646,-82.5600584,67.9207672,92.4735582,116.7596764888998,1.0434644832212738,17.419284665079896,1.002158375695219,-47.7893868,27.8096822,-49.1609176
5055.905,-24.562528200000003,110.6319106,29.6078842,-0.7239988,-0.4530624,0.618375,-35.984663999999995,42.2778536,140.5586152,-2.1044651999999973,-12.708190199999995,7.7749348,-0.9226794,-0.3730058,0.03933,-81.9548004,68.0416352,93.1759996,117.12968983730298,1.0544322838950826,15.045812808939171,0.9960007283722236,-45.9701364,25.7637816,-47.3826156
5075.889,-24.7777756,110.0102186,28.6866874,-0.7608864000000001,-0.446065,0.5834922,-37.304978,44.412272,139.3735444,-0.2048213999999978,-11.317189599999995,8.0003552,-0.9249834,-0.37159,0.0364616,-81.3798036,68.16735220000001,93.8053742,116.35769159831705,1.057537349407008,13.860967339057296,0.9974983040838316,-44.0748256,23.7550802,-45.5681702
5095.873,-25.5030286,108.587445,28.134664800000003,-0.7869463999999999,-0.4405346,0.5316352,-38.748071200000005,46.504751600000006,138.0833498,1.7810576000000022,-10.056389799999998,7.482289199999999,-0.9296662,-0.3654468,0.0468413999999999,-80.8080324,68.2872008,94.385817,115.03563379583215,1.046896057949002,12.660481572850948,1.0000123618269126,-42.0599612,21.7824492,-43.6975328
5115.857,-26.888889400000004,107.1348326,27.425154000000003,-0.8144452000000001,-0.4442874,0.5036902,-40.3401894,48.5391364,136.6723848,2.488096800000002,-9.183627799999996,6.978077999999999,-0.9318202,-0.3653659999999999,0.0524144,-80.2585238,68.3975966,94.926378,113.8113518121948,1.0556590809431992,11.799288869639009,1.0022616766151442,-39.9183344,19.8584602,-41.7460068
5135.841,-27.4325928,105.6231216,27.1736194,-0.84161,-0.442014,0.493228,-42.0614228,50.510600800000006,135.1451844,1.9486992000000023,-7.765828799999997,6.795781,-0.9221982,-0.3584524,0.0582276,-79.78450339999999,68.50747059999999,95.3964662,112.45975527074144,1.0709610769210989,10.501817220031542,0.9911246624672196,-37.7230806,17.996869799999995,-39.7487182
5155.824,-27.1298124,103.573755,27.1372936,-0.8573834,-0.4350506,0.4506911999999999,-43.90635540000001,52.420464800000005,133.4964478,1.0986048000000022,-6.570394999999998,7.4917148,-0.92063,-0.3516772,0.0518852,-79.3909716,68.636453,95.7997606,110.45352936684198,1.0618370293568409,10.025109156869418,0.9868781707378476,-35.4846162,16.215988199999995,-37.6966872
5175.808,-27.6899324,102.2625918,26.439910000000005,-0.8673057999999999,-0.4307108,0.4143601999999999,-45.928837,54.2643736,131.68241740000002,2.208329400000002,-4.754943799999997,7.634168,-0.9278546,-0.3552506,0.0505916,-79.065613,68.7719068,96.1063432,109.19450022220944,1.0532927035227766,9.261032897700275,0.9948249381333784,-33.136776000000005,14.507533199999996,-35.57607420000001
5195.792,-28.5678106,101.1821428,25.9820198,-0.8810882,-0.4323209999999999,0.3883786,-48.146071,56.0409048,129.691246,3.335600600000002,-3.238301799999997,6.9031278,-0.939194,-0.3592752,0.053723,-78.7948992,68.89681060000001,96.3294434,108.30055944899202,1.0554884178228578,8.322619980134647,1.007000595680082,-30.648828200000004,12.855905799999997,-33.361802600000004
5215.776,-28.478205600000003,99.8084062,25.9575872,-0.8988884,-0.4312928,0.3660654,-50.5394166,57.74736320000001,127.5247634,4.104887600000002,-2.095300999999997,5.6094262,-0.9425964,-0.3560344,0.057828,-78.5724994,69.0013182,96.4834686,106.98842215691226,1.0620817821917292,7.259893303794567,1.0092534591767917,-28.03308280000001,11.253954999999994,-31.041294800000003
5235.76,-27.9368668,97.632013,26.030541400000004,-0.9168716,-0.4258318,0.3262238,-53.1051882,59.3757668,125.18437640000002,5.111847200000002,-1.292844999999997,5.331897199999999,-0.93358,-0.3407958,0.0557042,-78.3729754,69.1084106,96.5914002,104.83352314317315,1.0622656073055552,7.498770415310812,0.9953975846842708,-25.267787200000004,9.732643799999996,-28.5929762
5255.744,-28.8292096,95.4562636,25.5755078,-0.9303246,-0.4204705999999999,0.2892495999999999,-55.8969514,60.9140122,122.6424102,7.337459800000002,-0.4428211999999972,5.9378122,-0.9361014,-0.3402683999999999,0.0589866,-78.1608186,69.2297608,96.6645706,102.94235370274608,1.061114846720033,9.449445520995098,0.997771433796378,-22.263867200000004,8.315748599999997,-25.977839600000003
5275.727,-30.390527,93.03777,25.3257036,-0.9432586,-0.420755,0.2604673999999999,-58.92534800000001,62.352423,119.9029632,8.722993000000002,-0.1070911999999971,4.972448399999999,-0.9427548,-0.3398276,0.064119,-77.93996580000001,69.333095,96.7162354,101.09897151180957,1.0651829997524933,10.041280719800092,1.004181585573944,-19.014617800000003,6.980671999999998,-23.186727800000003
5295.711,-30.6882312,90.5751906,25.4081998,-0.9545152,-0.423921,0.2375146,-62.1551942,63.689836,116.9618806,9.0625968,-0.5283055999999972,4.0722804,-0.9441908,-0.3356644,0.0733332,-77.6846802,69.417464,96.7954026,98.95053968265005,1.071084248080047,9.94953442240318,1.004760973791399,-15.529486000000002,5.727628,-20.166478000000005
5315.695,-29.823603400000003,87.7217864,25.2472916,-0.967922,-0.420122,0.2183892,-65.5483682,64.91780759999999,113.8458208,8.666975600000004,-0.7153513999999973,3.784076,-0.9376316,-0.3274945999999999,0.0673118,-77.439508,69.4983828,96.873523,96.03116609779946,1.0775292736833837,9.484061622018984,0.995457989453578,-11.8911398,4.5805752,-16.9722978
5335.679,-28.7488576,83.78279560000001,24.905846,-0.9714568,-0.411306,0.1784584,-69.0731294,66.02819960000001,110.5745792,8.763000600000002,0.5563790000000027,4.6421596,-0.9335932,-0.3229126,0.0535148,-77.2716766,69.604117,96.870201,92.0127970275449,1.0699291286962889,9.932239569156271,0.9893091752046173,-8.198547200000002,3.5759174000000016,-13.704378200000004
5355.663,-28.323748,80.05910639999999,24.268341,-0.975782,-0.4094357999999999,0.1561914,-72.725818,67.01160420000001,107.1652454,9.223898200000002,3.1336778000000027,5.155838,-0.9333782,-0.3191703999999999,0.0439368,-77.2399764,69.733008,96.714067,88.32127486187179,1.0696653398514884,11.02192814531197,0.9874183768117948,-4.5141584,2.721403800000002,-10.451178399999998
5375.647,-27.4351008,76.36600639999999,23.694226800000003,-0.982712,-0.4141866,0.1456858,-76.4529482,67.8675964,103.66362180000002,11.203661200000004,5.987029000000002,5.73544,-0.9380264,-0.3206384,0.0410916,-77.319287,69.8846162,96.398291,84.53323649926601,1.076335341278544,13.937783630291673,0.9921648200989996,-0.8663387999999997,2.0170198,-7.265330799999998
5395.63,-25.010506000000003,72.308998,22.6392112,-0.9887434,-0.4062986,0.1377198,-80.16520399999999,68.59846339999999,100.1450914,12.358129800000004,8.512680400000002,4.735864000000001,-0.9461012,-0.3253058,0.0453788,-77.517465,70.0244888,95.9306748,79.79129329631301,1.0778027680042208,15.73586691519372,1.0014941735449687,2.6477390000000014,1.4260254000000003,-4.214416599999998
5415.614,-22.8131736,66.57666,21.1611904,-0.9892944,-0.4016482,0.1168994,-83.7570572,69.2010772,96.711876,10.920499800000002,9.805610400000004,2.7513236000000005,-0.9514614,-0.324979,0.0561412,-77.81902299999999,70.1292282,95.381215,73.48937695751944,1.0740996956311644,14.932417511920342,1.0069965146257458,5.9380342000000015,0.9281509999999996,-1.3306610000000003
5435.598,-20.753097000000004,59.464653600000005,19.1012228,-0.9902632,-0.4154905999999999,0.1096881999999999,-87.1006286,69.6732878,93.5162018,7.694405600000003,9.697293000000002,0.4833619999999999,-0.957301,-0.3260054,0.0636104,-78.1923018,70.18700859999998,94.822243,65.81483704541586,1.079483740119248,12.388503052758413,1.013287228982148,8.908326800000001,0.5137207999999986,1.3060412000000017
5455.582,-16.774341200000002,50.44358999999999,16.272205,-0.9966338,-0.436139,0.1142794,-90.02400039999999,70.0246488,90.6980286,4.121464000000002,8.937442800000003,-1.9600374000000005,-0.9626536,-0.3269568,0.0564288,-78.6333404,70.1932326,94.2681232,55.59423486607349,1.0938719942880886,10.035242693426335,1.018227338136548,11.390659999999995,0.1685837999999989,3.5700945999999987
5475.566,-10.8123336,40.286136000000006,12.8020508,-0.999532,-0.4541815999999999,0.1312443999999999,-92.3664182,70.2682874,88.38110359999999,2.2452850000000018,8.852075000000003,-4.2294312,-0.9653242,-0.3284314,0.0462406,-79.1444154,70.1535186,93.6807162,43.63223368536117,1.1056989813389175,10.064224998100126,1.0207135683922106,13.2220028,-0.1147688000000016,5.299612600000001
5495.549,-4.386106400000001,29.4531934,8.6455396,-1.0027814,-0.4715797999999999,0.155037,-94.0367246,70.4109678,86.64799819999999,2.765932600000002,9.046189800000004,-5.2888486,-0.963921,-0.3209172,0.0404268,-79.666643,70.0962464,93.0703356,31.007642377083307,1.11892560759105,10.837705133426024,1.0167427745772677,14.3700816,-0.3147214000000019,6.422337400000001
5515.533,2.5106041999999986,18.219131,3.9473928,-1.0061658,-0.480156,0.1678034,-94.9646772,70.460678,85.5646074,4.500143800000002,9.338585600000004,-5.1341454,-0.9593042,-0.3129538,0.0376024,-80.1627978,70.0455522,92.4502336,18.8101509234166,1.1274206768004569,11.5680561987547,1.009761639971454,14.8018794,-0.4151258000000012,6.885626200000002
5535.517,9.591028199999998,7.061435,-1.1507017999999998,-1.0109667999999998,-0.4763601999999999,0.1604799999999999,-95.1081418,70.4190338,85.16484080000001,7.165563800000001,9.422741600000004,-4.913934599999999,-0.9527515999999998,-0.3138216,0.0425458,-80.5928744,69.99669659999999,91.842009,11.965609087085516,1.1290379715697252,12.817180543525094,1.0040068490935503,14.515267400000004,-0.4223372000000012,6.6771682
5555.501,15.421929,-3.8551455999999993,-6.1301712,-1.0146061999999998,-0.4702336,0.1424268,-94.4915952,70.2827806,85.44578240000001,8.601304000000003,8.615846000000003,-4.9266066,-0.9428835999999998,-0.3137566,0.0554956,-80.9234866,69.9415896,91.305844,17.03751861685116,1.1273113026159365,13.133418648139395,0.9952650143614412,13.568108600000006,-0.3411910000000006,5.8600616
5575.485,20.688284,-15.0688106,-10.770145,-1.0188446,-0.4556298,0.1280152,-93.1201368,70.0550004,86.4119598,8.001029800000001,7.300284800000003,-4.2870932,-0.9322634,-0.3092932,0.0601002,-81.1763812,69.8945056,90.8637038,27.768150300017343,1.1234014086817945,11.648596659129604,0.9840677642245172,11.943755600000005,-0.1604947999999978,4.451744
5595.468,25.4459214,-26.931204,-15.0246692,-1.0185892,-0.4391796,0.12321,-90.9938566,69.7314882,88.07088920000001,6.611392000000002,6.622343000000003,-2.9753268,-0.9278376,-0.3176004,0.053894,-81.4182986,69.8659686,90.464073,39.98156261771196,1.116057070007085,9.819292263402252,0.982169633663106,9.575558000000004,0.1344804000000039,2.3931838
5615.453,29.708496200000003,-38.860457,-18.9665146,-1.0132322,-0.4293193999999999,0.1352064,-88.18461900000001,69.296367,90.3575866,4.738487400000002,6.857525600000002,-2.2852892,-0.9307928,-0.3330813999999999,0.0461385999999999,-81.71772639999999,69.8439608,90.0447844,52.46387843827672,1.1087088927821225,8.643001036807227,0.9896702612323764,6.466892600000006,0.547593800000007,-0.3128021999999987
5635.436,33.9366216,-50.4468124,-22.6514086,-1.0088348,-0.4299032,0.1659204,-84.8194792,68.72846539999999,93.1605056,2.668157800000002,7.464557200000003,-1.9728938,-0.9372734,-0.3418146,0.0389728,-82.0984134,69.8262514,89.58435039999999,64.88190409125286,1.109096025688236,8.168903854486915,0.9984175109945538,2.721065800000005,1.097786000000005,-3.5761552
5655.42,38.5957382,-62.0695396,-26.1088808,-1.0107316000000002,-0.4285302,0.2085676,-80.97061599999999,68.0033418,96.398439,1.072321600000002,8.244735000000002,-1.9581412,-0.9457868,-0.352776,0.0390862,-82.54945699999999,69.8062256,89.0827468,77.61399622482736,1.117460041039661,8.54165357487583,1.010193698386938,-1.5788409999999966,1.802883800000004,-7.315692200000001
5675.404,42.1790054,-74.1619414,-29.450168799999997,-1.0141958,-0.4287314,0.2414034,-76.7635542,67.0867616,99.9736694,-1.957278599999998,8.290983200000003,-3.3106284,-0.9534038,-0.365206,0.0476736,-83.05399639999999,69.75324400000001,88.5864806,90.25726835606514,1.1272441331030116,9.139562480971769,1.0220699586757258,-6.290442199999996,2.666482400000001,-11.387188800000004
5695.388,43.4696258,-86.48143540000001,-32.7129382,-1.023332,-0.4419292,0.2674493999999999,-72.371791,65.9411156,103.7640106,-6.564030199999996,6.906942600000003,-6.0668232,-0.953334,-0.3710658,0.0577547999999999,-83.57033399999999,69.63793639999999,88.1728636,102.17036440041416,1.146315393596806,11.295959113163656,1.0246322073840348,-11.198542999999995,3.6968208,-15.591147000000005
5715.372,44.6265486,-98.9244234,-35.648714,-1.0400606,-0.4610804,0.2951684,-67.9128616,64.5436782,107.6602662,-11.155553399999995,4.994011800000003,-8.751012,-0.9433884,-0.3694522,0.0603868,-84.07720040000001,69.46347499999999,87.8655302,114.22959859346624,1.1753491274064398,15.032190011536402,1.01494983469807,-16.1643388,4.919796799999999,-19.794736000000004
5735.355,46.2075386,-111.4566834,-37.944763,-1.0507838,-0.4735082,0.3223321999999999,-63.4695626,62.887966000000006,111.5582948,-15.181294199999996,3.5089188000000027,-11.179757,-0.9354734,-0.3764504,0.0575937999999999,-84.59188079999998,69.2330994,87.63523539999998,126.48135806167048,1.1967684224470998,19.17736090579191,1.0100210055073904,-21.1223182,6.3451334,-23.923059400000007
5755.339,47.0282678,-123.1807542,-39.8754768,-1.0494566,-0.4865408,0.3557126,-59.1566934,60.9700438,115.355211,-18.184365199999995,2.9132900000000026,-14.1380474,-0.9324652,-0.3844364,0.0566394,-85.13715520000001,68.93941500000001,87.4352476,137.75053476330564,1.210211782766537,23.217294860420704,1.0101934054864743,-25.9804618,7.969371200000002,-27.919963400000007
5775.323,47.60878759999999,-133.41420620000002,-41.6825248,-1.0393252,-0.5004436,0.3947623999999999,-55.0780092,58.795764,118.942923,-20.3476538,2.864402000000003,-16.9254044,-0.9317394,-0.3917488,0.0520674,-85.72519539999999,68.5885558,87.2352964,147.6596761015703,1.2192120490668388,26.621441134653058,1.0120851969851945,-30.6471862,9.792791800000003,-31.707626600000005
5795.307,49.0085702,-142.3883546,-43.692339200000006,-1.0208814,-0.5112944,0.4354753999999999,-51.2868784,56.3740936,122.244809,-22.0276622,3.336265600000003,-19.4313876,-0.9298274,-0.3997146,0.0498211999999999,-86.3642456,68.18681620000001,87.01559280000001,156.797015225136,1.221990024649334,29.56226300898641,1.0133276406046368,-35.0773672,11.812722600000004,-35.2292162
5815.291,50.09277899999999,-150.3812898,-45.9206282,-0.9931062,-0.5151958000000001,0.4675344,-47.8246988,53.7203988,125.220398,-22.3306686,4.597569200000002,-21.5167048,-0.9309216,-0.4158014,0.0417244,-87.067453,67.73979160000002,86.7331878,165.02279516520454,1.212548989525553,31.349082731750823,1.0204149916303074,-39.24275419999999,14.019392800000002,-38.48721020000001
5835.275,49.2549478,-157.2129304,-48.6385764,-0.9611464,-0.5173672,0.5033413999999999,-44.7382508,50.8515808,127.8519166,-22.4046872,6.671556000000004,-23.878527400000003,-0.9246556,-0.4215426,0.0374782,-87.85478979999999,67.2456266,86.35955800000002,171.7779569151834,1.202008230763317,33.41651895071554,1.016902531072354,-43.116539,16.3940458,-41.4923586
5855.258,47.5582596,-163.0044038,-51.700186,-0.9279512,-0.5182342,0.5415706,-42.0269524,47.790721,130.1487474,-21.6262506,9.721196600000004,-25.190139,-0.9178716,-0.4299115999999999,0.0240632,-88.75452899999999,66.72319780000001,85.84643700000001,177.49685334340168,1.1928783803956882,34.59392260483296,1.0138497400972988,-46.727576600000006,18.932476800000003,-44.3023104
5875.242,46.1489632,-167.8062958,-54.779908,-0.8894676,-0.5174842,0.5740946,-39.6554252,44.565937000000005,132.1346438,-19.843464,13.480447600000002,-26.2693882,-0.9116386,-0.4388858,0.0118902,-89.7653642,66.17542259999999,85.1719284,182.45415324141163,1.178357805782505,35.57479848738347,1.0118532795359416,-50.109939,21.6094856,-46.9627154
5895.226,45.1113456,-171.3405458,-57.37447139999999,-0.8465208000000001,-0.5133922,0.6103642,-37.577579400000005,41.2130308,133.8421298,-16.4079034,17.519716600000002,-26.9296704,-0.9087294,-0.44732,-0.0011642,-90.8586672,65.6099976,84.3303086,186.23760658179097,1.1630621103342331,36.07446342748126,1.0128601385117295,-53.2810878,24.3969668,-49.51182120000001
5915.21,43.8570768,-173.7063904,-59.244719800000006,-0.8007937999999999,-0.5077992,0.645077,-35.75847,37.7681978,135.30822460000002,-13.551625199999997,20.960934600000005,-26.5601108,-0.9031104,-0.4488058,-0.0019394,-91.9966554,65.04803319999999,83.37128140000002,188.6989403134496,1.1468457060860802,36.44786428002372,1.0084834168067216,-56.2381854,27.279835400000003,-51.9369432
5935.194,42.983808,-175.4576722,-60.26610960000001,-0.7510234,-0.5001596000000001,0.6734055999999999,-34.1477618,34.2598518,136.5771942,-11.503178399999996,24.332457600000005,-24.719228,-0.8983611999999999,-0.4563804,-0.0182788,-93.2083496,64.51199039999999,82.283336,190.4337324381968,1.1259089105833917,36.54356084283534,1.0078045592767677,-59.06058779999999,30.2521386,-54.29385820000001
5955.177,42.0675544,-176.64010000000002,-60.521962,-0.6950076,-0.4872206,0.694289,-32.707446600000004,30.7122684,137.6889892,-9.521105799999996,27.4215956,-21.965938,-0.8881074,-0.4508338,-0.0238616,-94.467984,64.0216438,81.0924042,191.40091939574484,1.096565863340237,36.40189271349193,0.9962706685995328,-61.7605374,33.3093754,-56.596585000000005
5975.161,40.649826,-177.0695862,-60.19291080000001,-0.6339562,-0.475706,0.71387,-31.418591400000004,27.1457202,138.6729674,-6.546941199999997,30.844686000000003,-18.3652768,-0.8810288,-0.4547953999999999,-0.0427522,-95.784967,63.58408360000001,79.76856380000001,191.3876516953125,1.066680382708166,36.49027932827415,0.9924103752457648,-64.3663756,36.4383634,-58.9044036
5995.145,38.9163116,-176.65715640000002,-59.28803860000001,-0.5692440000000001,-0.4615428,0.7314134,-30.263469000000004,23.5824726,139.5530028,-2.8210441999999967,34.980203800000005,-13.4648928,-0.8736896,-0.4492868,-0.0611967999999999,-97.182437,63.223539,78.2691574,190.3609774531468,1.035386908101218,37.58824665215685,0.9843460743725452,-66.91896799999999,39.6410664,-61.2838454
6015.129,37.340856200000005,-175.8995484,-58.0290618,-0.5082892,-0.4476456,0.7546062,-29.219539000000005,20.030956,140.3503234,3.0082600000000026,39.179571,-9.4438516,-0.8739243999999999,-0.4491158,-0.0750414,-98.6163482,62.91819,76.594844,188.95068849427685,1.0139896503980896,40.413793994309216,0.985433950317808,-69.3968092,42.887234,-63.75547940000001
6035.113,36.0254974,-174.7522278,-56.4107376,-0.4489613999999999,-0.4309396,0.764546,-28.2695448,16.486668599999998,141.0811768,8.796311800000003,42.31089300000001,-6.181234,-0.876491,-0.4478408,-0.08574,-100.0413316,62.65316779999999,74.7963316,187.13190241259383,0.9858021422446392,43.65540540990342,0.9880026330054188,-71.7717868,46.1664992,-66.28484520000002
6055.097,34.5412162,-173.2278078,-54.890683,-0.3923354,-0.4183394,0.7742764,-27.4073012,12.956724,141.7523042,13.545506000000003,44.5746382,-3.5375068,-0.8783584,-0.4500392,-0.0936616,-101.4429246,62.4148378,72.9124404,184.97014919163408,0.9635553244533912,46.72144109311037,0.9913734189001436,-74.0356234,49.4581138,-68.83986380000002
6075.081,33.1493042,-171.5398194,-53.121675800000006,-0.339046,-0.4052372,0.7837934,-26.6188604,9.4555834,142.37868659999998,15.980951,45.6744208,-1.6188116,-0.8775693999999999,-0.4483449999999999,-0.0983454,-102.8144244,62.1923128,71.0017684,182.6107840422604,0.945252068108502,48.41656804520709,0.9903600903421542,-76.195564,52.7367294,-71.3769182
6095.064,32.0874086,-169.8947204,-51.20483780000001,-0.2818218,-0.3910718,0.7845134,-25.8931372,5.9953766,142.9717652,18.674206600000005,45.828397200000005,-0.3489456000000001,-0.8747712,-0.4443844,-0.108489,-104.1235262,61.975049,69.097093,180.3212500638287,0.9207724770485052,49.48827886572952,0.9871534887917888,-78.23038899999999,55.979672400000005,-73.8746722
6115.048,30.76405,-167.65330500000002,-49.2149682,-0.2166373999999999,-0.3769985999999999,0.7863376,-25.2311136,2.5848402,143.53477479999998,20.350991800000003,45.541606,0.4530614,-0.8770934,-0.4478586,-0.1256406,-105.3771212,61.75394239999999,67.215013,177.41524890705574,0.898546898416816,49.88392535612122,0.992801953204102,-80.1460076,59.1691022,-76.3197618
6135.032,29.5916542,-164.97855520000002,-47.0302604,-0.1522966,-0.3668618,0.7951980000000001,-24.6261556,-0.7501666,144.074704,23.2415768,45.144337400000005,1.5030804,-0.8759402,-0.4450532,-0.130888,-106.5409638,61.539422,65.3641196,174.08456297863876,0.8888878972484664,50.79804466831575,0.9911988969678488,-81.91480820000001,62.2895886,-78.71058439999999
6155.016,28.9625534,-162.1841276,-44.348085000000005,-0.089458,-0.3557838,0.7961258,-24.0648834,-4.0032758,144.6061156,24.870710000000003,44.019631200000006,2.5097284,-0.8760009999999999,-0.4502913999999999,-0.1435806,-107.6249496,61.331872,63.5640218,170.6143997087824,0.8765849277349457,50.62192097826672,0.995367010509852,-83.56006620000001,65.3351478,-81.0420938
6175.0,28.312455,-159.39306319999997,-41.8990906,-0.0319956,-0.3451878,0.7970302,-23.545623,-7.1824238,145.130258,27.810911600000004,42.35988,3.8117028,-0.877608,-0.4482798,-0.146305,-108.58141919999998,61.14784320000001,61.8374632,167.22223984121615,0.8691579116594637,50.81668344031262,0.9962709138467508,-85.03579620000001,68.330267,-83.2927948
6194.984,27.4733402,-156.45972279999998,-39.6991524,0.0266764,-0.334519,0.7908698000000001,-23.0699778,-10.3025588,145.6464812,29.2905438,39.05673060000001,4.1984016,-0.8828489999999999,-0.4549421999999999,-0.1423336,-109.3685882,60.9812316,60.2637206,163.7389751454314,0.85912143043344,48.999905482108616,1.003321292423718,-86.2986104,71.2837904,-85.3827606
6214.967,25.8577996,-153.2170898,-37.8158478,0.0890388,-0.3283246,0.776412,-22.6555438,-13.363235,146.152774,29.011530400000005,34.994839,4.5449242,-0.8824082000000001,-0.4502828,-0.1408024,-110.008087,60.8431388,58.8613304,159.9191694318345,0.8476677088426808,45.68330098372699,1.0006118864219231,-87.35254319999999,74.20637380000001,-87.29144360000001
6234.951,24.082527,-149.8228608,-36.113641400000006,0.1505144,-0.3250726,0.7741016,-22.3029448,-16.3605964,146.6498138,27.9995332,29.895613000000004,4.3870938,-0.8863092,-0.4540744,-0.14235,-110.4803374,60.7306556,57.6707788,155.98414284846297,0.8529713166341996,41.194273000912034,1.0059776743248332,-88.17739259999999,77.09125200000001,-88.979035
6254.935,23.4657358,-146.5130098,-34.388916,0.2123403999999999,-0.3209546,0.7578621999999999,-21.9929226,-19.3003182,147.1456238,27.668687600000005,23.741404200000005,4.1860458000000005,-0.8903594,-0.45682,-0.1443402,-110.7431732,60.6537994,56.7262544,152.31316535659468,0.8499737730790049,36.69786814426513,1.0110679833247616,-88.7502506,79.9541176,-90.4193694
6274.919,22.5392492,-142.91047680000003,-32.9082466,0.2799444,-0.3123562,0.7391646,-21.724982,-22.183204,147.635669,27.223418200000005,17.505209600000004,3.4772554,-0.8931792,-0.4576288,-0.1469704,-110.796228,60.6062874,56.0323556,148.37241936421154,0.8498820910355506,32.552083907929045,1.0142945826426562,-89.071246,82.7894914,-91.6033134
6294.903,20.7393948,-138.9473604,-31.9057922,0.3385794,-0.3059298,0.7234346,-21.5103474,-24.9999836,148.11130980000002,25.514577600000003,12.194063000000003,2.3586446,-0.891479,-0.4595772,-0.152603,-110.697406,60.573005,55.5533478,144.0641212610112,0.855328400738313,28.376963313637,1.014511550358023,-89.1870586,85.5729886,-92.557962
6314.887,19.304934,-134.8843278,-31.2288406,0.389986,-0.2972334,0.7069418,-21.3350152,-27.746352,148.56770020000002,24.316904200000003,7.741243800000002,0.989845,-0.88475,-0.4613464,-0.15605,-110.4622024,60.542791,55.2596526,139.79164083743498,0.8603507905841663,25.53856845179544,1.0099379514569002,-89.12718720000001,88.289143,-93.3080476
6334.87,17.7695834,-130.38038939999998,-31.028063600000003,0.443847,-0.287163,0.6750242,-21.1963906,-30.4219758,148.99470820000002,22.8332064,4.3834630000000026,-0.2930956000000002,-0.8790990000000001,-0.4611514,-0.1581156,-110.1348998,60.511129,55.1072356,135.19447017193724,0.8573916366303324,23.252009964906463,1.005224456768895,-88.9385092,90.9331048,-93.8874726
6354.854,15.217456,-125.2710372,-31.2369458,0.4929744,-0.2733338,0.6559079999999999,-21.1003082,-33.0145234,149.3778442,20.300519800000004,2.6935644000000027,-1.6174400000000002,-0.8746062,-0.4574168,-0.1599444,-109.7927534,60.46731559999999,55.03193280000001,130.0005788878952,0.8648412743051755,20.54221276982447,0.9998741646287496,-88.69244520000001,93.481839,-94.3459114
6374.838,13.1050558,-119.657106,-31.077404,0.5378988,-0.2627282,0.6304936,-21.0404626,-35.5112192,149.7236146,17.432890200000003,1.6628242000000029,-2.7428784,-0.8615651999999999,-0.4530834,-0.1631836,-109.4692092,60.4080268,55.003553800000006,124.3196305624963,0.8694155541268168,17.725519088662775,0.9870197812179652,-88.4287466,95.919246,-94.72006079999998
6394.822,10.998820199999995,-113.488417,-30.6783904,0.5805216000000001,-0.2523144,0.60062,-21.013573200000003,-37.9007876,150.03295599999998,14.803667800000005,1.786791600000003,-2.9392298,-0.8593104,-0.4572496,-0.1598222,-109.19802380000002,60.3429924,54.9747224,118.07522380454178,0.8725894045391109,15.198035279989172,0.9864252104752596,-88.18445059999999,98.24378,-95.0582336
6414.806,8.889855399999998,-106.8762008,-30.0365332,0.6160866,-0.2397444,0.575041,-21.0136342,-40.1687724,150.304712,12.141201200000005,1.7641976000000028,-2.6998508,-0.858977,-0.4571004,-0.1559602,-108.9807968,60.283976800000005,54.944565,111.3721022211107,0.8761918897775305,12.562259115819412,0.985447028608438,-87.96716260000001,100.4527492,-95.360147
6434.79,7.342748999999998,-100.069513,-28.8126764,0.6450508,-0.2250808,0.5533984000000001,-21.031515,-42.3037516,150.5484742,9.691450800000002,2.277812800000002,-2.3344946,-0.8540894,-0.4540849999999999,-0.156366,-108.8374588,60.22917640000001,54.8866974,104.39345629044614,0.8792051468410772,10.225581391690827,0.9798531606181408,-87.8059438,102.532928,-95.6617768
6454.774,6.156287999999998,-92.913611,-26.9543046,0.6734519999999999,-0.215896,0.531375,-21.0711444,-44.294832,150.7792542,8.297752800000001,2.684289000000003,-2.3487,-0.8491636,-0.453254,-0.156981,-108.7375534,60.1709832,54.8114822,96.9400512041738,0.8845948619255032,9.031860309782743,0.975274854818866,-87.666409,104.4658152,-95.967772
6474.757,4.868753799999999,-85.5444856,-24.807890800000003,0.6976708,-0.2087424,0.5091840000000001,-21.1391874,-46.1352136,151.0042052,7.003703800000002,3.0247842000000027,-1.3724606,-0.8502232,-0.4588946,-0.157937,-108.6853058,60.127102,54.7110534,89.20199115534555,0.8885866758996559,7.751440799829183,0.9789830640498332,-87.5461184,106.2623156,-96.2931518
6494.741,4.101480199999999,-78.3029978,-22.596565,0.718111,-0.2011576,0.4952406,-21.2205648,-47.822757,151.2219786,5.700942600000003,2.8757942000000023,-0.6063766000000002,-0.8465820000000001,-0.4591768,-0.1629186,-108.6684448,60.0971284,54.6015014,81.60138696184656,0.8952156389647804,6.413940394973749,0.9767737131025794,-87.44788000000001,107.9198854,-96.6204772
6514.725,3.825596799999999,-71.10693460000002,-20.270334400000003,0.7376116,-0.1952596,0.4820404,-21.3062074,-49.3578452,151.4345274,4.790292000000003,2.921369600000003,0.3189573999999998,-0.8449148000000001,-0.4614418,-0.1662874,-108.6844528,60.0825196,54.475859,74.03862367557,0.9025298505195716,5.619878255628227,0.9769652263233528,-87.3782454,109.4403648,-96.9586684
6534.709,3.392167399999999,-63.8200938,-18.0205176,0.758172,-0.1894832,0.4641484,-21.3973794,-50.7431564,151.6387786,3.8447350000000022,2.1732122000000027,1.1924349999999997,-0.8463368000000001,-0.4665204,-0.1656948,-108.701645,60.087389400000006,54.3698974,66.40218540742715,0.9089347621742716,4.574575359055622,0.9805009073924612,-87.30426560000001,110.8305458,-97.2688812
6554.693,2.248413799999999,-56.316576600000005,-16.013315600000002,0.7805706000000001,-0.1863929999999999,0.4465934,-21.5025574,-51.9774132,151.8266204,2.938556000000003,1.1933816000000028,2.7139218,-0.8475436000000001,-0.4719369999999999,-0.1664209999999999,-108.7202516,60.124852,54.2828842,58.59213634153394,0.9184108432269952,4.174283476822079,0.9842513068881138,-87.2176942,112.1022652,-97.5437362
6574.677,1.2531273999999986,-48.3860262,-14.0036676,0.799837,-0.1869163999999999,0.4362966,-21.6136404,-53.0486548,151.9922058,2.306820200000003,0.0143554000000028,4.0603218,-0.851318,-0.4733946,-0.1621884,-108.7222794,60.1959794,54.2280944,50.38730560328671,0.9300707985575722,4.669886361807153,0.9874967653251934,-87.108639,113.2446342,-97.7641114
6594.66,1.2688261999999988,-39.835906400000006,-11.3237644,0.8186356,-0.1901668,0.4243564,-21.7205156,-53.94206919999999,152.147995,1.951950000000003,-1.411058999999997,5.4607788,-0.8532442,-0.4716196,-0.1589046,-108.6969758,60.303862800000005,54.21223580000001,41.433525059088026,0.9414913762911268,5.96835835104683,0.9877759785695136,-86.97646019999999,114.245932,-97.9357592
