Timestamp (ms),Wrist Gyroscope X (deg/s),Wrist Gyroscope Y (deg/s),Wrist Gyroscope Z (deg/s),Wrist Accelerometer X (g),Wrist Accelerometer Y (g),Wrist Accelerometer Z (g),Wrist Roll (deg),Wrist Pitch (deg),Wrist Yaw (deg),Arm Gyroscope X (deg/s),Arm Gyroscope Y (deg/s),Arm Gyroscope Z (deg/s),Arm Accelerometer X (g),Arm Accelerometer Y (g),Arm Accelerometer Z (g),Arm Roll (deg),Arm Pitch (deg),Arm Yaw (deg),Wrist Gyroscope Magnitude (deg/s),Wrist Accelerometer Magnitude (g),Arm Gyroscope Magnitude (deg/s),Arm Accelerometer Magnitude (g),Difference Roll (deg),Difference Pitch (deg),Difference Yaw (deg)
0.0,-28.14259529113769,-58.28091430664063,20.20145034790039,-0.8721498847007751,0.4505819678306579,0.1977221816778183,68.61688232421875,60.81689453125,-21.76042938232422,21.563915252685547,23.3784236907959,-8.759716987609863,-1.0028109550476074,0.3674792945384979,-0.1430522203445434,117.85993194580078,70.93307495117188,82.02644348144531,67.79947815652741,1.001380842759217,32.98917666439088,1.0775596416085331,49.24304962158203,10.116180419921877,103.78687286376952
22.457,-8.79297924041748,-55.13136672973633,19.143285751342773,-0.8298797011375427,0.4487953782081604,0.2006482183933258,66.88263702392578,60.03313064575195,-23.58016586303711,17.924644470214844,17.8502254486084,-8.481999397277832,-1.0357978343963623,0.3775554299354553,-0.0438095107674598,119.13368225097656,70.91510772705078,83.02099609375,59.019060232848965,0.9645606862222608,26.68084971894958,1.1033333719450458,52.25104522705078,10.881977081298828,106.60116195678712
38.783,3.882669925689697,-50.03692626953125,20.53540229797364,-0.800908088684082,0.5175480842590332,0.2485060393810272,65.65930938720703,59.2014274597168,-25.16020774841309,13.143423080444336,11.827802658081056,-7.93433141708374,-1.0398051738739014,0.3579987287521362,-0.0162482187151908,119.95868682861328,70.956787109375,83.64544677734375,54.22611791188802,0.985426322790613,19.380405079001527,1.0998281202144709,54.29937744140625,11.755359649658203,108.80565452575684
59.872,6.990663528442383,-44.23257446289063,18.272050857543945,-0.8047159314155579,0.5078281164169312,0.214396670460701,64.74742889404297,58.46588897705078,-26.45369338989257,10.104634284973145,6.359154224395752,-3.7596755027771,-1.0286803245544434,0.3635254800319671,-0.011821599677205,120.31169891357422,70.97554779052734,83.83644104003906,48.36587498147564,0.9754091748605872,12.517093766880846,1.0910883259282154,55.56427001953125,12.509658813476562,110.29013442993164
82.344,3.285461187362671,-37.06965637207031,11.862890243530272,-0.7903172969818115,0.5318686366081238,0.2090153992176056,63.94956970214844,57.89106750488281,-27.53260803222656,9.267743110656738,2.7185840606689453,-1.218166470527649,-1.0343036651611328,0.3431419730186462,-0.0074821515008807,120.4001235961914,70.9976577758789,83.76416015625,39.05997751774936,0.9752810434054976,9.73476713691532,1.0897644094041448,56.45055389404297,13.106590270996094,111.29676818847656
97.614,-2.669403076171875,-31.31656646728516,11.957694053649902,-0.8429518938064575,0.5408867597579956,0.3186007440090179,63.13630676269531,57.35515975952149,-28.4476261138916,6.69648551940918,-4.791625499725342,-0.0156974531710147,-0.9877683520317078,0.2644737064838409,-0.066321462392807,120.1671142578125,71.0876693725586,83.39022064208984,33.62795704713058,1.051015136064413,8.234247971206054,1.0247102981187692,57.03080749511719,13.73250961303711,111.83784675598145
119.833,-4.1461181640625,-33.38151550292969,15.874626159667969,-0.9070148468017578,0.4613758325576782,0.2518576085567474,62.35003280639648,56.7952995300293,-29.30702209472656,5.819681644439697,-8.54755687713623,1.9268450736999512,-0.8907331824302673,0.2294533997774124,-0.1876444369554519,119.88563537597656,71.14720916748047,82.95941162109375,37.19569368639223,1.0483204882930748,10.51865746892392,0.9387571036599902,57.53560256958008,14.351909637451172,112.26643371582033
142.257,0.3374113440513611,-39.53285217285156,18.45008850097656,-0.9120871424674988,0.4717677533626556,0.2061187624931335,61.60557174682617,56.13932037353516,-30.23551368713379,4.351337432861328,-12.94023323059082,4.410812377929688,-0.872352123260498,0.2018222212791443,-0.2639906704425812,119.43404388427734,71.19390869140625,82.36266326904297,43.62758316741253,1.0473551034959805,14.347091668697349,0.933499603663478,57.82847213745117,15.054588317871094,112.59817695617676
165.806,-1.0098297595977783,-49.23081970214844,20.73381423950196,-0.9884005784988404,0.5833319425582886,0.3582008183002472,60.589969635009766,55.29619598388672,-31.43739891052246,5.027054309844971,-4.366852760314941,4.9880876541137695,-0.8594752550125122,0.2548999786376953,-0.3047607839107513,119.32406616210938,71.13211059570312,82.1229248046875,53.42831101211221,1.2022976690556442,8.319957722820671,0.9468636905585808,58.73409652709961,15.835914611816406,113.56032371520996
187.915,0.8773955702781677,-67.28954315185547,21.82685661315918,-1.0516539812088013,0.5010001063346863,0.2910541296005249,59.2680549621582,54.30677795410156,-33.09800720214844,9.55578327178955,9.915461540222168,9.921480178833008,-0.8021495938301086,0.3106463849544525,-0.3852320313453674,119.73158264160156,70.8609619140625,82.35199737548828,70.74647772280662,1.2007038390449194,16.972481858349834,0.9425226073371166,60.46352767944336,16.554183959960938,115.45000457763672
202.927,6.598357200622559,-81.30725860595703,21.792346954345703,-0.9157873392105104,0.5389629006385803,0.291449099779129,57.851165771484375,53.11289596557617,-35.02101135253906,9.704305648803713,20.48843765258789,9.382563591003418,-0.9021942615509032,0.2970314919948578,-0.3379658758640289,120.76519775390624,70.47107696533203,83.2304458618164,84.43527109888119,1.101857539196916,24.535324026974003,1.008168203258073,62.91403198242188,17.35818099975586,118.25145721435548
219.703,-15.129176139831545,-85.35785675048828,28.32377815246582,-0.9941678047180176,0.641620397567749,0.5157951712608337,56.034427642822266,51.68746566772461,-36.89027404785156,12.088102340698242,23.009361267089844,3.4392199516296387,-0.9975726008415222,0.2284016758203506,-0.2389690428972244,122.14176940917967,70.19133758544922,84.41973876953125,91.19809257071675,1.2907714814051443,26.217954878181025,1.0509160874829535,66.10734176635742,18.50387191772461,121.3100128173828
243.236,-34.722984313964844,-95.80648803710938,27.826229095458984,-0.98554265499115,0.5355350971221924,0.4210764765739441,53.77523040771485,50.17431640625,-38.84732818603516,9.662775993347168,24.331302642822266,-2.312156915664673,-0.9929423332214355,0.1693860739469528,-0.2491516768932342,123.7214126586914,70.00840759277344,85.8716049194336,105.63554238676298,1.1980807836621905,26.281697011358915,1.0376428466717735,69.94618225097656,19.83409118652344,124.71893310546876
264.79999999999995,-26.96114730834961,-102.58789825439452,29.01700210571289,-0.8962752819061279,0.5229634642601013,0.4321399927139282,51.72319412231445,48.50516128540039,-40.758750915527344,17.441604614257812,23.12154769897461,-1.1222927570343018,-0.980182945728302,0.2989619374275207,-0.2711088061332702,125.22891235351562,69.74370574951172,87.0954360961914,109.96893535739754,1.1240752373438485,28.984048725955265,1.0600173733906606,73.50571823120117,21.238544464111328,127.85418701171876
287.419,-25.109548568725582,-107.7322769165039,34.365692138671875,-0.7958450317382812,0.5953742265701294,0.4703440368175506,49.87974166870117,46.59817886352539,-42.51240158081055,15.931634902954102,22.78769874572754,0.9236652851104736,-0.952130913734436,0.3294238746166229,-0.225697174668312,126.49430084228516,69.43795013427734,88.10821533203125,115.83494168475004,1.0995741435557291,27.81994540551753,1.0324788524272346,76.61455917358398,22.83977127075196,130.6206169128418
298.082,-23.285364151000977,-110.31744384765624,39.867218017578125,-0.7658141255378723,0.581719696521759,0.6133202314376831,48.19092559814453,44.51681518554688,-44.1597900390625,12.987470626831056,25.987064361572266,-5.814801216125488,-0.9703449606895448,0.2981486618518829,-0.1738970279693603,127.97055053710938,69.22822570800781,89.41788482666016,119.5890533167088,1.1406273653062495,29.62792298826148,1.0299039487429102,79.77962493896484,24.711410522460938,133.57767486572266
319.697,-18.249984741210938,-114.85530090332033,46.70756530761719,-0.7625414729118347,0.6575882434844971,0.7042628526687622,46.77482986450195,42.22618865966797,-45.59687423706055,14.106799125671388,25.4810848236084,-4.475109577178955,-0.9800896644592284,0.2401317954063415,-0.1730326265096664,129.41749572753906,69.02033233642578,90.66838836669922,125.32517203503856,1.228770914991366,29.467169376913827,1.023806289969792,82.64266586303711,26.79414367675781,136.26526260375977
344.585,-33.18526840209961,-121.99884796142578,45.14681243896485,-0.7046109437942505,0.7286223769187927,0.655206024646759,45.152950286865234,39.827449798583984,-47.07443618774414,13.774410247802734,19.8485107421875,-0.7566599249839783,-0.9919760227203368,0.2999569475650787,-0.1312977224588394,130.36810302734375,68.81209564208984,91.41167449951172,134.25057026409067,1.2069225679366613,24.171683652563026,1.044619400531838,85.21515274047852,28.98464584350586,138.48611068725586
367.632,-43.99386978149414,-127.34278106689452,46.67427062988281,-0.6851383447647095,0.7175641059875488,0.7826862931251526,43.370338439941406,37.294559478759766,-48.50372695922852,11.073948860168455,18.05958366394043,-4.371161460876465,-0.9775583744049072,0.299845814704895,-0.1036722958087921,131.25875854492188,68.68666076660156,92.15550231933594,142.58377189229367,1.2636892937406048,21.63071792589284,1.02775280728562,87.88842010498047,31.3921012878418,140.65922927856445
378.331,-40.69517517089844,-137.56158447265625,52.80605316162109,-0.6579787731170654,0.6472007036209106,0.799681544303894,41.73662567138672,34.51995849609375,-49.85807800292969,9.176137924194336,16.40471076965332,1.5465996265411377,-0.9805891513824464,0.2745558321475982,-0.1467124372720718,131.9047088623047,68.4880142211914,92.668212890625,152.86518915477717,1.22118605828117,18.86022303804052,1.0288151087661563,90.16808319091795,33.968055725097656,142.5262908935547
399.727,-34.769287109375,-147.0662841796875,55.94060897827149,-0.6725201606750488,0.7278441786766052,0.836144745349884,40.335086822509766,31.548009872436523,-51.15277099609375,10.552888870239258,11.592795372009276,8.262164115905762,-0.9815727472305298,0.3385219871997833,-0.1810922473669052,132.1358184814453,68.21819305419922,92.70950317382812,161.1420088039572,1.2966026955563674,17.72060168061627,1.0539813072250268,91.80073165893556,36.670183181762695,143.86227416992188
422.044,-40.440242767333984,-155.24679565429688,52.23517227172852,-0.6027421951293945,0.684377908706665,0.7524682283401489,38.87479019165039,28.49527359008789,-52.49434661865234,13.029090881347656,8.759767532348633,7.7801642417907715,-0.9983658194541932,0.3272681832313537,-0.1266788691282272,132.2769317626953,68.02198791503906,92.60802459716795,168.71720131114395,1.1823196312234996,17.522034472185176,1.0582468091582418,93.40214157104492,39.52671432495117,145.1023712158203
447.086,-33.62003707885742,-160.6271514892578,56.11075210571289,-0.5171381831169128,0.5809611082077026,0.8356388807296753,37.6074333190918,25.27750968933105,-53.7476692199707,10.057374000549316,5.551441669464111,8.606142044067383,-1.026796579360962,0.2857914865016937,-0.1646773964166641,132.29591369628906,67.86604309082031,92.42645263671876,173.43530549056467,1.1415953962216772,14.353917837268408,1.0784742157487082,94.68848037719728,42.58853340148926,146.17412185668945
457.139,-28.77978515625,-164.06491088867188,59.51784133911133,-0.4811316728591919,0.6381600499153137,0.8247381448745728,36.58807373046875,21.953458786010746,-54.866844177246094,15.062204360961914,-0.1146120056509971,7.361302852630615,-1.002556562423706,0.3156521916389465,-0.1281423866748809,132.18284606933594,67.80307006835938,92.00469207763672,176.8839858670518,1.1484463172248636,16.765199545826082,1.0588561933558511,95.5947723388672,45.84961128234863,146.8715362548828
480.622,-26.33698463439941,-166.06729125976562,59.5817756652832,-0.4448059797286987,0.5923831462860107,0.7448749542236328,35.716636657714844,18.61557388305664,-55.91963577270508,11.862689018249512,-2.849466323852539,8.809374809265137,-1.0003855228424072,0.3092846572399139,-0.1584746837615966,131.9004669189453,67.74711608886719,91.46282196044922,178.38713512307032,1.0505278906510669,15.048187053747784,1.0590289981440666,96.18383026123048,49.13154220581055,147.3824577331543
497.221,-25.290082931518555,-165.35443115234375,60.45912551879883,-0.3536194562911987,0.5736464262008667,0.7617108821868896,34.94509506225586,15.252615928649902,-56.88167572021485,12.671849250793455,-15.769222259521484,13.437113761901855,-1.0064986944198608,0.3181639909744262,-0.1182408034801483,130.96826171875,67.80142974853516,90.20813751220705,177.86787808622486,1.0170154424602604,24.28580162060365,1.062190583007254,96.02316665649414,52.54881381988525,147.08981323242188
520.259,-20.604167938232425,-163.88311767578125,61.02156448364258,-0.3172845840454101,0.5557259917259216,0.7418175935745239,34.34713363647461,11.915210723876951,-57.75849533081055,11.501041412353516,-19.592586517333984,18.566665649414062,-0.9816426038742064,0.3127771615982055,-0.1655416637659073,129.76837158203125,67.80046844482422,88.67991638183594,176.08475041181788,0.9796908835389484,29.340492043335267,1.0434825331555613,95.42123794555664,55.88525772094727,146.43841171264648
542.014,-15.688912391662598,-161.96128845214844,61.91462707519531,-0.2561866343021393,0.5516245365142822,0.7790387868881226,33.901458740234375,8.586614608764648,-58.56014633178711,8.488691329956055,-31.89870262145996,19.049182891845703,-0.9533094763755798,0.2921124100685119,-0.1549396812915802,128.03683471679688,67.93836212158203,86.6406478881836,174.1006087725537,0.9883433878747672,38.11110701979929,1.0090267205095478,94.1353759765625,59.35174751281738,145.2007942199707
564.584,-16.720386505126953,-158.0869140625,62.94230270385742,-0.2015774995088577,0.5716300010681152,0.7823386788368225,33.50508117675781,5.305840492248535,-59.26842880249024,7.213570594787598,-45.547489166259766,22.55455207824707,-0.997544527053833,0.3141428232192993,-0.1285804957151413,125.5798797607422,68.16030883789062,83.85307312011719,170.97595501224467,0.9896707305126902,51.33534055138716,1.053714259518964,92.07479858398438,62.85446834564209,143.12150192260742
577.286,-19.35404586791992,-155.31570434570312,63.12017059326172,-0.1834082901477813,0.5517013669013977,0.7723744511604309,33.09823226928711,2.0888876914978027,-59.91812515258789,8.135515213012695,-47.88042831420898,25.12635612487793,-0.9521451592445374,0.3230798244476318,-0.1325282454490661,122.9456787109375,68.30459594726562,80.8562240600586,168.76523055292483,0.966734344037275,54.68140264703766,1.0141620743647073,89.84744644165039,66.21570825576782,140.77434921264648
599.5740000000001,-22.888992309570312,-153.91954040527344,62.31529235839844,-0.1469136029481887,0.5304141044616699,0.7729672789573669,32.65061569213867,-1.0895763635635376,-60.54122924804688,-4.786068916320801,-53.26549911499024,36.554832458496094,-0.9559249877929688,0.2964570522308349,-0.1612598448991775,119.59027862548828,68.2546157836914,77.34911346435547,167.62555458291806,0.9488946955705092,64.77943830961733,1.013747554217168,86.93966293334961,69.34419214725494,137.89034271240234
621.939,-19.076494216918945,-151.72227478027344,60.75313186645508,-0.0771647691726684,0.4716050326824188,0.7250059843063354,32.302818298339844,-4.224961280822754,-61.14513397216797,-5.552818775177002,-59.3818588256836,40.04783248901367,-0.9309991598129272,0.3526856899261474,-0.1450126469135284,115.8727569580078,68.09388732910156,73.4699478149414,164.54332051983096,0.8683313801382827,71.8391804032554,1.0060692318205178,83.56993865966797,72.31884860992432,134.61508178710938
644.537,-13.794181823730469,-150.39642333984375,58.68302154541016,-0.0353746153414249,0.486588180065155,0.7967283725738525,32.08110427856445,-7.3168559074401855,-61.7554931640625,-12.413299560546877,-57.53990936279297,40.20429229736328,-0.9160705804824828,0.3778674304485321,-0.1458487510681152,112.19294738769533,67.80901336669922,69.77043914794922,162.02796247346538,0.9342352594790314,71.28335215595663,1.001619169948049,80.11184310913086,75.1258692741394,131.52593231201172
667.006,-14.012499809265137,-147.095947265625,54.59285736083984,-0.0083001591265201,0.4855306446552276,0.7743680477142334,31.89950942993164,-10.310108184814451,-62.39567184448242,-11.428093910217283,-53.3145866394043,41.28737258911133,-0.9572142362594604,0.3553304076194763,-0.1828854084014892,108.9083480834961,67.40692138671875,66.45275115966797,157.52443597009702,0.914032150890547,68.39366647770387,1.0372877446894786,77.00883865356445,77.7170295715332,128.8484230041504
676.843,-19.08572196960449,-145.72482299804688,49.48802947998047,0.013047550804913,0.4508326649665832,0.728541910648346,31.66303443908692,-13.307331085205078,-63.10331344604492,-2.425123691558838,-21.42286872863769,35.318485260009766,-0.9414154291152954,0.3741985857486725,-0.1503499746322631,107.4123764038086,66.86492919921875,64.87520599365234,155.07757375818255,0.8568510056912,41.37893099809769,1.0241546302314728,75.74934196472168,80.17226028442383,127.97851943969728
699.264,-16.491065979003906,-143.40951538085938,48.229434967041016,0.05983592197299,0.4379079937934875,0.7387157678604126,31.51279640197754,-16.25423240661621,-63.80646896362305,-7.185885906219482,-8.264985084533691,26.15961265563965,-0.9480070471763612,0.324695348739624,-0.1888490319252014,106.67011260986328,66.43478393554688,64.2021255493164,152.19830076625968,0.8608395519910745,28.359694444719786,1.0197099528043625,75.15731620788574,82.68901634216309,128.00859451293945
722.795,-16.4762020111084,-138.1794891357422,45.82221221923828,0.125116690993309,0.4251815974712372,0.7127201557159424,31.386728286743164,-18.999866485595703,-64.49687194824219,-0.3312503695487976,6.580628871917725,15.799598693847656,-0.9229755997657776,0.3172973990440368,-0.1750208735466003,106.85344696044922,66.12106323242188,64.39038848876953,146.50840106693695,0.8392875535578169,17.118461439156146,0.991561346251518,75.46671867370605,85.12092971801758,128.88726043701172
744.8090000000001,-19.103214263916016,-133.7625732421875,46.480743408203125,0.1584936380386352,0.4164640605449676,0.731876790523529,31.215137481689453,-21.697059631347656,-65.12818145751953,-5.69585657119751,22.204269409179688,5.73652458190918,-0.8811703324317932,0.3229564428329468,-0.1854197531938552,107.73460388183594,65.89496612548828,65.45860290527344,142.89093149449295,0.8568583217378156,23.63006721010194,0.9566308084102966,76.51946640014648,87.59202575683594,130.58678436279297
767.048,-28.93779754638672,-129.7069549560547,45.62932586669922,0.1845238804817199,0.454552561044693,0.750876784324646,30.87352561950684,-24.38865852355957,-65.73274993896484,-6.019181728363037,33.909423828125,-0.40061816573143,-0.927718222141266,0.306366890668869,-0.1963527649641037,109.17781066894533,65.72185516357422,67.15049743652344,140.51094501802018,0.8969297845751597,34.441836013040664,0.996532076603714,78.30428504943848,90.1105136871338,132.88324737548828
776.977,-34.355655670166016,-127.1106185913086,40.68287658691406,0.2249635159969329,0.3813841640949249,0.6659122109413147,30.47052001953125,-26.93405532836914,-66.39331817626953,-1.6829115152359009,60.46392440795898,-9.767699241638184,-0.8659056425094604,0.3251858651638031,-0.2200979143381118,111.89523315429688,65.4908676147461,70.15333557128906,137.81334072787806,0.7996883998363593,61.27092535986861,0.950779427905358,81.42471313476562,92.42492294311523,136.5466537475586
802.684,-35.35380172729492,-124.3648452758789,40.31922149658203,0.2581355571746826,0.4066255688667297,0.7413865923881531,30.05728340148925,-29.46411895751953,-67.0224838256836,-6.455073356628418,72.48485565185547,-16.360984802246094,-0.8778084516525269,0.3478252589702606,-0.2639893591403961,115.091796875,65.20172882080078,73.7863998413086,135.43317783747312,0.8840997672813814,74.58823026864967,0.9804185179349136,85.03451347351074,94.66584777832033,140.8088836669922
824.364,-31.61656188964844,-120.9989242553711,34.95157623291016,0.3162428736686706,0.3839680552482605,0.5937618017196655,29.813770294189453,-31.84490394592285,-67.73748779296875,-6.637635231018066,95.2581558227539,-16.0513916015625,-0.8529785871505737,0.331307590007782,-0.2961313128471374,119.00153350830078,64.62313079833984,78.22987365722656,129.8536073347365,0.7745928606556695,96.82882641320624,0.9617852898556531,89.18776321411133,96.4680347442627,145.9673614501953
847.638,-31.89314842224121,-115.18801879882812,35.385833740234375,0.3869704306125641,0.3913626372814178,0.6645910143852234,29.52571487426757,-34.134517669677734,-68.36823272705078,-0.1622810661792755,150.5536651611328,31.1297607421875,-0.8282153606414795,0.2928677201271057,-0.3035158812999725,123.62559509277344,62.53293991088867,83.36936950683594,124.6499491398765,0.8628974704041728,153.7383960904392,0.9294267455244892,94.09988021850586,96.6674575805664,151.73760223388672
857.059,-31.60606002807617,-109.03996276855467,35.92141342163086,0.4111338853836059,0.3693055212497711,0.5848581790924072,29.23810577392578,-36.34310150146485,-68.92918395996094,-3.752052068710327,103.45458984375,5.963626861572266,-0.8594240546226501,0.3630706667900085,-0.3531451821327209,126.6754379272461,61.21968460083008,86.89600372314453,119.0756249333753,0.8046593871865731,103.69423754389112,0.9975678094299806,97.43733215332033,97.56278610229492,155.82518768310547
886.725,-32.8184700012207,-102.8846206665039,33.793060302734375,0.4370227754116058,0.3815188109874725,0.5589995980262756,28.95009422302246,-38.4262580871582,-69.47808074951172,-8.846714973449707,78.49674987792969,-17.93947410583496,-0.8071964383125305,0.3269977569580078,-0.365345686674118,129.20855712890625,60.5307846069336,89.97411346435547,113.15594578958574,0.8056215364296658,81.00511612493149,0.9444422130820848,100.2584629058838,98.9570426940918,159.4521942138672
906.92,-29.51472854614257,-94.23790740966795,32.22575378417969,0.5157610177993774,0.3241153359413147,0.4526565372943878,28.70656967163086,-40.424354553222656,-69.96345520019531,-10.912219047546388,78.73635864257812,-21.81685256958008,-0.7782570123672485,0.3364248871803283,-0.414709985256195,131.65562438964844,59.8393669128418,93.02449035644533,103.87685787057774,0.7589190465584235,82.42854937991517,0.9438485333379958,102.94905471801758,100.26372146606444,162.98794555664062
916.965,-23.438514709472656,-83.50019836425781,32.78557586669922,0.5590475797653198,0.351633220911026,0.5740159749984741,28.46510505676269,-42.190704345703125,-70.28134155273438,-11.451204299926758,69.46351623535156,-18.585617065429688,-0.8002675771713257,0.3591997027397156,-0.4258046448230743,133.6450653076172,59.15512466430664,95.58336639404295,92.71753385184304,0.875028261282556,72.81301620864502,0.9750703651905684,105.17996025085448,101.34582901000977,165.86470794677734
936.733,-26.919172286987305,-73.70247650146484,25.17124938964844,0.5545938014984131,0.3525208234786987,0.486830860376358,28.243135452270508,-43.727577209472656,-70.68484497070312,-10.857345581054688,65.1402359008789,-17.428415298461914,-0.7685322761535645,0.4019794762134552,-0.4640700221061706,135.39938354492188,58.47377395629883,97.87754821777344,82.40320791632665,0.8178321968847558,68.2999410402693,0.9836617021132033,107.15624809265135,102.20135116577148,168.56239318847656
959.317,-28.32325935363769,-68.70780944824219,20.85015869140625,0.5871947407722473,0.3272936344146728,0.49445840716362,28.005586624145508,-45.14239501953125,-71.11447143554688,-10.264608383178713,55.20200729370117,-11.575334548950195,-0.7381571531295776,0.3944223523139953,-0.4334970116615295,136.71267700195312,57.8040771484375,99.6597671508789,77.18613358010755,0.8345105770053106,57.3289818890409,0.942530972350906,108.70709037780762,102.94647216796876,170.77423858642578
976.909,-18.14557266235352,-60.72638702392578,16.229482650756836,0.6515219807624817,0.2946583330631256,0.4648275971412658,27.964136123657227,-46.40109252929688,-71.5420913696289,-12.191641807556152,46.16386032104492,-12.618145942687988,-0.7352937459945679,0.3904100954532623,-0.4594064950942993,137.77212524414062,57.26723861694336,101.1954574584961,65.4243990827244,0.8528593786342098,49.38578476379281,0.9508581720032584,109.8079891204834,103.66833114624023,172.737548828125
999.026,-14.074495315551758,-51.27141189575195,13.06392765045166,0.6824951171875,0.2977775037288666,0.4545855224132538,27.987638473510746,-47.46541595458984,-71.93551635742188,-11.62126922607422,30.198017120361328,-10.78437614440918,-0.768831729888916,0.3762881159782409,-0.4724664092063904,138.44857788085938,56.921966552734375,102.26515197753906,54.74956896476518,0.8724213568565967,34.106845430948866,0.9777113494988272,110.46093940734865,104.38738250732422,174.20066833496094
1020.048,-14.245173454284668,-44.65576934814453,10.699951171875,0.6849430799484253,0.3193938136100769,0.5425933003425598,27.98366928100586,-48.35112380981445,-72.29815673828125,-8.867341995239258,20.710174560546875,-8.269108772277832,-0.8138719201087952,0.36215940117836,-0.4646736979484558,138.91445922851562,56.69231033325195,103.0212860107422,48.07859875139718,0.9303584903241624,23.99831753012321,1.004723135878008,110.93078994750977,105.0434341430664,175.31944274902344
1036.565,-15.496861457824709,-34.822017669677734,8.35049057006836,0.7292739748954773,0.3040473163127899,0.4740490019321441,27.921262741088867,-49.08210372924805,-72.60211944580078,-7.387581825256348,18.378137588500977,-7.618294715881348,-0.7867202758789062,0.3445949256420135,-0.4936631917953491,139.3708038330078,56.47432327270508,103.7214813232422,39.018666332810014,0.9214161694097412,21.22193961033619,0.9906451444340596,111.44954109191896,105.55642700195312,176.32360076904297
1058.967,-12.85558795928955,-26.44864082336425,9.735433578491213,0.7444438934326172,0.2899006903171539,0.5257171988487244,27.76154899597168,-49.658958435058594,-72.67626190185547,-7.233899116516113,18.40395736694336,-5.039735317230225,-0.8542223572731018,0.3510614931583404,-0.4575086236000061,139.73007202148438,56.25548553466797,104.31590270996094,30.97701422254209,0.95635646799759,20.406711524886585,1.030657143919427,111.9685230255127,105.91444396972656,176.9921646118164
1082.514,-14.21457290649414,-17.313251495361328,9.956669807434082,0.7520168423652649,0.267188012599945,0.4824581146240234,27.47090148925781,-50.09716796875,-72.6487808227539,-9.832655906677246,25.737951278686523,-6.050504684448242,-0.8339186310768127,0.3101347684860229,-0.4950431287288666,140.24539184570312,55.929595947265625,105.1432876586914,24.51403748691631,0.9325688165731788,28.20871966502001,1.0181706915751256,112.77449035644533,106.02676391601562,177.7920684814453
1103.982,-9.75324821472168,-8.690043449401855,11.23751163482666,0.7610074877738953,0.2615832984447479,0.5972283482551575,27.096376419067383,-50.35041809082031,-72.43415069580078,-9.83531093597412,30.244691848754883,-10.388273239135742,-0.7790381908416748,0.3411409556865692,-0.490287721157074,140.8929443359375,55.57404708862305,106.14783477783205,17.231493656480517,1.0021177168540396,33.45730035619096,0.9816617054535705,113.79656791687012,105.92446517944336,178.5819854736328
1116.523,-14.095965385437012,-3.4899418354034424,8.98923110961914,0.7411221265792847,0.3141802251338959,0.5027792453765869,26.70933151245117,-50.50502395629883,-72.18370819091797,-8.256974220275879,29.89412879943848,-8.534488677978516,-0.8584600687026978,0.4007861018180847,-0.4969248175621032,141.4630889892578,55.19429016113281,107.04136657714844,17.07870633578791,0.9490828151178572,32.166349760988744,1.0698212295877785,114.75375747680664,105.69931411743164,179.2250747680664
1138.919,-6.68426513671875,0.6251249313354492,8.738319396972656,0.7843040227890015,0.2352103292942047,0.4132837653160095,26.385860443115234,-50.596954345703125,-71.84471893310547,-11.627286911010742,33.36322021484375,-1.4434049129486084,-0.7982031106948853,0.341092050075531,-0.4353224635124206,141.85833740234375,54.70249557495117,107.80597686767578,11.01945586139531,0.9172023603564684,35.36073644252682,0.9710703577940388,115.47247695922852,105.2994499206543,179.65069580078125
1162.595,14.498592376708984,9.15985107421875,9.26759433746338,0.8424068093299866,0.2526515126228332,0.4107363224029541,26.39109230041504,-50.53902816772461,-71.38282012939453,-13.205292701721191,34.91858673095703,2.0868678092956543,-0.7516895532608032,0.3360707461833954,-0.4638180136680603,142.1697540283203,54.108009338378906,108.5051498413086,19.49359785703023,0.9706628383621356,37.390406147553065,0.945043851217855,115.77866172790527,104.64703750610352,179.88796997070312
1184.096,7.566172122955322,15.448569297790527,7.655665397644043,0.7681209444999695,0.3223179578781128,0.4827426970005035,26.280866622924805,-50.35721206665039,-70.92961883544922,-13.146000862121582,31.43421745300293,-5.281570911407471,-0.7540943622589111,0.4579163193702698,-0.4623614847660064,142.47030639648438,53.63067626953125,109.23628997802734,18.828554554811337,0.9627767980469628,34.47930331143309,0.9960541176719842,116.18943977355956,103.98788833618164,180.16590881347656
1206.581,-0.2875312566757202,19.37504005432129,0.7529765367507935,0.7765101194381714,0.2716733813285827,0.417746901512146,26.106578826904297,-50.07634353637695,-70.60910034179688,-8.259461402893066,22.110301971435547,-10.19225025177002,-0.7098556160926819,0.4473052024841308,-0.4194048643112182,142.7829132080078,53.363651275634766,109.87644958496094,19.39179787938749,0.922652082550832,25.709261388236204,0.9380177930485124,116.67633438110352,103.43999481201172,180.4855499267578
1216.778,6.767084121704102,23.819637298583984,-3.62511682510376,0.7857229709625244,0.2570827603340149,0.3675445914268493,26.07107925415039,-49.61655044555664,-70.31327056884766,-8.414756774902344,19.06827545166016,-8.647542953491211,-0.7174504995346069,0.4402773380279541,-0.4157352149486542,143.00511169433594,53.13351440429688,110.4095687866211,25.026186695978343,0.9047326452860326,22.56517802751899,0.9388371118633104,116.93403244018556,102.75006484985352,180.72283935546875
1238.958,12.75694179534912,30.55615234375,-5.191004753112793,0.7351235747337341,0.2766908705234527,0.4873953759670257,26.153705596923828,-49.05561828613281,-70.00314331054688,-9.934188842773438,18.929027557373047,-11.456608772277832,-0.7357751727104187,0.3957035541534424,-0.4539698362350464,143.3072967529297,52.94526290893555,111.0566177368164,33.51663080280032,0.9244018392854746,24.25386725437216,0.9508075618956696,117.15359115600586,102.00088119506836,181.05976104736328
1262.145,9.946978569030762,37.45016479492188,-9.492020606994627,0.7169878482818604,0.2724630236625671,0.4735493957996368,26.204713821411133,-48.33984375,-69.7169418334961,-10.42368984222412,19.98782157897949,-13.352903366088867,-0.7427486181259155,0.3628246486186981,-0.5144839286804199,143.71002197265625,52.7513542175293,111.8170928955078,39.89430637350616,0.9014192720978412,26.20050285212312,0.9736585378065958,117.50530815124512,101.0911979675293,181.5340347290039
1283.86,12.225593566894531,46.91546249389648,-11.524011611938477,0.6994147300720215,0.2682904601097107,0.4577940106391907,26.25668716430664,-47.44584274291992,-69.36708068847656,-8.60938549041748,23.41894149780273,-15.700098991394045,-0.7379295825958252,0.3701920807361603,-0.5426007509231567,144.250244140625,52.5141830444336,112.70471954345705,49.83300716102926,0.8779157657797896,29.47984816344362,0.9879260197060254,117.99355697631836,99.96002578735352,182.0718002319336
1306.322,19.63501739501953,58.19999694824219,-16.739959716796875,0.7005804181098938,0.2671384811401367,0.4490686357021332,26.45686149597168,-46.3184928894043,-69.01882934570312,-5.024055480957031,27.62154006958008,-19.2830753326416,-0.7071990966796875,0.396008551120758,-0.5715193748474121,144.98045349121094,52.218257904052734,113.74996948242188,63.66317463179245,0.8739785637624461,34.059177963883435,0.9917599158724376,118.52359199523926,98.53675079345705,182.768798828125
1316.364,18.980791091918945,72.2117919921875,-24.21773147583008,0.7058366537094116,0.3092768788337707,0.4975779056549072,26.667648315429688,-44.8580207824707,-68.67301177978516,-2.0629024505615234,30.622556686401367,-21.11001968383789,-0.7425464987754822,0.4480893611907959,-0.6033597588539124,145.8080291748047,51.88009262084961,114.86277770996094,78.49402430142969,0.9173011183339866,37.250898990285066,1.0565047927294764,119.140380859375,96.73811340332033,183.5357894897461
1343.74,15.169416427612305,80.96383666992188,-32.85744857788086,0.6644915342330933,0.300483763217926,0.5176277160644531,26.865310668945312,-43.15634536743164,-68.43878936767578,5.137972354888916,26.375717163085938,-19.299510955810547,-0.7830718159675598,0.4753845334053039,-0.571043848991394,146.62350463867188,51.60567855834961,115.80278778076172,88.68407957528896,0.8943030490069677,33.08395893662305,1.0794827469833024,119.75819396972656,94.76202392578124,184.2415771484375
1363.643,18.051815032958984,88.18661499023438,-39.91072463989258,0.6450839042663574,0.2854110598564148,0.4894247651100158,27.167749404907227,-41.2753791809082,-68.25770568847656,12.754068374633787,23.59063720703125,-8.81452465057373,-0.7503719329833984,0.3968415260314941,-0.5155754685401917,147.3387451171875,51.28267288208008,116.4149398803711,98.46630403697156,0.8585623549485984,28.22906779817876,0.9931562305864496,120.17099571228027,92.55805206298828,184.67264556884768
1386.365,26.40675544738769,93.10149383544922,-43.12472534179688,0.6127612590789795,0.2836376130580902,0.4401535391807556,27.63326072692871,-39.25576019287109,-68.07307434082031,14.72401237487793,13.405431747436523,-4.088284015655518,-0.6772363185882568,0.3753370642662048,-0.463575154542923,147.82882690429688,51.07680130004883,116.70082092285156,105.94784954615996,0.806016001220008,20.32772016098712,0.9024571274783324,120.19556617736816,90.33256149291992,184.77389526367188
1406.337,35.46501159667969,96.48321533203124,-43.53667449951172,0.5606540441513062,0.2922011017799377,0.5710067749023438,28.22942543029785,-37.17231750488281,-67.85235595703125,18.44058609008789,-6.224457740783691,-3.655391216278076,-0.7794467210769653,0.3578133285045624,-0.448306143283844,148.13099670410156,51.24842071533203,116.646484375,111.63431333974412,0.8519173540250252,19.803054674892657,0.9677530507103456,119.90157127380373,88.42073822021484,184.49884033203125
1416.555,29.34444046020508,100.95889282226562,-48.05117416381836,0.535264253616333,0.3539460897445678,0.6336168050765991,28.735843658447266,-34.943233489990234,-67.64148712158203,18.57218360900879,-16.953529357910156,0.6225244402885437,-0.791471004486084,0.3251065015792846,-0.4719409644603729,148.2397918701172,51.55756378173828,116.3233642578125,115.59718666274644,0.9018070255439335,25.15423817918191,0.9771636824233284,119.50394821166992,86.50079727172852,183.96485137939453
1436.32,15.894330978393556,104.45117950439452,-51.361087799072266,0.4498293101787567,0.3511209785938263,0.6138016581535339,28.989267349243164,-32.60451126098633,-67.44829559326172,25.142961502075195,-23.908466339111328,3.64506196975708,-0.7651382684707642,0.2748868465423584,-0.4816985130310058,148.36456298828125,51.94999313354492,115.8324737548828,117.47612522131456,0.8380840205233662,34.886526805439146,0.9450041300104056,119.37529563903809,84.55450439453125,183.28076934814453
1458.774,21.740219116210938,104.76390075683594,-55.38710784912109,0.4396930932998657,0.267036497592926,0.5546417236328125,29.36008644104004,-30.27660751342773,-67.33903503417969,26.82716941833496,-27.18466567993164,7.664548873901367,-0.7331987619400024,0.281085729598999,-0.4704115688800812,148.37452697753906,52.34415817260742,115.1616439819336,120.48171539656632,0.7564826164140709,38.95443975428376,0.9153560269265578,119.01444053649902,82.62076568603516,182.50067901611328
1476.319,38.32037734985352,106.90060424804688,-54.567527770996094,0.4209004342556,0.2875728011131286,0.7006909847259521,29.992807388305664,-27.880390167236328,-67.09622192382812,32.90214538574219,-47.73663711547852,7.946879863739014,-0.7963365912437439,0.2923315763473511,-0.4779855608940124,148.19908142089844,53.0958137512207,114.1126937866211,125.99129174618037,0.866500517929925,58.51914723958388,0.9736939526907809,118.20627403259276,80.97620391845703,181.2089157104492
1498.8429999999998,25.12042236328125,115.43909454345705,-62.02825927734375,0.4076699316501617,0.4706637561321258,0.7279682755470276,30.4746322631836,-25.24722480773925,-66.95853424072266,33.32045364379883,-69.94495391845703,14.508256912231444,-0.8947683572769165,0.3158227503299713,-0.5068371295928955,147.5244598388672,54.154178619384766,112.44585418701172,133.43434759348972,0.9579441292220344,78.82283126299724,1.07575010980431,117.0498275756836,79.40140342712402,179.40438842773438
1521.291,0.9273989796638488,116.16384887695312,-69.27980041503906,0.2873808145523071,0.4174235165119171,0.8033459186553955,30.46855735778809,-22.48036003112793,-66.93849182128906,45.270606994628906,-88.69112396240234,12.288236618041992,-0.8471006155014038,0.2916394174098968,-0.4906765818595886,146.7926788330078,55.52603530883789,110.43446350097656,135.25749739043204,0.9498393494324204,100.33216875238644,1.0214678215956932,116.32412147521973,78.00639533996582,177.37295532226562
1537.1,9.928749084472656,113.8907470703125,-72.69230651855469,0.2897769808769226,0.2975346148014068,0.6205461621284485,30.65597343444824,-19.79771614074707,-66.94527435302734,45.0071907043457,-104.4911880493164,15.747825622558594,-0.8773307204246521,0.2677399516105652,-0.3949697613716125,145.5518798828125,57.14102554321289,107.86286926269533,135.4763955587977,0.7467095050844824,114.85664807442996,0.9986966441754048,114.89590644836426,76.93874168395996,174.80814361572266
1558.657,29.15032386779785,119.7743682861328,-66.39276885986328,0.2836896479129791,0.3469564616680145,0.7207092046737671,31.158187866210938,-17.074438095092773,-66.81275939941406,45.9482307434082,-104.63153076171876,16.50349235534668,-0.8546121716499329,0.1979041248559951,-0.3930899798870086,144.1910858154297,58.71567535400391,105.14796447753906,140.0130009564073,0.8486933252522211,115.46151912179644,0.9612740186100946,113.03289794921876,75.79011344909668,171.96072387695312
1581.673,15.86225128173828,125.73355102539062,-63.83876800537109,0.1768283247947693,0.5153089761734009,1.00984787940979,31.371213912963867,-14.197364807128906,-66.52134704589844,56.9775505065918,-119.64655303955078,10.776651382446287,-0.9700456857681274,0.2166832387447357,-0.3542839884757995,142.64207458496094,60.58491516113281,102.01922607421876,141.90111052991483,1.1474338050288797,132.95817060638296,1.0552049103944623,111.27086067199708,74.78227996826172,168.5405731201172
1603.858,-12.328265190124512,118.76006317138672,-70.69485473632812,0.0385504066944122,0.4810182750225067,0.8206310272216797,31.120635986328125,-11.422679901123049,-66.44181823730469,47.520973205566406,-84.28804016113281,-0.1354396939277649,-0.8893560171127319,0.232069730758667,-0.2759817242622375,141.70606994628906,61.94417190551758,99.86827850341795,138.75770686077345,0.951997897897281,96.76122649346478,0.9596751519320378,110.58543395996094,73.36685180664062,166.31009674072266
1616.44,-2.977905035018921,112.67218780517578,-67.02435302734375,0.019229220226407,0.317055881023407,0.6994320750236511,31.0405502319336,-8.787885665893555,-66.42524719238281,36.23826599121094,-63.87213897705078,-6.757198333740234,-0.8344231843948364,0.2214239239692688,-0.3443787693977356,141.16140747070312,63.04471206665039,98.4234848022461,131.1341058685207,0.768179290383394,73.74633407075193,0.9294554005295071,110.12085723876952,71.83259773254395,164.8487319946289
1638.686,19.421367645263672,116.046142578125,-60.20256042480469,0.0549493320286273,0.3738214075565338,0.8857543468475342,31.359359741210938,-6.153055191040039,-66.1810073852539,32.23240661621094,-89.2004623413086,-13.641282081604004,-0.9237892627716064,0.1710010915994644,-0.3286893963813782,140.03179931640625,64.64740753173828,96.4251708984375,132.1674884764679,0.962975927423548,95.82137076355076,0.9953214026804966,108.67243957519533,70.80046272277832,162.6061782836914
1661.585,10.743408203125,116.28024291992188,-62.91600036621094,0.0040237940847873,0.5305273532867432,0.992046594619751,31.529359817504883,-3.4663305282592773,-66.01217651367188,20.94515037536621,-110.65457916259766,-1.565732717514038,-1.0095231533050537,0.2028420120477676,-0.2771336734294891,137.3307342529297,66.39167022705078,92.99089050292967,132.64591518556486,1.125003070840661,112.6303100095218,1.0663418550629475,105.8013744354248,69.85800075531006,159.00306701660156
1684.146,-5.661545753479004,114.35272216796876,-68.12370300292969,-0.0790175423026084,0.4683696627616882,0.8745430111885071,31.382333755493164,-0.7381632328033447,-65.94424438476562,32.76799774169922,-62.57988357543945,-5.860122203826904,-0.9416330456733704,0.2446563094854354,-0.2620232403278351,136.18006896972656,67.40637969970703,91.02486419677734,133.22701332077798,0.9952082151015952,70.88246988190625,1.0075642316731173,104.7977352142334,68.14454293251038,156.96910858154297
1705.822,2.226321220397949,109.68170928955078,-66.75728607177734,-0.1260865181684494,0.4245809912681579,0.7918761968612671,31.39685821533203,1.90408456325531,-65.88768768310547,21.41781616210937,-30.382104873657227,-10.67027187347412,-0.8906773328781128,0.2229242622852325,-0.2444062083959579,135.96774291992188,68.01300811767578,90.33106994628906,128.41950436955844,0.9073228418625636,38.673632458842974,0.950124061752344,104.57088470458984,66.10892355442047,156.21875762939453
1715.962,19.60099220275879,107.66431427001952,-64.25090789794922,-0.1392513513565063,0.4282868504524231,0.8034237027168274,31.757810592651367,4.466856956481934,-65.83445739746094,24.41510963439941,-37.10375595092773,-10.898134231567385,-0.9703381061553956,0.1876419186592102,-0.2828640639781952,135.6428985595703,68.72509002685547,89.44140625,126.90146818802728,0.9210375731816192,45.73352833376197,1.027996891330713,103.88508796691896,64.25823307037354,155.27586364746094
1741.004,20.562923431396484,112.72593688964844,-63.31574249267578,-0.1213964894413948,0.5330526232719421,0.939815878868103,32.15735626220703,7.056507587432861,-65.64569854736328,28.44806289672852,-38.590782165527344,-19.10929107666016,-1.112941026687622,0.2217341065406799,-0.1877117455005645,135.4716033935547,69.60722351074219,88.65483093261719,130.9154456704529,1.0872608210537242,51.61110109439566,1.1502345162125682,103.31424713134766,62.550715923309326,154.30052947998047
1763.478,2.901530265808105,116.5701141357422,-66.01412963867188,-0.2078921645879745,0.597957193851471,0.8677031993865967,32.25679397583008,9.76116943359375,-65.50359344482422,29.439735412597656,-21.03093719482422,-24.72808074951172,-1.0073786973953247,0.1985478699207306,-0.2421455532312393,136.27529907226562,70.2826919555664,88.87809753417969,133.99580478304063,1.0740953402754967,43.823239474173626,1.054925383885336,104.01850509643556,60.521522521972656,154.3816909790039
1785.979,0.6865556240081787,111.93782043457033,-67.44173431396484,-0.3082313239574432,0.5131045579910278,0.7751370668411255,32.28621292114258,12.422881126403809,-65.38433074951172,33.96379470825195,-16.009315490722656,-23.111587524414062,-0.9288690090179444,0.2144630849361419,-0.2537398040294647,137.3168182373047,70.83233642578125,89.25935363769531,130.68639764544125,0.9793468787364312,44.09062271463658,0.9864968012432762,105.03060531616212,58.40945529937744,154.64368438720703
1795.977,19.375587463378903,109.78092956542967,-64.25468444824219,-0.3362077474594116,0.4523890316486358,0.7310934066772461,32.68809127807617,15.028684616088867,-65.24874877929688,35.84498977661133,-3.401149034500122,-12.940646171569824,-0.8652710914611816,0.2288610488176345,-0.22238090634346,138.413818359375,71.04490661621094,89.66682434082031,128.6698502344044,0.9231408639501684,38.26083415423684,0.922238965176852,105.72572708129884,56.01622200012207,154.9155731201172
1824.645,31.84320640563965,111.40113830566406,-63.23875045776367,-0.3098536431789398,0.5107659101486206,0.8022446632385254,33.36509323120117,17.60442352294922,-65.06661987304688,25.90798759460449,-4.863090991973877,-15.902240753173828,-0.9891122579574584,0.2363359183073043,-0.2247100919485092,139.3972625732422,71.33489227294922,90.16472625732422,131.9975112244514,1.000243767716603,30.78562547960168,1.0414856458671748,106.03216934204102,53.73046875,155.2313461303711
1844.129,24.689661026000977,116.75183868408205,-65.26345825195312,-0.3604357540607452,0.6108680963516235,0.837327241897583,33.95576858520508,20.27395439147949,-64.77054595947266,27.174165725708008,-3.2165799140930176,-10.280229568481444,-1.0538262128829956,0.2318410128355026,-0.1859198063611984,140.19076538085938,71.54829406738281,90.43883514404295,136.0143013829692,1.0973562201807614,29.231229690395693,1.0949274480938425,106.2349967956543,51.27433967590332,155.20938110351562
1866.317,13.567298889160156,115.40982055664062,-66.8348388671875,-0.504672646522522,0.5641840100288391,0.7274022102355957,34.321048736572266,22.955957412719727,-64.50759887695312,28.086727142333984,7.805670261383057,1.018814206123352,-0.9386484026908876,0.2087591290473938,-0.2220920175313949,140.9640655517578,71.41986083984375,90.666015625,134.05369807083545,1.049815246972484,29.16900259151757,0.9868971892177756,106.64301681518556,48.46390342712402,155.17361450195312
1886.211,20.706270217895508,110.62149810791016,-65.94023895263672,-0.5418787598609924,0.4709487557411194,0.6661264896392822,34.8119010925293,25.581201553344727,-64.2702865600586,29.36299705505371,8.1621675491333,-9.120235443115234,-0.8888298869132996,0.1271102577447891,-0.2345733642578125,142.3668975830078,71.42676544189453,91.51773834228516,130.43765017473177,0.979361945922828,31.81171591871575,0.92800875465347,107.55499649047852,45.845563888549805,155.78802490234375
1896.091,38.40607070922852,112.31106567382812,-59.43783187866211,-0.5309773683547974,0.4906973838806152,0.6738108396530151,35.754032135009766,28.157983779907227,-63.87983322143555,24.697105407714844,-0.7891817092895508,-10.328641891479492,-0.9876438975334167,0.1692467629909515,-0.2358672767877578,143.33807373046875,71.58663177490234,92.02027893066406,132.74659166452938,0.9883025528076752,26.78153592706139,1.0294262029777492,107.58404159545898,43.42864799499512,155.9001121520996
1916.081,31.218658447265625,119.27950286865234,-58.48908615112305,-0.5518615245819092,0.6378446817398071,0.8551491498947144,36.64714431762695,30.753772735595703,-63.27177429199219,26.05338859558105,-15.301871299743652,-2.939279556274414,-1.1660348176956177,0.1656703054904937,-0.2132254242897033,143.434326171875,71.91963958740234,91.5749282836914,136.4667638607781,1.2011149191077752,30.357300388806053,1.1968913600503974,106.78718185424805,41.16586685180664,154.8467025756836
1938.4,19.827957153320312,117.19393920898438,-63.66282272338867,-0.6890838146209717,0.5576013326644897,0.6399996280670166,37.28410720825195,33.41813659667969,-62.79166793823242,31.82714080810547,-8.138720512390137,-6.852245330810547,-0.949860155582428,0.1219815760850906,-0.2468754351139068,144.19947814941406,72.15174865722656,91.7020492553711,134.83516703480083,1.0933230417802984,33.558291518958285,0.9889698178053554,106.91537094116212,38.73361206054688,154.49371719360352
1960.819,18.579748153686523,109.50347137451172,-57.58935546875,-0.7666335105895996,0.5287777185440063,0.5809924602508545,37.96236801147461,35.87977600097656,-62.22357177734375,28.8635482788086,1.2401525974273682,-10.534850120544434,-0.810709536075592,0.2710620462894439,-0.234247624874115,145.1732635498047,72.20005798339844,92.13687133789062,125.1109553469598,1.0976725623134975,30.751023800360784,0.886338837342518,107.21089553833008,36.32028198242188,154.36044311523438
1976.154,30.56546401977539,106.13542938232422,-54.50449752807617,-0.76025390625,0.4967749118804931,0.6037197709083557,38.93361282348633,38.2783432006836,-61.612003326416016,10.435033798217772,2.215427160263061,-14.822251319885254,-0.9700784087181092,0.2031395435333252,-0.3195938467979431,146.2424774169922,72.29438781738281,93.0395050048828,123.16540590483424,1.090526880378422,18.26190521446814,1.041373141635165,107.30886459350586,34.01604461669922,154.65150833129883
1998.72,26.17375946044922,108.9286880493164,-49.443302154541016,-0.773091197013855,0.5980028510093689,0.7100440263748169,39.97538757324219,40.59292984008789,-60.8068962097168,5.868488788604736,-6.155966758728027,-17.799251556396484,-1.1177226305007937,0.0764189437031745,-0.2823793888092041,147.2360076904297,72.6298828125,93.94528198242188,122.4547463040285,1.2080728157301657,19.726845753044927,1.1553708724537683,107.2606201171875,32.03695297241211,154.75217819213867
2020.848,13.528155326843262,107.99465942382812,-49.224876403808594,-0.8247129917144775,0.5714079737663269,0.587289571762085,40.863067626953125,42.911094665527344,-59.89797592163086,17.47235679626465,-10.644209861755373,-17.732372283935547,-0.9780137538909912,0.0859707444906234,-0.2883507311344147,148.3345489501953,73.00731658935547,94.71702575683594,119.45269317845478,1.1625694096641612,27.07433253864537,1.0232536419939935,107.4714813232422,30.096221923828125,154.6150016784668
2036.858,9.37490463256836,100.26338958740234,-43.54792022705078,-0.8557741045951843,0.5420182943344116,0.497764527797699,41.751895904541016,45.0481071472168,-58.96802520751953,25.410032272338867,0.25525963306427,-8.549853324890137,-0.8765496015548706,0.1565621942281723,-0.2806008160114288,149.35401916503906,73.05987548828125,95.24999237060548,109.71352461992346,1.1286729706263638,26.81109638636044,0.9335886367098852,107.60212326049805,28.011768341064453,154.218017578125
2058.36,14.063950538635254,95.56046295166016,-40.42449188232422,-0.8551275730133057,0.5125485062599182,0.5132670402526855,42.77092361450195,47.04400634765625,-57.97084426879883,15.339920043945312,4.963028430938721,-19.38603401184082,-0.930789053440094,0.1821677535772323,-0.3232918977737427,150.93374633789062,73.11872863769531,96.58113098144533,104.70786182628736,1.12133500436161,25.214343395559407,1.0020334343790278,108.16282272338869,26.074722290039062,154.55197525024414
2081.741,12.96481704711914,95.41471099853516,-37.878639221191406,-0.8297389149665833,0.5612025856971741,0.5668554902076721,43.8869743347168,48.93452453613281,-56.857460021972656,6.99022102355957,-2.236180543899536,-17.1485595703125,-1.0604490041732788,0.1793541014194488,-0.2722425162792206,151.9502716064453,73.3205337524414,97.50227355957033,103.47388494324755,1.1509735687589429,18.653063789085305,1.1094304718269272,108.06329727172852,24.3860092163086,154.35973358154297
2103.329,4.077310562133789,94.03822326660156,-36.04108810424805,-0.8498885631561279,0.6226515173912048,0.5341179370880127,44.97196578979492,50.74620819091797,-55.62364959716797,6.3666605949401855,-7.600793838500977,-11.41176700592041,-1.0072523355484009,0.1357865184545517,-0.2730762958526611,152.53257751464844,73.55965423583984,97.97647857666016,100.7907333453699,1.1812228632278974,15.117369490224554,1.0524095730362428,107.56061172485352,22.813446044921875,153.60012817382812
2125.822,0.3363233208656311,86.13774108886719,-33.25293731689453,-0.8996053338050842,0.539911150932312,0.4363135397434234,45.99449920654297,52.4384994506836,-54.40547943115234,4.8291192054748535,-9.762221336364746,-9.772743225097656,-0.8970033526420593,0.1222670525312423,-0.3234497904777527,153.00001525878906,73.77774047851562,98.35669708251952,92.33407493157765,1.1362936735171267,14.63310861931098,0.9613448984344144,107.0055160522461,21.33924102783203,152.76217651367188
2135.876,4.738307952880859,77.82730865478516,-26.648727416992188,-0.9120531678199768,0.5263359546661377,0.4022455215454101,47.168434143066406,53.90672302246094,-53.1496467590332,-1.7293952703475952,-9.898951530456545,-9.667566299438477,-0.9006270170211792,0.1977308541536331,-0.3299772143363952,153.19537353515625,73.973388671875,98.6010284423828,82.39961290958036,1.127240869427696,13.944242093332544,0.9793423693754908,106.02693939208984,20.066665649414062,151.75067520141602
2158.187,7.3087639808654785,75.06775665283203,-22.795860290527344,-0.8876486420631409,0.5474040508270264,0.4326100349426269,48.489295959472656,55.226959228515625,-51.76957702636719,-8.40729808807373,-8.224660873413086,-0.8563107848167419,-1.0140931606292725,0.1609354317188263,-0.2634128034114837,152.84390258789062,74.13084411621094,98.40851593017578,78.79236870536414,1.1290362035610004,11.792411788288849,1.060033705416337,104.35460662841795,18.903884887695312,150.17809295654297
2181.177,0.8677444458007812,77.89665985107422,-20.62214469909668,-0.8628861904144287,0.5621928572654724,0.4510321915149688,49.87177276611328,56.50154113769531,-50.21337127685547,-7.725040912628174,-8.541891098022461,-8.97468376159668,-1.058415770530701,0.1634309291839599,-0.2022407799959182,152.87527465820312,74.38836669921875,98.6102294921875,80.58483386076847,1.1243057520759363,14.60085988060024,1.0898875836596116,103.00350189208984,17.886825561523438,148.82360076904297
2203.172,-6.672591686248779,78.47513580322266,-18.28365898132324,-0.8819344639778137,0.5602613091468811,0.4386911392211914,51.26935195922852,57.72222518920898,-48.42154312133789,-7.135880947113037,-15.88601779937744,-0.1441406011581421,-0.9875251650810242,0.1687130331993103,-0.2176473140716552,152.10984802246094,74.67361450195312,97.97161865234376,80.85272169130089,1.1332038867344203,17.415715171258686,1.0252026104932728,100.84049606323242,16.95138931274414,146.39316177368164
2225.695,-4.294815540313721,68.71347045898438,-16.222454071044922,-0.935075044631958,0.4895080029964447,0.3040841221809387,52.67133712768555,58.828346252441406,-46.76839447021485,-7.488739013671875,-6.34558629989624,1.413679599761963,-0.8666583299636841,0.1764037907123565,-0.3180915415287018,151.6402587890625,74.69818115234375,97.64055633544922,70.73298013748749,1.0983854412061267,9.91696362376636,0.9398921145882844,98.96892166137695,15.869834899902344,144.40895080566406
2235.9680000000003,1.960139870643616,58.26849365234375,-10.216571807861328,-0.9368273615837096,0.482690691947937,0.3236860632896423,54.10617446899414,59.6783447265625,-45.15456771850586,-12.688018798828123,2.4376683235168457,1.486546516418457,-0.8897777199745178,0.1487369239330291,-0.3137796223163605,151.41932678222656,74.58151245117188,97.67115020751952,59.189845753565685,1.102455657644796,13.00530155130473,0.95513596670061,97.31315231323242,14.903167724609377,142.8257179260254
2258.074,5.15880012512207,54.26057052612305,-7.698241710662842,-0.9241848587989808,0.4999073147773742,0.348123550415039,55.597537994384766,60.39579391479492,-43.611289978027344,-13.265091896057127,8.231958389282227,4.021381855010986,-0.9909521341323853,0.1654233634471893,-0.2642423510551452,151.14842224121094,74.37847900390625,97.66755676269533,55.04621383880204,1.1068942961976038,16.12139305263432,1.0388335003295093,95.55088424682616,13.982685089111328,141.27884674072266
2281.387,1.8885154724121087,55.353981018066406,-7.534480571746826,-0.8728788495063782,0.5011330246925354,0.3177301287651062,57.145729064941406,61.086368560791016,-41.88492965698242,-9.37372589111328,2.725278854370117,7.361671447753906,-1.0565423965454102,0.1520438492298126,-0.1722086071968078,150.50299072265625,74.2957534790039,97.19852447509766,55.89631564534487,1.0554639875799452,12.22653215022475,1.0812284551283329,93.35726165771484,13.20938491821289,139.08345413208008
2303.096,0.1329224407672882,59.98464584350586,-9.22342300415039,-0.8346364498138428,0.4526097774505615,0.2845462262630462,58.83663177490234,61.839202880859375,-39.997825622558594,-6.458859920501709,-7.526570320129394,9.574071884155272,-1.0676021575927734,0.1899169236421585,-0.1111640781164169,149.305419921875,74.38529205322266,96.10404205322266,60.68975973967581,0.9911811988139418,13.785100097550565,1.0900459885004483,90.46878814697266,12.54608917236328,136.10186767578125
2327.4210000000003,4.280732154846191,64.44615173339844,-9.854196548461914,-0.8812564611434937,0.4261306226253509,0.3078063130378723,60.78682327270508,62.63003158569336,-37.888465881347656,-13.065767288208008,-19.776954650878903,13.89145278930664,-1.0127497911453247,0.2628650963306427,-0.1381348967552185,147.19635009765625,74.59317016601562,94.20376586914062,65.33556711808254,1.026131075541615,27.473890708999743,1.0553868712635153,86.40952682495117,11.963138580322266,132.09223175048828
2335.758,6.020466327667236,64.01669311523438,-11.039376258850098,-0.923151969909668,0.4165489077568054,0.2497757971286773,62.8900146484375,63.42321395874024,-35.65789031982422,-21.15076065063477,-21.30739402770996,19.39698028564453,-0.9874171614646912,0.1852223575115203,-0.2009623795747757,144.70037841796875,74.73127746582031,92.054931640625,65.23994819431675,1.0431253524542266,35.743566701634755,1.0245417758595643,81.81036376953125,11.308063507080078,127.71282196044922
2358.059,8.62345027923584,58.1624641418457,-9.53502082824707,-0.9365927577018738,0.3971873819828033,0.2322022020816803,64.96881103515625,64.10869598388672,-33.524139404296875,-23.21566772460937,-17.193227767944336,13.921117782592772,-0.9103477001190186,0.1499150991439819,-0.248392105102539,142.72886657714844,74.82028198242188,90.48719787597656,59.566372660797846,1.0434949318695974,32.06823707809181,0.9554612027396022,77.76005554199219,10.711585998535156,124.01133728027344
2386.714,10.545761108398438,52.45936584472656,-6.973310470581055,-0.9664694666862488,0.3883740305900574,0.2490202188491821,66.97270965576172,64.66808319091797,-31.51825523376465,-21.05137062072754,-14.950231552124023,14.957633972167969,-0.9381412863731384,0.1145879626274108,-0.2477264702320099,140.90432739257812,74.86421203613281,89.02151489257812,53.96133060910737,1.0709382274759192,29.83957845745661,0.977040366837808,73.9316177368164,10.196128845214844,120.53977012634276
2405.571,8.616518020629883,44.82981491088867,-5.9029035568237305,-0.9803768992424012,0.385672003030777,0.2301869541406631,68.73594665527344,65.1240234375,-29.7446517944336,-20.397926330566406,-10.56096363067627,12.817699432373049,-0.9231224060058594,0.1011309325695037,-0.2812656760215759,139.5052490234375,74.844970703125,87.97711944580078,46.03043512878776,1.0783634787707124,26.30404474856172,0.9703055304904216,70.76930236816406,9.720947265625,117.72177124023438
2415.574,7.705405235290527,36.78562545776367,-4.080900192260742,-0.9837653636932372,0.3749043643474579,0.209143191576004,70.24195098876953,65.4729995727539,-28.24069023132324,-13.93289852142334,-2.750929117202759,10.767601013183594,-0.9196752309799194,0.1271710693836212,-0.2897607684135437,138.7090606689453,74.71553039550781,87.42491912841797,37.80488403021635,1.073353831591361,17.82230354907207,0.9725925736287262,68.46710968017578,9.242530822753906,115.6656093597412
2437.982,2.536440372467041,29.617162704467773,-3.087776660919189,-0.9681248664855956,0.3595294952392578,0.199717566370964,71.38776397705078,65.74357604980469,-27.02085494995117,-12.51305866241455,0.9371131658554076,6.995243549346924,-0.959038019180298,0.1274571865797042,-0.2806304097175598,138.31776428222656,74.59148406982422,87.26411437988281,29.885518585658087,1.0518623110330974,14.366219074249392,1.0073493353858574,66.93000030517578,8.847908020019531,114.28496932983398
2460.418,1.3289774656295776,23.976825714111328,-3.103123664855957,-0.9595947861671448,0.3585949838161468,0.1898949146270752,72.29432678222656,65.96795654296875,-26.039514541625977,-7.719393730163574,2.065239191055298,4.467065334320068,-0.960772693157196,0.1270888745784759,-0.2464200407266616,138.17169189453125,74.4996337890625,87.26150512695312,24.21329653121215,1.0418601607982212,9.15472146920066,0.9999792930005524,65.87736511230469,8.53167724609375,113.3010196685791
2475.711,-0.5429375767707825,18.98920249938965,-3.1534066200256348,-0.9516091346740724,0.3765653371810913,0.1881737262010574,72.96553802490234,66.14574432373047,-25.276790618896484,-2.833681583404541,2.079008340835572,3.5483131408691406,-0.965289831161499,0.1519766002893448,-0.2263374477624893,138.10629272460938,74.42050170898438,87.24625396728516,19.25690956738171,1.0405627081506603,4.994252010366974,1.0030503404310973,65.14075469970703,8.274757385253906,112.52304458618164
2497.978,-4.015276908874512,14.537065505981444,-3.042473793029785,-0.944827675819397,0.3747285306453705,0.2099053561687469,73.34994506835938,66.28730010986328,-24.74665641784668,-2.44822645187378,1.437346577644348,2.0763537883758545,-0.9558706283569336,0.1606463938951492,-0.2288294732570648,138.08731079101562,74.36566162109375,87.27191162109375,15.385232171189664,1.03787333871829,3.517246508054725,0.9959211062419052,64.73736572265625,8.078361511230469,112.01856803894044
2521.7580000000003,-3.3814048767089844,7.928712844848633,-2.4771807193756104,-0.945662260055542,0.3649446964263916,0.1782058179378509,73.50440216064453,66.3875732421875,-24.48802947998047,-1.802542209625244,5.467029571533203,-0.3512964248657226,-0.9265152215957642,0.1349987089633941,-0.243598997592926,138.46397399902344,74.2821044921875,87.69053649902344,8.968545625280905,1.0291836838436592,5.767233299565972,0.9674686449176064,64.9595718383789,7.89453125,112.1785659790039
2542.6980000000003,-2.8887689113616943,0.7643676400184631,-1.4473894834518433,-0.9391058683395386,0.3800340294837951,0.1825306862592697,73.3692626953125,66.41693115234375,-24.5565128326416,0.1230959296226501,9.320497512817385,-1.0761423110961914,-0.9296507835388184,0.1440822929143905,-0.2625877857208252,139.0962371826172,74.1393051147461,88.33465576171875,3.3202680658591737,1.029399410793366,9.383224859719398,0.9767101062626378,65.72697448730469,7.722373962402344,112.89116859436037
2555.356,-6.135334968566895,-6.320871353149414,0.0171064883470535,-0.9539611339569092,0.4048143327236175,0.2386212199926376,72.82218170166016,66.36032104492188,-24.99376678466797,0.4357132911682129,8.021516799926758,-2.000765323638916,-0.9359034299850464,0.1672792732715606,-0.2504170835018158,139.65342712402344,74.02558898925781,88.89932250976562,8.808861587715418,1.0634174042724684,8.278746265219377,0.9831613810731132,66.83124542236328,7.6652679443359375,113.8930892944336
2578.025,-9.66911506652832,-14.328601837158203,1.561665177345276,-0.9612624049186708,0.3915258347988128,0.2174753099679947,71.91036224365234,66.23524475097656,-25.757631301879883,1.448293924331665,12.26535415649414,-6.273223876953125,-0.9305306673049928,0.1496971249580383,-0.268179178237915,140.68263244628906,73.89835357666016,89.93124389648438,17.35625002423367,1.060477911543003,13.85242959505151,0.979906436174465,68.77227020263672,7.663108825683594,115.68887519836426
2601.207,-11.79087257385254,-21.812875747680664,3.784558057785034,-0.9503517150878906,0.3989152610301971,0.2286293804645538,70.6790771484375,66.00823974609375,-26.825252532958984,0.0419859290122985,12.31942653656006,-7.095510959625244,-0.9356435537338256,0.1281182914972305,-0.2687232196331024,141.73928833007812,73.78480529785156,91.01960754394533,25.08284481731147,1.0557334708461654,14.216761543547712,0.9818631905870656,71.06021118164062,7.776565551757812,117.8448600769043
2622.837,-11.367091178894045,-28.086000442504883,5.123189449310303,-0.9220625758171082,0.4156026244163513,0.2689600586891174,69.20845794677734,65.68441772460938,-28.160972595214844,4.863594055175781,11.056597709655762,-7.572274684906006,-0.9716046452522278,0.1427744328975677,-0.2174142599105835,142.75152587890625,73.7160415649414,91.97003173828124,30.729159651041545,1.0465488274869417,14.256305410251796,1.0058176205343572,73.5430679321289,8.031623840332031,120.1310043334961
2645.199,-18.62661361694336,-31.93074417114257,8.417847633361816,-0.9330005049705504,0.4436256289482116,0.3249595165252685,67.52226257324219,65.24794006347656,-29.576391220092773,4.11839771270752,6.831357002258301,-9.839500427246094,-0.9832931756973268,0.1481282114982605,-0.1789230108261108,143.6305389404297,73.7550277709961,92.80250549316406,37.91283841835573,1.0830015366172547,12.66666518346933,1.0103568083690473,76.1082763671875,8.507087707519531,122.37889671325684
2655.393,-19.85293960571289,-39.26033020019531,9.98264980316162,-0.9391167163848876,0.4181631207466125,0.3078426718711853,65.60725402832031,64.7186050415039,-31.258115768432617,1.517446756362915,5.677861213684082,-12.909070014953612,-0.9473686814308168,0.1076744049787521,-0.2172287404537201,144.69122314453125,73.8353500366211,93.8696060180664,45.11281453765675,1.0731112305678614,14.183964229764149,0.9779005684232944,79.08396911621094,9.116744995117188,125.12772178649902
2677.76,-15.296337127685549,-48.0012092590332,12.382306098937988,-0.9406593441963196,0.4434010684490204,0.2990517616271972,63.61880874633789,64.04485321044922,-33.18355178833008,8.557751655578613,5.688955307006836,-10.497234344482422,-0.9596316814422609,0.1388054192066192,-0.2282548993825912,145.71426391601562,73.86865234375,94.75450897216795,51.87885430675106,1.0820704530934726,14.689835083031433,0.9961225865931276,82.09545516967773,9.82379913330078,127.93806076049805
2701.371,-8.87340259552002,-55.71635437011719,13.614975929260254,-0.9543421268463136,0.4738794267177582,0.3388338983058929,61.604286193847656,63.24149703979492,-35.28586196899414,19.669523239135746,5.052734375,-8.924680709838867,-0.9829161763191224,0.1910163462162017,-0.2130294144153595,146.73272705078125,73.8849105834961,95.41239166259766,58.03806498732529,1.1180961572159456,22.18265527144525,1.023715285417651,85.1284408569336,10.643413543701172,130.6982536315918
2723.589,-12.174644470214844,-62.152793884277344,16.570650100708008,-0.954884707927704,0.5099347829818726,0.3639183640480041,59.5039291381836,62.28189468383789,-37.41947937011719,18.01073455810547,4.755486965179443,-7.993368148803711,-0.9778174161911012,0.1652924120426178,-0.2293533682823181,147.7052764892578,73.89212799072266,96.0528564453125,65.46585522513007,1.1420485383819383,20.27054883225503,1.0178661250026706,88.20134735107422,11.610233306884766,133.4723358154297
2745.138,-16.716976165771484,-69.09618377685547,19.49828720092773,-0.928262174129486,0.5097470283508301,0.3710949420928955,57.31029891967773,61.16611099243164,-39.54722213745117,19.19594383239746,3.0194780826568604,-6.083224773406982,-0.981769859790802,0.1575288474559784,-0.1980288326740265,148.49778747558594,73.92301177978516,96.4833984375,73.71514843247499,1.1221515730412857,20.36190391765946,1.0138554206319053,91.1874885559082,12.756900787353516,136.03062057495117
2755.178,-11.991326332092283,-74.53079223632812,22.03239631652832,-0.9103068709373474,0.5118236541748047,0.3545030951499939,55.29854202270508,59.92177963256836,-41.632080078125,17.480125427246094,-0.3731131851673126,-3.903289556503296,-0.9827988147735596,0.1692222952842712,-0.1951904892921447,148.97756958007812,73.98583984375,96.62627410888672,78.63877787724076,1.1028574235682145,17.914509978313916,1.0161835575582283,93.67902755737305,14.06406021118164,138.25835418701172
2782.561,-11.472075462341309,-79.40071105957031,24.7304801940918,-0.9035698771476746,0.5159637928009033,0.41299769282341,53.353736877441406,58.53903579711914,-43.63436508178711,15.408194541931152,-3.629051685333252,-0.9410626888275146,-0.97129887342453,0.1875078678131103,-0.2105027735233307,149.10435485839844,74.05899810791016,96.4461898803711,83.95045016442373,1.119474989737429,15.85774492672651,1.0113812929200316,95.75061798095705,15.519962310791016,140.0805549621582
2802.458,-16.07204818725586,-84.91110229492188,28.889766693115234,-0.9151624441146852,0.5116355419158936,0.4375478327274322,51.426788330078125,57.00282287597656,-45.53154754638672,19.304176330566406,-5.667459011077881,-0.5337551832199097,-0.9632359147071838,0.1604605019092559,-0.2103675156831741,149.2576141357422,74.16897583007812,96.20909118652344,91.11983672864427,1.1361079758517705,20.12600829870301,0.9989121541504368,97.83082580566406,17.166152954101562,141.74063873291016
2825.062,-14.568947792053224,-91.41573333740234,31.100326538085938,-0.9128074645996094,0.5008307099342346,0.4530647695064544,49.59416198730469,55.33220672607422,-47.37724685668945,18.66019821166992,-8.910724639892578,0.709419846534729,-0.9774807691574096,0.1422411501407623,-0.2151266038417816,149.240478515625,74.32585144042969,95.8055191040039,97.65408773911209,1.1354807584498885,20.6907536698269,1.0109305883919166,99.64631652832033,18.99364471435547,143.18276596069336
2835.67,-11.547843933105469,-96.60423278808594,34.17588806152344,-0.905488908290863,0.5147398114204407,0.4627988934516907,47.95491027832031,53.52516174316406,-49.0641975402832,19.25228500366211,-11.7715425491333,4.587777614593506,-0.9811143279075624,0.1749713867902755,-0.2151289135217666,148.83029174804688,74.48116302490234,94.9857406616211,103.11993898791756,1.1397587693363185,23.02753558870888,1.0195492926062355,100.87538146972656,20.95600128173828,144.0499382019043
2857.472,-10.20380401611328,-100.95280456542967,37.45030212402344,-0.8953049778938293,0.5347713828086853,0.5186347365379333,46.46715927124024,51.57985305786133,-50.63739776611328,19.208187103271484,-11.564799308776855,5.217232704162598,-0.9847951531410216,0.1532909870147705,-0.2067273259162902,148.41018676757812,74.63371276855469,94.15454864501952,108.1578082951283,1.164703148985335,23.01995985956436,1.0178682663441825,101.94302749633788,23.05385971069336,144.7919464111328
2885.152,-13.407628059387209,-107.44258880615234,40.06453323364258,-0.8976646065711975,0.5308687686920166,0.5070788860321045,45.01527404785156,49.506954193115234,-52.09372329711914,20.01576232910156,-10.7103853225708,7.77729606628418,-0.977878749370575,0.1516386270523071,-0.2132326513528823,147.88375854492188,74.73796081542969,93.19569396972656,115.45060070340236,1.1596345942247328,23.996446184292804,1.0122792526214537,102.86848449707033,25.231006622314453,145.2894172668457
2895.5950000000003,-8.642306327819824,-112.1392059326172,41.71771240234375,-0.8779582977294922,0.5405807495117188,0.5399271845817566,43.75391006469727,47.32496643066406,-53.518585205078125,18.208131790161133,-10.647876739501951,10.036065101623535,-0.9895673990249634,0.1646943241357803,-0.2108592092990875,147.1549835205078,74.81190490722656,92.0661163330078,119.95940352446934,1.1638555253746496,23.35885153579964,1.0250997335683043,103.40107345581056,27.4869384765625,145.58470153808594
2917.644,-4.864702224731445,-118.03331756591795,44.92619705200195,-0.8781672716140747,0.5411527752876282,0.5627212524414062,42.6621208190918,45.01023864746094,-54.85588455200195,16.523056030273438,-9.712660789489746,13.051750183105469,-0.9658767580986024,0.1711771041154861,-0.238030731678009,146.26625061035156,74.8143539428711,90.80367279052734,126.38786557619945,1.175023102362177,23.18825873224293,1.009394938580335,103.60412979125977,29.80411529541016,145.6595573425293
2945.167,-7.868552684783935,-122.28943634033205,48.81372833251953,-0.8400944471359253,0.5679948925971985,0.5900680422782898,41.64243316650391,42.56071472167969,-56.103023529052734,17.701614379882812,-5.348104953765869,15.013931274414062,-0.9510711431503296,0.1605273783206939,-0.2191945910453796,145.46946716308594,74.72712707519531,89.61141967773438,131.90678691981836,1.1732677327205638,23.819477545979,0.989116589319652,103.82703399658205,32.166412353515625,145.7144432067871
2955.698,-10.468478202819824,-127.80300903320312,50.71678161621094,-0.8408886790275574,0.563727855682373,0.6053561568260193,40.64458084106445,40.009674072265625,-57.2767448425293,14.014699935913086,-1.1432180404663086,17.022663116455078,-0.95377516746521,0.1525276899337768,-0.2340010106563568,144.7091827392578,74.54102325439453,88.52967834472656,137.89630194943717,1.179550313634872,22.079171663766058,0.9938351167361816,104.06460189819336,34.531349182128906,145.80642318725586
2977.4590000000003,-7.918981075286865,-131.7845458984375,51.46678161621094,-0.7797377705574036,0.5477614998817444,0.6219579577445984,39.76486206054688,37.37746047973633,-58.44010543823242,10.845300674438477,0.3673257827758789,21.29403114318848,-0.9770503044128418,0.2478300929069519,-0.2387813180685043,143.58499145507812,74.2494888305664,87.14501953125,141.69935218221318,1.1379215055478826,23.89960747118556,1.0358878173634574,103.82012939453124,36.87202835083008,145.58512496948242
3001.095,-8.62429428100586,-134.58114624023438,52.46354675292969,-0.7356059551239014,0.5592761635780334,0.645232081413269,38.95667266845703,34.67771911621094,-59.53642654418945,9.202800750732422,0.8276888132095337,23.051040649414062,-0.9808894991874696,0.195756196975708,-0.2112753093242645,142.4554901123047,73.95401763916016,85.78229522705078,144.70275433825572,1.1270449801339828,24.833990526094126,1.0223022814220364,103.49881744384766,39.27629852294922,145.31872177124023
3015.097,-6.6751909255981445,-136.52548217773438,51.37164306640625,-0.6660865545272827,0.555643618106842,0.6751624345779419,38.24037551879883,31.94265556335449,-60.60713958740234,3.256782293319702,-1.2065693140029907,26.980043411254883,-1.0080946683883667,0.1981696039438247,-0.1815190613269806,140.93150329589844,73.65196990966797,84.1324691772461,146.02332405851573,1.0992067328442374,27.202668672186785,1.0433001591034727,102.6911277770996,41.70931434631348,144.73960876464844
3037.545,-10.18566608428955,-136.58718872070312,54.75211715698242,-0.6330551505088806,0.5644140839576721,0.70974200963974,37.56192398071289,29.15791130065918,-61.54800033569336,2.671048641204834,-2.002484083175659,29.10706329345703,-1.000017523765564,0.2057966738939285,-0.1867413073778152,139.32261657714844,73.31938934326172,82.40299987792969,147.5045838249698,1.105918533167365,29.297876662249223,1.0379111882551368,101.76069259643556,44.16147804260254,143.95100021362305
3059.7870000000003,-11.369441986083984,-138.1125946044922,56.574745178222656,-0.5885440707206726,0.5502087473869324,0.7397928237915039,36.92336654663086,26.322025299072266,-62.42036437988281,1.3732606172561646,-3.798615694046021,27.513317108154297,-1.009380578994751,0.1894052624702453,-0.1799015551805496,137.7809295654297,73.03489685058594,80.76554107666016,149.68318139136596,1.0938040094162045,27.80823518686174,1.0426351597081225,100.85756301879884,46.71287155151367,143.18590545654297
3082.485,-8.591169357299805,-139.27557373046875,57.02061462402344,-0.5366819500923157,0.5771619081497192,0.719236433506012,36.4250602722168,23.459789276123047,-63.23560333251953,1.4661544561386108,-8.966883659362793,26.564571380615234,-0.9954850077629088,0.2407346367835998,-0.1816567629575729,136.0560760498047,72.80697631835938,78.93726348876953,150.74098354786744,1.0669791146298806,28.075453052187857,1.0401647684652051,99.63101577758788,49.34718704223633,142.17286682128906
3104.166,-6.3451972007751465,-141.85903930664062,55.6100959777832,-0.484151154756546,0.5572757124900818,0.753304123878479,35.98599624633789,20.56643867492676,-64.0731201171875,-2.3754594326019287,-11.314897537231444,27.862491607666016,-0.9430163502693176,0.2276136875152588,-0.1553635746240615,134.1326446533203,72.58592224121094,76.97979736328125,152.50157813995892,1.05471591598674,30.166009884988814,0.9824589904619554,98.14664840698242,52.01948356628418,141.05291748046875
3114.9840000000004,-5.755273342132568,-141.81666564941406,57.74229431152344,-0.4473291039466858,0.5380126237869263,0.7292409539222717,35.62673568725586,17.661550521850586,-64.83438873291016,0.2748092710971832,-9.825618743896484,29.975635528564453,-0.9696290493011476,0.2463897317647934,-0.1730920076370239,132.3140411376953,72.28724670410156,75.07219696044922,153.22944357896415,1.010620244933428,31.546109572770245,1.0153074589874682,96.68730545043944,54.62569618225098,139.90658569335938
3137.368,-6.124859809875488,-139.59979248046875,59.38321685791016,-0.3901330232620239,0.5542908310890198,0.7750468254089355,35.31615447998047,14.759312629699709,-65.51306915283203,1.656285285949707,-6.112968444824219,28.38043594360352,-1.008229374885559,0.2027115374803543,-0.1683235913515091,130.88319396972656,71.9749984741211,73.53397369384766,151.82879309496653,1.0296308478505256,29.07852830706624,1.0420898575531978,95.5670394897461,57.21568584442139,139.0470428466797
3159.715,-6.526777267456055,-138.11044311523438,57.38979721069336,-0.343626320362091,0.5411943793296814,0.7273855805397034,35.04531478881836,11.914366722106934,-66.18017578125,3.5985677242279053,1.2768676280975342,23.82737159729004,-0.977365255355835,0.2458369433879852,-0.1681924611330032,130.019775390625,71.60797119140625,72.55422973632812,149.70197775203198,0.9695670100827022,24.131384499047755,1.021747204103393,94.97446060180664,59.69360446929932,138.73440551757812
3182.46,-5.443725109100342,-136.76544189453125,58.14409637451172,-0.2941280901432037,0.5276920795440674,0.7681610584259033,34.819454193115234,9.076313018798828,-66.80268859863281,0.1672644764184951,-1.5879251956939695,26.543182373046875,-0.9689440727233888,0.2562856674194336,-0.1905822902917862,128.921630859375,71.22079467773438,71.3937759399414,148.71165449580056,0.9772623373009086,26.59116421522416,1.0202237836686985,94.10217666625977,62.14448165893555,138.19646453857422
3204.947,-2.236645460128784,-135.5218505859375,57.005184173583984,-0.2699779868125915,0.5192602276802063,0.7643016576766968,34.68863677978516,6.285636901855469,-67.41568756103516,5.4848737716674805,1.349132776260376,26.817380905151367,-0.947301983833313,0.2143928557634353,-0.2126913070678711,128.18238830566406,70.79722595214844,70.48857879638672,147.04001357391027,0.9626402865770922,27.405764323424425,0.9942750812924817,93.4937515258789,64.51158905029297,137.90426635742188
3214.72,-3.152405977249145,-134.40673828125,55.69808578491211,-0.2112508565187454,0.5344359874725342,0.7619785070419312,34.57796859741211,3.5198428630828857,-68.02750396728516,13.562387466430664,5.736539840698242,27.78591537475586,-0.9607032537460328,0.2723616361618042,-0.1956120580434799,127.72335815429688,70.28939819335938,69.71577453613281,145.52451930500666,0.9543898544512596,31.446833486801303,1.0175439449296304,93.14538955688477,66.76955533027649,137.74327850341797
3240.498,-5.019901275634766,-132.3743133544922,53.417964935302734,-0.1632835268974304,0.5326129794120789,0.7378835082054138,34.46756362915039,0.8129494786262512,-68.64674377441406,12.343305587768556,3.0579185485839844,21.839035034179688,-0.964214563369751,0.3233687281608581,-0.1857022643089294,127.29107666015624,69.89381408691406,69.00265502929688,142.83429988178483,0.924559445182301,25.271555351955293,1.0338096485988868,92.82351303100586,69.08086460828781,137.64939880371094
3262.1380000000004,-6.006187438964844,-130.72802734375,50.45848846435547,-0.0985978469252586,0.5109645128250122,0.7624598741531372,34.347618103027344,-1.8481956720352173,-69.29047393798828,-0.9509936571121216,1.4809213876724243,18.38039779663086,-0.9316313862800598,0.2745331525802612,-0.2047690451145172,126.73486328125,69.58258819580078,68.42971801757812,140.25673060087962,0.9231204301056372,18.46446696373133,0.9925904762815702,92.38724517822266,71.430783867836,137.7201919555664
3282.4,-3.784312248229981,-127.92620086669922,49.51184844970703,-0.0460238307714462,0.5052213668823242,0.748971700668335,34.303565979003906,-4.459170818328857,-69.91524505615234,-4.931923389434815,0.4416916966438293,22.21808624267578,-0.9264605641365052,0.2769681215286255,-0.2076529711484909,125.96121978759766,69.2195053100586,67.70732116699219,137.2255698632217,0.904613415197531,22.763178955521944,0.9890198550433772,91.65765380859376,73.67867612838745,137.62256622314453
3305.636,-6.070539474487305,-125.01885223388672,47.65666198730469,-0.0081113269552588,0.513894259929657,0.7368171215057373,34.25133514404297,-6.999727725982666,-70.53913879394531,-7.090776443481445,9.186433792114258,23.69194221496582,-0.938955545425415,0.2675365805625915,-0.2214878499507904,125.52593231201172,68.73414611816406,67.38733673095703,133.93178224440203,0.8983610491097804,26.38139121247417,1.0011344594509204,91.27459716796876,75.73387384414673,137.92647552490234
3314.933,-9.142231941223145,-122.66293334960938,45.45222091674805,0.0368978343904018,0.5091291666030884,0.7465724349021912,34.1604118347168,-9.481036186218262,-71.1726303100586,-6.347946643829346,10.904082298278809,16.85244369506836,-0.922365665435791,0.3119209110736847,-0.2108597159385681,125.34059143066406,68.32465362548828,67.32661437988281,131.13229964071667,0.9044027637200382,21.05232281378924,0.996250417990146,91.18017959594728,77.80568981170654,138.4992446899414
3342.032,-8.086811065673828,-120.24779510498048,42.73429870605469,0.0811112001538276,0.488494873046875,0.7080267071723938,34.1251335144043,-11.898405075073242,-71.82643127441406,-12.15605640411377,28.600276947021484,10.11795425415039,-0.9208462238311768,0.2670264840126037,-0.2247495800256729,126.00042724609376,67.83811950683594,68.29434967041016,127.87161149653028,0.8640069940995034,32.682082966595075,0.9847706762642698,91.87529373168944,79.73652458190918,140.12078094482422
3364.672,-7.799088478088379,-116.84272003173828,42.276763916015625,0.1414148956537246,0.4718860983848572,0.708025336265564,34.10737228393555,-14.271167755126951,-72.45162963867188,-10.753203392028809,40.0136833190918,2.276385307312012,-0.9087309837341307,0.2807672321796417,-0.2619893550872803,127.3387451171875,67.3191909790039,69.96583557128906,124.50048904608666,0.8625395871237458,41.49588131391176,0.9865397415427658,93.23137283325195,81.59035873413086,142.41746520996094
3374.607,-7.890439510345459,-111.33102416992188,40.07411575317383,0.1956114023923874,0.4702937602996826,0.6779840588569641,34.118751525878906,-16.544170379638672,-73.05997467041016,-12.515680313110352,49.49260711669922,1.9652817249298096,-0.91233628988266,0.2791129648685455,-0.2733900547027588,128.92779541015625,66.67521667480469,71.95468139648438,118.58663808283345,0.8479990718078029,51.088381704319694,0.9924735135029772,94.80904388427734,83.21938705444336,145.01465606689453
3397.109,-8.779287338256836,-106.43872833251952,38.12095260620117,0.2329380214214325,0.4729633927345276,0.7068706750869751,34.119224548339844,-18.71147727966309,-73.64945220947266,-8.652557373046875,60.69636917114258,4.166837692260742,-0.9107116460800172,0.2833106517791748,-0.2760916650295257,130.7945098876953,65.83484649658203,74.17640686035156,113.39967285144968,0.8818280127034991,61.45143217214014,0.992918544099208,96.67528533935548,84.54632377624512,147.82585906982422
3414.8160000000003,-11.290379524230955,-101.68292236328124,34.77022933959961,0.2524406313896179,0.4709575176239013,0.6587057113647461,34.112022399902344,-20.76179885864257,-74.25440216064453,-4.565613746643066,85.02420806884766,11.765122413635254,-0.8891646862030029,0.3165168166160583,-0.3164099752902984,133.1259307861328,64.50074768066406,76.84064483642578,108.05488521333318,0.848186577332719,85.95567981248277,0.99544563229463,99.01390838623048,85.26254653930664,151.0950469970703
3437.096,-8.92988395690918,-98.150390625,32.91927719116211,0.2801728844642639,0.4786017835140228,0.7160413265228271,34.15205001831055,-22.719432830810547,-74.85173797607422,-17.22732925415039,99.46735382080078,45.98204040527344,-0.8396941423416138,0.2596292495727539,-0.2998206317424774,134.43675231933594,62.4685173034668,78.67733764648438,103.9082326772644,0.9056885191170304,110.92737889797756,0.9286474094805778,100.2847023010254,85.18795013427734,153.5290756225586
3459.606,-10.755866050720217,-95.45418548583984,31.576601028442383,0.2779909074306488,0.4784279465675354,0.657543957233429,34.1991081237793,-24.607023239135746,-75.45988464355469,-15.068628311157228,62.59413909912109,31.68298721313477,-0.8499460220336914,0.3765051960945129,-0.3844107687473297,134.9705810546875,61.09672927856445,79.62379455566406,101.1151418620158,0.8593813474617317,71.75584636451298,1.0059503179511289,100.7714729309082,85.7037525177002,155.08367919921875
3474.461,-10.59048080444336,-91.4492416381836,29.79263687133789,0.32210174202919,0.4648830592632293,0.6624941229820251,34.253231048583984,-26.417734146118164,-76.05776977539062,-19.557350158691406,55.81667709350586,5.76463508605957,-0.836921215057373,0.302688717842102,-0.390608936548233,135.8973846435547,60.20850372314453,81.11683654785156,96.76116623736806,0.8710707514283216,59.42408943068288,0.9719222815808612,101.6441535949707,86.6262378692627,157.1746063232422
3496.802,-11.727283477783203,-86.0922622680664,28.71123504638672,0.3689315021038055,0.4880353212356567,0.6249648928642273,34.314979553222656,-28.143260955810547,-76.6335678100586,-19.33197975158692,68.52052307128906,2.4157681465148926,-0.8301352262496948,0.3391116261482239,-0.3961715698242187,137.09498596191406,59.16099166870117,82.9435806274414,91.5081516483132,0.8745684909319316,71.23639139384125,0.9803433590260664,102.7800064086914,87.30425262451172,159.5771484375
3519.422,-16.51272964477539,-81.699951171875,27.46805191040039,0.3979114294052124,0.4555508494377136,0.6577421426773071,34.25005340576172,-29.779661178588867,-77.17013549804688,-23.89260482788086,75.58319091796875,-1.5162101984024048,-0.8094418048858643,0.3185758888721466,-0.4356681108474731,138.38314819335938,58.03878402709961,84.99313354492188,87.76130205028099,0.8935797716647669,79.28413591740235,0.9728788903439984,104.13309478759766,87.81844520568848,162.16326904296875
3541.964,-18.324520111083984,-79.43666076660156,27.2324333190918,0.4068775177001953,0.4507206678390503,0.6481660008430481,34.156349182128906,-31.37092399597168,-77.68971252441406,-20.43885040283203,80.68536376953125,1.6435589790344238,-0.793565034866333,0.3209682703018188,-0.4269162714481354,139.63241577148438,56.78326416015625,86.9474868774414,85.95101241712304,0.8881540403984111,83.25007999112371,0.9565686582415942,105.47606658935548,88.15418815612793,164.63719940185547
3554.408,-16.15933609008789,-76.94972229003906,24.014236450195312,0.4672883152961731,0.4311510920524597,0.5863624811172485,34.14900207519531,-32.9215202331543,-78.25247955322266,-22.84423446655273,86.3285140991211,-1.974886178970337,-0.781726062297821,0.3302548825740814,-0.4600628316402435,140.90576171875,55.45816040039063,89.01651763916016,82.2135478839859,0.8649107428239864,89.32173067257975,0.9653091385646964,106.75675964355467,88.37968063354492,167.2689971923828
3577.145,-11.057843208312988,-68.34873962402344,23.821008682250977,0.5658853650093079,0.4195693135261535,0.5413352847099304,34.21097183227539,-34.37999725341797,-78.7199935913086,-26.25326156616211,79.02140808105469,-9.189961433410645,-0.7899298667907715,0.3355551362037658,-0.471040278673172,142.01573181152344,54.32389068603516,91.00373840332033,73.22067030048319,0.8884303831232399,83.77393430609234,0.9790124554944708,107.80475997924805,88.70388793945312,169.7237319946289
3599.563,-15.481679916381836,-64.44503021240234,27.523561477661133,0.5641511082649231,0.4046984016895294,0.6730780601501465,34.067138671875,-35.76755142211914,-79.034912109375,-19.96467971801757,61.06929016113281,-9.321647644042969,-0.8506655097007751,0.3637174665927887,-0.4763772189617157,142.8423614501953,53.47681427001953,92.52054595947266,71.7662230337179,0.966996041533824,64.92256735394363,1.0406043722975866,108.77522277832033,89.24436569213867,171.55545806884766
3622.311,-15.831682205200195,-62.41032791137695,22.498096466064453,0.5547949075698853,0.4455797374248504,0.6227225065231323,34.00958633422852,-37.05057907104492,-79.45060729980469,-18.26698112487793,56.78110885620117,-8.74462604522705,-0.788875937461853,0.3465465009212494,-0.4880922734737396,143.58213806152344,52.6684799194336,93.89690399169922,68.20451257833598,0.945580251485578,60.28470292725408,0.9902796521346092,109.57255172729492,89.71905899047852,173.3475112915039
3644.271,-14.53093719482422,-60.13881301879883,20.013687133789062,0.5884984135627747,0.4128823578357696,0.5277611613273621,34.02076721191406,-38.30895233154297,-79.90438079833984,-16.565452575683594,51.66202545166016,-5.397695064544678,-0.7214356660842896,0.37455815076828,-0.5171295404434204,144.17025756835938,51.88587951660156,95.05036926269533,65.02593820745048,0.8918150411287831,54.52076856405285,0.9634242005496122,110.14949035644533,90.19483184814452,174.95475006103516
3654.281,-6.934088706970215,-54.641883850097656,22.258033752441406,0.6410056352615356,0.404623419046402,0.5791682004928589,34.08667755126953,-39.49739837646485,-80.2218246459961,-17.310062408447266,40.397605895996094,-5.682666301727295,-0.7841051816940308,0.361715018749237,-0.521104633808136,144.54257202148438,51.2892951965332,95.96344757080078,59.40738273487998,0.953962336856116,44.31588337164616,1.0085676626406883,110.45589447021484,90.78669357299805,176.18527221679688
3677.266,-6.775326251983643,-50.99934387207031,23.49777603149414,0.6306270360946655,0.3911581635475158,0.6157294511795044,34.093292236328125,-40.61640930175781,-80.45305633544922,-17.528881072998047,30.82406234741211,-7.1627068519592285,-0.8008460998535156,0.3566241860389709,-0.5421949028968811,144.7979278564453,50.86674880981445,96.732421875,56.55955798650441,0.9642706697879084,36.175804907639055,1.0307815473929982,110.7046356201172,91.48315811157228,177.18547821044922
3699.322,-5.122204780578613,-45.632606506347656,22.63951873779297,0.6410830616950989,0.4279617071151733,0.5710645914077759,34.13980484008789,-41.63671112060547,-80.65433502197266,-14.426420211791992,27.049362182617188,-3.5947189331054688,-0.8022322058677673,0.3471900224685669,-0.5334643125534058,144.9813232421875,50.47403335571289,97.33216857910156,51.19687067640193,0.959298432349926,30.86602661214476,1.0240613246291774,110.8415184020996,92.11074447631836,177.98650360107422
3721.649,-5.274633884429932,-40.089088439941406,21.914491653442383,0.6561011075973511,0.4001247882843017,0.5058998465538025,34.15372467041016,-42.581787109375,-80.79904174804688,-14.318747520446776,30.063894271850582,-1.247822880744934,-0.7581509947776794,0.3445708155632019,-0.5214449167251587,145.136474609375,49.99843215942383,97.9048309326172,45.99132221396789,0.920056065864026,33.32298502963115,0.9825613359983094,110.98274993896484,92.58021926879884,178.70387268066406
3744.191,1.253170371055603,-33.00374984741211,24.35919189453125,0.6859126687049866,0.3664497137069702,0.5169947147369385,34.14069747924805,-43.42191696166992,-80.7491455078125,-19.33104705810547,27.570053100585938,-3.3745388984680176,-0.737483024597168,0.3508345782756805,-0.5341836810112,145.20335388183594,49.57706832885742,98.49037170410156,41.038861701124745,0.9338335594911148,33.840578025635,0.97586798182005,111.06265640258788,92.99898529052734,179.23951721191406
3754.31,2.689032077789306,-30.194074630737305,26.16040229797364,0.6835459470748901,0.3724306225776672,0.5692362785339355,34.09550094604492,-44.22989654541016,-80.61251068115234,-18.82547950744629,21.82448959350586,-11.166024208068848,-0.7684906125068665,0.3763978183269501,-0.546293318271637,145.3335418701172,49.34291076660156,99.15652465820312,40.04097507196519,0.9643492993699232,30.90933712193624,1.0152288061026946,111.23804092407228,93.57280731201172,179.76903533935547
3780.954,2.3743858337402344,-25.178911209106445,23.30144500732422,0.6872669458389282,0.3818261921405792,0.5048305988311768,34.07129669189453,-44.93803405761719,-80.48843383789062,-17.107072830200195,15.939056396484377,-10.101322174072266,-0.7107264995574951,0.3743437528610229,-0.5402657985687256,145.39369201660156,49.17504501342773,99.68816375732422,34.38855357808594,0.934334538248259,25.470417532747422,0.9680663900696208,111.32239532470705,94.11307907104492,180.17659759521484
3801.793,-1.8172762393951416,-21.1809196472168,21.790000915527344,0.6981458067893982,0.3703365623950958,0.4721169471740722,33.938018798828125,-45.56599807739258,-80.33206939697266,-14.406478881835938,11.725215911865234,-8.374690055847168,-0.7017732858657837,0.3816113471984863,-0.5360904932022095,145.40956115722656,49.05451965332031,100.09546661376952,30.442371621324234,0.9205710992602376,20.37554307212812,0.962032214620327,111.47154235839844,94.62051773071288,180.4275360107422
3824.43,-2.0645995140075684,-19.95570182800293,21.606807708740234,0.7058980464935303,0.3348661661148071,0.5999091267585754,33.710384368896484,-46.13950729370117,-80.10318756103516,-13.511676788330078,9.618682861328123,-9.118022918701172,-0.7344886064529419,0.3786633610725403,-0.5486398935317993,145.43731689453125,48.9874382019043,100.4905776977539,29.4846866349954,0.9850473905452714,18.92677499113531,0.9918997866732916,111.72693252563477,95.12694549560548,180.59376525878903
3834.315,1.5694129467010498,-19.893239974975582,18.543664932250977,0.7076354026794434,0.3338083028793335,0.5491365194320679,33.627159118652344,-46.691200256347656,-79.9594955444336,-13.193900108337402,7.678464889526367,-8.979769706726074,-0.7237571477890015,0.3672815859317779,-0.5671758055686951,145.4585723876953,48.95369720458984,100.86001586914062,27.240990488945773,0.9558905602475865,17.71084659507586,0.9901558295352962,111.83141326904295,95.6448974609375,180.81951141357425
3864.187,0.0732541382312774,-16.890668869018555,17.750972747802734,0.7190795540809631,0.3796389102935791,0.5290690660476685,33.53392791748047,-47.1798210144043,-79.81603240966797,-15.154321670532228,10.446176528930664,-7.149136066436768,-0.7270582914352417,0.381980687379837,-0.5561500787734985,145.3712158203125,48.74907684326172,101.49761199951172,24.503001744782942,0.9701109132231868,19.745536606128777,0.991879990117592,111.83728790283205,95.92889785766602,181.3136444091797
3874.222,0.5149109959602356,-14.713120460510254,15.606067657470703,0.7545939087867737,0.3440211713314056,0.5606979131698608,33.418983459472656,-47.61299514770508,-79.65778350830078,-12.671198844909668,7.658901691436768,-7.805692672729492,-0.7594190835952759,0.3808991909027099,-0.5528923869132996,145.36383056640625,48.70992660522461,101.8247528076172,21.454379383911327,1.001071767325086,16.73758923463699,1.01365256851927,111.9448471069336,96.32292175292967,181.482536315918
3896.772,-1.9617823362350464,-13.412607192993164,14.589580535888672,0.7641308903694153,0.3404180705547333,0.5488299131393433,33.25895690917969,-48.01771926879883,-79.5036849975586,-10.312186241149902,4.275793075561523,-7.254884719848633,-0.7322234511375427,0.3761522471904754,-0.5284344553947449,145.34085083007812,48.71947479248047,102.07335662841795,19.914880915071457,1.0004972533363106,13.313787732853276,0.9782048196111888,112.08189392089844,96.7371940612793,181.57704162597656
3914.31,-3.1706247329711914,-9.518003463745115,13.724478721618652,0.7808790802955627,0.325452595949173,0.4788410067558288,33.06454086303711,-48.379913330078125,-79.3223876953125,-11.735037803649902,2.126474142074585,-9.977970123291016,-0.7384461164474487,0.3989332914352417,-0.5188037157058716,145.29159545898438,48.79556274414063,102.33697509765624,17.00019315517785,0.9721009412629098,15.54969106803387,0.9867156294200944,112.22705459594728,97.17547607421876,181.65936279296875
3937.257,0.0375528335571289,-2.655508279800415,10.624432563781738,0.8480412364006042,0.3219709694385528,0.3419874608516693,32.903499603271484,-48.55110931396485,-79.06571197509766,-9.674461364746094,3.302719593048096,-13.240629196166992,-0.7685381174087524,0.4275970458984375,-0.4946399927139282,145.3299102783203,48.90146255493164,102.67962646484376,10.951333331688089,0.9694300733816952,16.727744047499602,1.0090385492949685,112.42641067504884,97.45257186889648,181.7453384399414
3959.227,4.625924110412598,5.228498935699463,11.11837387084961,0.8310804963111877,0.2627476453781128,0.4519489109516144,32.68152618408203,-48.63211441040039,-78.57238006591797,-4.384933948516846,3.1919662952423096,-9.91259765625,-0.7384353876113892,0.4160977602005005,-0.5012234449386597,145.42022705078125,48.95939636230469,102.94490814208984,13.128389563381273,0.981829381619303,11.299375507412408,0.9847076263931508,112.73870086669922,97.59151077270508,181.5172882080078
3974.376,2.801788806915283,10.39362907409668,3.701248645782471,0.7832211852073669,0.3064869940280914,0.4040802717208862,32.57054901123047,-48.55782699584961,-78.23750305175781,-4.782104015350342,5.647335052490234,-6.152328968048096,-0.7318279147148132,0.394622802734375,-0.5045937299728394,145.4798583984375,48.93525314331055,103.17066192626952,11.38318002081888,0.9330865814382036,9.623516183796776,0.972581145983032,112.90930938720705,97.49308013916016,181.4081649780273
3996.657,1.6239094734191897,18.665075302124023,0.2491422891616821,0.7744542360305786,0.2910109162330627,0.4030176103115082,32.3913459777832,-48.30942916870117,-77.86444854736328,-6.629965782165527,9.055750846862791,-6.644166469573975,-0.7181593179702759,0.3603473007678985,-0.5397272706031799,145.59799194335938,48.85114288330078,103.49906158447266,18.73724072247751,0.9202662176205928,13.042546444178493,0.9679403441281909,113.20664596557616,97.16057205200195,181.363510131836
4019.257,9.04585075378418,27.16340065002441,-3.656838417053223,0.7668147087097168,0.2696778774261474,0.4149192273616791,32.32276916503906,-47.901397705078125,-77.45408630371094,-5.084841728210449,13.517746925354004,-8.931259155273438,-0.7246009111404419,0.3646137416362762,-0.5603971481323242,145.8516082763672,48.713497161865234,103.9639892578125,28.862609340493123,0.912627481670946,16.980944833475064,0.9859181632622486,113.52883911132812,96.61489486694336,181.41807556152344
4041.535,14.026644706726074,34.945743560791016,-6.922950744628906,0.7220220565795898,0.2571613788604736,0.4919039905071258,32.280540466308594,-47.28588485717773,-76.97166442871094,-0.5423167943954468,17.13277816772461,-7.35075569152832,-0.7298403382301331,0.3732644021511078,-0.5793182253837585,146.2089385986328,48.49169158935547,104.4474868774414,38.28679931461824,0.9107235369977408,18.651000093466312,1.0037942216823557,113.92839813232422,95.7775764465332,181.4191513061524
4064.086,10.60653305053711,40.75555038452149,-11.77763557434082,0.6794215440750122,0.2972779273986816,0.541123628616333,32.20729446411133,-46.47964477539063,-76.5283203125,5.450776100158691,18.81373405456543,-4.459961414337158,-0.6981488466262817,0.3445846736431122,-0.572687029838562,146.6621551513672,48.20643615722656,104.89240264892578,43.729007880574926,0.9180427997204904,20.08877310806592,0.9664992723746104,114.45486068725586,94.6860809326172,181.42072296142572
4073.991,6.994051933288574,46.76846694946289,-18.40424537658692,0.6545281410217285,0.3002303838729858,0.5052835941314697,32.14039993286133,-45.51251602172852,-76.18689727783203,5.2803635597229,21.133913040161133,-8.073440551757812,-0.6841423511505127,0.3314497470855713,-0.5778453350067139,147.2090606689453,47.917476654052734,105.46537017822266,50.74369429919506,0.8796913556971536,23.231551004070084,0.9548900055345966,115.06866073608398,93.42999267578124,181.6522674560547
4097.144,10.505059242248535,54.35546875,-21.591537475585938,0.6682865619659424,0.3008555769920349,0.4609299302101135,32.14769744873047,-44.417476654052734,-75.81566619873047,5.941195964813232,19.21248817443848,-14.649588584899902,-0.6992055177688599,0.3431237339973449,-0.5559226274490356,147.83731079101562,47.74163818359375,106.14759826660156,59.42278808062619,0.8657813856135795,24.88027244730413,0.9569076343203348,115.68961334228516,92.15911483764648,181.96326446533203
4119.954,16.208694458007812,61.472686767578125,-22.35337257385254,0.6643229722976685,0.2832787632942199,0.5186139345169067,32.17552185058594,-43.184349060058594,-75.33019256591797,8.652017593383789,14.012578964233398,-12.845733642578123,-0.7479546666145325,0.3746921420097351,-0.5888204574584961,148.40695190429688,47.6323127746582,106.68743896484376,67.38906632298217,0.8891188235163048,20.885943849420894,1.0230053351356152,116.23143005371094,90.8166618347168,182.0176315307617
4141.299,17.05558967590332,67.1157455444336,-25.79011344909668,0.6311091780662537,0.3381034731864929,0.5506712198257446,32.25513458251953,-41.79164123535156,-74.87321472167969,15.615171432495115,10.726176261901855,-4.064647674560547,-0.6844990253448486,0.3512288928031921,-0.5789868831634521,148.91854858398438,47.46886444091797,106.95670318603516,73.89550995084353,0.9032450086020988,19.375391526003003,0.9628740632674312,116.66341400146484,89.26050567626953,181.82991790771484
4163.986000000001,11.548200607299805,73.30398559570312,-33.366207122802734,0.6020216345787048,0.3559949100017547,0.523220419883728,32.31452560424805,-40.22125244140625,-74.52207946777344,19.114770889282227,3.218666076660156,-5.150213718414307,-0.69233238697052,0.3478716611862182,-0.5824063420295715,149.43348693847656,47.44786071777344,107.13671112060548,81.36423673361205,0.8734540813524645,20.056394960414423,0.9692966387752632,117.11896133422852,87.66911315917969,181.6587905883789
4173.905000000001,11.403621673583984,79.14159393310547,-36.90265274047852,0.5843422412872314,0.3419616818428039,0.5244877934455872,32.36753463745117,-38.52544021606445,-74.18359375,20.982585906982425,-7.6331467628479,-10.663240432739258,-0.7562606930732727,0.3347229361534118,-0.6017793416976929,149.98301696777344,47.68883514404297,107.30503845214844,88.06384193771662,0.8564351068672775,24.743454434930424,1.0227942393115717,117.61548233032228,86.21427536010742,181.48863220214844
4196.541,18.52351760864257,84.80805206298828,-38.45092010498047,0.5734625458717346,0.3378037214279175,0.6387146711349487,32.49502182006836,-36.6923713684082,-73.8170394897461,24.49221992492676,-15.329353332519531,-8.949487686157227,-0.7750862240791321,0.3192454278469085,-0.6033879518508911,150.4956512451172,48.05220031738281,107.32422637939452,94.94208580095454,0.9224570867261344,30.248160940607395,1.0328375082253818,118.00062942504884,84.74457168579102,181.14126586914065
4219.034,15.632526397705078,89.44087219238281,-41.63961410522461,0.5124098062515259,0.3948346674442291,0.6487719416618347,32.60781478881836,-34.7199592590332,-73.40435028076172,25.560747146606445,-16.559715270996094,-5.128110885620117,-0.7238616347312927,0.2972423732280731,-0.5855791568756104,150.95018005371094,48.38761138916016,107.23360443115234,99.889453712297,0.9161677010494248,30.88484233089796,0.977359526297906,118.34236526489258,83.10757064819336,180.6379547119141
4241.380999999999,5.688183307647705,90.87269592285156,-45.65036010742188,0.4471566677093506,0.4430601298809051,0.6674840450286865,32.59146881103516,-32.65156173706055,-73.12364959716797,28.09834289550781,-13.926904678344728,-6.171826362609863,-0.7084670066833496,0.283586174249649,-0.5581146478652954,151.501953125,48.69187545776367,107.20895385742188,101.8536090257274,0.917489135921986,31.961961580031986,0.9454303665242726,118.91048431396484,81.34343719482422,180.33260345458984
4263.883,0.8120669722557068,90.6793212890625,-47.123809814453125,0.425763726234436,0.4108429551124573,0.6697993874549866,32.48637390136719,-30.584226608276367,-72.84749603271484,24.70482063293457,-21.49971389770508,-11.270195960998535,-0.731467604637146,0.2675479054450989,-0.5756161212921143,152.02415466308594,49.17982864379883,107.22713470458984,102.19614578662544,0.8936990006582998,34.634999309772624,0.9684836898126068,119.53778076171876,79.7640552520752,180.0746307373047
4274.173,10.540387153625488,92.6932373046875,-46.69601821899414,0.4591285586357116,0.3674254119396209,0.6263523697853088,32.55958557128906,-28.54646873474121,-72.5233154296875,27.197643280029297,-32.66051483154297,-14.888437271118164,-0.8426800966262817,0.2727707624435425,-0.5889022350311279,152.54833984375,49.92669296264648,107.1862564086914,104.32475315513598,0.8591377990925428,45.03428242378445,1.0636350297535189,119.98875427246094,78.4731616973877,179.7095718383789
4296.477999999999,12.924213409423828,98.12037658691406,-43.218544006347656,0.4386406540870666,0.4281722903251648,0.7963145971298218,32.60331726074219,-26.41242218017578,-72.13233947753906,36.888431549072266,-48.20856094360352,-10.961251258850098,-0.7829053401947021,0.3077668249607086,-0.5513811111450195,152.96824645996094,50.89373779296875,106.7846908569336,107.99299116071734,1.0049149572089455,61.68444503732985,1.0058241993406671,120.36492919921876,77.30615997314453,178.91703033447266
4323.917,-2.862956047058105,98.92140197753906,-48.6873779296875,0.3349270820617676,0.5145002603530884,0.7105292677879333,32.46616744995117,-24.176801681518555,-71.85435485839844,38.71522521972656,-68.70719146728516,-6.174373149871826,-0.7305856943130493,0.2761063277721405,-0.512509286403656,153.08358764648438,52.1758918762207,105.94988250732422,110.29098356709616,0.939009322948959,79.10543411757622,0.93416054809689,120.6174201965332,76.35269355773926,177.80423736572266
4333.984,-5.027512550354004,95.95426177978516,-52.98318099975586,0.3080263435840606,0.4368973076343536,0.6704928874969482,32.31631088256836,-21.96833610534668,-71.66927337646484,36.955299377441406,-82.29229736328125,-6.111361503601074,-0.7939367294311523,0.2800351083278656,-0.5226667523384094,152.96749877929688,53.70390319824219,104.88380432128906,109.72562920758484,0.857508132873332,90.41606658570548,0.9909267007382608,120.65118789672852,75.67223930358887,176.5530776977539
4353.963000000001,10.244816780090332,97.18192291259766,-50.508338928222656,0.3252480328083038,0.3974634408950805,0.6858046054840088,32.42914962768555,-19.800342559814453,-71.46266174316406,35.988319396972656,-109.72492980957033,-4.567258358001709,-0.9105682373046876,0.2807932496070862,-0.4950691759586334,152.35787963867188,55.73172378540039,103.26409912109376,110.00170322834052,0.8567913553467411,115.56634113634638,1.0738122986804692,119.92873001098631,75.53206634521484,174.7267608642578
4377.341,14.49075412750244,100.44884490966795,-50.3185920715332,0.3131687641143799,0.4758707284927368,0.8572483658790588,32.60416412353516,-17.556856155395508,-71.19425201416016,40.25504684448242,-112.36479949951172,-3.219700574874878,-0.8588650226593018,0.2981556355953216,-0.4663209915161133,151.5946807861328,57.75236129760742,101.4045639038086,113.27803452978702,1.0292727460957338,119.4013544094404,1.0217637580739416,118.99051666259766,75.30921745300293,172.59881591796875
4398.866,-0.4890702962875366,103.3876724243164,-53.49534225463867,0.1700144410133361,0.619801938533783,0.8105159997940063,32.58029556274414,-15.169275283813477,-70.98565673828125,37.57249069213867,-77.89895629882812,-3.2446913719177246,-0.7613816261291504,0.2048239111900329,-0.4334040880203247,151.2598419189453,59.147979736328125,100.1189956665039,116.40876960956764,1.0344058870121486,86.54748679977125,0.899718799800794,118.67954635620116,74.3172550201416,171.10465240478516
4413.873,-12.33394718170166,96.40481567382812,-57.10057830810547,0.0932990387082099,0.5098877549171448,0.7539239525794983,32.3326530456543,-12.84846019744873,-70.91706085205078,28.79320335388184,-64.72859191894531,-3.226984739303589,-0.8340709805488586,0.195505142211914,-0.4295945167541504,150.90565490722656,60.32282638549805,99.02867889404295,112.72307120242009,0.9149270787944884,70.91722358986597,0.9583569846619094,118.57300186157228,73.17128658294678,169.94573974609375
4436.353,10.142763137817385,94.06761932373048,-49.38615417480469,0.1393024772405624,0.4126349091529846,0.7145452499389648,32.476924896240234,-10.708455085754396,-70.7122573852539,25.080326080322266,-80.52379608154297,-2.5930840969085693,-0.9571087956428528,0.2506713569164276,-0.4399043023586273,150.05348205566406,61.76382064819336,97.48249816894533,106.7266830435656,0.8368080201739149,84.37907665298813,1.082778449688054,117.57655715942384,72.47227573394775,168.19475555419922
4458.551,25.696231842041016,98.37602996826172,-44.32250213623047,0.1658462285995483,0.5273327231407166,0.8776243329048157,32.919429779052734,-8.570165634155273,-70.38807678222656,19.408571243286133,-83.33135223388672,-1.516068696975708,-0.9328585863113404,0.2484320849180221,-0.356825441122055,148.82530212402344,63.24308776855469,95.66960906982422,110.917193431913,1.0372122454648904,85.57514456387298,1.0292074806876683,115.9058723449707,71.81325340270996,166.05768585205078
4473.694,10.908759117126465,103.28627014160156,-49.30857849121094,0.0717243254184722,0.6415514349937439,0.7876169681549072,33.159297943115234,-6.267157554626465,-70.05796813964844,9.231867790222168,-61.06692123413086,-6.831779003143311,-0.8381638526916504,0.3156536817550659,-0.3570300936698913,147.836669921875,64.32621765136719,94.3853759765625,114.97125961762484,1.0183678663060785,62.13750442574495,0.9641713429418914,114.67737197875977,70.59337520599365,164.44334411621094
4496.361,-0.2671641707420349,102.25643157958984,-50.79703903198242,-0.0034353157971054,0.5589661598205566,0.7022637724876404,33.18415069580078,-3.946212768554688,-69.79396057128906,3.562657594680786,-46.96495056152344,-6.673899173736572,-0.8846108317375183,0.1921660006046295,-0.3370813727378845,147.10256958007812,65.2075424194336,93.48961639404295,114.17875612609473,0.8975685908986222,47.570369354930165,0.9659647753736048,113.91841888427734,69.15375518798828,163.28357696533203
4518.731,14.622289657592772,104.07987213134766,-45.4725456237793,-0.0138362869620323,0.4947143793106079,0.7585621476173401,33.4595947265625,-1.6706831455230713,-69.38764953613281,8.137553215026855,-55.35499954223633,0.5065516233444214,-0.9791199564933776,0.2310427874326706,-0.3623664379119873,145.90550231933594,66.13349151611328,91.9953384399414,114.51717575636816,0.9057319094143736,55.95223267391116,1.0692829813259324,112.44590759277344,67.80417466163635,161.38298797607422
4541.123,25.118986129760746,105.19099426269533,-44.16142272949219,0.0200102962553501,0.5077345371246338,0.824559211730957,33.936317443847656,0.5641502737998962,-68.91494750976562,11.569334983825684,-51.25098037719727,7.695760726928711,-0.941798448562622,0.2564423382282257,-0.3380104005336761,144.4738311767578,66.88090515136719,90.18622589111328,116.81755003275158,0.9685518394984184,53.10119805388548,1.032955962962535,110.53751373291016,66.31675487756729,159.1011734008789
4563.662,26.639307022094727,109.3983917236328,-46.129493713378906,-0.0853768065571785,0.6172056198120117,0.7823737263679504,34.523555755615234,2.924424648284912,-68.4456558227539,15.52853298187256,-34.99325180053711,10.269099235534668,-0.8983326554298401,0.2922585010528564,-0.2813660800457001,143.31182861328125,67.31461334228516,88.60409545898438,121.67822722487168,1.0001702974675382,39.637323411831886,0.985689333537486,108.78827285766602,64.39018869400024,157.04975128173828
4573.674999999999,16.302122116088867,104.94551849365234,-53.36516571044922,-0.1868374943733215,0.6048547625541687,0.7734483480453491,34.894264221191406,5.303186416625977,-68.08091735839844,2.9293227195739746,-18.850902557373047,1.5565279722213743,-0.8948935270309448,0.296363890171051,-0.283309668302536,142.6616668701172,67.57941436767578,87.85282897949219,118.85773827855344,0.9994898099441736,19.14053912906565,0.9843425970021292,107.76740264892578,62.276227951049805,155.93374633789062
4596.674,22.445146560668945,101.9814224243164,-52.77889251708984,-0.2108524441719055,0.5217389464378357,0.7722998857498169,35.36838912963867,7.641509532928467,-67.77061462402344,-7.159919738769531,-29.15991401672364,-2.984968423843384,-1.002339243888855,0.1773849576711654,-0.3059940338134765,141.8268585205078,68.10736083984375,87.09503173828125,117.002592360799,0.9555717633817512,30.1740794825572,1.062911911579283,106.45846939086914,60.46585130691528,154.8656463623047
4618.799,36.27286529541016,104.46810150146484,-50.66845703125,-0.1700072884559631,0.5009417533874512,0.7444786429405212,36.139198303222656,9.949989318847656,-67.3370590209961,-0.3967383503913879,-29.16601181030273,-1.330757737159729,-1.0405786037445068,0.1835041493177414,-0.2468970715999603,140.96861267089844,68.63250732421875,86.17802429199219,121.64126572009582,0.9132872320412692,29.199050710466604,1.0850971234651443,104.82941436767578,58.68251800537109,153.51508331298828
4641.016,35.621299743652344,111.65814971923828,-48.50022888183594,-0.1943258494138717,0.5993258357048035,0.7660491466522217,36.97584533691406,12.323112487792969,-66.74409484863281,7.507684707641602,-15.226737022399902,4.699532508850098,-0.9058696627616882,0.1882549971342086,-0.2369150221347808,140.44305419921875,68.83465576171875,85.4518051147461,126.84120622156442,0.9918595103038942,17.615460704177405,0.9550751371337752,103.46720886230467,56.51154327392578,152.1958999633789
4663.509999999999,20.97330093383789,113.14201354980467,-52.94076156616211,-0.3165703117847442,0.6437532305717468,0.73201984167099,37.55561447143555,14.80017375946045,-66.16984558105469,9.701663970947266,3.412656545639038,-5.430581092834473,-0.7873611450195312,0.2791407704353332,-0.2414294630289077,140.85205078125,68.81494903564453,85.69840240478516,126.66380231688429,1.0249331845418377,11.6301212164586,0.869566172309,103.29643630981444,54.01477527618408,151.86824798583984
4673.568,21.140193939208984,108.4546890258789,-56.48316955566406,-0.4012034833431244,0.5437549948692322,0.6328532695770264,38.10872268676758,17.24028205871582,-65.65150451660156,-7.251871109008789,-3.831484317779541,-10.082841873168944,-0.9606654047966005,0.2719450891017914,-0.2951047718524933,140.94537353515625,68.98670196533203,85.95990753173828,124.09543027259852,0.9258169313132202,12.997446168320758,1.04111429623731,102.83665084838869,51.74641990661621,151.61141204833984
4698.364,35.78734588623047,108.55554962158205,-51.561767578125,-0.4277892112731933,0.5505898594856262,0.6539469957351685,39.02199935913086,19.66231918334961,-65.04805755615234,-7.116225719451904,-9.31590175628662,-5.4482831954956055,-1.0450925827026367,0.1940603554248809,-0.2435426115989685,140.71900939941406,69.24298858642578,85.86976623535156,125.3940084493874,0.9559285935053908,12.927122023145474,1.0905003125318875,101.6970100402832,49.58066940307617,150.9178237915039
4721.103,38.75239562988281,112.93489837646484,-54.04781723022461,-0.3818521499633789,0.5805191993713379,0.7156446576118469,40.02410125732422,22.11021614074707,-64.3350830078125,-0.624830424785614,-9.28232192993164,-9.634142875671388,-0.9758273363113404,0.1350312083959579,-0.2689366638660431,140.8960418701172,69.5474853515625,86.05854034423828,131.06184031101182,0.9974772585070656,13.392857141755728,1.0211754730234934,100.87194061279295,47.43726921081543,150.39362335205078
4743.317,23.630859375,117.68133544921876,-54.40236282348633,-0.4658772945404053,0.6967178583145142,0.7124848961830139,40.82887268066406,24.61406517028809,-63.51506042480469,10.52182388305664,1.2431879043579102,-16.876850128173828,-0.8362916111946106,0.2053925693035125,-0.2417529225349426,141.8396453857422,69.7354507446289,86.84354400634766,131.78365341987913,1.10004188781681,19.926925609346863,0.8944351525033897,101.01077270507812,45.12138557434082,150.35860443115234
4753.332,16.28752326965332,114.21861267089844,-56.90358352661133,-0.5753713846206665,0.5817768573760986,0.5858663320541382,41.48247909545898,27.13405990600586,-62.73122787475586,1.4580496549606323,-1.0267387628555298,-3.71319580078125,-0.9431934356689452,0.2501186728477478,-0.2576990723609924,141.92913818359375,69.79067993164062,86.91607666015625,128.6436656539849,1.00635774009707,4.119214043773452,1.009248244730613,100.44665908813477,42.656620025634766,149.6473045349121
4781.469,24.565135955810547,113.58316802978516,-50.69392776489258,-0.5904001593589783,0.5673457384109497,0.5752228498458862,42.39444732666016,29.54534721374512,-61.83582305908203,-7.2042412757873535,-7.177328586578369,-16.306015014648438,-1.0920991897583008,0.2306060940027237,-0.2324551045894622,142.19102478027344,70.1405029296875,87.35578918457031,126.78507907653018,1.000667208440946,19.217212692204185,1.1401294604173808,99.79657745361328,40.59515571594238,149.19161224365234
4803.584,27.418153762817383,116.98884582519533,-51.64643859863281,-0.5591015815734863,0.593912661075592,0.7064813375473022,43.41282653808594,31.968135833740234,-60.80766677856445,-4.942704200744629,-4.93058443069458,-11.370829582214355,-0.9834850430488586,0.2066943794488906,-0.2766311168670654,142.43699645996094,70.3619613647461,87.7210922241211,130.78799571518468,1.0790934657417262,13.34304137114277,1.0423483924368555,99.024169921875,38.39382553100586,148.52875900268555
4813.81,13.32891082763672,118.78912353515624,-53.97797393798828,-0.6532490849494934,0.687239408493042,0.6298323273658752,44.28378677368164,34.449947357177734,-59.732704162597656,1.3017797470092771,-0.3704512119293213,-13.2562894821167,-0.8322003483772278,0.2300541549921035,-0.2859866321086883,143.02432250976562,70.48666381835938,88.31951904296875,131.1569190113577,1.1382974708609046,13.32520451789845,0.9095442198228628,98.74053573608398,36.03671646118164,148.0522232055664
4836.737,5.60677433013916,110.23712158203124,-56.63801574707031,-0.7564325332641602,0.6073817610740662,0.6112270951271057,44.93069076538086,36.87176513671875,-58.80088424682617,-7.262295722961426,12.424582481384276,-15.241353034973145,-0.811260461807251,0.2627556324005127,-0.3290349841117859,143.95462036132812,70.38994598388672,89.46495819091797,124.06257985728828,1.1466042660322648,20.962109420121585,0.914028489719741,99.02392959594728,33.51818084716797,148.26584243774414
4853.461,11.868244171142578,103.1735382080078,-50.9588737487793,-0.8029437065124512,0.5699718594551086,0.5200791358947754,45.76140594482422,39.09247970581055,-57.84404754638672,-17.496915817260742,13.064969062805176,-34.612586975097656,-1.0324186086654663,0.1747795492410659,-0.2830971479415893,145.6539764404297,70.59337615966797,91.63717651367188,115.68250092303994,1.1135837750217643,40.9251347809273,1.084702756299766,99.89257049560548,31.500896453857425,149.4812240600586
4877.009,16.390764236450195,101.66900634765624,-47.8044548034668,-0.76600581407547,0.5928864479064941,0.5506635308265686,46.77985382080078,41.22240447998047,-56.8157958984375,-15.501869201660156,6.196271896362305,-13.582122802734377,-1.1526894569396973,0.0917368456721305,-0.2161389738321304,146.24566650390625,70.7232894897461,92.586181640625,113.53638140715672,1.1142304840072303,21.521519323402472,1.1763607818195116,99.46581268310548,29.500885009765625,149.4019775390625
4893.271000000001,4.4240922927856445,105.88685607910156,-46.82337951660156,-0.7077383399009705,0.6347833275794983,0.6584018468856812,47.66941452026367,43.30394744873047,-55.59214401245117,-4.649423599243164,-10.776321411132812,-9.952567100524902,-0.9161088466644288,0.1798214167356491,-0.2894259393215179,146.30401611328125,71.00006866455078,92.74444580078124,115.86210662803931,1.156432627834911,15.38830188330374,0.9774244396401128,98.63460159301758,27.696121215820312,148.33658981323242
4917.209,-5.357523918151856,104.35281372070312,-47.047454833984375,-0.7799999117851257,0.6058063507080078,0.5283104181289673,48.47347259521485,45.39741134643555,-54.33774948120117,-3.195727825164795,-0.6675624251365662,-14.9857816696167,-0.7953449487686157,0.222999170422554,-0.3514580428600311,146.96080017089844,71.09024047851562,93.50528717041016,114.59352425122955,1.1200504876328397,15.337273818166206,0.8976775442395241,98.4873275756836,25.69282913208008,147.84303665161133
4938.733,-3.935094594955444,94.24755859375,-42.713626861572266,-0.8668894171714783,0.5441897511482239,0.4148555994033813,49.3292236328125,47.33539581298828,-53.10569763183594,-13.021065711975098,5.205996036529541,-13.672307014465332,-0.901808261871338,0.186509907245636,-0.3241198360919952,147.56805419921875,71.1142349243164,94.4192886352539,103.5497039591288,1.104420624225666,19.585262982807578,0.9762672558415963,98.23883056640624,23.778839111328125,147.52498626708984
4953.282,3.773762464523315,86.36591339111328,-37.43635559082031,-0.877519965171814,0.5698630809783936,0.4660594761371612,50.34910202026367,49.04092025756836,-51.89168930053711,-7.352734088897705,6.303030490875244,-12.478787422180176,-1.120858669281006,0.1438561230897903,-0.1934195756912231,148.21392822265625,71.1946029663086,95.26016235351562,94.20611975313636,1.1454242251823443,15.795918063819638,1.146485879945054,97.86482620239258,22.153682708740234,147.1518516540527
4975.947999999999,3.4512627124786377,87.74504852294922,-35.86941146850586,-0.7990987300872803,0.5656572580337524,0.4755848050117492,51.48722839355469,50.67866516113281,-50.55282211303711,-4.846155166625977,-14.48484230041504,-9.832867622375488,-1.145842671394348,0.1699541211128235,-0.1019402146339416,148.15940856933594,71.54533386230469,95.30538940429688,94.85630940376204,1.088442842206898,18.16538361956798,1.1628549515012534,96.67218017578124,20.866668701171875,145.85821151733398
