Timestamp (ms),Wrist Gyroscope X (deg/s),Wrist Gyroscope Y (deg/s),Wrist Gyroscope Z (deg/s),Wrist Accelerometer X (g),Wrist Accelerometer Y (g),Wrist Accelerometer Z (g),Wrist Roll (deg),Wrist Pitch (deg),Wrist Yaw (deg),Arm Gyroscope X (deg/s),Arm Gyroscope Y (deg/s),Arm Gyroscope Z (deg/s),Arm Accelerometer X (g),Arm Accelerometer Y (g),Arm Accelerometer Z (g),Arm Roll (deg),Arm Pitch (deg),Arm Yaw (deg),Wrist Gyroscope Magnitude (deg/s),Wrist Accelerometer Magnitude (g),Arm Gyroscope Magnitude (deg/s),Arm Accelerometer Magnitude (g),Difference Roll (deg),Difference Pitch (deg),Difference Yaw (deg)
0.0,1.813561201095581,0.959066927433014,0.695658266544342,-0.9822543859481812,-0.2088289856910705,0.0201680343598127,-85.40428161621094,77.6805191040039,-30.2129020690918,0.2124892473220825,-0.2775324285030365,0.4161900281906128,-0.9481063485145568,-0.3024929463863373,0.1210382431745529,-68.89733123779297,70.79736328125,62.963645935058594,2.1662765348003306,1.0044102615909192,0.5434979932470784,1.002525753792827,16.50695037841797,-6.883155822753906,93.17654800415039
8.866999999999999,1.7910678088665009,0.831434577703476,0.7150743156671524,-0.9811562746763228,-0.2073859833180903,0.0174006074666976,-85.40959930419922,77.68618774414062,-30.22691631317139,0.2218724340200424,-0.1895602345466614,0.4331017881631851,-0.9469698816537856,-0.303671084344387,0.1205792892724275,-68.89451217651367,70.79973983764648,62.96530151367188,2.100128241295196,1.002985225491254,0.5222428730097826,1.001752189529788,16.515087127685547,-6.886447906494141,93.19221782684328
31.375,1.7784952918688457,0.8214699228604635,0.7358092036512164,-0.9799212051762476,-0.2075201595822969,0.0154998566334445,-85.42154015435113,77.69153679741754,-30.247663709852432,0.3279997342162661,-0.1045143273141649,0.4876279201772477,-0.946545081006156,-0.3035150981611675,0.1203853541778193,-68.89009094238281,70.80364312065973,62.96645651923286,2.0926713840309143,1.00177364236777,0.5968987006153238,1.0012800001444415,16.531449211968322,-6.8878936767578125,93.2141202290853
59.302,1.7716299816966057,0.8439272865653038,0.7372731355329355,-0.9797381224731604,-0.207700865343213,0.0148498383932746,-85.43598524729411,77.69659964243571,-30.271068731943767,0.4214250879983107,-0.0215286066134771,0.497159240146478,-0.9468667892118294,-0.3028665234645207,0.1203708344449599,-68.88635730743408,70.80793396631877,62.96584137280782,2.0962961941086373,1.001622162190843,0.6520965386812946,1.0013860321238657,16.54962793986003,-6.888665676116943,93.23691010475159
78.793,1.7583375823497776,0.8665684306621552,0.7212219272057215,-0.9795748474200566,-0.2080194684863089,0.0144818972516804,-85.45194249471028,77.70110356648763,-30.2958957417806,0.4526725115378697,0.0028259189923603,0.4794044656554858,-0.946955699721972,-0.3026528326670328,0.1204456294576326,-68.8822508239746,70.81147076924643,62.96600439707438,2.088744351711397,1.0015231930990725,0.6593550107571611,1.0014144916131154,16.56969167073568,-6.889632797241205,93.26190013885498
89.009,1.763749250173569,0.8738864600658417,0.7096509168545405,-0.9787989189227424,-0.2083001330494879,0.0129194955248384,-85.48655675252279,77.71208409627279,-30.352388890584315,0.4634493269522984,0.0860481240351994,0.4768234298626582,-0.9463129327694574,-0.3026614228884378,0.1201461566487947,-68.87402542114258,70.8192640431722,62.967444368998216,2.092389396447689,1.0008012702217055,0.6704850047305344,1.0007733022963103,16.61253133138021,-6.892820053100593,93.31983325958254
108.763,1.7961160147190096,0.94816272854805,0.6919676897923152,-0.9784204639991124,-0.209322878718376,0.0125874758604912,-85.53204900105794,77.72397313435872,-30.42440373738607,0.4656231882174809,0.1374329312642414,0.4790189565221469,-0.94610952715079,-0.3020214567581812,0.1198265653351942,-68.8652815246582,70.8285935719808,62.96889868418376,2.145661805097508,1.0006403532117445,0.682020472353477,1.000349240749377,16.66676747639974,-6.8953795623779115,93.39330242156983
131.586,1.8284822332859043,0.9699639934301376,0.6528002542257308,-0.9787830239534376,-0.2099320703744887,0.0130469974596052,-85.58093978881837,77.7366633605957,-30.504278259277346,0.4226404207944869,0.1820460337400436,0.4305489468574524,-0.9459619873762132,-0.30175242125988,0.1194336514174937,-68.85871475219726,70.83831535339354,62.96849758148194,2.1703284539235823,1.0011283165977605,0.6301889235220526,1.0000814978729833,16.72222503662111,-6.898348007202159,93.47277584075928
148.898,1.8595546007156376,0.9216653296351434,0.6151313352584838,-0.9784677886962893,-0.2105830812454222,0.0132322112098335,-85.62828796386718,77.74999267578124,-30.586827926635745,0.3748084235191344,0.2048124730587005,0.3985866430401802,-0.9451172256469726,-0.3022605121135711,0.1190510821342467,-68.85349975585937,70.84829772949219,62.9669384765625,2.164670148662617,1.0009593093810176,0.5842095646866455,0.9993903879641448,16.774788208007806,-6.901694946289055,93.55376640319824
171.21900000000002,1.8900990629196168,0.8166301888227462,0.5851846837997436,-0.9783270406723024,-0.2108749246597289,0.013592291921377,-85.66890869140624,77.76420959472657,-30.666735610961915,0.3892808699607848,0.277351056933403,0.3987394559383392,-0.9445995926856996,-0.3024652540683746,0.1186954694986342,-68.85039642333984,70.85984954833984,62.9617919921875,2.140514061411439,1.000887997110839,0.6224599249923677,0.9989205348275392,16.8185122680664,-6.904360046386728,93.62852760314942
193.223,1.8493661642074584,0.6650324442982674,0.5446350371837616,-0.9781324267387392,-0.210865831375122,0.0137551329657434,-85.69607604980469,77.77720489501954,-30.73206741333008,0.5373895704746247,0.3342834413051604,0.3914967718720435,-0.9448080492019651,-0.3022416484355926,0.1188733702898024,-68.84713256835938,70.87168212890626,62.953634796142566,2.039375072176007,1.0006980797234708,0.7441792068930394,0.9990711396341824,16.848943481445303,-6.905522766113279,93.68570220947265
209.645,1.7930188465118408,0.496908141374588,0.4836285710334778,-0.9779607892036438,-0.2106018209457396,0.013764253258705,-85.70921539306642,77.78871978759767,-30.781889266967774,0.7003749239444732,0.3839222109317778,0.3581211513280868,-0.9450549054145814,-0.3021341788768768,0.1193917289376257,-68.84308135986329,70.883134765625,62.942754058837885,1.9224283808846776,1.0004748307045237,0.8753125482737727,0.9993338887641524,16.866134033203124,-6.905585021972669,93.72464332580566
231.389,1.738403024673462,0.3647349688410758,0.4182772058248519,-0.9778156590461732,-0.2100501918792723,0.0136227660626172,-85.71205261230469,77.79890594482421,-30.82003303527832,0.7612111485004425,0.4465724265575408,0.3490330252051353,-0.9451862978935244,-0.3020882940292358,0.1199713930487631,-68.84043884277344,70.89469787597656,62.92899276733398,1.824837662533845,1.0002150398487408,0.949048680230209,0.9995136868823862,16.87161376953125,-6.904208068847652,93.7490258026123
253.813,1.6711707448959352,0.2434663379192351,0.3338944441080093,-0.9785784339904784,-0.2093880468606948,0.0135376174002884,-85.70584564208984,77.80758239746095,-30.847535171508788,0.6515770351886749,0.6913603150844574,0.3969862270355224,-0.944863986968994,-0.3016461265087127,0.1193627494573592,-68.85297180175782,70.90907653808594,62.90158813476562,1.7215031269509895,1.0008208494652129,1.0296260401305142,0.9990024051355804,16.852873840332023,-6.898505859375007,93.74912330627441
276.374,1.6821358299255371,0.0146040025353431,0.2392426794767378,-0.9796122241020204,-0.208956617116928,0.0128176553361116,-85.68105651855468,77.81431549072265,-30.85614379882813,0.5089632070064545,1.3464533722400662,0.5415603190660476,-0.9435956382751464,-0.3013609385490418,0.1166816949844359,-68.90512603759765,70.93105895996094,62.835783081054686,1.6991266247377026,1.0017321347223382,1.5379427196387585,0.9973994995985718,16.77593048095703,-6.883256530761713,93.69192687988281
298.565,2.0218534326553343,-0.5038046246767044,0.1236564403772353,-0.9813838052749636,-0.2089477509260176,0.0119853728637098,-85.60539337158204,77.81803222656251,-30.81949409484863,0.5489977204799652,2.58477226793766,0.8840551483631135,-0.9421185588836668,-0.301516443490982,0.1122796145081519,-69.02416564941407,70.96832244873046,62.69922988891601,2.0873431242209706,1.0034525325274188,2.7863954635943404,0.9955431967135264,16.581227722167966,-6.849709777832047,93.51872398376463
309.165,2.6950066471099854,-1.445765486061573,0.0138045243173837,-0.9832814311981204,-0.2094892370700835,0.0115867043845354,-85.43317626953124,77.81766510009764,-30.697633895874027,0.9276790916919708,4.373088725805284,1.431591116786003,-0.941712396144867,-0.3016781234741211,0.1079704555869101,-69.22924499511718,71.02840606689453,62.46450866699219,3.058347467758608,1.0054165132449957,4.6940330875046365,0.9947308915055464,16.20393127441406,-6.789259033203109,93.16214256286622
331.429,3.6373236942291256,-2.849893659949303,-0.0985601685941219,-0.9855079770088196,-0.2108065629005431,0.0134323354065417,-85.11261657714843,77.81148559570313,-30.443234252929688,1.551093796491623,6.428040205836297,2.092031681537628,-0.9423777985572817,-0.3006834113597869,0.1037557312846182,-69.52705047607422,71.1156268310547,62.11926193237305,4.621875337614933,1.0078917637050273,6.935574194680632,0.9946113214995258,15.585566101074207,-6.695858764648435,92.56249618530273
353.745,4.76436354637146,-4.8066985797882085,-0.2532332921773195,-0.9880434560775756,-0.2121058231592177,0.0168829812295734,-84.58876007080077,77.79682373046874,-30.00389358520508,2.285322114229202,8.508602423667908,2.790606692433357,-0.943993957042694,-0.2970376777648925,0.0992350582778452,-69.91602722167968,71.23192352294922,61.66271087646485,6.772565122551291,1.010694704829786,9.241563616709366,0.994587135316203,14.67273284912109,-6.564900207519528,91.66660446166993
376.537,6.073690004348755,-7.459503202438354,-0.5677168276906013,-0.9921509623527528,-0.2139219999313353,0.0212522366642951,-83.80034576416016,77.7672674560547,-29.3205355834961,3.071841863393783,10.751597675681117,3.637456727027893,-0.9450956296920776,-0.291517697572708,0.0915847945213317,-70.41055877685547,71.3813720703125,61.07932098388672,9.636192229950437,1.0151737839972774,11.758577994571054,0.9932653682922165,13.389786987304689,-6.385895385742202,90.39985656738281
398.629,7.568226728439332,-10.961328593492508,-1.1286160915344954,-0.9979767060279848,-0.2165995913743971,0.0264960200898348,-82.68136047363281,77.71216552734374,-28.32908172607421,3.8826332283020015,13.336134147644042,4.6812705123424525,-0.9458915972709656,-0.2869467842578887,0.0822691727802156,-71.03775756835937,71.56744354248048,60.34079284667969,13.367967483116145,1.021555151638238,14.657476194734183,0.9918757924123882,11.64360290527344,-6.144721984863267,88.6698745727539
408.804,9.446316566467283,-15.65708344221115,-2.031281028091908,-1.0063462758064268,-0.2208736807107924,0.0324362846091389,-81.14665222167969,77.61444274902344,-26.9495548248291,4.620809416770936,16.467952594757083,6.01279767036438,-0.9464711880683898,-0.2831222236156462,0.0696257942169904,-71.84359436035156,71.79613006591796,59.40149581909179,18.39845812032528,1.0308104201158634,18.13006007033691,0.9903603660127984,9.303057861328128,-5.818312683105475,86.3510506439209
433.972,12.171592159271242,-21.769680118560792,-3.2374414641410114,-1.0155471205711364,-0.2283358389139174,0.0389322288520633,-79.1029052734375,77.45195098876952,-25.10251155853271,5.535888009071351,20.380183753967284,7.51528299331665,-0.9480831599235534,-0.2799327230453491,0.0576023364439606,-72.8780465698242,72.07189025878907,58.20572372436524,25.150500102181542,1.0416280179969422,22.416008216542178,0.990223225705203,6.224858703613293,-5.380060729980457,83.30823528289795
456.281,15.799251708984375,-29.09599586486816,-4.717686483114957,-1.0231018161773684,-0.2373257046937942,0.0509121055901049,-76.4820556640625,77.20013092041015,-22.73570560455322,6.517104578018189,24.74554107666016,8.956222496032714,-0.9518286728858948,-0.2799623608589172,0.0498729448020457,-74.17030487060546,72.39106811523439,56.721278228759765,33.443233929828565,1.0515002895241892,27.111406762762112,0.9934002499741232,2.311750793457037,-4.809062805175756,79.45698383331299
476.125,19.39212320327759,-37.16484710693359,-6.449157349094747,-1.026683888435364,-0.2449822348356246,0.0728682674467563,-73.28917205810546,76.83459045410156,-19.85285903930664,6.982712602615356,28.4151411819458,9.819394664764404,-0.9587298583984374,-0.2820841336250305,0.0507683938369154,-75.69004486083983,72.73341796875,54.98957214355469,42.413110394384304,1.0580197949747954,30.86420313669282,1.00065569984908,-2.4008728027343693,-4.1011724853515545,74.84243118286133
498.76,21.93862060546875,-45.56322433471679,-8.441668812036514,-1.0255048274993896,-0.2539270383119582,0.1020476417988538,-69.62008163452148,76.33038085937501,-16.529002113342283,6.601927967071534,30.725950088500973,9.623170766830444,-0.9650233340263366,-0.2829536259174346,0.0534753523021935,-77.38715576171874,73.06832153320312,53.08057159423828,51.26960364756624,1.061391922527745,32.86753530964916,1.0070712005310118,-7.767074127197262,-3.2620593261718938,69.60957370758057
519.162,23.118397426605224,-53.60706428527832,-10.717156023979186,-1.02014732837677,-0.2646309202909469,0.1372568614035844,-65.65134338378905,75.66705902099609,-12.914939794540404,5.70910662651062,31.5067656326294,8.067823524475097,-0.9681394839286804,-0.284121857881546,0.0567106528952717,-79.1931689453125,73.35811065673829,51.076358795166016,59.3551604673321,1.0628120913739447,33.020598957686666,1.0105619172616596,-13.541825561523439,-2.3089483642578017,63.99129858970642
528.673,22.41003749847412,-61.001820755004886,-13.379125499725342,-1.013620080947876,-0.2714838498830794,0.1764219328016041,-61.59635620117187,74.82999542236328,-9.188697109222412,4.548647880554199,30.93326133728027,5.462096109390259,-0.968331263065338,-0.2862786436080932,0.054035671763122,-81.04492431640627,73.57351898193359,49.04914611816406,66.35083206144563,1.0640741739284771,31.73942892381596,1.011207570501079,-19.448568115234394,-1.2564764404296938,58.23784322738647
550.976,19.54181800842285,-68.0124024963379,-16.56624786376953,-1.009613618850708,-0.2766646391153334,0.2136366646736859,-57.66380157470703,73.8050308227539,-5.517514753341675,3.919429244995117,29.679806594848635,1.968986072540284,-0.9673803973197938,-0.289155877828598,0.0437206145003437,-82.89837219238282,73.69306152343749,47.03453170776367,72.67743881482092,1.0684117213876574,30.002162443197346,1.0106173593075258,-25.234570617675793,-0.11196929931641364,52.55204646110534
573.407,15.44849685668945,-74.9572967529297,-20.234476470947264,-1.009122371673584,-0.286259342432022,0.2442658133804796,-54.01093093872071,72.58039062499999,-2.0346184539794927,4.495784463882446,28.63436706542969,-2.121572504043579,-0.9672127223014833,-0.2936581301689148,0.0280595744028687,-84.73447143554687,73.7059912109375,45.0272607421875,79.16240540617261,1.0770042524187915,29.06269301137397,1.0111987377918443,-30.723540496826153,1.1256005859375051,47.06187919616699
588.38,10.903669738769532,-81.66060638427734,-24.18413776397705,-1.0122784423828126,-0.2948303252458571,0.2739327991008757,-50.72799301147461,71.15657623291015,1.1777749156951904,5.942545413970947,28.014062576293945,-6.44801649093628,-0.9707272267341616,-0.2978153216838836,0.0133581085503101,-86.53207061767577,73.61168701171876,43.03003341674805,85.86161638477962,1.0893446396897504,29.354360233072807,1.0154721825912876,-35.80407760620116,2.455110778808603,41.85225850105286
610.9050000000001,5.867138061523437,-88.41047821044921,-28.22847026824951,-1.0178652477264405,-0.2999266111850738,0.3044622808694838,-47.84654510498047,69.53803665161134,4.097916030883789,7.476721200942992,27.64983657836914,-10.728080778121946,-0.9773334932327272,-0.3002742850780486,0.0003220297023654,-88.27077087402344,73.41584381103516,41.06106903076172,92.99291639753396,1.103948782823922,30.58605139453375,1.022421394033178,-40.42422576904297,3.877807159423824,36.963152999877934
633.452,0.3865463638305673,-95.18362854003904,-32.39846794128418,-1.0215441966056824,-0.3091008788347243,0.3334750175476073,-45.38227310180664,67.72885040283202,6.719375085830689,8.820993576049805,27.366330490112308,-15.083491935729976,-0.9845246148109436,-0.3050926434993743,-0.0090074743330478,-89.92605285644531,73.11837738037109,39.14851516723633,100.5471694533563,1.118168809368033,32.469026796902824,1.0307528185166093,-44.54377975463867,5.389526977539063,32.42914008140564
648.454,-4.564509544372558,-101.64906372070313,-36.53865280151367,-1.0212217926979066,-0.3244522523880004,0.3622145563364028,-43.32071655273437,65.73959518432618,9.046015796661376,9.777333612442018,26.94363273620606,-19.23049611091613,-0.9895585107803344,-0.3111815750598907,-0.0144869304075836,-91.46779174804688,72.72450775146484,37.33070327758789,108.11308917622227,1.1310891206190383,34.51619298625652,1.0374342822883684,-48.14707519531251,6.9849125671386645,28.28468748092651
671.04,-8.049540004730224,-107.49272521972657,-40.54476341247558,-1.01660564661026,-0.3399446737766265,0.3934654676914214,-41.61369323730469,63.58744903564453,11.09550726890564,10.152177295684814,26.16266639709473,-23.00642147064209,-0.9902965497970582,-0.3163439857959747,-0.0181752704083918,-92.86735107421876,72.24405029296875,35.64922912597656,115.16665710883947,1.1418688612159416,36.28838995785717,1.039755314650355,-51.25365783691407,8.656601257324219,24.55372185707092
693.381,-9.342981414794922,-112.9713018798828,-44.607223968505856,-1.0065387630462646,-0.3571476757526397,0.4263097786903381,-40.19302276611328,61.28175750732422,12.890636100769044,10.193691635131836,25.014036293029783,-26.19936988830566,-0.986343228816986,-0.3230332410335541,-0.0215343125537036,-94.10460845947266,71.69051483154297,34.13237449645996,121.81794112662249,1.1499629434104484,37.63004575290104,1.038117125599477,-53.91158569335938,10.408757324218747,21.241738395690916
716.231,-8.372857456207274,-118.06254028320312,-48.94598243713379,-0.9897575736045836,-0.3769756138324737,0.4595838248729705,-38.99971740722656,58.82813613891601,14.442456912994384,10.256948432922364,23.62020511627197,-28.736342849731443,-0.979990770816803,-0.3328380966186523,-0.0237289785593746,-95.16683471679688,71.07877166748047,32.793408660888666,128.0803550777446,1.154533654778791,38.58622139142029,1.0352420846692385,-56.16711730957032,12.250635528564459,18.350951747894282
738.305,-5.117811584472657,-122.8771188354492,-53.423330841064455,-0.9682978177070618,-0.395092738866806,0.4949995708465575,-37.96308135986328,56.23284515380861,15.77324535369873,10.275479507446288,22.02371627807617,-30.57652351379395,-0.971745080947876,-0.3422885262966156,-0.0233747277781366,-96.04852722167968,70.42620208740234,31.63937194824219,134.08590756253656,1.157032199733356,39.05833263203564,1.0305320545618195,-58.085445861816396,14.193356933593734,15.86612659454346
749.1790000000001,-0.3898751258850098,-127.54497436523438,-57.869396514892586,-0.9419644284248352,-0.4079085803031921,0.5349976491928101,-37.02245666503906,53.500913391113286,16.911684951782227,9.643076343536377,20.21194339752197,-31.822584457397465,-0.9620083975791932,-0.3510630595684051,-0.0226837849617003,-96.76351043701172,69.7476577758789,30.670243606567382,140.05977131724848,1.1575443313085358,38.91257455913317,1.0243143965143735,-59.74105377197266,16.24674438476562,13.758558654785155
770.7420000000001,4.5431260681152335,-132.46584350585937,-62.25108917236328,-0.910870213508606,-0.4179088366031646,0.5753995907306672,-36.14567657470703,50.631084594726566,17.88537731170654,8.376702270507813,18.407220611572267,-32.17784538269043,-0.9512639808654786,-0.3606468379497528,-0.0225469502434133,-97.34340087890624,69.06202301025391,29.86693824768066,146.43441464811178,1.1556024535199132,38.00537652811972,1.0175842313933878,-61.197724304199205,18.430938415527343,11.98156093597412
793.282,8.658422107696532,-137.69347595214845,-66.27393905639649,-0.8757058906555176,-0.4244674968719482,0.6138156223297119,-35.3208088684082,47.625031280517575,18.723997116088864,6.953594341278075,16.964913787841798,-31.99270896911621,-0.9391600561141968,-0.37178320646286,-0.022735934332013,-97.82520996093749,68.37918762207032,29.19417556762695,153.0578210717469,1.1505664174855452,36.87403152998772,1.0103273164267983,-62.504401092529285,20.754156341552743,10.470178451538086
816.407,11.814500465393069,-143.20062774658203,-69.64703598022462,-0.8377419924736025,-0.4268954980373382,0.6501064193248749,-34.53589736938477,44.4883145904541,19.46167251586914,5.660906572341919,16.108028106689453,-31.62556465148926,-0.92656729221344,-0.3818464195728301,-0.022455226741731,-98.24550415039064,67.70248352050781,28.61054527282716,159.6768982323136,1.1431053182649438,35.94009978049878,1.0024160176036487,-63.709606781005874,23.21416893005371,9.14887275695802
838.058,14.023302936553955,-148.87148864746095,-72.3719660949707,-0.7963577246665955,-0.425528529882431,0.6845365381240845,-33.78375221252442,41.22721847534179,20.127221603393554,4.513181400299072,15.865517349243165,-30.907798080444337,-0.9158942794799804,-0.38890842795372,-0.0226773595064877,-98.6421142578125,67.0394320678711,28.07287651062012,166.12367270745324,1.1330712366868054,35.033918269195354,0.995302144653458,-64.85836204528808,25.81221359252931,7.945654907226565
848.132,15.601495246887207,-154.63110290527345,-74.59837768554686,-0.7503863763809204,-0.4225426590442657,0.7125265049934387,-33.0605054473877,37.84742179870606,20.73966827392578,3.936488161087037,16.216947708129883,-29.534017944335936,-0.9058038449287414,-0.3952268350124359,-0.0225159310922026,-99.04074584960938,66.40168914794921,27.54127006530761,172.39229273072334,1.1177280675049954,33.92261116050701,0.9885301329522472,-65.98024040222168,28.554267349243155,6.801601791381831
870.592,16.634344482421874,-160.1650830078125,-76.33158935546875,-0.7002612388134002,-0.4180967700481414,0.7384446191787719,-32.36551879882813,34.358090209960935,21.3118563079834,4.136520233154297,17.04547889709473,-28.27725067138672,-0.8949508357048035,-0.4028660750389098,-0.0221079982072114,-99.44872985839844,65.7841766357422,26.99083854675293,178.20231975143102,1.1002141461112231,33.27554741853299,0.9816958980920276,-67.08321105957032,31.426086425781264,5.678982238769528
896.566,17.473106727600097,-165.42819580078125,-77.70414031982422,-0.6470573425292969,-0.4143769073486328,0.7613689184188843,-31.69775268554688,30.767355651855468,21.850361022949222,4.887694940567017,18.34416110992432,-26.912818908691406,-0.888937087059021,-0.409569503068924,-0.0206320670619606,-99.87499114990234,65.18869674682617,26.39919807434082,183.60209924578385,1.081699614402832,32.934748067518626,0.9789698691912596,-68.17723846435547,34.4213410949707,4.548837051391597
918.16,18.628395004272463,-170.12450317382817,-78.81514953613281,-0.5891293883323669,-0.4116665577888488,0.7791823244094849,-31.050129089355472,27.086589584350584,22.35558258056641,6.128832149505615,19.712454566955568,-24.69686820983887,-0.8864644241333007,-0.4164537358283995,-0.0203793311119079,-100.32070343017578,64.6318130493164,25.75433654785156,188.4175986392461,1.0600320210591547,32.18817714542485,0.9796265648072144,-69.2705743408203,37.54522346496582,3.398753967285149
938.291,20.251402130126955,-174.18575805664062,-79.57371063232422,-0.5278706467151641,-0.4106375789642333,0.79460688829422,-30.412178878784182,23.328791942596432,22.82840751647949,7.816121435165405,20.98443237304688,-21.97613544464111,-0.8822755122184753,-0.423790669441223,-0.021565679758787,-100.77882873535157,64.12217224121095,25.05434883117676,192.56887864294043,1.038590750895518,31.374969089856343,0.9790166952147812,-70.36664985656739,40.793380298614515,2.2259413146972697
948.311,22.0104190826416,-177.62981689453125,-79.94718536376953,-0.4654938691854477,-0.4101763975620269,0.8102217817306518,-29.77824424743652,19.507252254486083,23.2710994720459,9.723235187530516,22.216986961364743,-19.32282199859619,-0.881493844985962,-0.4313690006732941,-0.0222713743150233,-101.2431607055664,63.65836212158204,24.300914916992184,196.0315353349229,1.0204844707083949,31.008180568084217,0.9816346711500624,-71.46491645812988,44.151109867095954,1.0298154449462835
970.58,24.30307373046875,-180.446875,-80.01440460205079,-0.4001675850152969,-0.4087816905975341,0.8210466241836547,-29.135648651123045,15.634335369467736,23.683809585571293,11.322441606521606,22.991223449707032,-16.387179069519043,-0.8861769747734071,-0.4347272622585295,-0.022365097105503,-101.70615783691406,63.25078842163085,23.509577560424805,198.88192234045536,1.0006768338220529,30.419297781242964,0.9873183988652712,-72.57050918579101,47.616453052163116,-0.1742320251464875
988.173,27.114113159179688,-182.48861633300783,-79.77715209960937,-0.3316925159096717,-0.4048846161365508,0.8289796137809754,-28.47155418395996,11.724697922468184,24.064772109985352,12.416488246917726,22.92327735900879,-13.306677894592283,-0.8887382102012633,-0.4368127703666686,-0.0244261230528353,-102.15120391845704,62.904881439208985,22.711076583862305,201.0016522834296,0.9803870039729132,29.26966863246528,0.9905844931728648,-73.67964973449708,51.1801835167408,-1.3536955261230474
1010.566,29.802835311889645,-184.0569604492188,-79.18751739501953,-0.2624901140481233,-0.3988248229026794,0.8361594009399415,-27.784240264892578,7.788399708867074,24.4162947845459,12.707847518920898,22.321582412719728,-10.780777897834778,-0.8890430188179017,-0.4378598880767821,-0.0263683014363049,-102.57264343261718,62.611354217529296,21.930098037719727,202.57304014507804,0.9628732227643432,27.85619503906493,0.9913697888356776,-74.78840316772461,54.82295450866222,-2.486196746826174
1028.68,32.164435119628905,-185.2255120849609,-78.33268951416015,-0.1916011284291743,-0.3902513206005095,0.8383636736869813,-27.07741897583008,3.833371484279633,24.73981239318848,12.007663354873658,21.024948081970216,-8.924537591934206,-0.8922902870178223,-0.438955271244049,-0.0272367586940526,-102.96103973388672,62.36072799682618,21.19985481262207,203.66406521579265,0.9443837858644684,25.80464671960005,0.9947891874580476,-75.88362075805664,58.52735651254655,-3.5399575805664085
1050.788,34.51154136657715,-186.0018170166016,-77.29147552490235,-0.1190859749168156,-0.3786610662937164,0.8348835396766663,-26.34814247131348,-0.1332326298952104,25.03510398864746,10.215202636718752,18.76762132644653,-7.582199072837829,-0.8953629922866823,-0.4353396904468535,-0.0293030115216969,-103.3039990234375,62.14937957763672,20.5601708984375,204.3567826371097,0.9244437232041884,22.67297329293755,0.996019176782839,-76.95585655212402,62.28261220753193,-4.474933090209959
1072.954,36.54554542541504,-186.44210815429688,-76.13015747070312,-0.047355363368988,-0.3641827356815337,0.8287485814094545,-25.59738510131836,-4.105180265903473,25.30089904785157,7.429069700241089,15.757511749267575,-6.234920406341553,-0.89906067609787,-0.4333869159221649,-0.0316031219810246,-103.59846130371092,61.979829101562494,20.0377725982666,204.67544420367983,0.9064743827579896,18.50309394703384,0.9985655088761238,-78.00107620239257,66.08500936746597,-5.26312644958497
1089.053,38.18470054626466,-186.4353137207031,-74.99451171875,0.0241045745462179,-0.3469057512283324,0.8193280053138734,-24.825822677612305,-8.075849635004998,25.53208335876465,3.567529239654541,11.598938884735109,-5.148883709907532,-0.9052417659759522,-0.4303369104862213,-0.0330936945229768,-103.82515960693358,61.85393249511719,19.67943923950196,204.5491978617336,0.8900691046435432,13.182323451719784,1.002869734318105,-78.99933692932127,69.92978213012219,-5.852644119262688
1110.404,39.76842552185059,-185.78518066406247,-74.06495239257814,0.096107593178749,-0.3280707764625548,0.8044831991195679,-24.0273112487793,-12.03681639790535,25.718558502197265,-1.4121830654144287,5.835714836120604,-4.031710147857666,-0.9123116803169252,-0.4252661871910095,-0.035302318111062,-103.95258026123048,61.781057891845705,19.54724548339844,203.9197837282596,0.874105440722691,7.232186071659101,1.0071793215086795,-79.92526901245118,73.81787428975106,-6.171313018798823
1133.833,41.42730621337891,-184.3389660644531,-73.37155364990235,0.1668756441026925,-0.3076945257186889,0.7848526644706726,-23.1911791229248,-15.976543021798133,25.84772071838379,-7.153371829986571,-1.0841911888122553,-2.289283709526062,-0.9203027915954592,-0.4212481820583343,-0.0389490303397178,-103.96266967773438,61.77784362792969,19.6797095489502,202.6831541959251,0.8593701802358815,7.588611136080499,1.012879206060748,-80.77149055480959,77.75438664972782,-6.168011169433591
1156.573,42.79730422973633,-181.84270080566404,-72.71577331542969,0.2357601805031298,-0.2868498647212981,0.7594264101982117,-22.31411544799805,-19.877063846588136,25.9081674194336,-13.37498562812805,-9.170188941955566,-0.2629554843902588,-0.923948485851288,-0.4220863652229308,-0.043736156746745,-103.82525604248046,61.85065399169922,20.12205894470215,200.4643628540789,0.8453367258720266,16.218870224851262,1.016735243620958,-81.51114059448241,81.72771783828736,-5.786108474731449
1178.8670000000002,43.782483978271486,-178.00068176269534,-71.90345031738282,0.3024063866585492,-0.267408555150032,0.7308115196228028,-21.3941593170166,-23.7119165802002,25.889526748657225,-19.49418174743652,-17.772835330963137,1.3799395895004274,-0.9230244636535644,-0.4225937986373901,-0.0515405637025832,-103.51513671875,61.991703338623054,20.900617828369143,196.9041766414219,0.834890672646843,26.415923814515544,1.016472384699412,-82.1209774017334,85.70361991882325,-4.9889089202880825
1189.257,44.269894409179685,-172.85605407714846,-70.74914962768555,0.3659444326162338,-0.2503509271144867,0.6976216697692872,-20.43249397277832,-27.453414192199705,25.78580101013184,-24.82056307792664,-25.85511329650879,3.3578086853027345,-0.9175088715553285,-0.4242765963077545,-0.0603390059620141,-103.03473907470702,62.20023986816405,21.99419212341308,191.94916294467825,0.8265996059771554,35.99752927976773,1.012656879302022,-82.6022451019287,89.65365406036375,-3.7916088867187625
1210.581,43.94477478027344,-166.2933184814453,-69.07038208007812,0.4239630943536758,-0.2333863526582718,0.6612409400939941,-19.43466152191162,-31.067947006225587,25.59358726501465,-28.66195804595948,-32.533293056488034,5.197726268768311,-0.9120401000976563,-0.4281280899047852,-0.0709141667187213,-102.4008575439453,62.46270751953125,23.349711608886714,185.3519049881828,0.8194226478670602,43.66851674253109,1.010019615944697,-82.96619602203369,93.53065452575683,-2.243875656127937
1233.052,42.48619079589844,-158.19902984619142,-66.87915786743164,0.4756269437074661,-0.2160067284107207,0.6273981976509094,-18.41026500701904,-34.518666687011724,25.308158493042,-30.39244010925293,-37.355840530395504,6.649704551696777,-0.9014999985694884,-0.4300311589241028,-0.0854608190059661,-101.63629272460938,62.76048767089844,24.89417022705078,176.93171340853084,0.8163996537939109,48.61458431532376,1.0024632644898093,-83.22602771759034,97.27915435791016,-0.41398826599122174
1255.316,40.0964884185791,-148.7631262207031,-64.37821548461913,0.5212847661972045,-0.2002713739871978,0.5983217024803162,-17.366353759765623,-37.773244628906255,24.92481094360352,-29.555248260498047,-39.259094696044926,8.288450527191163,-0.8931926250457763,-0.4324788355827332,-0.1004820692539214,-100.79722442626954,63.08379165649414,26.505914077758792,166.98128857881696,0.8184346585812079,49.83460271974074,0.9974606031842618,-83.43087066650392,100.8570362854004,1.5811031341552706
1278.315,36.753614578247074,-138.1530355834961,-61.656981506347655,0.5619433569908142,-0.1841004389524459,0.5716720962524414,-16.31119342803955,-40.804467849731445,24.43940467834473,-25.997425003051763,-37.85359385490417,10.238222465515138,-0.8845737600326539,-0.4337152540683746,-0.1142308020591735,-99.95831848144532,63.42624343872071,28.04004875183106,155.6877413092475,0.8224854367842932,47.04871808853795,0.9917803863199676,-83.64712505340577,104.23071128845216,3.600644073486329
1288.278,32.57047561645508,-126.55346893310548,-58.58576950073242,0.5952893459796906,-0.168595917224884,0.5493527150154114,-15.259513854980469,-43.58702667236328,23.857181549072266,-20.08787754058838,-33.14699228286743,11.939819297790528,-0.8781621098518372,-0.4336022973060607,-0.1285583351552486,-99.20332885742188,63.77386657714844,29.35097061157227,143.20931802392445,0.82739494453171,40.55619812494804,0.98777876518298,-83.94381500244141,107.36089324951172,5.493789062500003
1312.805,27.983713073730467,-114.16838897705075,-55.270717010498046,0.6251010990142822,-0.1543340474367141,0.5328752541542052,-14.221218643188475,-46.10466735839844,23.18572036743164,-12.333278732299805,-25.275675287246703,13.940958137512206,-0.870526123046875,-0.4316836464405059,-0.1398527801036834,-98.62623321533204,64.12532928466797,30.29284614562988,129.89365418627116,0.835778929309043,31.389804703228087,0.9816951164256263,-84.40501457214356,110.22999664306641,7.107125778198242
1336.457,23.32308156967163,-101.30041580200196,-51.42333618164063,0.6535360383987426,-0.1426263025403022,0.5188856256008149,-13.213500747680664,-48.34515350341797,22.453471755981447,-3.81238941192627,-15.246686248779294,16.168026466369632,-0.8681768178939819,-0.4285792958736419,-0.1439773008227348,-98.30229400634768,64.48274124145509,30.764576644897467,115.97456565822556,0.846577762593248,22.54774566146496,0.9788465983657844,-85.08879325866701,112.82789474487305,8.31110488891602
1355.587,18.69938709259033,-88.17296813964843,-46.92322219848633,0.6819999837875366,-0.1300461801886558,0.505667746067047,-12.2567378616333,-50.30252655029297,21.71154708862305,4.709693832397461,-4.2696364498138415,18.152522010803224,-0.8680338072776795,-0.419889998435974,-0.142883394062519,-98.2759735107422,64.84371871948242,30.71763236999512,101.61657428629697,0.8589155117241671,19.23343616624957,0.9747850869101204,-86.01923564910891,115.14624526977539,9.00608528137207
1379.131,14.48567817687988,-75.34429847717284,-41.64275650024415,0.7094644021987915,-0.1182265189290045,0.492222591638565,-11.376842460632323,-51.982095642089845,21.02430076599121,11.804293556213375,5.74781852722168,19.467648429870604,-0.871754469871521,-0.4107791221141815,-0.1375533574819564,-98.5344235229492,65.20039749145508,30.197831115722657,87.29672018008506,0.8715505306548464,23.48122866402388,0.9734558382692218,-87.15758106231688,117.18249313354492,9.173530349731447
1399.437,10.652048807144164,-63.079758758544926,-36.05440155029297,0.7409136033058166,-0.1033879806101321,0.4787635397911072,-10.589297676086426,-53.39792175292969,20.441712646484376,16.83194061279297,13.340365781784058,19.983475074768062,-0.8776556038856507,-0.4012831830978393,-0.1277566665410994,-99.0110757446289,65.54582153320312,29.32390625,73.43324846400148,0.8881759786954165,29.336306175936,0.9734625405811534,-88.42177806854247,118.94374328613281,8.882193603515624
1407.913,6.847280292510989,-51.538934516906735,-30.1244217300415,0.7708663582801819,-0.0895773883163928,0.4664688968658447,-9.923166542053222,-54.56367691040039,20.01973320007324,19.17035136699677,17.29668007850647,19.32994901657104,-0.8855994749069215,-0.393302983045578,-0.1171699094772338,-99.59882354736328,65.86775390625,28.273432388305668,60.08849975753768,0.9054569468334612,32.25406086457259,0.9760647796713436,-89.67565700531006,120.43143081665039,8.253699188232428
1429.076,3.335662374496461,-40.70757879257202,-24.19649771690369,0.798321053981781,-0.0784575213491915,0.452596275806427,-9.396736793518064,-55.497052612304685,19.794950866699217,18.878952630758285,17.86041790008545,17.47891716003418,-0.889876480102539,-0.3908337712287902,-0.1073709100484847,-100.1948370361328,66.14955474853517,27.23358459472656,47.473193661204384,0.921040431664478,31.319673131874243,0.977834187834135,-90.79810024261474,121.64660736083985,7.438633728027341
1450.678,-0.17588108062744,-30.34990524291992,-18.208896923065183,0.8212604641914367,-0.070573590248823,0.4394639658927917,-9.03338394165039,-56.208791503906255,19.77075180053711,15.949150211811064,15.268652106523517,14.935574741363524,-0.8902465963363648,-0.3961870491504669,-0.1009410744905471,-100.70880676269532,66.38338623046874,26.38322700500488,35.39366623512678,0.9341188141787766,26.65667875943689,0.9796388521911242,-91.67542282104493,122.592177734375,6.612475204467771
1468.958,-4.4597465801239,-19.82004098892212,-12.268520097732544,0.8385294961929322,-0.0661631716787814,0.42896582365036,-8.862537536621094,-56.69582122802734,19.938984985351563,11.702271128892898,11.069954144954682,12.60183208465576,-0.8877854514122008,-0.4048341369628906,-0.0987986850738524,-101.10135986328126,66.5771420288086,25.816821899414062,23.73267683490312,0.9442038758298976,20.452217636123937,0.980721604922608,-92.23882232666017,123.27296325683594,5.877836914062499
1490.724,-9.687678718566897,-8.669939613342285,-5.924397315979004,0.845405035018921,-0.0682806237041949,0.4220119774341583,-8.924826698303223,-56.94410171508789,20.30119613647461,6.989499025344848,6.58074255347252,10.946970615386965,-0.8836138725280762,-0.41616051197052,-0.101075586080551,-101.3782388305664,66.74415649414064,25.56046905517578,14.286968027218192,0.9473468350644684,14.560063009291074,0.9819263320377734,-92.45341213226318,123.68825820922854,5.259272918701171
1512.894,-15.786700868606568,2.885188083648681,0.7616907215118403,0.8466985726356506,-0.073322191685438,0.4174041795730591,-9.248812484741212,-56.94365097045899,20.84794288635254,2.887418335676193,2.682592344284058,9.945872344970704,-0.8792181754112244,-0.4278041636943817,-0.1056001859903334,-101.5587698364258,66.89600097656249,25.60109069824219,16.06625056906959,0.9468372963829969,10.698311223425105,0.9834594052267156,-92.30995735168459,123.83965194702148,4.753147811889647
1527.864,-23.36612564086914,14.380223884582517,7.82996929168701,0.8437764811515809,-0.0793307165801524,0.415484001636505,-9.868519401550293,-56.692539367675785,21.56844566345215,0.1182434844970701,-0.2971601521968842,9.139350919723512,-0.8775122094154358,-0.4346457123756408,-0.1138482606410979,-101.66277465820312,67.03680236816406,25.877426300048832,28.532001078514654,0.943863903512338,9.144945101613825,0.9858529299092698,-91.79425525665283,123.72934173583985,4.308980636596683
1550.467,-32.14166102409363,25.5811282157898,15.170579786300658,0.8359106302261352,-0.089628113657236,0.4185509228706359,-10.804228248596193,-56.19059204101562,22.45876411437988,-0.5698425376415253,-1.8615397644042968,7.84002233505249,-0.8820307064056397,-0.4364360761642455,-0.1231044676899909,-101.70957977294924,67.15616485595703,26.30121574401856,43.7907180260033,0.9391297330607044,8.078118656363376,0.9917708029506168,-90.90535152435305,123.34675689697265,3.8424516296386813
1572.643,-40.823307495117184,36.03258071899414,22.506368045806887,0.8248350429534913,-0.1040490858256815,0.4276457738876343,-12.037268371582032,-55.44660156249999,23.49950241088868,0.8725921082496644,-2.15258968949318,5.239605264663697,-0.890877583026886,-0.435794723033905,-0.1311008286476134,-101.70091918945312,67.22649169921874,26.801806793212894,58.918807784314815,0.9349117435721948,5.731363074189549,1.0003835943457464,-89.66365081787109,122.67309326171873,3.3023043823242126
1595.157,-48.70468673706055,45.39254182815552,29.377255640029908,0.8120683217048645,-0.1204558074474334,0.4392999148368835,-13.51970027923584,-54.478934631347656,24.653467712402342,4.21099103331566,-0.9925216031074524,1.2973519515991216,-0.9002256226539611,-0.4323268127441406,-0.1368508583307265,-101.65006134033204,67.21805053710938,27.30136108398437,72.77123410191501,0.9311009482543028,4.516709720761113,1.0079884930524137,-88.13036106109621,121.69698516845703,2.647893371582029
1618.556,-55.255559768676754,53.97843925476074,35.77575290679932,0.7973418045043945,-0.1390859082341193,0.4518387401103974,-15.190563774108886,-53.301514587402345,25.88058158874512,8.997044544219971,2.1743763458728784,-3.645613355636596,-0.909774215221405,-0.4239226961135863,-0.1390351837873457,-101.6057550048828,67.10686218261719,27.692990722656248,85.12786433229759,0.9269612128585452,9.948126444862156,1.013277038767146,-86.41519123077391,120.40837677001954,1.8124091339111281
1629.174,-60.16067054748536,62.19697387695312,41.53108322143554,0.7775882220268249,-0.1609761583805083,0.4733108067512511,-16.976890411376953,-51.91676834106445,27.13422500610352,14.230537786483762,6.617123074531556,-8.361865997314451,-0.920746066570282,-0.4113329815864562,-0.1351481682062148,-101.6097235107422,66.89612823486328,27.91454200744629,95.98229375108342,0.9244349011094862,17.782444332348792,1.017464086941129,-84.63283309936524,118.81289657592774,0.7803170013427696
1651.6519999999998,-62.48659454345703,69.88007247924804,46.60722602844238,0.7552295923233032,-0.1826192480325698,0.4938672816753387,-18.790305061340334,-50.33656723022461,28.37145004272461,18.51674192428589,11.240586700439454,-11.978690881729126,-0.9282083797454832,-0.3966086161136627,-0.1249734497070311,-101.6888214111328,66.60818542480469,27.95565444946289,104.69017406332684,0.920666290673332,24.752970652039394,1.0170976126886768,-82.89851634979247,116.9447526550293,-0.4157955932617199
1673.576,-62.69403350830079,76.99115051269533,51.31351623535157,0.7292937541007996,-0.2033669066429137,0.5144605278968811,-20.56521701812744,-48.5721662902832,29.56606666564941,20.59386857032776,15.17121162414551,-13.758844470977785,-0.9324694347381592,-0.3822635602951049,-0.1119997531175612,-101.8662774658203,66.28155517578125,27.837987213134767,111.76428787069749,0.9153672013197124,29.04442951777668,1.013986499391775,-81.30106044769286,114.85372146606446,-1.728079452514642
1695.0890000000002,-60.673203506469726,83.60484909057618,55.87082809448242,0.703224642276764,-0.2257107377052306,0.5358168148994447,-22.2486124420166,-46.63363159179688,30.70748161315917,20.32084885597229,17.78635805130005,-13.72343210220337,-0.9366663312911988,-0.3658749294281005,-0.0964380960166453,-102.14099822998044,65.95839508056642,27.61251190185547,117.4417210669135,0.9124526802797543,30.29230957883704,1.0102022503052777,-79.89238578796383,112.59202667236329,-3.094969711303701
1717.5210000000002,-56.54572189331054,89.72922256469727,60.22149566650391,0.673119945526123,-0.2514165502786635,0.5621284127235413,-23.79425491333008,-44.52860946655274,31.789066314697266,17.667513093948365,17.69065601348877,-11.759319076538088,-0.9403545999526978,-0.3568861639499664,-0.0834471315145491,-102.45890899658202,65.68307220458983,27.38985023498536,121.96466942033396,0.9122987971110136,27.62936688120551,1.009256127763972,-78.66465408325195,110.21168167114257,-4.3992160797119055
1727.769,-50.13396919250488,95.3711996459961,64.29488128662109,0.6411418414115906,-0.2756571006774902,0.5792396616935729,-25.159947128295897,-42.27396453857422,32.81071166992187,13.383286457061768,15.609583802223204,-9.19110433101654,-0.940766260623932,-0.3570549380779265,-0.0726130989193915,-102.77248016357422,65.46967590332031,27.257511672973635,125.47076292336862,0.906955502569696,22.522163788011863,1.0088617586512263,-77.61253303527832,107.74364044189453,-5.553199996948237
1752.791,-43.33008796691895,101.04506988525392,67.87911376953124,0.6078001320362091,-0.2980268442630767,0.5989256477355956,-26.335303115844727,-39.87518646240235,33.76433799743653,8.68934244155884,12.39408745765686,-6.515857675075532,-0.9400246906280518,-0.3628585708141326,-0.0669033956527709,-103.04899139404296,65.32115814208984,27.261175918579102,129.2098167999388,0.9038544860319851,16.479516898761428,1.0098459415938208,-76.71368827819823,105.1963446044922,-6.503162078857425
1775.606,-36.59586891174317,107.1324771118164,70.6461148071289,0.5761458885669708,-0.3205389249324798,0.6116144514083863,-27.319477310180662,-37.3384977722168,34.63682739257813,4.528367252349853,8.299810671806334,-4.093561363220215,-0.9387216067314148,-0.3702668595314025,-0.0619421744346617,-103.2419027709961,65.23512786865236,27.44036521911621,133.44474066392198,0.8993116948428257,10.30292248803388,1.0110057542790498,-75.92242546081545,102.57362564086915,-7.196462173461917
1794.954,-31.077426223754884,113.65960968017578,72.8222152709961,0.5404551935195923,-0.3399464631080627,0.6246915245056152,-28.13271713256836,-34.662551193237306,35.41771095275878,0.593035583496093,3.0804003715515136,-2.305169775485992,-0.9357896208763122,-0.3836471366882323,-0.0593854497373103,-103.2985125732422,65.20014709472656,27.84866722106933,138.5185486868749,0.8932496374312899,3.892860817722796,1.0131209067378948,-75.16579544067385,99.86269828796387,-7.569043731689451
1817.453,-28.52556861877441,120.23565643310546,74.643212890625,0.5001217269897461,-0.3514546573162079,0.637858304977417,-28.8351895904541,-31.853942184448243,36.1051042175293,-3.2108588027954115,-1.966992106437684,-1.7490509080886842,-0.9310812664031982,-0.3922107338905333,-0.0556917962431906,-103.21494750976562,65.19332641601564,28.487498931884765,144.36734524662893,0.8834621300231962,4.151849139523592,1.0118513530132414,-74.37975791931152,97.04726860046388,-7.617605285644537
1837.642,-29.49331428527832,126.7810546875,76.40767211914063,0.45442243039608,-0.3621928226947784,0.6531869482994079,-29.50252182006836,-28.91130355834961,36.70197204589844,-7.224781589508058,-7.158333683013916,-1.7770384573936462,-0.9275098538398744,-0.3943378317356109,-0.0492169599235056,-102.98936798095704,65.20458984375,29.364064331054685,150.93516413967677,0.8742634474158145,10.324585987463234,1.0090585531336227,-73.48684616088869,94.1158934020996,-7.337907714843752
1847.528,-32.98635765075683,132.82789398193358,78.12111938476562,0.4031029552221298,-0.3744538819789886,0.6700993871688843,-30.195847702026366,-25.8435782623291,37.21634033203125,-11.670987224578855,-12.490317463874815,-1.9872810602188111,-0.9246317386627196,-0.391217472553253,-0.0422783306241034,-102.62455871582031,65.23279052734374,30.484622955322266,157.58889080347078,0.8670299250441492,17.209568825422778,1.004879306291935,-72.42871101379394,91.07636878967284,-6.7317173767089855
1867.474,-38.41490303039551,137.61086669921875,79.89474426269531,0.3401502184569835,-0.3862310981750488,0.6984371829032898,-30.96420310974121,-22.667635116577152,37.66148696899414,-16.206969261169434,-17.00639407157898,-2.0136031079292294,-0.9220157527923584,-0.3808278393745422,-0.0374053448438643,-102.1625601196289,65.2803939819336,31.80601440429688,163.69369434815235,0.867577737598033,23.57833517080012,0.9982695284655492,-71.1983570098877,87.94802909851074,-5.8554725646972585
1889.975,-44.666830902099605,140.93678771972657,81.2831719970703,0.2677322617173194,-0.4041446316242217,0.7286720418930054,-31.83636787414551,-19.412969093322754,38.044097137451175,-20.00881592750549,-19.955431723594664,-1.4565279674530027,-0.9212529373168946,-0.3668431437015533,-0.0338038362562655,-101.6615203857422,65.35329803466797,33.24954765319824,168.7165017581189,0.875200772321112,28.29652706280081,0.9921812162813228,-69.82515251159668,84.76626712799073,-4.794549484252933
1912.53,-48.40386039733887,143.09437469482424,81.79838745117188,0.1953455598652362,-0.4320361232757568,0.7453631353378295,-32.770084152221685,-16.10770197868347,38.35867828369141,-22.668785219192507,-22.103764457702635,0.0010751843452453,-0.9237393879890442,-0.3563842666149138,-0.0308968991041182,-101.1383123779297,65.46360992431642,34.7725691986084,171.78448696049318,0.883391930625839,31.66149440047801,0.990585090129704,-68.36822822570801,81.57131190299988,-3.5861090850830095
1927.536,-49.228757629394536,144.28116271972655,81.42048522949219,0.126310698390007,-0.4627944719791411,0.7666783022880554,-33.71145698547363,-12.781155993938444,38.59855926513672,-23.668449363708497,-22.956163024902345,2.285191888809204,-0.923808822631836,-0.356444239616394,-0.0375386852025984,-100.61883666992188,65.61954193115234,36.31086753845216,172.8288746375901,0.90439412593267,33.05152066209672,0.9909007970603656,-66.90737968444824,78.40069792509078,-2.2876917266845638
1949.944,-47.22683784484863,144.29821533203125,80.43055694580077,0.0577274124324321,-0.4984358584880828,0.7794831109046936,-34.61457786560059,-9.462109122276306,38.768218231201175,-22.551914834976195,-22.20041847229004,4.751836624145509,-0.9220455813407898,-0.3639013588428497,-0.0458387365937232,-100.12984649658203,65.81387786865234,37.78989181518555,171.81799571478126,0.9270192443302108,32.00042803419021,0.9923172087645444,-65.51526863098144,75.27598699092864,-0.9783264160156264
1972.403,-42.88734855651855,143.7625231933594,79.30558044433594,-0.0025107902288436,-0.5371172511577605,0.7803564119338989,-35.441161956787106,-6.163724768161773,38.87611404418946,-19.5013006401062,-20.59899459838867,6.788258028030396,-0.9193938755989076,-0.3841951501369476,-0.0529319263994692,-99.6603680419922,66.02850311279296,39.17905792236329,169.69491103372118,0.9473422693014342,29.16675765619777,0.997844076351556,-64.21920608520509,72.19222788095473,0.30294387817383495
1994.78,-36.44242361068725,142.84851989746093,78.3770248413086,-0.0519333808124065,-0.5724763119220733,0.7699412798881531,-36.15551712036133,-2.889625539779663,38.93482818603516,-15.12121764183045,-18.564397430419923,8.036257324218749,-0.9156921005249024,-0.4094258117675781,-0.058829344511032,-99.19451629638672,66.24424072265626,40.46606323242188,166.9631932447723,0.9608515901169716,25.256078609064502,1.0047797818829984,-63.03899917602539,69.13386626243592,1.531235046386719
2018.862,-30.150407558679586,141.74817626953126,78.04575561523437,-0.0962430492043494,-0.6001316273212433,0.7655750346183777,-36.76625335693359,0.3615259003639222,38.962473144531245,-9.724825668334963,-15.771154804229734,8.499434843063355,-0.909866659641266,-0.4300276112556457,-0.0632019194215535,-98.7396176147461,66.44565643310547,41.62042724609375,164.59870145674137,0.9775100144051336,20.384846106604893,1.0083528982392824,-61.973364257812506,66.08413053274155,2.6579541015625026
2028.138,-23.97101239442825,140.3540490722656,78.27903717041016,-0.1401760585606097,-0.621804506778717,0.7540958976745606,-37.28131423950195,3.590396394729615,38.97756744384766,-3.9464371013641375,-12.956729087829592,8.097480404376984,-0.9077434706687928,-0.438231189250946,-0.0578512056171893,-98.2792706298828,66.62169464111328,42.65055908203125,162.48531067921255,0.9873959666382645,15.780379695992808,1.0096492191674722,-60.99795639038085,63.03129824638366,3.672991638183589
2051.107,-18.166449898481368,139.30349853515625,78.78222473144531,-0.1830143052339553,-0.630772340297699,0.7463291382789612,-37.70793945312501,6.80581311941147,38.98493118286133,0.5516631317138655,-10.85947515487671,7.236815361976623,-0.9081866645812988,-0.436977492570877,-0.0478153242915867,-97.80108093261718,66.77198364257812,43.59685485839844,161.0655876954611,0.994170590919446,13.06154774265354,1.008979014635064,-60.093141479492175,59.96617052316665,4.611923675537106
2072.289,-12.481246724128722,138.6566326904297,78.81794464111327,-0.2302794569730758,-0.6304038166999817,0.735177721977234,-38.05102462768555,10.007362923622132,38.97534301757812,3.2330062246322617,-9.296680850982666,6.448416402339936,-0.90914466381073,-0.4240020012855529,-0.0403813771903513,-97.3254443359375,66.90633087158203,44.47713989257812,159.98034787525282,0.9954515976708028,11.767016537402563,1.0039683124747858,-59.274419708251955,56.898967947959896,5.501796875000004
2094.764,-7.787113763093949,138.6045001220703,78.34112579345702,-0.284581452012062,-0.6199115180969239,0.7271469330787659,-38.33075561523437,13.19676867723465,38.93615798950195,4.62378746986389,-8.166605758666993,5.694303245544434,-0.9098869371414186,-0.4076980412006378,-0.0340469039231537,-96.8629653930664,67.02884033203125,45.30773117065429,159.40256768770888,0.9970052935588564,10.97715580813997,0.9976327595093202,-58.53220977783204,53.8320716547966,6.371573181152343
2117.307,-4.457562756538391,138.78028808593749,77.11405609130858,-0.3470427525043487,-0.606374044418335,0.7208002829551697,-38.57839294433594,16.37067406654358,38.853565826416016,4.724934391975401,-7.193407382965089,4.990769236087798,-0.9096921443939208,-0.3976758587360381,-0.031009672731161,-96.43848083496091,67.13816497802733,46.08964492797852,158.8282590529713,1.003833253941259,9.94876335800832,0.993301306752563,-57.860087890624975,50.767490911483755,7.236079101562503
2127.389,-2.1897414290905,138.86712219238282,75.28453491210936,-0.4138471448421478,-0.5926328659057617,0.7121997737884521,-38.820355834960935,19.522440280914303,38.7178921508789,4.359661598205564,-5.689393768310547,4.93521562576294,-0.9081613159179688,-0.391240439414978,-0.035874539837241,-96.10152313232422,67.24427337646486,46.78120223999024,157.97668749044294,1.014747106834997,8.702425177761304,0.9895014096867248,-57.28116729736328,47.72183309555056,8.06331008911134
2152.264,-0.5797823643684387,138.56264587402342,73.15084045410157,-0.4817279148101806,-0.5809654736518859,0.6950349116325378,-39.07638168334962,22.643146743774416,38.52560577392578,5.343958802223204,-3.4125811576843263,5.296193540096284,-0.9077423787117004,-0.3907629609107971,-0.0451235236227511,-95.86955505371094,67.35105194091797,47.335239257812496,156.68755036167192,1.0259903478449368,8.261553840035091,0.9893068533640522,-56.79317337036132,44.70790519714355,8.809633483886714
2172.201,-0.3030829346179962,137.91827392578125,71.09326583862305,-0.5451385533809662,-0.5678253984451294,0.6832018184661866,-39.37778244018555,25.72977119445801,38.278256225585935,7.528676223754881,-0.6143778610229491,5.375158534049988,-0.9099170708656312,-0.3968967461585998,-0.0504161274433134,-95.7354425048828,67.44935333251954,47.73271713256836,155.1637669996872,1.0422890435273542,9.270963008469918,0.9939908897320712,-56.35766006469725,41.719582138061526,9.454460906982426
2194.705,-0.870569953918457,136.68291687011717,68.9284603881836,-0.6007683420181275,-0.5587330079078674,0.6728657770156861,-39.75002822875977,28.770440139770507,37.97433349609376,10.254494414329526,2.402500782012939,5.840721333026886,-0.915574448108673,-0.3993671584129333,-0.0535290843993424,-95.69806915283203,67.549404296875,47.96340316772461,153.0820378347944,1.0610624528159998,12.043284078321976,1.0003179795069936,-55.94804092407227,38.77896415710449,9.989069671630844
2217.31,-0.8031490659713745,134.98780670166016,67.0001284790039,-0.6454916417598724,-0.5490684485435485,0.6571000361442565,-40.185486755371095,31.755940399169923,37.61650177001953,13.2533846950531,4.874000272750855,6.82744402885437,-0.9241930890083312,-0.3940793085098266,-0.0508464077860116,-95.72092895507812,67.66770599365235,48.06043823242188,150.70292041878275,1.07234140005348,15.685090898715965,1.005990419611979,-55.53544219970703,35.911765594482425,10.443936462402348
2227.425,-0.627647647857666,133.33571044921874,65.06609390258788,-0.679374737739563,-0.5373176980018616,0.6393984985351563,-40.69079284667969,34.682059631347656,37.19537643432618,15.204624495506286,6.190660145282745,7.457871074676514,-0.9309340476989746,-0.3892516136169433,-0.0419604767300187,-95.75882385253908,67.79908569335937,48.09373886108399,148.36577165339767,1.0766107851929276,18.03121515733864,1.0099087589856826,-55.06803100585939,33.11702606201172,10.898362426757814
2254.673,-0.905613179206848,132.03007537841796,62.92704330444335,-0.7027615237236023,-0.5253705835342407,0.6247075724601746,-41.290229949951176,37.5451676940918,36.69135772705078,15.163398969173432,6.121770606040954,7.576743049621582,-0.9372066259384156,-0.3832345306873321,-0.0276807191595434,-95.7741961669922,67.9368179321289,48.145241851806645,146.26200367388782,1.0771014624252035,18.02253530697904,1.0129122308606993,-54.48396621704102,30.3916502380371,11.453884124755866
2277.93,-1.295798225402832,130.9359899902344,60.68429428100586,-0.7209916996955872,-0.5157957458496093,0.6101494860649108,-42.00219284057617,40.34007957458496,36.08627960205079,13.32908043384552,4.676840245723724,7.592406697273253,-0.9435760545730588,-0.3736436605453491,-0.0127879008464515,-95.73481842041016,68.08334411621094,48.28845077514649,144.32080979591072,1.0761768803555305,16.03689057619164,1.014942799490418,-53.73262557983399,27.743264541625976,12.2021711730957
2297.147,-1.6264703512191772,130.001591796875,58.58164199829101,-0.7379294705390931,-0.5053227937221527,0.5897449219226837,-42.84222946166993,43.06774925231933,35.36366828918457,9.937479660511016,2.155874900817872,7.351645832061767,-0.9439375853538512,-0.3640666019916534,-0.0005809333920478,-95.62152130126954,68.23418945312501,48.57802764892578,142.60037887306137,1.0713029927517517,12.547828299395787,1.0117129005864332,-52.77929183959961,25.16644020080568,13.214359359741216
2307.366,-2.5810556125640867,129.14997192382813,56.39096603393555,-0.758536787033081,-0.4943534994125366,0.5646713137626648,-43.84310348510742,45.72871276855468,34.50185684204102,5.617862949371338,-0.7516856551170349,6.586221766471863,-0.9408512139320374,-0.3586164474487304,0.0059778508730232,-95.43834106445313,68.37638793945312,49.03029556274414,140.94792707323234,1.0670600415395304,8.689288382783465,1.006897461432492,-51.59523757934571,22.647675170898445,14.528438720703122
2329.791,-4.197944722175598,128.1763098144531,54.15031982421876,-0.7840125870704651,-0.4823200023174285,0.5364157915115356,-45.04003097534179,48.32006698608399,33.47902984619141,1.2930974078178397,-3.724274272918701,5.252291059494018,-0.9426045298576357,-0.3551066040992737,0.0097821665927767,-95.1828482055664,68.49841735839844,49.64817977905274,139.20864295943082,1.065387358054973,6.567258266557676,1.0073230319844282,-50.14281723022461,20.178350372314455,16.16914993286133
2354.639,-6.122189884185792,126.73842651367188,52.1117527770996,-0.8171106123924256,-0.4691890811920166,0.5082602977752686,-46.45398361206055,50.83631729125977,32.28331993103028,-2.7753826904296885,-6.457722990512847,4.000316815376282,-0.9454690742492676,-0.3493070495128632,0.0088976017199456,-94.86912322998046,68.602265625,50.4116813659668,137.17049515708902,1.070577730521581,8.087488480604913,1.0079714046130055,-48.41513961791991,17.765948333740234,18.128361434936522
2367.204,-7.654047594070436,124.5788916015625,50.0419905090332,-0.8553786969184876,-0.4561636221408843,0.4705621719360351,-48.0983479309082,53.26586044311525,30.897197341918947,-6.259149272441865,-8.748636193275452,3.285887365341187,-0.9440676736831666,-0.3440528047084809,0.0025402675569057,-94.51714447021484,68.69604583740235,51.28761062622071,134.47187620968307,1.0775837429006712,11.247783809920405,1.004809712274209,-46.41879653930665,15.4301853942871,20.390413284301765
2389.489,-8.364731254577638,121.91622161865234,47.78237091064453,-0.8931428861618043,-0.4425265693664551,0.4289094424247741,-49.982743682861326,55.59447402954102,29.295598602294923,-8.916079459190371,-10.5153120303154,2.598946509361267,-0.94452693939209,-0.3445461356639862,-0.0036251856200397,-94.13504455566404,68.77618713378907,52.24910308837891,131.21238048512063,1.0851254717763343,14.029354332114266,1.0054135073735355,-44.15230087280271,13.181713104248047,22.953504486083986
2413.327,-8.473343410491944,118.93334014892578,45.29606674194336,-0.925187282562256,-0.4290370023250579,0.3883118432760238,-52.12125305175781,57.80636596679688,27.452723464965818,-10.672446110248568,-11.692193031311035,2.044143466949463,-0.945241675376892,-0.3481250607967377,-0.0129645306244492,-93.74096252441404,68.8426480102539,53.25850616455078,127.54869897346188,1.091251733014627,15.9620489402542,1.0073931515939338,-41.61970947265623,11.036282043457014,25.805782699584963
2434.748,-7.917982454299927,115.19681976318358,42.76950050354005,-0.9524692678451538,-0.4177001881599425,0.3493348920345306,-54.50456161499024,59.88380706787109,25.36765171051025,-11.156696872711183,-11.911432952880858,2.4896509027481075,-0.9389293885231018,-0.3490436553955078,-0.0262709328904747,-93.36945159912108,68.91412200927735,54.25339675903321,123.13501493490922,1.0971353700301123,16.509163568094355,1.0020529087424277,-38.86488998413084,9.03031494140626,28.88574504852296
2456.942,-6.632661075592042,110.43089233398436,39.941697082519525,-0.9721124362945558,-0.4080486607551574,0.3042974418401717,-57.11074569702148,61.80564682006836,23.05139789581299,-10.131049566268922,-10.801611557006837,3.6055521965026855,-0.925720477104187,-0.3517364335060119,-0.0430143562331795,-93.06618713378904,69.00025848388671,55.15442047119141,117.61935784748812,1.0973163771005547,15.241816958104655,0.9912250779856652,-35.955441436767565,7.19461166381835,32.10302257537842
2467.711,-5.369715795516969,104.7023422241211,36.99465225219727,-0.9827078032493592,-0.3972371292114257,0.2599027830362319,-59.90868194580078,63.55645538330079,20.53832702636719,-7.441866950988772,-8.20577838897705,4.662902946472167,-0.914831244945526,-0.3574315881729125,-0.0580746579542755,-92.87217620849609,69.09737579345703,55.88211212158203,111.17562057484815,1.0913576040974355,12.019103401395652,0.9838933950631532,-32.963494262695306,5.5409204101562395,35.34378509521484
2489.449,-5.282200374603272,97.85343292236328,33.97460105895996,-0.988525574207306,-0.3880547058582305,0.2231599313020706,-62.86308135986328,65.12089645385743,17.890389080047605,-3.259339265823366,-4.347904205322265,5.697777519226074,-0.9086495041847228,-0.3618025040626526,-0.0699062990024685,-92.81869232177732,69.20584503173828,56.37104553222656,103.71822160355622,1.0851587996875605,7.873514595591671,0.9805263199126124,-29.95561096191404,4.084948577880851,38.480656452178955
2513.364,-6.4466725254058845,89.97893463134764,31.14728950500488,-0.9907768058776856,-0.3823485088348388,0.1915127480030059,-65.92824279785157,66.49193252563477,15.181624355316163,1.5982830047607404,-0.0220470046997064,6.865096759796143,-0.9061784291267396,-0.3624454653263091,-0.0738861474394797,-92.9047299194336,69.33084106445312,56.60638824462891,95.43543318679254,1.0791228817521556,7.048726704525204,0.9787671957792916,-26.97648712158204,2.838908538818359,41.42476388931274
2534.671,-8.452094535827637,81.81500198364257,28.43196647644043,-0.9887471151351928,-0.3783385527133941,0.163874282836914,-69.06507858276368,67.67235290527344,12.467833328247073,6.275643892288207,4.056236343383789,7.6947390174865715,-0.9083238625526427,-0.3637943959236144,-0.0715716994553803,-93.11008026123046,69.46634033203125,56.61206939697266,87.02591090786375,1.071268266463982,10.725939030380136,0.9810816020856324,-24.04500167846679,1.793987426757809,44.14423606872558
2556.96,-11.237079076766967,73.91158752441406,25.958036880493164,-0.9846223855018614,-0.375316435098648,0.1428848659992217,-72.23899795532228,68.6745523071289,9.797304681539536,10.311160640716553,7.391391372680664,7.933441829681397,-0.9160028576850892,-0.3652170145511627,-0.0649600858986376,-93.40133575439452,69.60214263916016,56.436260375976566,79.13920896272388,1.0633718791740494,14.963027750015662,0.9882633838025532,-21.162337799072247,0.927590332031258,46.63895569443703
2566.905,-14.572711238861084,66.50550018310547,23.647263526916507,-0.9814696645736694,-0.3746954023838042,0.1285712544620036,-75.4162257385254,69.51358856201173,7.212157647609712,13.40006812095642,9.794240722656252,7.898338985443115,-0.9231990289688112,-0.3643488883972168,-0.0590874385833739,-93.75057373046874,69.73436645507813,56.128793792724615,72.07314714765621,1.0583996950679102,18.38131485255016,0.9942524251736012,-18.334347991943346,0.22077789306639772,48.9166361451149
2591.884,-17.520681171417237,59.51134704589843,21.558536376953125,-0.979345269203186,-0.3740987360477447,0.1127527993917464,-78.54267059326172,70.21045349121094,4.75726112484932,15.496717071533205,11.468839263916015,7.941565341949463,-0.925883493423462,-0.3602668237686157,-0.0579091973602771,-94.14941131591796,69.86512390136718,55.720326080322266,65.67606250868143,1.054409889176812,20.850682821844064,0.9951913900558385,-15.606740722656241,-0.3453295898437574,50.963064955472944
2611.949,-19.65676525115967,52.566456451416016,19.35771697998047,-0.9797658133506776,-0.3712954282760619,0.097821772545576,-81.53657684326171,70.78113403320313,2.49766457080841,17.08454277038574,13.033129062652588,7.922597236633301,-0.925868592262268,-0.3548840248584747,-0.061482938826084,-94.6120248413086,69.99220367431641,55.20701171875,59.36616856994259,1.0523167029242562,22.90221827270906,0.9934563266717648,-13.075447998046883,-0.7889303588867165,52.70934714794159
2632.105,-21.49884197235108,45.12110118865967,16.87158045768738,-0.9815248107910156,-0.3684588027000426,0.0850956925749778,-84.30007049560547,71.23552215576173,0.5267394626140595,18.36001483917236,14.831612358093262,7.723178348541259,-0.9251268315315248,-0.3494005477428435,-0.0677713774144648,-95.16219146728515,70.11036285400391,54.57011474609375,52.75191186838262,1.0518527085007212,24.83373419038608,0.991228206206427,-10.862120971679687,-1.1251593017578188,54.04337528347969
2654.35,-23.278519859313967,36.68604301452637,14.02568377494812,-0.9855706429481508,-0.3668384325504302,0.0784127946197985,-86.71104400634765,71.58148376464844,-1.0319528818130492,19.30641757965088,17.03779064178467,7.570988235473632,-0.9240039443969726,-0.3434344446659088,-0.0754986330866813,-95.83114959716798,70.21851348876955,53.78346054077148,45.65605156229563,1.0545465822795002,26.839223769975497,0.9886508739904608,-9.12010559082033,-1.3629702758788937,54.81541342258453
2677.271,-25.135554809570312,26.933552055358888,10.773634366989135,-0.9905185556411744,-0.3663059949874877,0.0761282038688658,-88.64089416503907,71.82543029785157,-2.0444181120395664,19.69674533843994,19.579640197753907,7.408314094543456,-0.9249259400367736,-0.3374608850479125,-0.0809779176115989,-96.6430874633789,70.31448577880859,52.83372817993164,38.38337582049304,1.0588213231974275,28.74382029105156,0.9878892987733698,-8.002193298339833,-1.5109445190429796,54.878146291971206
2696.831,-27.15567314147949,16.00516174316406,6.978697233200073,-0.9971027874946594,-0.3691085624694823,0.0812695322930812,-89.97752624511718,71.96868774414062,-2.3923791098594664,19.24278831481933,22.225706787109377,7.012201328277587,-0.9283057975769043,-0.3319545555114745,-0.0850433138012885,-97.6146743774414,70.39144073486328,51.72169952392578,32.28464033041699,1.066330078632805,30.2231353731509,0.98953415603607,-7.637148132324228,-1.5772470092773432,54.11407863378525
2707.019,-28.79159812927246,3.975748786926269,2.826301374435425,-1.005028841495514,-0.3740134751796722,0.0864913947880267,-90.62766082763672,72.01314056396484,-1.986804512739181,17.7874907875061,24.69295516967773,6.293451151847838,-0.9346842288970948,-0.3263819158077239,-0.0906090566515922,-98.7523193359375,70.44122985839843,50.46212463378906,29.20189515619503,1.0758484155429,31.076428220244743,0.9941678750908058,-8.124658508300783,-1.5719107055664097,52.44892914652824
2736.957,-30.066275482177737,-9.06553131103516,-1.426041593551636,-1.0163957452774048,-0.3758180058002471,0.0928752778470515,-90.51935760498046,71.9623257446289,-0.75997896194458,15.479431037902833,26.97434036254884,4.803125429153442,-0.9423125529289246,-0.3233226990699768,-0.0983051818609237,-100.048134765625,70.4454251098633,49.08130798339844,31.43562269063713,1.0876236949132971,31.46899803203148,1.0010766323923614,-9.528777160644538,-1.516900634765605,49.84128694534302
2746.937,-31.2090746307373,-22.788251228332523,-5.736367826461792,-1.0286178469657898,-0.3761785995960235,0.0969462592899798,-89.63538635253906,71.81071685791015,1.3046902489662169,12.394615936279296,28.822226486206056,2.5604420328140263,-0.9511637592315674,-0.3220701277256012,-0.1030879098176955,-101.46882019042968,70.38834228515626,47.629272308349606,39.06682287047406,1.0995288041160551,31.478613489692133,1.0094893665607845,-11.833433837890624,-1.4223745727538954,46.32458205938339
2769.313,-31.26487266540528,-36.65414497375489,-10.079594488143922,-1.0405747413635251,-0.3783088755607604,0.1029846855998038,-87.99223266601561,71.54339416503908,4.168828172683716,8.946633434295654,29.9580404663086,-0.121821594238281,-0.9605974984169006,-0.3210002648830413,-0.1078357616066932,-102.96703338623048,70.26335479736329,46.161618957519536,49.22008565196193,1.1119888682715782,31.26565654019539,1.0185368307042637,-14.974800720214873,-1.2800393676757835,41.99279078483582
2786.799,-30.214211883544927,-50.41767269134522,-14.24616961479187,-1.049178056716919,-0.3789249432086944,0.109469113498926,-85.64517883300782,71.1438623046875,7.754051282405854,5.786831288337707,30.35292297363281,-3.262452111244202,-0.9694039988517762,-0.325063635110855,-0.112118572294712,-104.47688629150392,70.06240020751953,44.73945037841797,60.47969632900602,1.1208667155787275,31.07138463572444,1.0285820599809732,-18.831707458496098,-1.0814620971679716,36.98539909601212
2809.138,-29.45736434936524,-63.58328704833984,-18.16888674736024,-1.0541888761520386,-0.3806229412555694,0.125158638358116,-82.71139465332031,70.59127716064452,11.946227612495424,3.1035348129272444,30.12203453063965,-6.933232803344727,-0.973436586856842,-0.3353112757205963,-0.1111025726795195,-105.92581909179688,69.77651733398437,43.42866348266602,72.39253519473702,1.1277644677717047,31.06507057300006,1.03554633981917,-23.21442443847657,-0.8147598266601506,31.482435870170594
2832.6220000000003,-28.043927726745608,-75.58101890563965,-22.076954345703125,-1.0533108711242676,-0.3906636261940002,0.1467793695628642,-79.34369049072265,69.85661590576173,16.574535715579987,0.1116908216476424,28.88948066711426,-9.904612708091737,-0.9759424090385436,-0.3388714373111724,-0.104840825498104,-107.26685852050782,69.43066741943359,42.28624649047852,83.58435388480221,1.132972216512338,30.540398179337824,1.0384069700634817,-27.923168029785174,-0.42594848632813864,25.71171077489853
2854.619,-24.705066566467288,-85.92387512207031,-25.889749908447264,-1.045622107982635,-0.4045332193374633,0.1743588933348654,-75.6976774597168,68.91998550415039,21.438322954177856,-3.494624300003053,26.576556625366216,-12.477685117721558,-0.9760129189491272,-0.3392725801467895,-0.1008936193585395,-108.46792602539062,69.04332397460936,41.36181655883789,93.078095061989,1.1346249344759445,29.56718429198964,1.0382131881373502,-32.770248565673825,0.12333847045897528,19.92349360466003
2866.926,-20.906219501495364,-94.7181658935547,-29.476283645629884,-1.0350912952423097,-0.4158900523185729,0.2055046842992305,-71.94238067626954,67.7739468383789,26.35308418273926,-8.296291518211365,23.56974992752076,-15.546190896034242,-0.9720205116271974,-0.3417898011207579,-0.0983479359745978,-109.51492919921876,68.611640625,40.69801528930664,101.3777700565626,1.1342886318626637,29.428652975917,1.035044182479487,-37.57254852294922,0.8376937866211023,14.34493110656738
2889.26,-17.123473172187808,-102.13053588867189,-33.02527519226074,-1.023213562965393,-0.4279174280166625,0.2387426090240478,-68.2321109008789,66.41332305908203,31.159102478027343,-14.97676951408386,19.94318662643433,-18.548173904418945,-0.9663535308837892,-0.338990659713745,-0.0940872779488563,-110.42425842285157,68.14768585205078,40.31925811767578,108.69465716359052,1.1344943164248726,31.081651710990982,1.0283998395062846,-42.19214752197267,1.7343627929687528,9.160155639648437
2911.516,-12.188101453781126,-108.2510906982422,-36.77789993286133,-1.00945348739624,-0.4398975121974945,0.2714632821083068,-64.67342361450196,64.83735290527343,35.721023254394524,-23.18160339832306,15.658913851380351,-20.90004726409912,-0.9626067805290224,-0.332562357187271,-0.0931754410266875,-111.22294830322264,67.67328979492189,40.23146301269532,114.97592086118853,1.134106907653326,34.91991258241738,1.0226882213797717,-46.54952468872068,2.835936889648451,4.510439758300798
2934.2090000000003,-6.726273207664489,-113.33624176025393,-40.62706871032715,-0.9938968181610106,-0.4482297885417939,0.3042829072475433,-61.33921722412109,63.05560958862304,39.9502310180664,-30.84216627120972,11.394557737112049,-23.23522766113281,-0.9574648928642272,-0.3396813869476318,-0.0978073570132255,-111.91380157470704,67.18409576416016,40.42070022583008,120.58567559870664,1.131958001045012,40.26103539143023,1.0206315421306973,-50.574584350585944,4.12848617553712,0.47046920776368495
2956.483,-1.7583866119384772,-117.90522369384766,-44.54049125671387,-0.9788469648361204,-0.4556049263477325,0.3369541126489639,-58.27052795410155,61.07908950805664,43.81241775512695,-36.16608872890472,7.730818011164668,-24.69779392242432,-0.9508109521865846,-0.3534923434257507,-0.1042226034402847,-112.50200653076172,66.68979705810547,40.83283737182617,126.04994668448974,1.131041689555367,44.47170500108239,1.019735580788696,-54.231478576660166,5.610707550048829,-2.979580383300778
2966.615,3.6756229162216174,-122.10380676269531,-48.58048866271973,-0.9610317873954772,-0.4648114609718322,0.3678446835279464,-55.466800994873054,58.91711944580078,47.29630271911621,-38.3692200756073,4.748838667869569,-24.31219932556152,-0.9440226721763612,-0.3644114112854003,-0.1105716004967689,-112.99750579833984,66.22196807861329,41.39327331542969,131.46449599976617,1.129133075343686,45.67090489523581,1.01793937004835,-57.53070480346679,7.304848632812508,-5.903029403686524
2989.248,9.656310005187986,-125.95998016357424,-52.681182403564456,-0.9401660299301148,-0.4741531360149383,0.4006034207344054,-52.90900329589845,56.58023544311524,50.406749420166015,-36.90585212707519,2.5725581389665617,-22.72822177886963,-0.9356380105018616,-0.3788536500930786,-0.1207379722595214,-113.3932272338867,65.79421020507812,42.034855957031255,136.873912434627,1.1265950740756243,43.41925888166895,1.0166249223927533,-60.484223937988254,9.213974761962874,-8.37189346313476
3011.731,15.315670495033263,-129.93277069091798,-56.54754470825195,-0.916093680858612,-0.4836636567115783,0.432879272699356,-50.57310592651367,54.07915405273437,53.17284088134765,-32.368890876770024,1.3033600234985363,-20.53937484741212,-0.924777593612671,-0.3957230389118193,-0.1312022709846496,-113.68245544433594,65.40886596679687,42.69959335327148,142.52971435691177,1.1227388964783485,38.35765585988806,1.0144083778662207,-63.109349517822274,11.3297119140625,-10.473247528076172
3032.757,20.380627183914186,-134.229873046875,-60.0832275390625,-0.8896655750274658,-0.4938759815692901,0.4661291718482971,-48.42996612548828,51.42215576171875,55.63512130737305,-26.31475875854492,0.5447662276029601,-17.904438934326173,-0.9156371879577636,-0.4019117081165313,-0.1380459976196288,-113.86993072509765,65.07556884765624,43.35161972045898,148.46892945697644,1.1192384577952816,31.83287973646381,1.0094459760438632,-65.43996459960937,13.653413085937494,-12.28350158691407
3054.173,24.88392512798309,-138.81280670166015,-63.30613006591797,-0.8602461743354798,-0.5044078028202057,0.5016871309280395,-46.45236038208008,48.61563293457032,57.83161056518554,-20.786595840454105,-0.2618078768253312,-15.66276481628418,-0.9095218825340272,-0.4037724673748016,-0.1418100357055663,-113.95949249267578,64.79024932861327,43.99784759521485,154.58289406687422,1.116306718309777,26.028317496315072,1.0051727943219464,-67.5071321105957,16.17461639404295,-13.833762969970692
3076.4300000000003,28.420680809021,-143.70211853027345,-66.1897689819336,-0.82768239736557,-0.5148580062389374,0.5388812887668609,-44.62239044189453,45.66506530761718,59.799703674316405,-16.210969429016114,-1.28644759595394,-14.129787368774412,-0.904652681350708,-0.4090024805068969,-0.1449848178029059,-113.94915588378906,64.53965347290038,44.65877182006837,160.74551155668004,1.1137908066060629,21.5430120533877,1.003344457466708,-69.32676544189454,18.8745881652832,-15.140931854248038
3086.518,31.13402481079101,-148.81041564941407,-68.66232177734375,-0.7922162294387818,-0.5246400952339172,0.5754703712463378,-42.92286758422851,42.57835113525391,61.57298263549804,-12.725069541931152,-2.442932446002959,-13.306999130249022,-0.901668610572815,-0.4129275703430175,-0.1438748800754546,-113.8405972290039,64.31313049316407,45.353270568847655,166.81840947127455,1.110864497540385,18.57340947793824,1.0021055048039726,-70.91772964477539,21.734779357910156,-16.219712066650388
3108.983,33.40615234375,-153.77797302246094,-70.87642425537109,-0.7536076021194458,-0.5329023730754852,0.6125611162185669,-41.338941497802736,39.364275741577146,63.17334213256836,-10.43179916381836,-3.834486980438231,-12.847102279663083,-0.9032716131210328,-0.413894807100296,-0.1395389816164969,-113.64166900634766,64.10857452392578,46.0977668762207,172.5894073126677,1.107763728556158,16.98745893833201,1.003334264243693,-72.30272750854492,24.744298782348636,-17.075575256347655
3136.382,35.38219818115234,-158.42031555175782,-72.86505798339844,-0.7112928926944733,-0.5386583304405212,0.647361662387848,-39.85888610839844,36.034013977050776,64.61600234985352,-9.230638504028322,-5.494810576438902,-12.6408430480957,-0.9051313304901124,-0.4183612537384033,-0.1355317983031271,-113.3599462890625,63.92123092651368,46.90680221557617,177.92754986952662,1.1023463603061423,16.588807776015262,1.0063089646900942,-73.50106018066407,27.887216949462903,-17.709200134277346
3156.864,36.92315361022949,-162.64221801757813,-74.59447235107422,-0.6648479247093201,-0.5408509278297424,0.6788324427604675,-38.47604675292969,32.60026344299317,65.91460845947265,-8.491537132263185,-7.123695259094236,-12.551446151733398,-0.9044288825988772,-0.4237111854553222,-0.131798419356346,-113.00553802490236,63.746841125488274,47.77892196655274,182.70234169144413,1.093323362262385,16.7449107944148,1.0074192750309274,-74.52949127197267,31.146577682495106,-18.13568649291991
3166.363,37.87365539550781,-166.3661682128906,-76.01772979736329,-0.6141769897937774,-0.5399365329742432,0.7070289492607117,-37.18850769042969,29.07648509979248,67.08082901000975,-8.215557403564455,-8.576227312088012,-12.610670013427733,-0.9043268704414368,-0.4277796864509582,-0.1268006920814513,-112.59254730224607,63.58159774780273,48.708656005859375,186.7908213548043,1.0810341204259457,17.32270349995729,1.0084051587803478,-75.40403961181639,34.505112648010254,-18.372173004150376
3196.619,38.04860466003418,-169.6055554199219,-77.09897308349609,-0.5598724436759949,-0.5367546081542969,0.7312485218048096,-35.99895584106446,25.47597930908203,68.12787078857421,-8.513211364746095,-10.024350490570066,-12.691683044433592,-0.9057907104492188,-0.4330108618736267,-0.1228772625327109,-112.1346371459961,63.42402938842773,49.69373519897461,190.15255032842825,1.0659676651776648,18.27679372863297,1.0114613385019589,-76.13568130493164,37.948050079345705,-18.434135589599606
3206.582,37.31101150512696,-172.29247619628904,-77.71894165039062,-0.5024469351768494,-0.5323194527626038,0.7503396797180175,-34.91283782958985,21.814982471466067,69.06903076171875,-9.081161689758302,-11.394069747924805,-12.984619674682616,-0.9053464388847352,-0.4395265448093414,-0.1208279985189436,-111.63950164794922,63.26752731323243,50.73159103393554,192.6578387313669,1.0482492820972615,19.516471790573824,1.0136247645057828,-76.72666381835937,41.45254484176636,-18.337439727783213
3230.371,35.64050239562988,-174.41662658691408,-77.86418701171876,-0.442826365828514,-0.5267730498313904,0.7669748997688293,-33.93579696655274,18.10935732841492,69.91897369384765,-9.656174011230467,-12.342811889648436,-13.355807762145997,-0.9029856204986572,-0.4440974867343902,-0.1180246958136557,-111.12228576660156,63.10768051147461,51.80492401123047,194.3044946983158,1.0304540422439803,20.59039346049047,1.0131808512664722,-77.18648880004882,44.998323183059696,-18.11404968261718
3252.608,33.38132377624512,-176.00899658203124,-77.6982208251953,-0.3813009196519851,-0.5206189513206482,0.7785528516769409,-33.06942245483399,14.372497260570526,70.689580078125,-10.096907119750975,-12.801604785919189,-13.642264137268066,-0.9020789885520936,-0.4470473790168762,-0.1151424160599707,-110.600703125,62.94348022460937,52.89167541503906,195.27030796889937,1.0112264962192978,21.25888024498792,1.0133388557877143,-77.53128067016601,48.57098296403884,-17.797904663085944
3266.342,30.934730606079103,-176.94798034667969,-77.31987640380859,-0.3187330207228659,-0.5135632324218748,0.7869630551338196,-32.30833992004395,10.618355488777162,71.39058044433594,-10.335479812622072,-12.91207275390625,-13.897109718322753,-0.9014397072792052,-0.4493222165107727,-0.1131193292140959,-110.0855596923828,62.77325958251953,53.9763296508789,195.56561199132085,0.9922947053876096,21.60262540253817,1.0135482143201773,-77.77721977233885,52.15490409374237,-17.414250793457036
3288.899,28.46931739807129,-177.205078125,-76.82735931396485,-0.2545547325909136,-0.5057659137248993,0.792762336730957,-31.64544105529785,6.8595323204994205,72.0290560913086,-10.417573165893556,-12.758394279479978,-13.976858863830568,-0.8993706703186035,-0.4502601623535156,-0.1120304098725318,-109.58750610351562,62.59852600097656,55.04471572875976,195.22956970079235,0.9742019266607622,21.602199863829888,1.0120042634140214,-77.94206504821777,55.738993680477144,-16.984340362548842
3311.578,26.309979934692382,-176.9501708984375,-76.29127380371094,-0.1893445470929145,-0.4959253776073455,0.7966317939758301,-31.06742004394531,3.1048817062377934,72.61406066894531,-10.38803665161133,-12.28447509765625,-13.8435160446167,-0.8961723518371582,-0.4486236715316772,-0.1101360565423964,-109.11861206054688,62.422254943847655,56.08169525146484,194.48376920386684,0.9572959588559636,21.22410352353468,1.008225190027811,-78.05119201660156,59.317373237609864,-16.53236541748047
3332.2560000000003,24.702703323364258,-176.27208862304687,-75.80309509277343,-0.1235251300036906,-0.4836941444873809,0.7941750168800354,-30.55836814880371,-0.6391440415382383,73.15279510498047,-10.36841579437256,-11.955366897583009,-13.498751983642578,-0.893720235824585,-0.4479069483280181,-0.109847351014614,-108.67729797363282,62.249017791748045,57.09062942504882,193.46364517566988,0.9380471419871246,20.800267999636745,1.0056952494706324,-78.11892982482911,62.88816183328628,-16.062165679931653
3353.791,23.342217025756835,-175.1123474121094,-75.25480133056641,-0.0572689872980117,-0.4696267580986022,0.7904445457458497,-30.10745910644531,-4.364481830596924,73.65063812255859,-10.366331787109376,-11.935870361328124,-12.876767997741698,-0.8909406948089599,-0.4493967843055725,-0.1093005630373954,-108.25390075683596,62.08514694213867,58.08181411743165,192.02207798886005,0.9212120324483964,20.38962947359589,1.0038323587587483,-78.14644165039064,66.4496287727356,-15.568824005126942
3376.217,21.996359176635742,-173.71055236816406,-74.6081265258789,0.0093322692811488,-0.4554138588905334,0.7832351970672607,-29.710983276367188,-8.066828668117523,74.11455596923828,-10.289962425231936,-12.30420455932617,-12.033584442138672,-0.8877557539939881,-0.4511544048786163,-0.1092226961255072,-107.83524871826172,61.936924285888665,59.06769638061523,190.33015621488303,0.9060608412488056,20.05203059733627,1.001788487226589,-78.12426544189454,70.00375295400619,-15.04685958862305
3386.266,20.82306381225586,-172.08401000976565,-73.74048065185546,0.0757579284906386,-0.4397956788539886,0.7720690774917603,-29.3628150177002,-11.740908751487732,74.55312408447266,-10.051004028320314,-12.93563076019287,-11.11045726776123,-0.8858118844032287,-0.4518307387828827,-0.1067792010307311,-107.40649597167967,61.80841644287109,60.06014572143554,188.3724103321319,0.891767998577439,19.79382443693253,1.0001077486110412,-78.04368095397948,73.54932519435883,-14.492978363037118
3408.776,19.660426864624025,-170.09144226074218,-72.78504089355468,0.141814615279436,-0.4233694815635681,0.7548291206359863,-29.060445404052736,-15.380826485157016,74.97074951171874,-9.880704154968262,-14.161040534973145,-9.979325656890868,-0.8855322694778442,-0.4526960837841033,-0.1042189940810202,-106.94892852783202,61.70699813842773,61.08150131225587,186.0518564613507,0.8769949283698025,19.943678803005223,0.9999813714701414,-77.88848312377928,77.08782462358474,-13.88924819946287
3428.794,18.494701995849606,-167.66401733398436,-71.71976440429687,0.2072983148694037,-0.4083639061450957,0.7376799917221069,-28.80091667175293,-18.978372554779053,75.37087799072265,-9.946665420532227,-15.78807674407959,-8.807705755233766,-0.8866696095466613,-0.4530168831348418,-0.099328492283821,-106.44986907958985,61.635840606689456,62.15049133300781,183.29484803641847,0.8682772836927743,20.63432094680453,1.000636518561167,-77.64895240783692,80.61421316146851,-13.22038665771484
3451.228,17.713561553955078,-164.9223974609375,-70.65672119140625,0.2721275727450846,-0.3934612917900085,0.7166564655303955,-28.573449630737304,-22.528839645385744,75.7569287109375,-9.902580966949465,-17.98359066009521,-7.87686134338379,-0.8894192886352539,-0.4528573167324065,-0.0953101837635039,-105.88471008300785,61.59275253295898,63.29291366577148,180.2929274727917,0.8616621690498618,21.98898786801583,1.002611814933152,-77.31126045227055,84.12159217834473,-12.464015045166022
3473.732,17.21450065612793,-161.57545715332031,-69.67472473144531,0.3350872054696082,-0.3748592913150787,0.6932552361488342,-28.363911209106448,-26.022794570922848,76.1262271118164,-9.513934383392336,-20.671960411071776,-6.893349208831788,-0.8924610161781311,-0.4530725586414336,-0.0893404713273047,-105.22605041503908,61.57978027343749,64.5316764831543,176.79800523067829,0.8563911174238382,23.77736650689717,1.0048597556916,-76.86213920593264,87.60257484436033,-11.594550628662105
3496.228,16.535642433166505,-157.6470587158203,-69.10537750244141,0.394576877951622,-0.3563213324546814,0.6680930685997009,-28.16562271118164,-29.452907791137697,76.46983734130859,-8.465292835235598,-23.67261219024658,-5.559589567184449,-0.8934455227851867,-0.4542795097827911,-0.0866579031944274,-104.45448760986328,61.601995391845705,65.87505126953126,172.92072111861484,0.8538174002017606,25.74806374956471,1.0060439192100132,-76.28886489868164,91.0549031829834,-10.594786071777335
3506.316,15.737987346649168,-153.31899780273437,-68.77621795654298,0.4499507641792297,-0.3408755111694336,0.6464690494537353,-27.97204788208008,-32.810886230468746,76.78026672363282,-6.139726123809815,-26.628789710998536,-4.0565287780761725,-0.8943726611137389,-0.4589497351646424,-0.0859422487020491,-103.54616943359376,61.65803588867188,67.32168884277344,168.7737168203748,0.858238915571947,27.62687286095432,1.00892189314502,-75.57412155151368,94.46892211914063,-9.45857788085938
3533.449,14.955527114868165,-148.7338409423828,-68.52962890625,0.5018269860744476,-0.3245348751544952,0.6229598641395568,-27.7760678100586,-36.09184700012207,77.05428039550782,-2.019760684967042,-29.40686111450196,-2.6306158924102783,-0.8960521411895751,-0.4641623044013976,-0.0891451382637023,-102.4734893798828,61.74211685180664,68.8636311340332,164.44370851688404,0.863268325303832,29.593294068176107,1.0130661085209065,-74.6974215698242,97.83396385192871,-8.190649261474618
3553.596,13.706581630706788,-143.66179260253904,-68.17559112548828,0.5492193949222565,-0.3083528184890747,0.5992949438095093,-27.579819107055663,-39.28405990600586,77.28859924316407,2.797803096771239,-31.554163970947265,-1.0698327851295473,-0.8967382693290711,-0.4644219708442687,-0.0923620569705962,-101.24630828857424,61.85318054199219,70.47493530273438,159.60730640883557,0.8694123498689035,31.696017230274645,1.0140798983561463,-73.66648918151859,101.13724044799804,-6.8136639404296915
3576.146,12.06146951198578,-138.2826354980469,-67.68534896850585,0.591717621088028,-0.297027997970581,0.5758061552047729,-27.38699935913085,-42.37770042419434,77.48188659667969,7.343472995758054,-32.631732788085934,0.2311995363235474,-0.8966339540481567,-0.46015420794487,-0.0976447537541388,-99.90971069335936,61.98154327392579,72.11234619140626,154.43080260123844,0.8774440740333195,33.44861781326796,1.0125358465640162,-72.5227113342285,104.35924369812012,-5.369540405273426
3596.607,10.70738488674164,-132.51442108154296,-66.68809143066406,0.6300791382789612,-0.2884020745754241,0.5531893336772918,-27.189504547119142,-45.358729400634765,77.63828308105468,10.926770000457765,-32.649761276245115,0.8842571258544922,-0.8986702013015748,-0.4545394277572631,-0.1016516941785811,-98.51572204589846,62.11143615722656,73.73785095214843,148.73473509692988,0.8866757671257814,34.44100934501373,1.0121992338579835,-71.32621749877931,107.47016555786132,-3.900432128906246
3607.045,9.801441397666933,-126.23577026367188,-65.28399703979493,0.6652681279182435,-0.2776710760593414,0.5270385301113129,-26.97073799133301,-48.21496643066406,77.75716583251953,13.169012928009034,-31.259879341125487,0.8403272438049317,-0.9001426053047179,-0.445989738702774,-0.104366798698902,-97.13913299560548,62.2272183227539,75.29567291259767,142.45539027016983,0.8930019712888041,33.93094616712705,1.0099782104499042,-70.16839500427247,110.44218475341796,-2.4614929199218665
3626.34,8.613584723472595,-119.05175537109376,-63.62720397949219,0.6955290031433107,-0.2674318158626556,0.5019027388095856,-26.721027679443363,-50.92599639892578,77.82733032226562,13.678871631622314,-28.29181909561157,1.044100923538208,-0.8971443319320679,-0.434382083415985,-0.1043816351890563,-95.87226867675784,62.33283386230469,76.7188330078125,135.26246850096703,0.8984357125435787,31.442466563419394,1.002223165006372,-69.15124099731447,113.25883026123047,-1.1084973144531176
3648.62,7.611956267356874,-111.30434356689452,-61.91887084960938,0.7206716299057007,-0.2594561505317688,0.477160370349884,-26.42134780883789,-53.47940185546874,77.83426086425781,13.829399147033689,-23.49144664764404,1.0164561128616332,-0.8930159759521483,-0.425793708562851,-0.1035448852181433,-94.789658203125,62.42208221435546,77.93031463623046,127.59524028099187,0.9024229115177326,27.27881099675087,0.9947358236297276,-68.3683103942871,115.90148406982419,0.09605377197264886
3673.536,7.555379357337952,-103.40547119140626,-60.048046875,0.74429851770401,-0.2506338143348693,0.4529446363449096,-26.04189926147461,-55.870976257324216,77.76985809326172,14.817616119384766,-17.523584575653075,0.7999194049835204,-0.8892634987831116,-0.4202836894989013,-0.1006513002514838,-93.91607910156252,62.4920979309082,78.88187103271484,119.8146199887653,0.9066181312647872,22.962526753299315,0.988715648793476,-67.8741798400879,118.36307418823242,1.1120129394531233
3696.139,7.88460632801056,-96.0781753540039,-58.302084808349605,0.766996533870697,-0.2363503682613372,0.4278653252124786,-25.56067771911621,-58.11401641845703,77.6217172241211,16.9905086517334,-11.332465920448302,0.0409008884429929,-0.8837716460227967,-0.4145295357704162,-0.095518409013748,-93.2336392211914,62.534654998779295,79.56634674072265,112.6601788091179,0.9095130103885888,20.42312025537296,0.9808215050662368,-67.67296150207518,120.64867141723633,1.9446295166015517
3706.007,7.522064709663391,-89.52122924804686,-56.79122848510743,0.7869519233703614,-0.2192789125442504,0.4064463090896605,-24.972471923828124,-60.22268157958983,77.37061126708986,19.90450103759765,-5.764441971778868,-0.9526957321166996,-0.8775310754776001,-0.4091074764728545,-0.0887066836655139,-92.70250152587892,62.54845138549805,80.01220520019531,106.28205670020412,0.9124555733598804,20.74429034601389,0.9722646715076066,-67.73002960205079,122.77113296508787,2.6415939331054545
3728.425,7.0233272123336805,-84.33121124267578,-55.05477767944336,0.8089082312583923,-0.197321966588497,0.3839863443374633,-24.292325744628908,-62.221282958984375,77.03121917724609,23.230807189941405,-1.3609428358077984,-3.153011159896851,-0.8716860318183899,-0.4107373511791229,-0.0815699306130408,-92.2668490600586,62.50935653686523,80.27322052001952,100.95597486093256,0.916904573951718,23.4832716518164,0.967054994972442,-67.97452331542969,124.7306394958496,3.2420013427734347
3752.484,5.843176102638245,-80.0803955078125,-52.7903468322754,0.8276440238952636,-0.1785700958967208,0.3589254426956176,-23.556266479492187,-64.12354217529295,76.62914489746093,26.070274658203125,1.152807021141054,-5.215839407444,-0.8625785875320435,-0.4178636014461517,-0.0741677950322627,-91.86280456542968,62.42023803710937,80.43158935546874,96.0928362071078,0.919624587999012,26.611898945892342,0.9613285967359294,-68.30653808593749,126.54378021240232,3.8024444580078125
3773.85,3.264073820114136,-75.88475524902344,-50.36551361083984,0.8430415964126589,-0.1619519236683844,0.3334535861015319,-22.79059539794922,-65.92832382202148,76.1623452758789,27.63604133605957,1.9316297197341927,-6.785327444076538,-0.8533810949325563,-0.4327314329147338,-0.0688332191109656,-91.45171020507811,62.28982391357422,80.55942169189453,91.13635508616218,0.9209445439036308,28.522318324881866,0.9592985970353056,-68.6611148071289,128.2181477355957,4.397076416015622
3794.113,-0.2293741607666014,-70.77295944213867,-46.96909233093263,0.8584554386138915,-0.1520740163326262,0.3084189313650131,-22.05078140258789,-67.61021591186523,75.6678598022461,28.13862766265869,2.560962605476381,-6.9380671858787535,-0.8439049410820008,-0.4525440263748169,-0.0649764361977576,-91.05172607421876,62.14509155273438,80.66074157714844,84.94092085147128,0.9247672592353394,29.09428934482085,0.9597883009555324,-69.00094467163088,129.7553074645996,4.992881774902344
3806.029,-3.544876661300659,-64.19955474853515,-42.27272132873536,0.8731970953941346,-0.148800700008869,0.2786258393526076,-21.3864070892334,-69.1348487854004,75.19945281982422,27.986751327514646,3.2518538999557505,-5.999150447845459,-0.834729208946228,-0.4744672620296478,-0.0610771105252205,-90.67829681396486,62.00730514526367,80.73310272216796,76.9488917983288,0.9285726541756588,28.806641764542505,0.9620927441967412,-69.29188972473146,131.14215393066405,5.53364990234374
3828.531,-6.923812561035158,-55.42556154251098,-37.34205596923828,0.8832892727851867,-0.1545235341787337,0.2498185068368911,-20.78741691589355,-70.45998840332031,74.74211700439453,27.36693607330322,4.219206795692445,-3.60660055398941,-0.8308000707626343,-0.4911031317710876,-0.053860681913793,-90.34763549804688,61.90982681274414,80.76789123535156,67.18899609826556,0.9308526996204524,27.924155557171627,0.9665981671153672,-69.56021858215334,132.36981521606447,6.025774230957026
3851.607,-9.68943383216858,-44.74546001434327,-32.511634864807135,0.8998958635330199,-0.1509394091367721,0.2285531240701675,-20.21616775512696,-71.55146636962891,74.266845703125,26.10520633697509,5.286974463462831,-0.8856011056900022,-0.8335182642936706,-0.5024188148975373,-0.0444891055487095,-90.07362274169924,61.863259429931645,80.76363403320312,56.15200549816282,0.9406549850804125,26.6499190653884,0.9742467054020266,-69.85745498657228,133.41472579956056,6.496788330078118
3873.678,-11.687318782806395,-33.02016759872437,-27.081261367797858,0.9157508420944211,-0.1439465159177779,0.2107081276178359,-19.689015884399414,-72.38668518066406,73.80530883789064,24.239644660949704,6.74821098804474,2.084112837314606,-0.8360422778129578,-0.5029197669029236,-0.0320529506914317,-89.87942199707031,61.87706344604493,80.70728088378907,44.275496675359456,0.9506408992283696,25.247618722305965,0.97617742950777,-70.1904061126709,134.263748626709,6.901972045898432
3895.894,-13.138074274063111,-20.59304313659668,-22.072191696167,0.9251978969573974,-0.1345523384213446,0.197676675915718,-19.17609100341797,-72.95525817871093,73.33604217529297,21.50345932006836,7.430553979873659,4.981330456733703,-0.8391711163520814,-0.4990243446826934,-0.0195128051750361,-89.75229888916014,61.95154418945312,80.63250823974609,32.922090874196826,0.9556000986344292,23.29003109265494,0.9765317243548154,-70.57620788574218,134.90680236816405,7.296466064453114
3905.91,-14.06030143737793,-8.28932680130005,-17.346158370971686,0.9327884697914124,-0.121439535319805,0.1937868028879164,-18.66980033874512,-73.26024871826172,72.8606900024414,18.05674947738647,7.789161472320558,7.834007823467255,-0.8415606379508972,-0.4931054806709289,-0.0101637776382267,-89.69824188232421,62.08597915649415,80.54893737792969,23.81793915433311,0.9604140852195032,21.168110844124133,0.9754386832558508,-71.02844154357909,135.34622787475587,7.688247375488288
3933.475,-14.216349983215332,3.021460952758788,-11.964122085571292,0.9374654841423034,-0.1077017185091971,0.1965723562240599,-18.233864135742188,-73.31437347412108,72.46003448486327,14.578094463348387,8.130971851348878,10.522661790847778,-0.8410421538352966,-0.487630021572113,-0.0076031807623803,-89.72667022705079,62.27524551391601,80.44827331542969,18.8248253753592,0.9638889382908574,19.73220597384653,0.972210240032494,-71.49280609130861,135.5896189880371,7.9882388305664165
3951.131,-13.88234977722168,13.0849933052063,-5.552018966674808,0.935365822315216,-0.1010726496577262,0.2030363398790358,-17.958165588378904,-73.1332794189453,72.23618194580078,11.395636868476869,8.966586494445803,13.00847136735916,-0.8403692317008972,-0.4804940724372863,-0.0100704784877597,-89.85828399658203,62.515134735107424,80.30192138671876,19.868608399702715,0.9624700812886234,19.48026027331181,0.9680890526051292,-71.90011840820313,135.64841415405272,8.06573944091798
3973.796,-13.36065948486328,22.275234489440912,1.5643248748779264,0.9324037194252014,-0.0966407153010367,0.2154118239879607,-17.89732391357422,-72.72830627441405,72.24857177734376,8.296167364120482,10.159043693542484,15.03047685623169,-0.8439659118652344,-0.4757153129577636,-0.015340439993888,-90.11053344726562,62.79533676147461,80.08916320800782,26.02192163819204,0.9618307427846472,19.94862893099472,0.9689266476221128,-72.21320953369141,135.52364303588865,7.8405914306640625
3993.933,-13.203176727294922,30.52406118392944,9.549800491333006,0.9315076971054076,-0.0921882541477679,0.2321184182167052,-18.11281044006348,-72.11186706542968,72.55255645751953,5.198673872947691,11.535135765075683,16.509389915466308,-0.8515565657615662,-0.4704148495197295,-0.0216219846345483,-90.49242126464844,63.10561874389648,79.79990081787109,34.601168712584176,0.9644087432436824,20.80013275286717,0.9730910674545518,-72.37961082458496,135.21748580932615,7.247344360351562
4016.56,-14.3690926361084,38.13588668823242,17.80904632568359,0.929766924381256,-0.0892002373933791,0.251576765179634,-18.63361846923828,-71.29385040283202,73.14971160888672,2.03074192047119,12.469172067642212,17.425401039123535,-0.8643115186691285,-0.4643304479122161,-0.0274782822281121,-90.98765380859376,63.43614013671875,79.45344787597656,44.474473664261744,0.967323154278168,21.523214587377865,0.9815254567033412,-72.35403533935548,134.72999053955078,6.303736267089846
4035.808,-17.354489135742188,45.21794578552246,25.63369674682617,0.9286316180229188,-0.0871689788997172,0.2722940075397491,-19.443742370605467,-70.28694213867189,73.98452056884767,-1.3045357275009166,12.615217771530151,17.837881126403808,-0.8787559247016906,-0.4572225069999694,-0.0313315077684818,-91.56621978759765,63.77758895874024,79.0864096069336,54.79897191675487,0.971647641594596,21.886880453074387,0.9910832757567384,-72.12247741699218,134.06453109741213,5.101889038085929
4045.909,-22.60313056945801,51.838805770874025,32.45754779815674,0.9257051253318788,-0.0872263652086257,0.2914330428838729,-20.50370170593262,-69.10650405883788,74.96794158935546,-4.420230760574341,11.705107526779177,17.854262580871584,-0.892333734035492,-0.452540476322174,-0.0333371118456124,-92.17832458496092,64.12077651977539,78.74867279052734,65.20472148824807,0.9744083519437684,21.801896121596887,1.0010812847285837,-71.6746228790283,133.22728057861326,3.780731201171875
4065.693,-29.472857780456547,57.548100051879885,38.15123924255371,0.921142008304596,-0.093143452554941,0.3075418555736541,-21.76929679870605,-67.77623809814455,76.01922302246093,-6.42822147846222,9.677027597427369,17.35338087081909,-0.9026342582702636,-0.4473657751083373,-0.0379680620878933,-92.75837127685548,64.4554066467285,78.48906494140624,75.07296598024328,0.975582028917592,20.883168393355543,1.0081301080119085,-70.98907447814943,132.23164474487305,2.4698419189453062
4088.199000000001,-37.2864973449707,62.07181762695312,43.00745513916016,0.913472270965576,-0.1078086015582083,0.3228311747312545,-23.209462356567386,-66.3201171875,77.08584899902344,-6.665224494934082,7.811142416000368,15.807832651138307,-0.9102553033828736,-0.4403295016288757,-0.0446500030159949,-93.27763031005858,64.76075759887695,78.30009643554688,84.21896832256442,0.9748201125188716,18.85011237465983,1.0121503890779815,-70.0681679534912,131.08087478637697,1.2142474365234364
4105.702,-43.77910957336426,65.31969451904297,47.41897300720215,0.9013384366035462,-0.1341806592047213,0.3347852909564971,-24.77913887023925,-64.7602311706543,78.14769226074218,-5.263075785636903,6.868031148910523,12.929931640625,-0.9147675919532776,-0.4344794332981109,-0.0503566703945397,-93.7351171875,65.0082943725586,78.14560668945312,91.8250070958641,0.9708226499440384,15.558050996798997,1.0139565668707264,-68.95597831726074,129.7685255432129,-0.0020855712890579525
4128.345,-47.36918296813964,67.52256088256836,51.95036026000976,0.8856491827964783,-0.1649122074246405,0.3460818779468536,-26.41956939697265,-63.11031021118164,79.20520935058593,-3.0264419460296645,7.263257036209107,8.333044195175171,-0.919042627811432,-0.4313046169281006,-0.0562011754512785,-94.16129241943358,65.1612255859375,77.97288024902345,97.47807781421444,0.9650612298652136,11.460972000029995,1.0167701787720484,-67.74172302246093,128.27153579711916,-1.2323291015624847
4150.305,-46.780149440765385,68.93308685302735,56.90641342163085,0.8684148406982422,-0.2002088378369807,0.3575664556026458,-28.064359054565426,-61.37750976562499,80.27734680175782,0.1480633735656724,9.483470144271852,2.3435335350036626,-0.9219138884544372,-0.4279113972187042,-0.0631465407460926,-94.60528717041016,65.1895474243164,77.70643463134766,100.8885163598956,0.9602508445532484,9.76986582147237,1.0183422151727983,-66.54092811584474,126.5670571899414,-2.5709121704101534
4165.598,-42.95094318389892,70.54412872314454,62.11899185180664,0.8486530137062074,-0.2341116124391555,0.369272209405899,-29.64559715270996,-59.55499786376953,81.36048065185545,3.7527919673919663,13.421714906692506,-4.3989843654632566,-0.92443039894104,-0.426826101541519,-0.0664557142555712,-95.1151385498047,65.07513427734375,77.28176330566407,103.3442149632911,0.9546633696706938,14.61427186125411,1.0203766193914086,-65.46954139709473,124.63013214111328,-4.078717346191382
4188.192,-36.46439783096314,73.22468963623047,67.27144439697265,0.8276851511001586,-0.2623924106359481,0.3775689125061034,-31.087705993652342,-57.62701782226562,82.42808715820313,6.862315864562987,17.97353888511658,-10.8239732170105,-0.925965349674225,-0.4302704083919524,-0.0650573089718817,-95.71184143066408,64.82118103027344,76.6848370361328,105.9101256384488,0.9468214035403288,22.07482446775945,1.0231211592894314,-64.62413543701174,122.44819885253906,-5.743250122070322
4210.821,-30.10007629394532,77.21272186279298,72.1223570251465,0.8088090085983277,-0.2791759365797042,0.3896268248558044,-32.35517768859863,-55.57733963012695,83.43967742919922,9.472780656814574,22.135042324066166,-15.811877870559693,-0.9256108355522156,-0.4333729684352874,-0.0633128438889979,-96.3868585205078,64.45713592529296,75.93600646972656,109.861064045571,0.9401703455237144,28.804672430941064,1.0240000316715794,-64.03168083190917,120.0344755554199,-7.503670959472657
4232.536,-25.677713527679447,82.5247705078125,76.29091247558594,0.7878645133972169,-0.2961979490518569,0.4022061920166015,-33.454405517578124,-53.39097717285157,84.35632659912109,11.869778823852538,25.21725057601929,-18.759147453308103,-0.9237866926193238,-0.4331737422943115,-0.0595127794146536,-97.09877563476564,64.0274543762207,75.08534149169921,115.282201773449,0.9328630860901588,33.59623474611224,1.0220387054253204,-63.64437011718752,117.41843154907227,-9.270985107421879
4254.06,-24.43475616455078,89.1748989868164,79.78076889038086,0.7639494824409485,-0.3102973544597625,0.4133180034160613,-34.417392349243165,-51.05452850341797,85.13778594970704,12.566037139892575,26.100959625244144,-19.998534536361696,-0.9226709747314452,-0.4307115912437438,-0.0525293830037116,-97.7923864746094,63.57324325561524,74.23161163330079,122.12367093594231,0.9223529865807124,35.200948373045804,1.0196045991080775,-63.374994125366236,114.62777175903321,-10.90617431640625
4275.401,-25.00232160568237,96.36000396728517,83.05480499267578,0.7368384385108948,-0.3244043719768523,0.4260466277599334,-35.2744027709961,-48.56148208618164,85.77446746826172,10.89131782531738,24.5725439119339,-19.76086696624756,-0.9193913984298704,-0.4290649747848509,-0.0446438474953173,-98.42512268066407,63.129808502197264,73.4757455444336,129.64747233409753,0.9108703585310486,33.360494323881504,1.015564064553853,-63.15071990966798,111.6912905883789,-12.298721923828126
4285.423,-27.12977291107177,103.2563967895508,86.2736685180664,0.7022141027450561,-0.3440007269382476,0.446619975566864,-36.06877120971679,-45.91363265991212,86.27790252685547,7.35516361236572,21.20903529167176,-18.60906188964844,-0.9131164240837096,-0.4292102813720703,-0.0419554275274276,-98.9759783935547,62.71891021728516,72.88531250000001,137.26271866655082,0.9005057183624284,29.158511522037827,1.00983331667455,-62.907207183837905,108.63254287719728,-13.392590026855459
4308.679,-29.34276147842408,109.55799865722656,89.39037658691406,0.6575346243381499,-0.3718347990512847,0.4656226670742034,-36.82541717529297,-43.11826644897461,86.66853210449219,2.52736825942993,16.800127673149113,-17.627514686584473,-0.907079346179962,-0.4309018528461455,-0.0386051744967698,-99.43358306884768,62.340292053222655,72.50280303955078,144.41119121213168,0.8873654084323525,24.48185356909553,1.0049675151717268,-62.60816589355471,105.45855850219726,-14.165729064941402
4328.098,-30.726506881713867,115.29058288574215,92.79491607666014,0.6107627332210541,-0.3956875348091125,0.4844664359092713,-37.54549392700195,-40.18330718994141,86.96623474121094,-3.473506565093996,11.659495458602905,-16.810688705444335,-0.9010795307159424,-0.4368452680110931,-0.0363949935138224,-99.80088745117187,61.991759338378905,72.35226654052735,151.15202008891774,0.8742468009764732,20.751104475624583,1.002049252488029,-62.255393524169925,102.17506652832031,-14.613968200683587
4350.433,-30.929132041931155,120.10652099609374,96.49452087402344,0.5603847992420197,-0.4209194850921631,0.5117476177215576,-38.22486053466797,-37.11672126770019,87.19830932617188,-8.958531131744385,7.04005078792572,-15.73353267669678,-0.8934369277954101,-0.4483892095088958,-0.0360104851424693,-100.0975247192383,61.674275970458986,72.40082153320313,157.14127450596698,0.8678075595403971,19.42579845524225,1.0002895491769916,-61.872664184570326,98.79099723815918,-14.797487792968752
4370.995,-31.54024116516113,124.01003021240236,99.80893585205078,0.5032263994216919,-0.4486636590957641,0.5439188408851624,-38.8822998046875,-33.933377761840816,87.37771881103517,-12.708017978668217,3.393903684616089,-14.623104705810547,-0.8880975437164306,-0.4574216651916504,-0.0364450552314519,-100.33300109863282,61.38770095825196,72.59954803466796,162.28092334577178,0.866246843306213,19.66843904339396,0.999639969685428,-61.45070129394532,95.32107872009277,-14.778170776367205
4393.7080000000005,-31.428506355285645,127.00574951171876,102.6127633666992,0.4450183945894241,-0.4750354838371277,0.5735641753673554,-39.51204742431641,-30.65604309082031,87.51335144042969,-14.234777812957764,0.5116819524765025,-13.452488927841188,-0.8866128516197204,-0.4592384386062622,-0.0345495200157164,-100.49474548339845,61.13580871582032,72.91258728027343,166.27564652259778,0.8675689861285711,19.59234993966917,0.9990875644727476,-60.98269805908204,91.79185180664064,-14.60076416015626
4415.362,-30.28467422485352,129.2680126953125,104.8373696899414,0.3867312064766884,-0.4975257158279419,0.602453248500824,-40.098710174560544,-27.30714668273925,87.60909912109375,-14.351023101806645,-1.5528129959106431,-11.498766326904295,-0.8849647951126098,-0.4566389167308807,-0.034581445083022,-100.5952020263672,60.93304321289063,73.29525604248047,169.16930774406575,0.8718043247209872,18.454937531988698,0.9964324689640968,-60.49649185180666,88.24018989562988,-14.313843078613274
4426.334,-28.578094749450685,130.85043090820312,105.97312927246094,0.3235906943678855,-0.5196511507034302,0.6332758438587189,-40.63443771362305,-23.909927139282225,87.66192474365235,-12.889603195190432,-2.7116242647171007,-9.066944746971132,-0.8815358972549439,-0.451714755296707,-0.0357591460645198,-100.64261871337892,60.7858023071289,73.70390167236327,170.78889570510356,0.880787460357981,15.990755570863229,0.9911763086500336,-60.00818099975587,84.69572944641112,-13.958023071289077
4448.097,-26.16080022811889,131.6840368652344,105.7228283691406,0.2568539132922888,-0.5428103041648864,0.6598765754699707,-41.109091796875006,-20.496258621215823,87.66548248291015,-10.64823211669922,-3.142225084304808,-6.705472888946533,-0.8779717397689819,-0.4467196571826934,-0.04048297829926,-100.65173797607422,60.68923400878906,74.10618072509766,170.88706642713112,0.892218613309045,12.970034400722923,0.9859166797850488,-59.54264617919921,81.18549263000489,-13.559301757812491
4475.3460000000005,-21.86872625350952,132.0183123779297,104.62083862304686,0.19319673422724,-0.5669303500652313,0.6778057861328126,-41.49386276245117,-17.08933438301086,87.61976623535156,-8.015664644241333,-2.8281206035614,-4.516564755439759,-0.8748759365081786,-0.4469539630413055,-0.0497307962179183,-100.6440023803711,60.63381744384765,74.46999481201172,169.86051885372652,0.9045195872153774,9.625409239471828,0.983691466595019,-59.15013961791993,77.72315182685851,-13.149771423339843
4495.36,-16.704832592010497,131.9782470703125,103.09377075195312,0.132216951996088,-0.5881064367294312,0.691392982006073,-41.77522766113282,-13.701158342361447,87.52957000732422,-5.97508056163788,-1.9784524726867665,-2.6186702466011047,-0.8715834808349608,-0.4560588288307189,-0.0569028110057114,-100.6439404296875,60.60710311889649,74.77923370361329,168.30221240237992,0.9172648248379388,6.817132517794935,0.9853351456835312,-58.86871276855469,74.30826146125794,-12.750336303710938
4505.566,-11.91134023666382,131.74585876464843,101.53125823974608,0.0769282292947172,-0.6091416716575623,0.7033815526962279,-41.96581069946289,-10.334905881881712,87.40506683349608,-4.555042819976808,-0.8546152877807602,-1.871833667755127,-0.8700821733474731,-0.4716215527057647,-0.0646464977413415,-100.66517578125,60.58231338500976,75.03162719726562,166.75565276060138,0.933657933766723,4.998254061337065,0.9917908282616248,-58.69936508178711,70.91721926689148,-12.373439636230458
4528.606,-7.498402426242829,131.21096008300782,100.3460757446289,0.0252590719610452,-0.630242302417755,0.7115120077133179,-42.08026351928711,-6.991286401748655,87.26323089599609,-4.050859494209291,0.3946447372436538,-1.931094758510589,-0.8727102065086365,-0.4861711227893829,-0.0711235242336987,-100.72363403320313,60.54493469238281,75.2285220336914,165.3537934315308,0.9508379029011216,4.504923315308124,1.0015208539406744,-58.64337051391602,67.53622109413146,-12.034708862304683
4548.003,-3.475813241004944,131.06446960449222,99.81170471191406,-0.0201360013708471,-0.6433805108070374,0.7106139636039733,-42.130706787109375,-3.657034215927124,87.1145703125,-4.794510221481325,0.8354994487762466,-2.3892689657211306,-0.8785397624969484,-0.4923135602474213,-0.07004496993497,-100.8065121459961,60.49590270996093,75.41012481689452,164.7797101220036,0.9588097545949772,5.421622799803804,1.009510303912187,-58.67580535888672,64.15293692588806,-11.704445495605484
4565.467,-0.2452110171318056,131.32098693847655,99.471787109375,-0.0653032488375901,-0.6483590412139892,0.7141133952140808,-42.13278793334961,-0.3245267772674559,86.9608090209961,-7.2388379621505745,0.3903615760803237,-2.8855050587654114,-0.8833304262161255,-0.4913835048675537,-0.0621848526969551,-100.91040740966795,60.44169052124023,75.61704132080078,164.74191382180575,0.9667429347333496,7.80251860917441,1.0127178020752006,-58.77761947631834,60.76621729850769,-11.343767700195315
4587.888999999999,2.705006761550903,132.21061157226563,98.61978363037107,-0.1098450754955409,-0.6523082327842713,0.7152224588394165,-42.097995300292965,3.0072813320159915,86.7890966796875,-10.291445589065557,-0.7573689651489243,-3.2303707647323607,-0.8872424769401551,-0.486779841184616,-0.0561785606108604,-101.0270050048828,60.38948791503907,75.87349884033202,164.96310071404983,0.9742254034857954,10.813082601169064,1.0135629518401557,-58.92900970458983,57.38220658302308,-10.915597839355485
4610.417,6.474020926952361,133.9216845703125,96.93884338378906,-0.1573881059885024,-0.6496405243873596,0.7127099752426147,-42.0161051940918,6.339991807937622,86.57764007568359,-12.916250157356265,-2.7763156890869127,-2.6396450781822205,-0.8898494482040405,-0.4812663781642913,-0.0491477423161267,-101.12268096923827,60.36122680664063,76.20803741455077,165.45111030663915,0.9771178719291036,13.472385574635528,1.0128498742633,-59.106575775146474,54.02123499870301,-10.369602661132816
4632.94,10.55280774116516,136.73889221191408,94.1820639038086,-0.203831865005195,-0.6404018330574036,0.7056900453567504,-41.890576629638666,9.675456037521364,86.2976937866211,-14.631960415840153,-5.396898946762083,-1.319192490577698,-0.8888475251197814,-0.4794707620143891,-0.0403607723675667,-101.16047088623048,60.370495300292966,76.6418048095703,166.37051287936976,0.9745051960304733,15.651231666532553,1.010728018056453,-59.26989425659182,50.6950392627716,-9.655888977050793
4645.488,13.801552307605744,140.1733905029297,90.40581787109376,-0.2541540649533271,-0.6316716527938844,0.7023949766159057,-41.74965805053711,13.010102548599244,85.9236181640625,-14.688664097785953,-7.70420684814453,0.659560353755951,-0.8834351682662964,-0.4852294516563415,-0.039150247722864,-101.12926147460936,60.4229151916504,77.1519561767578,167.36867734474026,0.97824438094523,16.59959866975192,1.008681346700322,-59.37960342407226,47.412812643051154,-8.771661987304697
4667.851,16.036925292015077,143.9354217529297,86.17664764404296,-0.3070562502741813,-0.6219787836074829,0.6914782357215881,-41.62737228393554,16.343514194488527,85.4395541381836,-12.509253096580508,-9.835009908676144,2.9942194366455084,-0.8777015662193298,-0.4931441032886505,-0.0435126971639691,-100.99838287353514,60.52239456176758,77.72441345214843,168.5259719069466,0.9794300886571358,16.191793692264387,1.0076926618601103,-59.37101058959959,44.17888036727905,-7.71514068603517
4690.377,16.350121114253998,147.83862670898438,82.2061492919922,-0.3663671123981475,-0.6057448482513428,0.6770518207550049,-41.57145370483399,19.68395950317383,84.8400961303711,-9.253864841461183,-11.54473090171814,5.34234474182129,-0.8716374802589417,-0.4966386330127715,-0.0491883601620792,-100.7633203125,60.66874267578125,78.34093200683594,169.945394139019,0.9795666645091932,15.73071751184868,1.004400977482791,-59.19186660766601,40.98478317260742,-6.499164123535152
4713.962,13.898123226165774,151.36589965820312,78.52659515380859,-0.4315801858901977,-0.5903364443778992,0.6639872169494628,-41.64912689208984,23.028350219726565,84.12247467041016,-5.753285241127016,-12.277606449127196,7.270462303161622,-0.8659178924560548,-0.4957247173786163,-0.0551131425611673,-100.45154510498044,60.85153106689454,78.96572143554688,171.0883384541362,0.9877436907852416,15.385042518209492,0.999296877999032,-58.8024182128906,37.823180847167976,-5.156753234863274
4735.889,9.82727252960205,153.76596069335938,75.19620681762694,-0.5038011181354523,-0.5795828223228454,0.6500403523445131,-41.90578094482422,26.36393348693848,83.28847961425781,-2.122060909271242,-11.906681203842162,9.092204627990723,-0.8607721138000487,-0.4905715680122375,-0.0669567736983298,-100.10630310058592,61.06612426757813,79.54986755371094,171.4497462030263,1.0061233891737265,15.13077608022276,0.9930117344633338,-58.200522155761696,34.702190780639654,-3.7386120605468705
4746.46,5.903409156799317,154.93350219726562,72.09366500854492,-0.5793792879581451,-0.5674614071846008,0.6317983770370483,-42.35026107788086,29.67325607299805,82.3396435546875,1.687095742225646,-10.462718772888184,10.697317333221438,-0.8587618637084959,-0.480634205341339,-0.0767222871258853,-99.76015899658202,61.307896575927735,80.05341247558594,170.9875342741306,1.0280379356742937,15.058133160907516,0.987100545661898,-57.40989791870116,31.634640502929685,-2.2862310791015545
4767.68,2.7143816375732426,154.8249609375,68.76774734497069,-0.6541428387165069,-0.5549672174453735,0.6116270804405213,-42.9813624572754,32.93181900024415,81.2702359008789,5.208080091476439,-7.654548082351683,12.125452480316165,-0.8590469217300415,-0.469848722219467,-0.085164079889655,-99.4665267944336,61.5700228881836,80.42288177490235,169.43181363567624,1.053555480936503,15.255910409958249,0.9828389267873844,-56.4851643371582,28.638203887939454,-0.8473541259765511
4790.447,0.8719253540039065,153.2883728027344,64.74521591186523,-0.7235872161388397,-0.5461749172210694,0.5942414546012879,-43.786775512695314,36.10279815673829,80.06962921142579,8.596193537712097,-3.6879179954528793,13.684367294311524,-0.8613128280639648,-0.459410148859024,-0.0947725486382841,-99.2745266723633,61.85171157836915,80.60717468261718,166.40321052734254,1.0839780467923013,16.575801359952745,0.9807646550715476,-55.48775115966798,25.74891342163086,0.5375454711913932
4810.278,1.4344365692138674,149.8175439453125,60.21125198364257,-0.785266398191452,-0.5404627704620361,0.5730144727230073,-44.723842773437504,39.14704864501954,78.7416372680664,11.6846044921875,1.1218824481964125,15.525859298706056,-0.8643914699554444,-0.4465263509750364,-0.106148098707199,-99.22900970458986,62.15705688476562,80.56321258544922,161.47058229756416,1.112244985753634,19.463835935643232,0.9786857587121458,-54.50516693115235,23.010008239746085,1.8215753173828233
4832.744,4.390225982666015,144.73140228271484,55.155739746093744,-0.8378653764724732,-0.5328872668743133,0.5515881776809692,-45.741080627441406,42.0286060333252,77.29461853027342,13.604290704727172,6.11486417770386,16.79108684539795,-0.8704474616050721,-0.4340308094024657,-0.1132207936048507,-99.3549041748047,62.47441696166992,80.28637298583985,154.94711522916046,1.1358858860138843,22.459049110329406,0.9792244252620464,-53.613823547363296,20.44581092834472,2.991754455566422
4852.793000000001,9.24276538848877,138.23178466796872,49.59553810119628,-0.8746457052230834,-0.5253931200504303,0.5292548859119416,-46.794857788085935,44.7147087097168,75.73995910644531,13.500829963684083,10.584269933700565,17.64497867584229,-0.8800550889968871,-0.4253718876838683,-0.1162888601422309,-99.667887878418,62.79591552734375,79.80119079589844,147.15016956859253,1.1494145355454546,24.60984461975892,0.984358319665271,-52.873030090332065,18.08120681762695,4.061231689453123
4874.891,14.837320499420168,130.95313354492183,43.92853805541992,-0.8946456623077393,-0.5190897881984711,0.5126513314247132,-47.860415039062495,47.18546096801758,74.09108764648438,11.224863500595095,13.6680601978302,18.15266567230225,-0.8904746913909912,-0.4226235914230346,-0.1154932306706904,-100.15236724853516,63.11654052734375,79.17177154541017,138.9193496980285,1.1544074050825897,25.3442834025522,0.9924185419297336,-52.29195220947266,15.931079559326172,5.080683898925784
4885.036,20.11541896820069,123.18312377929688,38.75859870910644,-0.8984722304344178,-0.5154563510417938,0.4961072671413421,-48.92957382202148,49.43736877441406,72.36838073730469,6.925759887695312,14.734822282791136,17.931330413818365,-0.8980964279174805,-0.4259061884880065,-0.106737648025155,-100.7544857788086,63.42559829711914,78.49972991943359,130.694074227508,1.1485077358039737,24.22011040720036,0.9996830501396236,-51.82491195678712,13.988229522705076,6.131349182128901
4915.015,23.99862157821655,116.06449005126952,34.35271408081054,-0.8863960814476013,-0.5107573282718658,0.4806578302383422,-50.02251174926758,51.48673828125,70.57821533203125,0.3929089832305898,13.148983945846558,16.86665994644165,-0.9067699861526488,-0.4339953470230102,-0.0887809991836547,-101.39517761230468,63.71516006469726,77.91938293457032,123.39776599774244,1.1303110241692365,21.390053156225044,1.0091906830926185,-51.3726658630371,12.22842178344726,7.341167602539073
4935.081,25.51879062652588,110.39428344726562,31.009501800537112,-0.8607064032554627,-0.5065960395336151,0.4677325499057769,-51.193190460205074,53.36567291259765,68.71041458129882,-8.096104774475098,8.709849643707276,15.521485691070556,-0.9164069771766664,-0.4413222956657409,-0.0656585510820149,-101.99195098876952,63.99209716796874,77.56492980957032,117.47210602859388,1.1028276375379151,19.553130475537014,1.0192537278813083,-50.79876052856444,10.626424255371084,8.854515228271495
