Timestamp (ms),Wrist Gyroscope X (deg/s),Wrist Gyroscope Y (deg/s),Wrist Gyroscope Z (deg/s),Wrist Accelerometer X (g),Wrist Accelerometer Y (g),Wrist Accelerometer Z (g),Wrist Roll (deg),Wrist Pitch (deg),Wrist Yaw (deg),Arm Gyroscope X (deg/s),Arm Gyroscope Y (deg/s),Arm Gyroscope Z (deg/s),Arm Accelerometer X (g),Arm Accelerometer Y (g),Arm Accelerometer Z (g),Arm Roll (deg),Arm Pitch (deg),Arm Yaw (deg),Wrist Gyroscope Magnitude (deg/s),Wrist Accelerometer Magnitude (g),Arm Gyroscope Magnitude (deg/s),Arm Accelerometer Magnitude (g),Difference Roll (deg),Difference Pitch (deg),Difference Yaw (deg)
0.0,1.3359962701797485,-1.347191572189331,-1.4505586624145508,-0.882594883441925,-0.3214491009712219,0.3165627121925354,-45.35584259033203,62.316490173339844,-172.91709899902344,0.006697796285152435,-0.25349554419517517,-0.1456962525844574,-1.005308985710144,0.032538481056690216,-0.1171586737036705,165.63961791992188,82.60826110839844,45.003822326660156,2.388290518177814,0.9912190492236144,0.2924589704882369,1.012635701683008,210.9954605102539,20.291770935058594,217.9209213256836
13.821,0.8347100019454956,-1.1275941133499146,-1.0461333990097046,-0.8868050575256348,-0.3336154520511627,0.324811726808548,-45.34088134765625,62.28605651855469,-172.9526824951172,-0.16250823438167572,0.18904408812522888,-0.2519676089286804,-0.9980463981628418,0.044255223125219345,-0.12702950835227966,165.63136291503906,82.60430908203125,44.92223358154297,1.7500298169839357,1.0016112707895697,0.3544492480541966,1.0070708185881996,210.9722442626953,20.318252563476562,217.87491607666016
36.317,0.4920777678489685,-0.8543985486030579,-0.8853640556335449,-0.8818472623825073,-0.32205435633659363,0.3237875998020172,-45.326904296875,62.26526641845703,-172.97813415527344,-0.6067565679550171,-0.06586897373199463,-0.9783630967140198,-0.987752377986908,0.03451680392026901,-0.13213276863098145,165.75704956054688,82.60662078857422,44.98488235473633,1.325144113096426,0.9930820773694647,1.1531203768336173,0.9971485538864058,211.08395385742188,20.341354370117188,217.96301651000977
59.245,0.5512611269950867,-1.0450586080551147,-1.3095378875732422,-0.8836002349853516,-0.3240025043487549,0.3259843587875366,-45.31780242919922,62.23491668701172,-173.00494384765625,-0.18815410137176514,0.9378726482391357,-0.5411998629570007,-0.9882429242134094,0.03604883700609207,-0.12853047251701355,165.8526153564453,82.58894348144531,45.00867462158203,1.7637816767944314,0.9959883534783701,1.0990470244001311,0.9972179692889659,211.17041778564453,20.354026794433594,218.01361846923828
80.179,0.10997810959815979,-1.4807554483413696,-1.3584259748458862,-0.8804600238800049,-0.32384344935417175,0.3202741742134094,-45.31205368041992,62.199378967285156,-173.02383422851562,-0.6767091155052185,1.6239821910858154,-0.1916329264640808,-0.9925008416175842,0.028908105567097664,-0.1288127899169922,165.94149780273438,82.55741882324219,45.0350341796875,2.0124743505246054,0.9912920760343382,1.7697391227175063,1.0012423952396796,211.2535514831543,20.35803985595703,218.05886840820312
93.655,-0.37027761340141296,-0.9261946678161621,-1.174687385559082,-0.8841096758842468,-0.319303035736084,0.31441348791122437,-45.327125549316406,62.1793212890625,-173.05618286132812,-0.5078369379043579,0.6765048503875732,-0.5321928858757019,-0.9986518621444702,0.03357711434364319,-0.12982283532619476,166.02886962890625,82.54569244384766,45.05879592895508,1.5410491645203823,0.9911912978849887,0.9993930337333232,1.0076144763471773,211.35599517822266,20.366371154785156,218.1149787902832
116.21900000000001,-1.221184492111206,-0.10564420372247696,-0.3526920974254608,-0.8828105926513672,-0.31846246123313904,0.321532279253006,-45.352195739746094,62.179969787597656,-173.08253479003906,-0.9679925441741943,1.4846092462539673,-0.7138839960098267,-0.9998282194137573,0.02588805742561817,-0.12886305153369904,166.19235229492188,82.52078247070312,45.1795768737793,1.2754779406714296,0.9920463135931507,1.9106816949451735,1.0084306351474719,211.54454803466797,20.34081268310547,218.26211166381836
138.961,-2.3562545776367188,0.06579232215881348,-0.2316516488790512,-0.8810073137283325,-0.32658955454826355,0.3291570842266083,-45.40135955810547,62.17854309082031,-173.10733032226562,-1.480002999305725,1.7344601154327393,-0.833926796913147,-0.9936257600784302,0.029927078634500504,-0.13276559114456177,166.3561248779297,82.48857879638672,45.3111457824707,2.368528393479256,0.9955797356713365,2.427796258459658,1.0029030278740805,211.75748443603516,20.310035705566406,218.41847610473633
161.199,-1.2281081676483154,-0.19696098566055298,-0.2539289593696594,-0.8833602666854858,-0.3322533667087555,0.32592886686325073,-45.428775787353516,62.17290496826172,-173.12840270996094,-1.2713735103607178,0.9787981510162354,-0.568042516708374,-0.9935060739517212,0.023854726925492287,-0.13209235668182373,166.4810333251953,82.47135925292969,45.39712142944336,1.269457844011938,0.9984724766876241,1.702089517054881,1.0025326716219332,211.90980911254883,20.29845428466797,218.5255241394043
184.04999999999998,0.5767396092414856,-0.16815420985221863,-0.4407030940055847,-0.8830901384353638,-0.3292231559753418,0.3176767826080322,-45.4303092956543,62.16902160644531,-173.15997314453125,-1.9543248414993286,0.27282094955444336,-0.041390471160411835,-0.9862551689147949,0.02606365457177162,-0.14058387279510498,166.4896240234375,82.45997619628906,45.37873077392578,0.7450661931836263,0.994562525556008,1.9737097121208187,0.9965653002141192,211.9199333190918,20.29095458984375,218.53870391845703
193.795,0.9045406579971313,-0.13652458786964417,-0.3975905478000641,-0.8861514329910278,-0.3229545056819916,0.3176356256008148,-45.419700622558594,62.16931915283203,-173.1700439453125,0.8062909841537476,1.0196142196655273,0.3732743263244629,-0.9881683588027954,0.025339769199490547,-0.14132662117481232,166.5231475830078,82.43196868896484,45.3290901184082,0.997452258889023,0.995216743017908,1.3524245009481093,0.9985449529664564,211.9428482055664,20.262649536132812,218.4991340637207
216.754,0.045845940709114075,-0.3447059988975525,-0.02750055491924286,-0.8812915086746216,-0.33213648200035095,0.32805103063583374,-45.409706115722656,62.16364669799805,-173.16143798828125,2.4965858459472656,1.7379639148712158,0.025350168347358704,-0.9892410039901733,0.030063163489103317,-0.13297417759895325,166.63601684570312,82.39593505859375,45.32400131225586,0.34882711545453193,0.997299776716506,3.0420555692843525,0.9985908519922344,212.04572296142578,20.232288360595703,218.4854393005371
238.753,-0.5014424324035645,-0.6358497738838196,0.1133745014667511,-0.8760204911231995,-0.32979848980903625,0.32844653725624084,-45.396846771240234,62.15523147583008,-173.14674377441406,1.467210054397583,1.4120806455612183,-0.12251763045787811,-0.9945878982543945,0.028776658698916435,-0.1229248121380806,166.7319793701172,82.37346649169922,45.32346725463867,0.8176816162454321,0.9919960043183983,2.040021485932675,1.002568547720878,212.12882614135742,20.21823501586914,218.47021102905273
261.192,0.20445428788661957,-0.3063569664955139,-0.2862693667411804,-0.8776533603668213,-0.3350891172885895,0.32604271173477173,-45.3961067199707,62.14523696899414,-173.16900634765625,-0.047761525958776474,0.8321912288665771,0.29290419816970825,-0.9952370524406433,0.048495788127183914,-0.12270408123731613,166.636962890625,82.3582992553711,45.171958923339844,0.4664829011764039,0.9944164054176615,0.8835249142326516,1.003944681528375,212.0330696105957,20.213062286376953,218.3409652709961
283.66700000000003,1.1707477569580078,0.07001801580190659,-0.4075237512588501,-0.8737694025039673,-0.33297136425971985,0.32906967401504517,-45.38491439819336,62.13751220703125,-173.20201110839844,-1.061927080154419,0.8199873566627502,0.3493517339229584,-0.988223135471344,0.026123203337192535,-0.12978209555149078,166.61341857910156,82.34175109863281,45.11502456665039,1.2416233087370452,0.9912768273925741,1.3864036290514503,0.9970510416017562,211.99833297729492,20.204238891601562,218.31703567504883
293.769,1.4525012969970703,0.31477615237236023,-0.34190237522125244,-0.8782687187194824,-0.3273615539073944,0.32719600200653076,-45.36986541748047,62.13812255859375,-173.24160766601562,-1.0542652606964111,0.3457745313644409,0.03140553832054138,-0.9868994951248169,0.022078031674027443,-0.13595981895923615,166.64193725585938,82.33309936523438,45.1024055480957,1.525038123478378,0.9927631907896681,1.1099646725408756,0.9964653156691637,212.01180267333984,20.194976806640625,218.34401321411133
318.633,1.400302767753601,-0.13473303616046906,-0.30253157019615173,-0.8841091990470886,-0.331020325422287,0.32891130447387695,-45.344581604003906,62.13262939453125,-173.26730346679688,-0.03290538489818573,0.7480178475379944,0.11850643157958984,-0.9921821355819702,0.030071882531046867,-0.1382995843887329,166.66098022460938,82.31425476074219,45.04710006713867,1.4389323067388413,0.9997030448553554,0.7580615007480593,1.002225764650389,212.00556182861328,20.181625366210938,218.31440353393555
341.077,1.3710126876831055,-0.645112156867981,-0.27831727266311646,-0.881619930267334,-0.32845526933670044,0.3258935213088989,-45.30633544921875,62.12174987792969,-173.27325439453125,0.7756505012512207,0.7364181876182556,0.13862398266792297,-0.9906244277954102,0.025954823940992355,-0.1346403956413269,166.70571899414062,82.29817962646484,45.001861572265625,1.54055379295549,0.9956621679217992,1.078499909929038,1.0000692205888775,212.01205444335938,20.176429748535156,218.27511596679688
363.504,1.378059983253479,-0.7976022958755493,-0.4522257149219513,-0.8858507871627808,-0.33162009716033936,0.33044934272766113,-45.26759719848633,62.104736328125,-173.27493286132812,1.4921801090240479,1.2979727983474731,0.4085538983345032,-0.9932567477226257,0.03585167974233627,-0.13597726821899414,166.70584106445312,82.26811981201172,44.89536666870117,1.6552120217866944,1.0019482392153272,2.019468036603033,1.0031620643291765,211.97343826293945,20.16338348388672,218.1702995300293
373.56600000000003,1.8135625123977661,-0.7577728033065796,-0.20533035695552826,-0.8784937262535095,-0.3258185088634491,0.332552045583725,-45.20830154418945,62.09130096435547,-173.26368713378906,1.6300233602523804,1.2375433444976807,0.5295565724372864,-0.9952506422996521,0.02794010564684868,-0.12856195867061615,166.71469116210938,82.24436950683594,44.79501724243164,1.9762057492308573,0.9942332678032342,2.113981988544485,1.0039086949113711,211.92299270629883,20.15306854248047,218.0587043762207
396.48,1.3718321323394775,-0.11155485361814499,0.09912442415952682,-0.8776359558105469,-0.32370680570602417,0.32906460762023926,-45.16881561279297,62.093135833740234,-173.27989196777344,0.8441092371940613,1.371575117111206,0.524361789226532,-0.9979424476623535,0.03397131711244583,-0.12799935042858124,166.6882781982422,82.21802520751953,44.68295669555664,1.3799251922295648,0.9916221472819936,1.693721934733033,1.006691120921816,211.85709381103516,20.124889373779297,217.96284866333008
423.671,0.6485221982002258,-0.014849639497697353,0.24781405925750732,-0.881201446056366,-0.3290307819843292,0.32946503162384033,-45.14698791503906,62.09731674194336,-173.29774475097656,0.8137854337692261,1.0425634384155273,0.3504602909088135,-0.9962748885154724,0.031982164829969406,-0.13121001422405243,166.68626403808594,82.19754791259766,44.60803985595703,0.6944158417816718,0.9966566365042415,1.368213313354195,1.00538678138635,211.833251953125,20.100231170654297,217.9057846069336
433.466,0.34406909346580505,0.1822950839996338,0.3933596611022949,-0.876875638961792,-0.3261620104312897,0.33412817120552063,-45.12632751464844,62.104469299316406,-173.30722045898438,0.7531468272209167,0.8511489033699036,0.3281746506690979,-0.9926906228065491,0.02284306287765503,-0.13233207166194916,166.71749877929688,82.18143463134766,44.56790542602539,0.5534860989323279,0.9934456090025148,1.182955282503319,1.0017326266624393,211.8438262939453,20.07696533203125,217.87512588500977
453.592,0.13741837441921234,0.14330066740512848,0.1979132443666458,-0.8791671991348267,-0.3311324715614319,0.3343566954135895,-45.11819839477539,62.10700988769531,-173.32106018066406,0.2435830682516098,0.5738162398338318,0.5578101873397827,-0.9907358288764954,0.038460757583379745,-0.13162265717983246,166.63368225097656,82.16803741455078,44.429832458496094,0.2803364821112403,0.9971850768663029,0.8365106056326779,1.0001806018797623,211.75188064575195,20.06102752685547,217.75089263916016
473.553,1.0809438228607178,0.0700497180223465,-0.08872001618146896,-0.8817976117134094,-0.32690924406051636,0.32614171504974365,-45.10051345825195,62.109596252441406,-173.34402465820312,0.7493653893470764,0.041260235011577606,0.8906716704368591,-0.9896484613418579,0.033028967678546906,-0.13468021154403687,166.52239990234375,82.16262817382812,44.2540283203125,1.0868384205791555,0.9953919329446463,1.1647089414369973,0.9993166410721698,211.6229133605957,20.05303192138672,217.59805297851562
495.973,0.706376850605011,0.3352149426937103,-0.21559074521064758,-0.880858838558197,-0.33255574107170105,0.33016079664230347,-45.1022834777832,62.1103630065918,-173.40370178222656,0.8676683902740479,0.8669970631599426,0.3732895851135254,-0.9932884573936462,0.03396802023053169,-0.1348465085029602,166.51014709472656,82.14337158203125,44.173362731933594,0.8110589881730452,0.9977533593154796,1.2821378464747661,1.0029752573445019,211.61243057250977,20.033008575439453,217.57706451416016
513.926,0.4555560350418091,0.37258824706077576,-0.07758896797895432,-0.8832275867462158,-0.3342634439468384,0.33033937215805054,-45.10761260986328,62.11360168457031,-173.46099853515625,0.9590199589729309,0.37016546726226807,-0.020755300298333168,-0.9930362105369568,0.02911853790283203,-0.13647232949733734,166.5587158203125,82.13577270507812,44.14943313598633,0.5936104369558161,1.0004734482966153,1.0281889599448193,1.0027928506953108,211.66632843017578,20.022171020507812,217.61043167114258
536.0540000000001,0.3720155358314514,-0.016248419880867004,-0.18209490180015564,-0.8814985752105713,-0.33035287261009216,0.3315792679786682,-45.10258865356445,62.110321044921875,-173.4915008544922,1.096774697303772,0.24851921200752258,0.03206423670053482,-0.9982194304466248,0.02928195148706436,-0.13091109693050385,166.59219360351562,82.13382720947266,44.1082878112793,0.4145094972496953,0.9980568969218521,1.1250353997354077,1.0071927220267343,211.69478225708008,20.02350616455078,217.59978866577148
558.335,0.7681280970573425,0.1222362220287323,-0.14729861915111542,-0.8829430937767029,-0.3363102674484253,0.33794504404067993,-45.09210205078125,62.105560302734375,-173.5161590576172,0.9294347167015076,0.4849992096424103,0.32811591029167175,-0.9938651919364929,0.033282626420259476,-0.13311156630516052,166.57505798339844,82.12380981445312,44.0162353515625,0.7916181849026822,1.0034440470852692,1.0985140766282,1.0032918030406734,211.6671600341797,20.01824951171875,217.5323944091797
583.488,1.2631012201309204,0.09338250756263733,-0.2188248336315155,-0.8843843936920166,-0.3278176784515381,0.33059290051460266,-45.07198715209961,62.10538864135742,-173.54266357421875,1.487363576889038,-0.09352363646030426,0.2664206922054291,-0.9959266185760498,0.030756410211324692,-0.13764292001724243,166.57301330566406,82.12340545654297,43.928741455078125,1.2853129163082297,0.9994457724068925,1.5139276949934342,1.0058634896387704,211.64500045776367,20.018016815185547,217.47140502929688
593.398,0.7131876945495605,-0.1297360062599182,-0.5629545450210571,-0.8829200267791748,-0.32757288217544556,0.32942166924476624,-45.0670280456543,62.09736633300781,-173.5858612060547,0.8758206963539124,0.33936309814453125,0.16161592304706573,-0.9918861985206604,0.03749396651983261,-0.1349887102842331,166.55831909179688,82.1153564453125,43.84895324707031,0.9178158523021142,0.997682516130495,0.953073402800887,1.0017314910919781,211.62534713745117,20.017990112304688,217.434814453125
616.501,0.8654770255088806,-0.17495670914649963,-0.6017709374427795,-0.8821365237236023,-0.33052805066108704,0.3317563831806183,-45.059505462646484,62.086185455322266,-173.62889099121094,1.4244675636291504,0.17344950139522552,-0.09786045551300049,-0.9922792911529541,0.031003113836050034,-0.1372278332710266,166.61294555664062,82.11150360107422,43.83525085449219,1.0685450823010858,0.9987371709023676,1.4383216740767804,1.0022030048562023,211.6724510192871,20.025318145751953,217.46414184570312
638.341,1.1325026750564575,0.08509670197963715,-0.4300251603126526,-0.877599835395813,-0.32771483063697815,0.33323025703430176,-45.04534912109375,62.080440521240234,-173.6598358154297,1.6458137035369873,0.13624970614910126,-0.07577784359455109,-0.9973600506782532,0.03345020115375519,-0.1309838443994522,166.65138244628906,82.11185455322266,43.80044174194336,1.2143827222913566,0.9942941644751457,1.6531814814943007,1.0064803794112502,211.6967315673828,20.031414031982422,217.46027755737305
660.864,0.8267908692359924,0.19815881550312042,-0.564564049243927,-0.8795554637908936,-0.3335494101047516,0.33603015542030334,-45.04664993286133,62.071937561035156,-173.693603515625,0.9761744141578674,-0.38656532764434814,0.010605978779494762,-0.9960135221481323,0.034301914274692535,-0.12870483100414276,166.64158630371094,82.12318420410156,43.72344970703125,1.020579552662264,0.9988940325266914,1.0499817742128237,1.0048803367310166,211.68823623657227,20.051246643066406,217.41705322265625
683.4209999999999,1.4276132583618164,0.41332805156707764,-0.6980416178703308,-0.8801753520965576,-0.33019667863845825,0.33578959107398987,-45.0424690246582,62.066001892089844,-173.73519897460938,0.8016111254692078,-0.6701700687408447,0.06468145549297333,-0.9957785606384277,0.035045549273490906,-0.13217590749263763,166.61190795898438,82.1375732421875,43.630558013916016,1.6420054183655144,0.998245033293833,1.046848608059832,1.0051236754114004,211.65437698364258,20.071571350097656,217.3657569885254
693.3679999999999,1.9154406785964966,0.620761513710022,-0.5807181000709534,-0.8815418481826782,-0.32578396797180176,0.3284085690975189,-45.03361129760742,62.06936264038086,-173.7821502685547,-0.046912260353565216,0.03687907010316849,-0.009392151609063148,-0.9910804629325867,0.030195055529475212,-0.1318216770887375,166.6181640625,82.1387710571289,43.590267181396484,2.0955885478489766,0.9955417681551407,0.0604072718718759,1.000264554973126,211.65177536010742,20.069408416748047,217.37241744995117
715.901,0.9185121655464172,0.41188469529151917,-0.4217948317527771,-0.8807722330093384,-0.32468119263648987,0.3242053687572479,-45.037628173828125,62.073665618896484,-173.81991577148438,-0.6571076512336731,-0.4478091597557068,-0.35563644766807556,-0.9868884682655334,0.03319256380200386,-0.14310750365257263,166.64288330078125,82.14398956298828,43.580657958984375,1.0914323069093703,0.9931196928986621,0.871091724091622,0.9977626735295884,211.68051147460938,20.070323944091797,217.40057373046875
738.5509999999999,0.6533774137496948,0.04555250331759453,-0.26752644777297974,-0.8831943869590759,-0.3268372416496277,0.32995450496673584,-45.02994155883789,62.072784423828125,-173.84303283691406,0.23297575116157532,0.6036260724067688,-0.2917836308479309,-0.9883881211280823,0.036768533289432526,-0.13774213194847107,166.69131469726562,82.1309814453125,43.57789611816406,0.7074937989938627,0.9978601520418574,0.7097744875305984,0.998616992615821,211.72125625610352,20.058197021484375,217.42092895507812
760.77,0.17304569482803345,-0.047584179788827896,-0.36246198415756226,-0.8792452812194824,-0.32211530208587646,0.3368656635284424,-45.02187728881836,62.06736755371094,-173.85935974121094,0.0032138898968696594,0.7323834896087646,-0.4808517396450043,-0.9959421157836914,0.025951767340302467,-0.13281023502349854,166.8031768798828,82.12113952636719,43.64435577392578,0.404459833140609,0.9951427071777494,0.8761360056859937,1.0050934039912798,211.82505416870117,20.05377197265625,217.50371551513672
783.9770000000001,-0.30654484033584595,-0.08722634613513947,-0.2908695340156555,-0.8790033459663391,-0.32734254002571106,0.32809874415397644,-45.032596588134766,62.06365966796875,-173.8819580078125,-1.4676519632339478,0.48885267972946167,-0.3163772225379944,-0.9912412166595459,0.03375396877527237,-0.13107821345329285,166.8213653564453,82.114990234375,43.646575927734375,0.4314895832057838,0.9937045872118737,1.5789470461684243,1.000439892274836,211.85396194458008,20.05133056640625,217.52853393554688
793.956,0.6459997892379761,0.022718150168657303,-0.22953902184963226,-0.8811120390892029,-0.3309323191642761,0.3190042972564697,-45.03651428222656,62.06498336791992,-173.9095916748047,-2.062236785888672,0.3791392147541046,-0.2990972399711609,-0.9862045049667358,0.027917129918932915,-0.1431703120470047,166.85614013671875,82.10458374023438,43.6683464050293,0.6859446075262062,0.9937999632539103,2.1180241415515466,0.9969335133353838,211.8926544189453,20.039600372314453,217.57793807983398
815.7410000000001,1.1868247985839844,0.42837607860565186,-0.09792865067720413,-0.8771535158157349,-0.32065752148628235,0.3272916078567505,-45.020835876464844,62.07352066040039,-173.9308319091797,-0.5218411087989807,0.8832820653915405,-0.024206101894378662,-0.9917334914207458,0.03960573673248291,-0.13821613788604736,166.8482666015625,82.08475494384766,43.614044189453125,1.265562794917316,0.9896157501611862,1.0262023607670254,1.002101608201404,211.86910247802734,20.011234283447266,217.5448760986328
838.189,0.22631290555000305,0.7983786463737488,-0.03162352740764618,-0.8792552351951599,-0.3201650381088257,0.3289911448955536,-45.030616760253906,62.0882453918457,-173.9644775390625,-0.9712551832199097,0.5218657851219177,-0.10565796494483948,-0.9992009401321411,0.036439549177885056,-0.1277964562177658,166.8341064453125,82.0794906616211,43.56597900390625,0.8304372593337598,0.9918823487012,1.1076299626539274,1.0079991536340998,211.8647232055664,19.99124526977539,217.53045654296875
860.537,-0.2985574007034302,1.3453959226608276,0.36456453800201416,-0.8843027353286743,-0.3201165199279785,0.32509616017341614,-45.05815505981445,62.118858337402344,-174.0086669921875,-1.86335027217865,0.5255249738693237,-0.02687717415392399,-0.9949902296066284,0.03982741758227348,-0.1333548128604889,166.7835235595703,82.06995391845703,43.50870132446289,1.4255293797729285,0.9950645342891459,1.9362265150232558,1.0046767073626122,211.84167861938477,19.951095581054688,217.5173683166504
883.134,-0.8846237063407898,1.6559419631958008,0.6178299188613892,-0.8807520866394043,-0.3288278579711914,0.32025426626205444,-45.11043930053711,62.1547737121582,-174.06495666503906,-2.5383949279785156,1.6994880437850952,-0.3449229598045349,-0.9919841885566711,0.027006683871150017,-0.14151062071323395,166.8594970703125,82.03585052490234,43.591861724853516,1.9764657082613777,0.9931841689015354,3.0741958736482395,1.0023907656671616,211.9699363708496,19.88107681274414,217.65681838989258
893.19,-0.6772458553314209,1.847485065460205,1.017434000968933,-0.8813486695289612,-0.3262629210948944,0.3269585967063904,-45.144561767578125,62.197303771972656,-174.10643005371094,-2.7667105197906494,1.1095770597457886,-0.6088305711746216,-0.9934499263763428,0.023345505818724632,-0.14355148375034332,166.96255493164062,82.0142593383789,43.72846603393555,2.215182828118198,0.9950501971870843,3.042453453420639,1.004039240939326,212.10711669921875,19.81695556640625,217.83489608764648
921.585,-0.47191572189331055,1.9243004322052002,0.9703686833381653,-0.8782728910446167,-0.3194865584373474,0.3212394416332245,-45.17680740356445,62.24350357055664,-174.15106201171875,-1.5882813930511475,0.5116000175476074,0.10877980291843414,-0.9879653453826904,0.03350209817290306,-0.13739518821239471,166.9254608154297,82.00300598144531,43.707218170166016,2.2061849386573757,0.9882457746061126,1.6721858171238564,0.9980357468563162,212.10226821899414,19.759502410888672,217.85828018188477
942.98,-0.3344850242137909,2.1229407787323,1.1052844524383545,-0.8775375485420227,-0.3236163258552551,0.31848281621932983,-45.2138557434082,62.29326248168945,-174.2046661376953,-1.5421926975250244,0.8331609964370728,0.42676636576652527,-0.9856574535369873,0.029570654034614563,-0.14201252162456512,166.87657165527344,81.98199462890625,43.654781341552734,2.416694333636291,0.9880440170803085,1.8040634947897747,0.9962743575899266,212.09042739868164,19.688732147216797,217.85944747924805
953.984,-0.5391230583190918,2.511077642440796,1.4769346714019775,-0.8758789300918579,-0.3237614035606384,0.3157690763473511,-45.25777053833008,62.353660583496094,-174.2621612548828,-1.7019929885864258,0.5265536308288574,0.3215285837650299,-0.9852234721183777,0.026746781542897224,-0.14222076535224915,166.84091186523438,81.96768951416016,43.589256286621094,2.962684698371837,0.9857461418598966,1.8103644631715328,0.9957948716644782,212.09868240356445,19.614028930664062,217.8514175415039
982.9259999999999,-0.624116063117981,2.906773090362549,1.4083428382873535,-0.879691481590271,-0.326665461063385,0.314488023519516,-45.31931686401367,62.418453216552734,-174.33657836914062,-1.748451828956604,0.6562076807022095,0.20771309733390808,-0.9856423139572144,0.030559763312339783,-0.14248786866664886,166.8096160888672,81.95098876953125,43.52965545654297,3.2897234244314535,0.9896818393662944,1.8790521677692484,0.9963570960824248,212.12893295288086,19.532535552978516,217.8662338256836
993.058,0.43544846773147583,3.017153739929199,1.5371159315109253,-0.8819132447242737,-0.32447418570518494,0.3200831115245819,-45.352012634277344,62.48529815673828,-174.3987274169922,-1.647302269935608,0.4047364294528961,0.6173601746559143,-0.9910777807235718,0.034927789121866226,-0.13574270904064178,166.69400024414062,81.94109344482422,43.405635833740234,3.4140236445172936,0.9927273879028409,1.8051454044238282,1.000940158528268,212.04601287841797,19.455795288085938,217.80436325073242
1012.926,0.47852519154548645,3.313925266265869,1.1421295404434204,-0.8888440728187561,-0.32071542739868164,0.31528782844543457,-45.403419494628906,62.554954528808594,-174.48300170898438,-0.6163718700408936,0.5244812369346619,1.0765248537063599,-0.9897496700286865,0.030639851465821266,-0.14928923547267914,166.57164001464844,81.919677734375,43.25665283203125,3.5377318887236853,0.9961468696544656,1.3468112750945176,1.0014142427825552,211.97505950927734,19.364723205566406,217.73965454101562
1036.583,0.12917104363441467,3.1224772930145264,1.2889633178710938,-0.892219066619873,-0.3213998079299927,0.3167155385017395,-45.45169448852539,62.62338638305664,-174.55938720703125,0.09824632108211517,0.9172687530517578,0.671583354473114,-0.9915593266487122,0.02888263389468193,-0.15164771676063538,166.5412139892578,81.89188385009766,43.18561553955078,3.380528958420884,0.999830701521973,1.141077783035257,1.0035044268977868,211.9929084777832,19.268497467041016,217.74500274658203
1052.791,0.801671028137207,2.6908516883850098,1.4975303411483765,-0.8976702690124512,-0.32894453406333923,0.3139330744743347,-45.47782516479492,62.687713623046875,-174.6260223388672,0.5017585158348083,0.9877684712409973,0.5108604431152344,-0.9895596504211426,0.022245479747653008,-0.15548573434352875,166.5721435546875,81.8622055053711,43.16686248779297,3.182130790665116,1.0062655681319628,1.2200108824639313,1.0019475917906902,212.04996871948242,19.17449188232422,217.79288482666016
1075.281,1.708896279335022,1.9092097282409668,1.273537278175354,-0.8987003564834595,-0.3246029019355774,0.3289976716041565,-45.45333480834961,62.73377990722656,-174.65914916992188,1.3098920583724976,2.1387546062469482,1.2120306491851807,-0.9862713813781738,0.032513171434402466,-0.16256563365459442,166.52920532226562,81.8013916015625,43.057647705078125,2.8613467945772175,1.0105784692983775,2.785517324464906,1.000107958816374,211.98254013061523,19.067611694335938,217.716796875
1092.751,3.067485809326172,0.2608262300491333,1.0486102104187012,-0.9022850394248962,-0.32789596915245056,0.34213829040527344,-45.354217529296875,62.748287200927734,-174.63534545898438,2.576570510864258,2.251751184463501,1.465619683265686,-0.9925913214683533,0.023635536432266235,-0.15993067622184753,166.513916015625,81.74105072021484,42.94472122192383,3.2522427471044404,1.0191627292625327,3.7225179717717807,1.00567091597277,211.86813354492188,18.99276351928711,217.5800666809082
1115.638,5.028034687042236,-1.7512518167495728,0.6765034794807434,-0.9054924249649048,-0.3511243164539337,0.3451840281486511,-45.18922424316406,62.72083282470703,-174.57481384277344,2.9909210205078125,0.4337211847305298,0.9358507394790649,-0.9900920391082764,0.0315282866358757,-0.15040524303913116,166.48123168945312,81.72345733642578,42.80764389038086,5.3670916423625705,1.0307069566870084,3.16378558432506,1.0019471123255153,211.6704559326172,19.00262451171875,217.3824577331543
1137.867,12.015621185302734,-4.682237148284912,1.037166714668274,-0.9171345233917236,-0.35141947865486145,0.3670274615287781,-44.779296875,62.652774810791016,-174.39337158203125,4.8195414543151855,0.01321256160736084,0.10361269116401672,-0.9776300191879272,0.02829159051179886,-0.15633754432201385,166.59962463378906,81.7142105102539,42.78680419921875,12.937318577490888,1.0484944165284227,4.820673188613496,0.9904556003555697,211.37892150878906,19.06143569946289,217.18017578125
1152.739,18.51479721069336,-9.779062271118164,0.36876729130744934,-0.9276962280273438,-0.3604203164577484,0.4154694080352783,-44.09659194946289,62.486515045166016,-174.04713439941406,4.068480968475342,-1.2608808279037476,-1.8340216875076294,-0.9847874641418457,0.01051423978060484,-0.15844786167144775,166.98716735839844,81.74054718017578,43.05338668823242,20.941914047446655,1.078488722715657,4.637455488009521,0.9975082073032508,211.08375930786133,19.254032135009766,217.10052108764648
1175.537,22.665836334228516,-16.91706657409668,0.10808014869689941,-0.9365379214286804,-0.35372164845466614,0.4124305248260498,-43.16249084472656,62.21860885620117,-173.5026092529297,0.6829982399940491,3.395779848098755,-0.5778960585594177,-0.9717000126838684,0.034190353006124496,-0.19351059198379517,167.21920776367188,81.64545440673828,43.23169708251953,28.28319217346223,1.0827378356129107,3.5116621743964895,0.9913708912906573,210.38169860839844,19.42684555053711,216.73430633544922
1197.7949999999998,23.87323570251465,-25.00285530090332,-1.0162723064422607,-0.9461345672607422,-0.345939964056015,0.46190938353538513,-42.013526916503906,61.803768157958984,-172.75347900390625,-0.6480402946472168,6.310781478881836,0.2870911657810211,-0.9711117148399353,0.051382552832365036,-0.19194425642490387,167.3236083984375,81.48885345458984,43.314910888671875,34.58477939074602,1.1082442676119684,6.35045986013249,0.9912319239256976,209.3371353149414,19.68508529663086,216.06838989257812
1221.573,23.38751792907715,-35.546730041503906,-1.956082820892334,-0.9353061318397522,-0.37826716899871826,0.504036009311676,-40.68370056152344,61.189857482910156,-171.75982666015625,3.3087286949157715,7.536950588226318,0.6592180728912354,-0.9700055718421936,0.038421157747507095,-0.19457317888736725,167.53826904296875,81.30809783935547,43.427555084228516,42.59544895324677,1.1278013610925395,8.25759518343873,0.9900735915627157,208.2219696044922,20.118240356445312,215.18738174438477
1242.885,24.408437728881836,-46.51102066040039,-1.9809861183166504,-0.9488688707351685,-0.38105589151382446,0.5067365765571594,-39.14917755126953,60.40525436401367,-170.53982543945312,3.227151393890381,4.039535999298096,-3.310394763946533,-1.00923490524292,-0.011385228484869003,-0.1877763271331787,168.31153869628906,81.22847747802734,44.10246658325195,52.563972274152356,1.1412001070489344,6.1393053924591925,1.026618072322889,207.4607162475586,20.823223114013672,214.64229202270508
1252.788,27.460569381713867,-56.160030364990234,-3.5914130210876465,-0.9640039801597595,-0.3784226179122925,0.5345130562782288,-37.462615966796875,59.43785858154297,-169.1807861328125,5.319896221160889,5.5165534019470215,-3.653132915496826,-1.0062390565872192,-0.001177524565719068,-0.19349393248558044,169.15194702148438,81.11572265625,44.800506591796875,62.61733089850272,1.1654233388959327,8.48993741665635,1.0246747422838012,206.61456298828125,21.67786407470703,213.98129272460938
1275.161,29.229034423828125,-66.48311614990234,-4.6837029457092285,-0.9429640173912048,-0.354411780834198,0.6353052854537964,-35.60795974731445,58.25043869018555,-167.66441345214844,5.726771831512451,7.360648155212402,-3.8315582275390625,-1.0039101839065552,0.0015518665313720703,-0.17457903921604156,170.01443481445312,80.97647857666016,45.51490783691406,72.77553338612078,1.1909666889607609,10.08245482638323,1.0189778734470247,205.62239456176758,22.72603988647461,213.1793212890625
1297.843,23.808399200439453,-79.54703521728516,-3.1588480472564697,-0.934532105922699,-0.37545567750930786,0.7057846188545227,-33.7127685546875,56.82613754272461,-165.95889282226562,6.998312950134277,7.469198226928711,-8.842379570007324,-1.0136266946792603,-0.026590591296553612,-0.16959629952907562,171.57009887695312,80.85633850097656,46.91916275024414,83.09361591201304,1.2298167143871122,13.52601133968381,1.0280608155774922,205.28286743164062,24.030200958251953,212.87805557250977
1321.54,17.161108016967773,-93.95620727539062,-2.160022258758545,-0.9354550838470459,-0.3995588719844818,0.7166258096694946,-31.874134063720703,55.15007781982422,-164.1289825439453,2.258479356765747,5.016290187835693,-18.237043380737305,-1.0166430473327637,-0.05673866719007492,-0.16192027926445007,174.17568969726562,80.8081283569336,49.481689453125,95.53501038940925,1.244297415074569,19.048717739638224,1.0310191748370305,206.04982376098633,25.658050537109375,213.6106719970703
1343.039,20.684688568115234,-105.94911193847656,-3.426892042160034,-0.9594163298606873,-0.43465036153793335,0.730354905128479,-30.029014587402344,53.23963928222656,-162.32565307617188,0.13258478045463562,1.5056462287902832,-17.845796585083008,-0.9975641965866089,0.025779277086257935,-0.15513531863689423,176.32386779785156,80.811279296875,51.64110565185547,108.00376961375179,1.2817249776116704,17.909690255457768,1.009884084698411,206.3528823852539,27.571640014648438,213.96675872802734
1352.812,28.04776382446289,-116.38097381591797,-10.171199798583984,-0.9210975170135498,-0.36746758222579956,0.8268826603889465,-28.182172775268555,51.041107177734375,-160.7268524169922,7.243531703948975,0.7430033683776855,-8.704672813415527,-1.0154387950897217,0.09397491812705994,-0.12422509491443634,177.2364959716797,80.82644653320312,52.41484832763672,120.14433581004536,1.291196342113508,11.348662226894847,1.0273164585544,205.41866874694824,29.78533935546875,213.1417007446289
1377.644,30.15892791748047,-129.36695861816406,-16.850099563598633,-0.9217311143875122,-0.4334968626499176,0.8668186068534851,-26.518556594848633,48.52519226074219,-159.34478759765625,7.5151214599609375,-2.687251567840576,-7.49458122253418,-1.0168898105621338,0.06563204526901245,-0.11638019233942032,178.0836181640625,80.91264343261719,53.11470413208008,133.9003240121126,1.3374910371082056,10.948384321350295,1.0256299534238684,204.60217475891113,32.387451171875,212.45949172973633
1400.1760000000002,30.744916915893555,-141.0081329345703,-21.733966827392578,-0.895916223526001,-0.4174078106880188,0.9191685914993286,-24.991432189941406,45.74012756347656,-158.11077880859375,12.165510177612305,-5.886979579925537,-10.311978340148926,-1.0327200889587402,-0.05092224106192589,-0.12942326068878174,179.78414916992188,81.0556869506836,54.57239532470703,145.94830860243928,1.3497281428492613,16.999795991239115,1.0420432990912776,204.77558135986328,35.31555938720703,212.68317413330078
1423.0020000000002,29.886688232421875,-154.505126953125,-26.686525344848633,-0.8791528344154358,-0.40633243322372437,0.956703245639801,-23.616350173950195,42.663761138916016,-157.00755310058594,26.762439727783203,-7.40241813659668,-9.455081939697266,-0.997671902179718,-0.03611628711223602,-0.12655021250247955,-178.34571838378906,81.22042846679688,55.910499572753906,159.61584828357272,1.3613584585875744,29.33296011210995,1.006314347944067,-154.72936820983887,38.55666732788086,212.91805267333984
1433.367,26.089811325073242,-168.4459228515625,-31.322227478027344,-0.8710145950317383,-0.40138140320777893,0.96229487657547,-22.447107315063477,39.30652618408203,-156.0250701904297,34.52828598022461,-7.380134582519531,-6.749808311462402,-1.0188672542572021,-0.012856250628829002,-0.10933023691177368,-176.71278381347656,81.39015197753906,56.86347579956055,173.3083642369224,1.3585966601912238,35.94758450062762,1.024796987544863,-154.2656764984131,42.08362579345703,212.88854598999023
1460.132,20.04520034790039,-180.79425048828125,-35.29490280151367,-0.8690699934959412,-0.4246346354484558,0.9971502423286438,-21.520824432373047,35.70115280151367,-155.1526641845703,32.6631965637207,-10.476078033447266,-14.544857025146484,-1.051885962486267,-0.05946512520313263,-0.10760190337896347,-173.84707641601562,81.60234069824219,59.108673095703125,185.29463357144252,1.389210507084348,37.25836129790312,1.0590459616097219,-152.32625198364258,45.901187896728516,214.26133728027344
1483.066,17.226438522338867,-194.45077514648438,-40.75625991821289,-0.8249942064285278,-0.43106114864349365,1.0579116344451904,-20.757314682006836,31.800378799438477,-154.38743591308594,32.656776428222656,-14.013565063476562,-21.093759536743164,-1.0772372484207153,-0.04793389514088631,-0.05324350669980049,-169.93630981445312,81.87541198730469,62.40910720825195,199.42148044218675,1.409115389457151,41.325437007552054,1.0796168851468113,-149.1789951324463,50.07503318786621,216.7965431213379
1493.635,16.02616310119629,-206.0606231689453,-46.26424026489258,-0.7833280563354492,-0.40767180919647217,1.0486842393875122,-20.1175594329834,27.666475296020508,-153.7336883544922,27.58562469482422,-27.724872589111328,-25.897228240966797,-1.139803409576416,-0.02105247974395752,-0.02462584525346756,-164.8586883544922,82.37544250488281,66.9731674194336,211.79754071236977,1.3709623560826032,46.90737341240587,1.1402637640650695,-144.7411289215088,54.708967208862305,220.70685577392578
1522.9379999999999,16.493257522583008,-215.34103393554688,-51.08504867553711,-0.7353063225746155,-0.39647430181503296,1.0439155101776123,-19.557435989379883,23.346866607666016,-153.18394470214844,16.746999740600586,-38.156375885009766,-26.63570785522461,-1.1344704627990723,0.013185368850827217,-0.00467577762901783,-158.86090087890625,83.0186767578125,72.69309997558594,221.93122952464032,1.3370216349810151,49.455353137336964,1.1345567186402405,-139.30346488952637,59.671810150146484,225.87704467773438
1533.051,15.068450927734375,-223.74288940429688,-54.49347686767578,-0.6693891286849976,-0.3817189037799835,1.0296471118927002,-19.085416793823242,18.789514541625977,-152.7017364501953,0.2454836368560791,-47.840057373046875,-25.702991485595703,-1.1194961071014404,0.0009499188745394349,0.021023310720920563,-151.45993041992188,83.76215362548828,80.16194152832031,230.77581717648164,1.2860654346236164,54.3081496921133,1.1196938937740155,-132.37451362609863,64.9726390838623,232.86367797851562
1562.99,14.45242691040039,-231.7760009765625,-57.537208557128906,-0.5797853469848633,-0.34379345178604126,1.0359421968460083,-18.675487518310547,14.034137725830078,-152.274658203125,-16.43368911743164,-50.841514587402344,-23.026914596557617,-1.0967458486557007,-0.00996670126914978,0.039349719882011414,-142.74143981933594,84.45704650878906,89.28974151611328,239.24781637631412,1.2359292946101137,58.1821668502179,1.0974967845659023,-124.06595230102539,70.42290878295898,241.56439971923828
1573.523,10.798176765441895,-236.786376953125,-58.95393371582031,-0.4931041896343231,-0.32690903544425964,0.9665296077728271,-18.380491256713867,9.172438621520996,-151.880859375,-28.941242218017578,-55.76700973510742,-21.780309677124023,-1.0893877744674683,-0.02219705656170845,0.0750366821885109,-131.4977569580078,85.07048797607422,101.19786071777344,244.25387454985125,1.1332258124449486,66.49764481204542,1.0921945505051043,-113.11726570129395,75.89804935455322,253.07872009277344
1595.615,6.492084503173828,-240.56385803222656,-59.19500732421875,-0.35613465309143066,-0.3138846755027771,1.003710389137268,-18.20490837097168,4.232233047485352,-151.49319458007812,-41.40424728393555,-61.778804779052734,-21.63980484008789,-1.0798256397247314,-0.03121752105653286,0.09120970219373703,-116.90234375,85.48429107666016,116.69568634033203,247.82486930221495,1.1103107789759241,77.45459035199066,1.0841204525338088,-98.69743537902832,81.2520580291748,268.18888092041016
1613.118,5.7083964347839355,-241.08287048339844,-57.695858001708984,-0.2945171594619751,-0.24934421479701996,0.8674984574317932,-18.079248428344727,-0.7018057703971863,-151.08908081054688,-56.72962951660156,-64.55322265625,-19.916698455810547,-1.0343748331069946,-0.01698031835258007,0.0800526961684227,-100.8176040649414,85.5755615234375,133.94581604003906,247.9563434577246,0.9494558801317908,88.2158959472608,1.03760689123594,-82.73835563659668,86.27736729383469,285.03489685058594
1634.91,-1.235835313796997,-240.52801513671875,-57.99781036376953,-0.16483217477798462,-0.27577000856399536,0.8802779912948608,-18.125783920288086,-5.631424427032471,-150.69862365722656,-72.9978256225586,-68.21077728271484,-26.859569549560547,-1.0491421222686768,-0.006731454282999039,0.14752714335918427,-85.03802490234375,85.11797332763672,151.16903686523438,247.42473474073728,0.9370742155366037,103.45447868275824,1.0594851406333685,-66.91224098205566,90.74939775466919,301.86766052246094
1657.362,1.7305957078933716,-238.5575408935547,-55.242919921875,-0.13263212144374847,-0.25101786851882935,0.8155406713485718,-18.15300750732422,-10.50605297088623,-150.25906372070312,-82.37688446044922,-73.88276672363281,-30.165950775146484,-1.0372798442840576,-0.040610942989587784,0.10434659570455551,-72.23229217529297,84.2209701538086,165.59347534179688,244.87644941925078,0.8635437664519875,114.6934998084787,1.0433057730519812,-54.07928466796875,94.72702312469482,315.8525390625
1680.702,0.8811770677566528,-235.61837768554688,-53.26716995239258,-0.07582715153694153,-0.229706808924675,0.7685853838920593,-18.241409301757812,-15.312297821044922,-149.78907775878906,-81.90668487548828,-73.85455322265625,-26.473352432250977,-1.008720874786377,-0.10492414236068726,0.11685335636138916,-63.194881439208984,83.12583923339844,176.24502563476562,241.56611469933202,0.8057533538925343,113.4197445245442,1.0208729528069793,-44.95347213745117,98.43813705444336,326.0341033935547
1692.3729999999998,3.5590004920959473,-231.79103088378906,-51.0604248046875,-0.034026261419057846,-0.19768302142620087,0.7289444208145142,-18.324092864990234,-20.031414031982422,-149.28240966796875,-68.88541412353516,-73.86370849609375,-25.886505126953125,-0.9802565574645996,-0.08601146936416626,0.03396717831492424,-56.9293212890625,81.94223022460938,-176.13470458984375,237.375052319968,0.7560399011050656,104.2648495872632,0.9846088870801485,-38.605228424072266,101.9736442565918,-26.852294921875
1714.936,-2.7195470333099365,-223.96566772460938,-49.34737777709961,0.04214994236826897,-0.15183359384536743,0.6594216823577881,-18.57524871826172,-24.59003448486328,-148.7646026611328,-53.91324996948242,-75.84951782226562,-13.780740737915039,-0.9369626045227051,-0.041035525500774384,0.05464300513267517,-50.95368957519531,80.85781860351562,-169.08660888671875,229.35383133680654,0.677987472616732,94.07282653044777,0.9394512731573816,-32.378440856933594,105.4478530883789,-20.322006225585938
1737.839,-10.41621208190918,-215.90301513671875,-49.193336486816406,0.10783062875270844,-0.1462676078081131,0.6960986852645874,-19.014968872070312,-28.992204666137695,-148.25149536132812,-52.023990631103516,-78.15354919433594,-9.346100807189941,-0.9576350450515747,-0.05866037681698799,0.06697869300842285,-45.890777587890625,79.71280670166016,-162.95751953125,221.68128873219467,0.7194268810784037,94.3494698085516,0.9617650776756033,-26.875808715820312,108.70501136779785,-14.706024169921875
1759.887,-13.862747192382812,-206.3861083984375,-48.769256591796875,0.13436147570610046,-0.15829046070575714,0.6101327538490295,-19.559120178222656,-33.20802307128906,-147.73622131347656,-48.264705657958984,-80.12934875488281,-6.495872974395752,-0.9812735319137573,-0.06989367306232452,0.06639206409454346,-41.62400436401367,78.50797271728516,-157.6859588623047,212.5225679500604,0.6444927101401243,93.76774877232866,0.9859973509819268,-22.064884185791016,111.71599578857422,-9.949737548828125
1782.828,-14.879473686218262,-197.7525634765625,-48.874874114990234,0.17644818127155304,-0.16055116057395935,0.5640779137611389,-20.15546989440918,-37.25775146484375,-147.21966552734375,-28.526952743530273,-66.40296173095703,-8.385576248168945,-0.9606492519378662,-0.07471528649330139,0.03576509281992912,-38.87540817260742,77.45482635498047,-154.35304260253906,204.24551015502612,0.6124496131346667,72.75615608653614,0.9642139291407152,-18.719938278198242,114.71257781982422,-7.1333770751953125
1792.4279999999999,-12.886320114135742,-186.15228271484375,-47.75115966796875,0.20235583186149597,-0.10697808861732483,0.5344052314758301,-20.743024826049805,-41.07794952392578,-146.69802856445312,-12.043595314025879,-41.21883773803711,5.011681079864502,-0.9138751029968262,-0.06029176712036133,-0.04064793884754181,-36.56510925292969,76.8607406616211,-151.8111114501953,192.61075477674382,0.5813614586135804,43.23375671635453,0.9167633587750489,-15.822084426879883,117.93869018554688,-5.1130828857421875
1815.912,-16.983396530151367,-173.3159637451172,-46.535484313964844,0.2738714814186096,-0.11940690875053406,0.5116755962371826,-21.43340301513672,-44.6453971862793,-146.1836700439453,0.826145350933075,-9.034361839294434,17.030282974243164,-0.9536858797073364,-0.055455323308706284,-0.08414579182863235,-34.90757751464844,76.9254379272461,-150.1956787109375,180.25651263389736,0.5925162562972078,19.29592568826291,0.9589956018245843,-13.474174499511719,121.57083511352539,-4.0120086669921875
1837.39,-16.564210891723633,-162.06324768066406,-44.9076042175293,0.32087022066116333,-0.11697522550821304,0.4763755798339844,-22.150543212890625,-47.98719787597656,-145.6515655517578,13.366192817687988,33.947181701660156,24.877723693847656,-0.9316658973693848,0.002504706382751465,-0.09538063406944275,-34.5401725769043,77.77144622802734,-150.17669677734375,168.9839112099966,0.5861523649632455,44.158435118475076,0.9365388850606544,-12.389629364013672,125.7586441040039,-4.5251312255859375
1860.136,-19.843801498413086,-149.90023803710938,-42.05192184448242,0.38850611448287964,-0.1217309832572937,0.434781938791275,-22.958791732788086,-51.05739212036133,-145.09849548339844,6.334743022918701,74.33638000488281,28.50726890563965,-0.9116648435592651,-0.032496821135282516,-0.09234903007745743,-36.367130279541016,79.32357788085938,-152.25015258789062,156.946557631268,0.5956431545602383,79.86670609118174,0.9169063058579568,-13.40833854675293,130.3809700012207,-7.1516571044921875
1883.203,-23.44275665283203,-138.53671264648438,-37.90414047241211,0.4908124804496765,-0.10649546980857849,0.3634911775588989,-23.8848934173584,-53.902565002441406,-144.49110412597656,4.7437849044799805,109.07893371582031,33.40134811401367,-0.8569669723510742,-0.035989806056022644,-0.06940635293722153,-41.238365173339844,81.4640121459961,-157.36276245117188,145.52906051827185,0.6199709769159109,114.17691242818671,0.8605259436348001,-17.353471755981445,135.3665771484375,-12.871658325195312
1892.29,-26.844993591308594,-125.9383773803711,-33.52597427368164,0.5953517556190491,-0.14798055589199066,0.32072073221206665,-25.04663848876953,-56.514923095703125,-143.73373413085938,4.662851810455322,140.0400390625,33.418304443359375,-0.8966326117515564,-0.06880892813205719,-0.0802631825208664,-53.85323715209961,83.93846893310547,-170.14883422851562,133.06058593406888,0.6922454376241354,144.0476927947888,0.9028437780233509,-28.806598663330078,140.4533920288086,-26.41510009765625
1914.618,-24.294530868530273,-112.8240966796875,-28.599285125732422,0.6795080900192261,-0.18468333780765533,0.2655828893184662,-26.31259536743164,-58.83016586303711,-142.8300323486328,7.639591693878174,158.4489288330078,26.760149002075195,-0.9220037460327148,-0.08139795064926147,-0.06810347735881805,-84.45701599121094,85.70740509033203,159.13113403320312,118.90088364437155,0.7525778702327739,160.87427384199754,0.9280919230855431,-58.1444206237793,144.53757095336914,301.96116638183594
1938.153,-23.314332962036133,-99.50194549560547,-23.707735061645508,0.7983556389808655,-0.18102023005485535,0.21665668487548828,-27.616262435913086,-60.84214782714844,-141.86801147460938,6.412720203399658,153.36448669433594,23.555112838745117,-0.9556524157524109,-0.0888458639383316,-0.06145697087049484,-123.52951049804688,85.38347625732422,119.803955078125,104.91068573137963,0.8468058626880752,155.29530611151856,0.9617390948385868,-95.91324806213379,146.22562408447266,261.6719665527344
1959.5849999999998,-25.326366424560547,-83.88388061523438,-20.407377243041992,0.860123872756958,-0.2023513913154602,0.17414431273937225,-28.928377151489258,-62.51347351074219,-140.95509338378906,10.919248580932617,134.144775390625,16.64197540283203,-0.9530342221260071,-0.09561210125684738,-0.08449133485555649,-145.17840576171875,83.65022277832031,97.6772232055664,89.96883521132098,0.9006028001917374,135.61344365320826,0.9615376685890921,-116.25002861022949,146.1636962890625,238.63231658935547
1982.962,-24.33877182006836,-70.28138732910156,-16.933259963989258,0.9410538673400879,-0.2342624068260193,0.10676179081201553,-30.203453063964844,-63.903785705566406,-140.07411193847656,12.694051742553711,90.6295166015625,5.911264419555664,-0.9979212284088135,-0.129473477602005,-0.06017610430717468,-152.73426818847656,82.13385009765625,89.72981262207031,76.27964677173455,0.975632787715257,91.7049141328502,1.0080829941234501,-122.53081512451172,146.03763580322266,229.80392456054688
1992.178,-24.564254760742188,-56.310001373291016,-13.610788345336914,1.0078679323196411,-0.24436502158641815,0.043801289051771164,-31.410669326782227,-65.01106262207031,-139.28257751464844,7.073253154754639,51.364891052246094,-1.1297663450241089,-1.0538136959075928,-0.14788074791431427,-0.04900244623422623,-155.0882110595703,81.21588134765625,87.18030548095703,62.92433889992203,1.0379935383689998,51.861925484836235,1.0652667558048807,-123.67754173278809,146.22694396972656,226.46288299560547
2020.4529999999997,-24.490989685058594,-41.72767639160156,-9.731307029724121,1.0541155338287354,-0.23631301522254944,0.013607027009129524,-32.503196716308594,-65.82267761230469,-138.6213836669922,1.5922406911849976,17.501916885375977,-3.7034332752227783,-1.051526665687561,-0.15836945176124573,-0.06331676989793777,-155.15835571289062,80.88674926757812,87.06928253173828,49.352871135351656,1.0803650082294594,17.96017102104825,1.0652690858433214,-122.65515899658203,146.7094268798828,225.69066619873047
2042.0060000000003,-29.404937744140625,-26.52153968811035,-4.879570484161377,1.058174729347229,-0.2379143238067627,0.005927944090217352,-33.5566520690918,-66.321044921875,-138.11328125,-2.402435302734375,-3.4806857109069824,-6.543023109436035,-1.0277833938598633,-0.16512851417064667,-0.08957722783088684,-153.91212463378906,80.90140533447266,88.4145736694336,39.89802801235542,1.0846068982920252,7.790893389884786,1.044811088490245,-120.35547256469727,147.22245025634766,226.5278549194336
2052.134,-28.55206871032715,-11.135977745056152,-0.20445671677589417,1.032814383506775,-0.2613183856010437,0.018916670233011246,-34.403785705566406,-66.50822448730469,-137.81228637695312,-3.583444833755493,-17.70777702331543,-9.363525390625,-1.0140475034713745,-0.1525421291589737,-0.0983651801943779,-151.60670471191406,81.13545227050781,90.8619155883789,30.64755178683386,1.0655283618207072,20.3490061606189,1.03016365162995,-117.20291900634766,147.6436767578125,228.67420196533203
2076.969,-26.075653076171875,3.9488658905029297,2.9677734375,1.007881999015808,-0.24355536699295044,0.03284275531768799,-34.93344497680664,-66.4095458984375,-137.8030242919922,-1.6300486326217651,-29.3524169921875,-12.706226348876953,-0.9907143115997314,-0.1244664117693901,-0.10477607697248459,-148.09617614746094,81.51961517333984,94.47145080566406,26.53942170331486,1.0374121588394989,32.026077341080416,1.0039844426947169,-113.1627311706543,147.92916107177734,232.27447509765625
2101.969,-23.357202529907227,20.297468185424805,4.816961288452148,0.9700700044631958,-0.23325292766094208,0.05210231617093086,-35.0515251159668,-66.02159881591797,-138.18336486816406,-0.6220025420188904,-42.29209518432617,-14.602721214294434,-0.9535062313079834,-0.09878867864608765,-0.1198459267616272,-143.13333129882812,82.05007934570312,99.52801513671875,31.316916208590577,0.9990782717945582,44.74648219809897,0.966072658930552,-108.08180618286133,148.0716781616211,237.7113800048828
2112.474,-22.663049697875977,38.642112731933594,6.485702991485596,0.9422289133071899,-0.20996196568012238,0.04921554774045944,-34.76219177246094,-65.31241607666016,-138.99681091308594,3.6786108016967773,-55.25373458862305,-14.954951286315918,-0.9191005825996399,-0.08738992363214493,-0.1327526867389679,-136.20172119140625,82.68822479248047,106.48867797851562,45.264677633775605,0.9665927385635081,57.359898286141,0.9327412050101808,-101.43952941894531,148.00064086914062,245.48548889160156
2135.085,-21.61854362487793,56.73042678833008,9.508739471435547,0.8882699608802795,-0.2040637731552124,0.05547764524817467,-34.16550827026367,-64.26960754394531,-140.1311492919922,9.300657272338867,-70.45011138916016,-16.279300689697266,-0.9254319667816162,-0.10480263084173203,-0.12120252102613449,-125.8557357788086,83.35314178466797,116.76897430419922,61.450133265782796,0.913095458338764,72.9022362578005,0.9392007068117705,-91.69022750854492,147.62274932861328,256.9001235961914
2152.951,-21.050739288330078,74.56636047363281,13.081161499023438,0.8523710370063782,-0.20068137347698212,0.041660577058792114,-33.357479095458984,-62.88386154174805,-141.50047302246094,10.373456954956055,-81.57757568359375,-18.057212829589844,-0.9001514911651611,-0.10087656229734421,-0.09103553742170334,-111.79801940917969,83.81419372558594,130.75387573242188,78.57730286178399,0.8766669847033183,84.19366008662348,0.9103495246011014,-78.4405403137207,146.69805526733398,272.2543487548828
2174.511,-21.077838897705078,96.41575622558594,18.177900314331055,0.7999808192253113,-0.22413718700408936,0.022750282660126686,-32.38771057128906,-61.066368103027344,-143.07302856445312,8.042771339416504,-100.92489624023438,-21.610050201416016,-0.9973717331886292,-0.11709537357091904,0.0030289371497929096,-92.74183654785156,83.81311798095703,149.7287139892578,100.35292422738353,0.8310982884638988,103.52543224554985,1.0042265058918036,-60.3541259765625,144.87948608398438,292.80174255371094
2192.198,-16.890235900878906,115.06133270263672,26.632421493530273,0.7290739417076111,-0.21983066201210022,0.07425296306610107,-31.405832290649414,-58.8308219909668,-144.5936279296875,-2.567930221557617,-118.98191833496094,-27.88351058959961,-1.0240461826324463,-0.125291645526886,0.03383138030767441,-73.21511840820312,82.92903137207031,169.3646240234375,119.30497150874832,0.7651064206774422,122.23248880346999,1.032236960632801,-41.80928611755371,141.7598533630371,313.958251953125
2214.5260000000003,-16.730220794677734,132.09654235839844,30.596040725708008,0.6874426603317261,-0.22256962954998016,0.09840437769889832,-30.432846069335938,-56.24971389770508,-146.1396484375,-8.9651460647583,-115.78057098388672,-31.819141387939453,-0.9921594858169556,-0.09820710122585297,0.049329787492752075,-59.899513244628906,81.40544891357422,-177.07887268066406,136.6217936457138,0.729244864769224,120.40752559530057,0.9982276834278995,-29.46666717529297,137.6551628112793,-30.939224243164062
2238.19,-17.62074089050293,145.89630126953125,39.38568878173828,0.6378797292709351,-0.2333267331123352,0.1815062016248703,-29.69493293762207,-53.339107513427734,-147.47628784179688,-5.342459678649902,-91.28811645507812,-34.95317840576172,-0.8977206945419312,-0.07804808020591736,-0.0663430318236351,-53.26298522949219,79.8222885131836,-170.29901123046875,152.1428727034954,0.7030479461800059,97.89681691453973,0.9035459844989785,-23.568052291870117,133.16139602661133,-22.822723388671875
2251.8340000000003,-11.078343391418457,157.41180419921875,46.485836029052734,0.5666881203651428,-0.2447442263364792,0.2569591701030731,-29.024925231933594,-50.16658020019531,-148.6278076171875,-17.143590927124023,-56.690673828125,-47.290164947509766,-0.9169227480888367,-0.1475062221288681,-0.034435905516147614,-52.23834991455078,78.4113540649414,-168.92877197265625,164.50574076569893,0.6686278315984763,75.78980742636907,0.9293499034907317,-23.213424682617188,128.57793426513672,-20.30096435546875
2274.283,-2.8321967124938965,170.61647033691406,53.676029205322266,0.4938257038593292,-0.22380223870277405,0.2523600459098816,-28.31220054626465,-46.6771125793457,-149.66171264648438,-44.61909866333008,-32.032371520996094,-57.86996078491211,-0.9267441630363464,-0.22506409883499146,0.01416869554668665,-54.303279876708984,77.10043334960938,-170.1686553955078,178.88297124012655,0.5980274747970806,79.7863970363017,0.9537868442371387,-25.991079330444336,123.77754592895508,-20.506942749023438
2298.344,-3.380178451538086,182.2015380859375,62.984046936035156,0.45511484146118164,-0.19635021686553955,0.34660810232162476,-27.795398712158203,-42.909751892089844,-150.4971466064453,-50.86282730102539,-14.78590202331543,-60.71855163574219,-0.9061766862869263,-0.2042168229818344,0.08761151134967804,-57.25692367553711,75.92415618896484,-172.2242889404297,192.81031159065702,0.6048306400773515,80.57538465585695,0.9330254414964916,-29.461524963378906,118.83390808105469,-21.727142333984375
2319.377,-1.367285132408142,194.3167724609375,75.6139907836914,0.34538519382476807,-0.2645663619041443,0.40263885259628296,-27.481111526489258,-38.71391296386719,-151.06893920898438,-47.62488555908203,6.651805877685547,-58.05159378051758,-0.9189528822898865,-0.2095300555229187,0.0839744508266449,-61.02779006958008,75.0013427734375,-175.20974731445312,208.51463529091964,0.592793672018029,75.38145518898067,0.9462710776664179,-33.54667854309082,113.71525573730469,-24.14080810546875
2331.7290000000003,1.5175845623016357,199.81854248046875,83.2242202758789,0.2590620517730713,-0.1480216681957245,0.4614756107330322,-27.175260543823242,-34.383056640625,-151.51608276367188,-48.81865692138672,20.115718841552734,-40.98405456542969,-0.8884212970733643,-0.2324904352426529,0.08555397391319275,-64.75035095214844,74.45175170898438,-178.13731384277344,216.46252290512243,0.5495300721759854,66.8400788205892,0.9223143097801185,-37.575090408325195,108.83480834960938,-26.621231079101562
2354.2070000000003,-7.901507377624512,206.56935119628906,87.23439025878906,0.1720532774925232,-0.1934119313955307,0.5441746115684509,-27.124095916748047,-29.913293838500977,-151.90716552734375,-46.11548614501953,28.346038818359375,-32.12189483642578,-0.8978680372238159,-0.21543952822685242,0.1417725384235382,-68.33158874511719,74.08763885498047,179.0716094970703,224.3728359590732,0.6026080926918781,62.94403948719705,0.934173782142172,-41.20749282836914,104.00093269348145,330.97877502441406
2377.152,-9.910978317260742,212.18345642089844,94.40084075927734,0.03714730963110924,-0.23722288012504578,0.5943248271942139,-27.186599731445312,-25.27859115600586,-152.19700622558594,-38.21046447753906,39.701725006103516,-7.662537574768066,-0.8744685649871826,-0.17144420742988586,0.1410427689552307,-71.7332534790039,74.24089050292969,176.25083923339844,232.44690878990616,0.6409965816500768,55.63255383437176,0.9022092052770038,-44.546653747558594,99.51948165893555,328.4478454589844
2399.268,-7.474357604980469,210.09283447265625,90.24532318115234,0.06835799664258957,-0.19031888246536255,0.6850481033325195,-27.203563690185547,-20.719175338745117,-152.53646850585938,-35.305240631103516,57.04222869873047,15.280038833618164,-0.8737220764160156,-0.17282968759536743,0.11823286861181259,-75.93920135498047,74.88201141357422,172.5333709716797,228.77736661311735,0.7142723546430556,68.8022925322643,0.8984650126472395,-48.73563766479492,95.60118675231934,325.06983947753906
2422.447,-8.620660781860352,213.50189208984375,90.97949981689453,-0.03154623880982399,-0.2927253246307373,0.7534828186035156,-27.26466941833496,-16.092914581298828,-152.89013671875,-26.635976791381836,51.15072250366211,26.031476974487305,-0.9817792177200317,-0.14444303512573242,0.19910356402397156,-79.69927978515625,75.62849426269531,169.12799072265625,232.23833254911105,0.8089620750034673,63.273291883313135,1.0121247215389706,-52.43461036682129,91.72140884399414,322.01812744140625
2431.651,-9.608872413635254,215.5319061279297,90.77667236328125,-0.08644191175699234,-0.20216086506843567,0.7013562917709351,-27.36781120300293,-11.43277359008789,-153.2626953125,-22.623435974121094,54.36457443237305,35.15437316894531,-0.9058288335800171,-0.1385006606578827,0.1122981533408165,-83.89183044433594,76.52104187011719,165.2235870361328,234.06566863500234,0.735011474386692,68.57956518810576,0.9232113430798832,-56.52401924133301,87.95381546020508,318.4862823486328
2454.107,-30.1265926361084,219.63796997070312,92.85493469238281,-0.17427220940589905,-0.20281486213207245,0.7548204064369202,-27.908052444458008,-6.682736396789551,-153.65652465820312,-11.547351837158203,62.91560363769531,43.798927307128906,-0.9309441447257996,-0.2232772707939148,0.06368174403905869,-89.18707275390625,77.47183227539062,159.97567749023438,240.3549215918829,0.8007861869728163,77.52458028781493,0.9594608406684901,-61.27902030944824,84.15456867218018,313.6322021484375
2476.9359999999997,-36.71601104736328,218.66493225097656,94.25894165039062,-0.20644059777259827,-0.3716539442539215,0.8324878215789795,-28.61062240600586,-1.9413185119628906,-154.06732177734375,12.558865547180176,63.297916412353516,49.9697380065918,-1.0198893547058105,-0.22661109268665314,0.08605369925498962,-94.76012420654297,78.43184661865234,154.0100555419922,240.92979505367538,0.9347621878133066,81.61694702955303,1.0482996338482342,-66.14950180053711,80.37316513061523,308.07737731933594
2499.172,-34.09321594238281,217.8499755859375,100.19747924804688,-0.3604801893234253,-0.3381362855434418,0.8352615237236023,-29.294939041137695,2.837985038757324,-154.42149353027344,9.740615844726562,45.75566101074219,50.05701446533203,-1.0536787509918213,-0.11073922365903854,0.0345328226685524,-99.67508697509766,79.3738021850586,148.79978942871094,242.19928588612785,0.9705379577887937,68.51397528057288,1.0600446225464986,-70.38014793395996,76.53581714630127,303.2212829589844
2522.334,-39.968780517578125,215.91432189941406,103.72019958496094,-0.4672718644142151,-0.3413064777851105,0.7786054015159607,-30.1240291595459,7.613700866699219,-154.75914001464844,19.64704132080078,50.04767990112305,54.956600189208984,-0.9700218439102173,-0.132395401597023,-0.03938644006848335,-106.06815338134766,80.25401306152344,141.9120330810547,242.8464074663042,0.9700822018370634,76.88305665426613,0.9798072319024203,-75.94412422180176,72.64031219482422,296.6711730957031
2532.72,-47.73987579345703,213.13436889648438,107.24298095703125,-0.5417622327804565,-0.4699307978153229,0.8264968395233154,-31.13513946533203,12.371386528015137,-155.08956909179688,26.001279830932617,54.618682861328125,47.26778793334961,-1.0649936199188232,-0.26940611004829407,0.03817649185657501,-113.297119140625,80.7545394897461,134.0523681640625,243.3236772495179,1.0942752383859558,76.76920506599579,1.0992035785647842,-82.16197967529297,68.38315296173096,289.1419372558594
2559.83,-40.438140869140625,206.76699829101562,112.49652099609375,-0.5577681064605713,-0.4313552677631378,0.846150815486908,-32.00811004638672,17.069564819335938,-155.33346557617188,23.80661964416504,53.34136962890625,40.26013946533203,-1.061416506767273,-0.25189492106437683,-0.027129000052809715,-120.63362121582031,80.95928955078125,126.12825775146484,238.83739668538902,1.1014280866950774,70.94318630099393,1.0912341796057958,-88.6255111694336,63.88972473144531,281.4617233276367
2581.651,-50.80426025390625,204.32650756835938,121.263671875,-0.7294819355010986,-0.43640321493148804,0.8096937537193298,-33.07700729370117,21.816133499145508,-155.47161865234375,37.566864013671875,41.733272552490234,34.80015182495117,-1.0799877643585205,-0.12995606660842896,-0.010901795700192451,-126.455810546875,81.11015319824219,119.4500732421875,242.97175282661382,1.1739657725151387,66.06047136375733,1.0878331671547519,-93.37880325317383,59.29401969909668,274.92169189453125
2591.7799999999997,-53.05213165283203,200.4403533935547,119.66775512695312,-0.8017663359642029,-0.4879130721092224,0.7507283687591553,-34.24101257324219,26.476318359375,-155.6970977783203,34.366573333740234,29.843908309936523,31.914691925048828,-1.0443345308303833,-0.05682956054806709,0.006072130985558033,-131.16993713378906,81.30400848388672,113.96890258789062,239.39765153101843,1.2018658440442946,55.59017706920909,1.0458972616904154,-96.92892456054688,54.82769012451172,269.66600036621094
2621.5989999999997,-43.39442443847656,196.27685546875,112.71759033203125,-0.8731491565704346,-0.5827344655990601,0.7619356513023376,-35.32172393798828,30.98357391357422,-156.17559814453125,28.57249641418457,3.737614870071411,45.73866271972656,-0.9879506826400757,0.010638847947120667,-0.04370315745472908,-135.3446502685547,82.00048065185547,109.18665313720703,230.46243779693657,1.2971178989367933,54.05906569341051,0.9889740655781355,-100.0229263305664,51.01690673828125,265.3622512817383
2631.7659999999996,-30.19917869567871,190.083740234375,105.33143615722656,-0.975242018699646,-0.5351978540420532,0.7882258296012878,-36.26375198364258,35.29644012451172,-156.79739379882812,13.99958610534668,-15.690403938293457,39.63187789916992,-1.0624589920043945,-0.01211855560541153,-0.04938523471355438,-137.83438110351562,82.83932495117188,106.42633819580078,219.40494556487732,1.363390515024664,44.864941019492534,1.0636751715108652,-101.57062911987305,47.542884826660156,263.2237319946289
2661.385,-21.925045013427734,184.5703582763672,93.99267578125,-1.0277371406555176,-0.5250436663627625,0.7363343834877014,-37.238433837890625,39.37677001953125,-157.73049926757812,10.487520217895508,-30.69051742553711,48.22886276245117,-0.9770293235778809,0.05985976755619049,-0.1667199581861496,-140.78228759765625,83.96349334716797,103.29995727539062,208.28237528323552,1.3689787456993787,58.11986875008677,0.9929577208323243,-103.54385375976562,44.58672332763672,261.03045654296875
2671.767,-13.94338321685791,175.52294921875,83.61936950683594,-1.129185438156128,-0.5930658578872681,0.662931501865387,-38.24284362792969,43.17451477050781,-158.85513305664062,3.235450506210327,-24.305429458618164,52.9921875,-0.9197484850883484,0.027594568207859993,-0.2959021329879761,-146.406982421875,85.01311492919922,97.619140625,194.92286319131682,1.4374508832307646,58.39001607450675,0.966569608628227,-108.16413879394531,41.838600158691406,256.4742736816406
2694.682,-8.619951248168945,161.8706817626953,77.52603912353516,-1.180238127708435,-0.5725594758987427,0.6655439138412476,-39.25025939941406,46.7147331237793,-160.08450317382812,-2.426422119140625,-5.202661991119385,45.390464782714844,-0.955459713935852,-0.10296455025672913,-0.30568450689315796,-155.13401794433594,85.56932067871094,88.9283447265625,179.68502418405518,1.470964001187412,45.752043771671765,1.0084383874677043,-115.88375854492188,38.85458755493164,249.01284790039062
2711.486,-3.329695224761963,145.52503967285156,74.27306365966797,-1.1412484645843506,-0.5994551181793213,0.6198205947875977,-40.16145706176758,49.95074462890625,-161.1904754638672,-9.704222679138184,7.429350852966309,33.60082244873047,-1.0203689336776733,-0.14939828217029572,-0.25274133682250977,-163.76255798339844,85.64976501464844,80.44481658935547,163.41698818503514,1.4303747992573042,35.75447470085221,1.0617677669192904,-123.60110092163086,35.69902038574219,241.63529205322266
2733.7850000000003,-2.0535967350006104,131.8634033203125,72.38954162597656,-1.1285018920898438,-0.5560775399208069,0.6050971746444702,-40.99393844604492,52.921897888183594,-162.2692108154297,-4.715366840362549,16.891538619995117,31.47736930847168,-1.049538493156433,-0.07247249782085419,-0.21763280034065247,-172.15896606445312,85.3755874633789,72.0685043334961,150.44075289490013,1.396023402961947,36.033089514665434,1.0743124998535503,-131.1650276184082,32.45368957519531,234.33771514892578
2751.325,1.9233386516571045,119.89094543457031,67.4073486328125,-1.0875046253204346,-0.4943965971469879,0.5767680406570435,-41.743892669677734,55.6219482421875,-163.241943359375,1.2093274593353271,20.57257652282715,31.369239807128906,-1.0007416009902954,-0.006012422498315573,-0.20523548126220703,-179.62252807617188,84.94226837158203,64.50167846679688,137.55467523304907,1.3265578306607009,37.532953304644735,1.0215877367832131,-137.87863540649414,29.32032012939453,227.74362182617188
2773.768,-0.03138783574104309,107.40827178955078,60.03554153442383,-1.1305190324783325,-0.4833219647407532,0.5601924061775208,-42.57486343383789,58.02152633666992,-164.28216552734375,-1.6628227233886719,27.184608459472656,36.88399887084961,-0.9933217763900757,0.07494017481803894,-0.23564881086349487,172.79913330078125,84.2856674194336,56.861968994140625,123.04797471452251,1.351106559948388,45.84972507233915,1.023637896579583,215.37399673461914,26.264141082763672,221.14413452148438
2796.811,2.6875603199005127,90.0060806274414,52.69689178466797,-1.1401313543319702,-0.4753079414367676,0.5331329703330994,-43.26511001586914,60.0478630065918,-165.18861389160156,-14.91373062133789,37.016265869140625,27.26468276977539,-0.9622678160667419,0.010169383138418198,-0.3014759421348572,168.6905975341797,83.42650604248047,52.97970199584961,104.3325449423697,1.3453802095987228,48.3320414060613,1.008439641167171,211.95570755004883,23.378643035888672,218.16831588745117
2817.031,6.565340042114258,69.86038970947266,47.342010498046875,-1.1208895444869995,-0.45751816034317017,0.4922385811805725,-43.61834716796875,61.696876525878906,-165.7438507080078,-6.0627121925354,45.9708251953125,27.867664337158203,-0.9780245423316956,-0.025486722588539124,-0.35533106327056885,165.87709045410156,82.39010620117188,50.22621154785156,84.6453997463841,1.306910501444814,54.09879817404463,1.0408850767286564,209.4954376220703,20.69322967529297,215.97006225585938
2838.793,5.085636615753174,52.02028274536133,42.76073455810547,-1.1011593341827393,-0.4445354640483856,0.5043308734893799,-43.680477142333984,63.00359344482422,-165.9979248046875,4.7945051193237305,51.38530731201172,26.109966278076172,-1.0514729022979736,-0.029417499899864197,-0.29756906628608704,164.531982421875,81.2149887084961,48.727535247802734,67.53113309166064,1.2901601792060737,57.83742236589889,1.0931642158329444,208.21245956420898,18.211395263671875,214.72546005249023
2851.2909999999997,0.9932712316513062,36.2592658996582,39.19984436035156,-1.0530414581298828,-0.4749118685722351,0.4908836781978607,-43.53028869628906,64.005859375,-165.91661071777344,2.886476755142212,50.41636657714844,20.610469818115234,-1.0908206701278687,-0.010126017965376377,-0.20799069106578827,164.05177307128906,80.11327362060547,48.14836883544922,53.40738478148437,1.2551511386969072,54.54294851786824,1.110518976959904,207.58206176757812,16.10741424560547,214.06497955322266
2873.654,3.574130058288574,24.78618049621582,35.58209228515625,-1.0069149732589722,-0.4971185326576233,0.5782706141471863,-43.08598327636719,64.84353637695312,-165.56747436523438,-1.5939768552780151,44.83600997924805,17.97815704345703,-1.0678651332855225,0.029623087495565414,-0.15055902302265167,163.54159545898438,79.16696166992188,47.6453742980957,43.51108411260201,1.263092040221515,48.33241855890926,1.0788333928893803,206.62757873535156,14.32342529296875,213.21284866333008
2896.853,18.970447540283203,14.808868408203125,29.432714462280273,-0.9156796932220459,-0.5020163655281067,0.6251844763755798,-42.20633316040039,65.46046447753906,-165.07321166992188,-0.22667677700519562,39.16309356689453,19.111980438232422,-1.0419591665267944,0.03371945023536682,-0.09862843155860901,162.8307647705078,78.35663604736328,46.904747009277344,38.019273323253245,1.2171053205611573,43.57828675340448,1.0471597173044325,205.0370979309082,12.896171569824219,211.97795867919922
2918.838,26.220983505249023,7.374444484710693,19.787677764892578,-0.8996490240097046,-0.5791383981704712,0.625449001789093,-41.247520446777344,65.8341064453125,-164.64151000976562,6.433021545410156,27.603044509887695,18.188674926757812,-1.0889312028884888,0.008501099422574043,-0.08335386216640472,162.15234375,77.79368591308594,46.084228515625,33.667114500174286,1.2393369616355538,33.6769910771408,1.0921498521968585,203.39986419677734,11.959579467773438,210.72573852539062
2941.2850000000003,35.60354995727539,-1.4687144756317139,10.767842292785645,-0.9148327708244324,-0.5679717063903809,0.6327542066574097,-40.12908172607422,65.95225524902344,-164.2181854248047,15.785694122314453,18.285207748413086,14.552867889404297,-1.0585522651672363,0.0026593031361699104,-0.1413937658071518,161.8301544189453,77.40515899658203,45.4368896484375,37.22521080415043,1.2489550607916031,28.201470265437468,1.0679570061537986,201.95923614501953,11.452903747558594,209.6550750732422
2951.113,40.19118118286133,-10.717288970947266,1.1609067916870117,-0.9294398427009583,-0.5280466079711914,0.6098052263259888,-38.981815338134766,65.80162811279297,-163.84616088867188,20.405635833740234,6.003671169281006,12.150510787963867,-1.0713380575180054,0.04816330969333649,-0.1515408158302307,161.39146423339844,77.25660705566406,44.58358383178711,41.6117655518167,1.230672196583783,24.496304898831287,1.083074123386558,200.3732795715332,11.454978942871094,208.42974472045898
2973.46,39.28252410888672,-20.92237091064453,-9.322355270385742,-0.9792473316192627,-0.5563533902168274,0.5941927433013916,-37.94557571411133,65.35774230957031,-163.58590698242188,15.092854499816895,-1.2195544242858887,5.867013931274414,-1.047690510749817,0.03974323347210884,-0.19233417510986328,161.228271484375,77.26472473144531,44.125240325927734,45.4727238317119,1.273388961582924,16.238947700396306,1.065939663319281,199.17384719848633,11.906982421875,207.7111473083496
2996.721,41.38037872314453,-32.150997161865234,-17.884387969970703,-1.0174059867858887,-0.5276690721511841,0.5804233551025391,-36.890472412109375,64.62931823730469,-163.34646606445312,16.8541259765625,-6.046041965484619,2.3635435104370117,-1.027083396911621,0.01134978886693716,-0.26498904824256897,161.3784942626953,77.35273742675781,43.95020294189453,55.370332262264526,1.284694852017843,18.06107759265678,1.060777223363766,198.2689666748047,12.723419189453125,207.29666900634766
3018.089,38.56915283203125,-48.084266662597656,-22.802183151245117,-1.0568246841430664,-0.4052158296108246,0.6058222651481628,-35.67405700683594,63.49694061279297,-162.84976196289062,21.90189552307129,-6.790238380432129,-0.7544853687286377,-0.9971756935119629,-0.0031208284199237823,-0.3276832103729248,161.95465087890625,77.44093322753906,44.07957458496094,65.7237841814005,1.2837830418456742,22.94274641228136,1.04964060023486,197.6287078857422,13.943992614746094,206.92933654785156
3038.506,33.45217514038086,-66.25578308105469,-26.554481506347656,-1.0792287588119507,-0.4050563871860504,0.6724054217338562,-34.325069427490234,62.018516540527344,-162.09283447265625,26.82750701904297,-4.8596601486206055,-4.28553581237793,-1.0185388326644897,0.05824486166238785,-0.28603458404541016,162.80300903320312,77.52671813964844,44.4005012512207,78.82903844001554,1.3345165573435513,27.59886314354388,1.0595421656666821,197.12807846069336,15.508201599121094,206.49333572387695
3061.9719999999998,32.66982650756836,-83.35357666015625,-30.059097290039062,-1.0718140602111816,-0.44143006205558777,0.7578802704811096,-32.90641403198242,60.29686737060547,-161.17791748046875,19.329727172851562,-6.242021560668945,-7.604190826416016,-1.0682004690170288,0.09916310012340546,-0.20944133400917053,163.6023712158203,77.69451904296875,44.83641052246094,94.43879306708232,1.3849290175807922,21.68928085173138,1.0930467669893296,196.50878524780273,17.39765167236328,206.0143280029297
3071.115,35.945777893066406,-100.0571517944336,-33.986663818359375,-1.060291051864624,-0.4197967052459717,0.8070496320724487,-31.343008041381836,58.20634460449219,-160.14601135253906,11.74439811706543,-10.44638442993164,-11.715035438537598,-1.0794873237609863,0.0782601460814476,-0.18442204594612122,164.552001953125,77.97940826416016,45.58320999145508,111.61821487129315,1.3970595896481435,19.603568300598745,1.0979203175350656,195.89500999450684,19.77306365966797,205.72922134399414
3098.56,36.091670989990234,-116.46627044677734,-37.47669219970703,-1.0275651216506958,-0.38433417677879333,0.8175066113471985,-29.73029899597168,55.73639678955078,-159.0670928955078,11.066115379333496,-13.13424301147461,-13.423333168029785,-1.0447030067443848,0.053054939955472946,-0.1884661316871643,165.675537109375,78.31759643554688,46.5214958190918,127.55980293518475,1.368181237362076,21.79800730372204,1.0628916603998548,195.40583610534668,22.581199645996094,205.5885887145996
3121.134,37.044189453125,-132.3912353515625,-39.4886474609375,-1.0241572856903076,-0.4180883467197418,0.8270872831344604,-28.143346786499023,52.97091293334961,-158.02899169921875,15.821853637695312,-13.687189102172852,-14.826330184936523,-1.015390396118164,0.03907901421189308,-0.1921885758638382,167.1035919189453,78.66229248046875,47.67500686645508,143.03518605030735,1.381220252319712,25.64157297835005,1.0341572774841097,195.24693870544434,25.69137954711914,205.70399856567383
3131.368,39.45216751098633,-147.8479766845703,-42.77699279785156,-1.0077712535858154,-0.39371588826179504,0.8522849082946777,-26.575199127197266,49.90656280517578,-157.01559448242188,22.361433029174805,-14.92068099975586,-16.954851150512695,-1.0039002895355225,0.03756256774067879,-0.18560832738876343,168.91477966308594,79.03288269042969,49.08983612060547,158.88791283122708,1.377317924493313,31.7825012569934,1.021605202130859,195.4899787902832,29.126319885253906,206.10543060302734
3159.764,40.0942497253418,-163.2570343017578,-45.68204879760742,-0.9636313319206238,-0.35132932662963867,0.9369431734085083,-25.047199249267578,46.5266227722168,-156.0762939453125,23.721752166748047,-13.839056015014648,-19.86613655090332,-1.0149496793746948,0.03279075026512146,-0.14016187191009521,171.15586853027344,79.40506744384766,50.91004943847656,174.20464314245584,1.3892012632466026,33.89549201157089,1.0251065482685628,196.20306777954102,32.87844467163086,206.98634338378906
3181.031,35.5230598449707,-178.63687133789062,-47.361793518066406,-0.9547365307807922,-0.35676321387290955,1.0033622980117798,-23.683019638061523,42.85336685180664,-155.1837615966797,24.609533309936523,-17.896039962768555,-21.782442092895508,-1.0419222116470337,0.04955896735191345,-0.13209137320518494,173.63706970214844,79.8504867553711,52.95644760131836,188.19181456000527,1.4302229669012274,37.421546729287265,1.0514305099452201,197.32008934020996,36.99711990356445,208.14020919799805
3191.357,36.308013916015625,-193.6419677734375,-50.47340393066406,-0.9770406484603882,-0.37829339504241943,0.9518676400184631,-22.433963775634766,38.921836853027344,-154.39776611328125,19.885183334350586,-18.331382751464844,-23.033100128173828,-1.0420944690704346,0.03905700147151947,-0.12614226341247559,176.36546325683594,80.28929901123047,55.348976135253906,203.37907478903173,1.4155445332418668,35.52441148472298,1.0504276283733018,198.7994270324707,41.367462158203125,209.74674224853516
3220.981,35.039180755615234,-206.2486572265625,-54.89506530761719,-0.9549267888069153,-0.3357231616973877,0.9349927306175232,-21.32601547241211,34.75473403930664,-153.740478515625,18.915502548217773,-23.66571617126465,-24.804948806762695,-1.0278112888336182,0.017102980986237526,-0.15806101262569427,179.55355834960938,80.792724609375,58.20393753051758,216.28620157308302,1.3779719226416733,39.15543185634157,1.040034538428748,200.87957382202148,46.03799057006836,211.94441604614258
3230.8720000000003,32.580101013183594,-216.6576385498047,-58.730709075927734,-0.8139581084251404,-0.29597699642181396,1.0517315864562988,-20.343338012695312,30.329238891601562,-153.18971252441406,19.677858352661133,-30.309574127197266,-29.501083374023438,-1.081183671951294,-0.027825377881526947,-0.03123290278017521,-176.1494140625,81.43603515625,62.1691780090332,226.82877135092082,1.362449820959214,46.649783636803114,1.0819925500503267,-155.8060760498047,51.10679626464844,215.35889053344727
3253.369,26.595111846923828,-226.0768585205078,-58.794471740722656,-0.7315253019332886,-0.31095436215400696,1.0155845880508423,-19.55213165283203,25.743093490600586,-152.6833038330078,17.32988929748535,-44.8785400390625,-32.567588806152344,-1.117788314819336,-0.00019330764189362526,0.00159149628598243,-170.5958709716797,82.34772491455078,67.46710205078125,235.10600979116364,1.2896642734439043,58.095234397904385,1.1177894645124025,-151.04373931884766,56.604631423950195,220.15040588378906
3276.976,20.385284423828125,-231.8585662841797,-61.10828399658203,-0.7137441635131836,-0.3210357427597046,0.9929702281951904,-18.973100662231445,21.0004940032959,-152.27200317382812,6.147305488586426,-60.60896682739258,-32.73607635498047,-1.1064174175262451,-0.004560102708637714,0.015238394029438496,-163.21290588378906,83.4788589477539,74.84890747070312,240.64117883978759,1.2643118891952325,69.15841900862895,1.1065317460401916,-144.23980522155762,62.47836494445801,227.12091064453125
3290.867,11.493156433105469,-237.60372924804688,-63.44154357910156,-0.6041099429130554,-0.2786177396774292,0.9655133485794067,-18.632699966430664,16.096168518066406,-151.9256591796875,-8.303230285644531,-64.47760009765625,-36.885536193847656,-1.0615341663360596,0.005650609731674194,-0.010865186341106892,-152.5724334716797,84.47791290283203,85.80003356933594,246.19596716655218,1.1725155411654014,74.7452160866324,1.0616048078090827,-133.93973350524902,68.38174438476562,237.72569274902344
3313.445,1.6137677431106567,-241.8733367919922,-64.52928161621094,-0.5261443853378296,-0.2994379997253418,0.9680761694908142,-18.52371597290039,11.10293960571289,-151.60028076171875,-28.756893157958984,-70.40264892578125,-44.888587951660156,-1.1058269739151,-0.02584969438612461,0.06657527387142181,-136.09934997558594,85.19693756103516,102.99073791503906,250.33845785880652,1.1417804078885063,88.3089871313164,1.108130754933342,-117.57563400268555,74.09399795532227,254.5910186767578
3336.3010000000004,-5.953944683074951,-242.99668884277344,-65.25452423095703,-0.43805068731307983,-0.2712401747703552,0.8980551958084106,-18.596357345581055,6.083706378936768,-151.28941345214844,-42.95362854003906,-74.1070785522461,-46.08073043823242,-1.0728318691253662,-0.07327806204557419,0.058683183044195175,-115.9333267211914,85.36146545410156,124.11788940429688,251.67636595129335,1.035356350143948,97.2641095884061,1.07693157153107,-97.33696937561035,79.2777590751648,275.4073028564453
3351.827,-14.33662223815918,-241.1342315673828,-63.20891571044922,-0.3530237376689911,-0.2633073031902313,0.9249038100242615,-18.861162185668945,1.1137953996658325,-150.93902587890625,-56.95823287963867,-82.1072769165039,-47.59358215332031,-1.0833109617233276,-0.08441672474145889,0.07750522345304489,-95.52485656738281,84.87879180908203,145.67430114746094,249.69305836583152,1.0244039989518257,110.68420970309838,1.089355719160873,-76.66369438171387,83.7649964094162,296.6133270263672
3373.415,-14.813568115234375,-240.58343505859375,-59.403961181640625,-0.29477545619010925,-0.29963549971580505,0.8737243413925171,-19.168710708618164,-3.8189549446105957,-150.49501037597656,-65.51226806640625,-79.29400634765625,-46.871612548828125,-1.0054097175598145,-0.1778946816921234,0.05914447456598282,-81.13592529296875,83.8106460571289,161.34754943847656,248.2512067019356,0.9695711562354848,113.03249432262514,1.0227381320796316,-61.967214584350586,87.6296010017395,311.8425598144531
3395.927,-19.79057502746582,-237.89251708984375,-55.596046447753906,-0.235702782869339,-0.19711683690547943,0.7737632393836975,-19.623106002807617,-8.67285442352295,-149.96339416503906,-64.31753540039062,-85.7816162109375,-49.923309326171875,-1.0067369937896729,-0.1189609095454216,0.0404302254319191,-70.78733825683594,82.39082336425781,172.975830078125,245.10291089230287,0.8325385275562479,118.26904858760687,1.0145470298576689,-51.16423225402832,91.06367778778076,322.93922424316406
3419.376,-25.22835922241211,-232.75796508789062,-51.49565124511719,-0.16619497537612915,-0.25733092427253723,0.7707920074462891,-20.2481689453125,-13.397216796875,-149.3346405029297,-61.93467712402344,-85.60556030273438,-44.40149688720703,-1.008594274520874,-0.13096307218074799,0.0829806849360466,-63.61286163330078,80.88298034667969,-178.60391235351562,239.71763080355504,0.8294337183707391,114.61112123623423,1.0204408512715293,-43.36469268798828,94.28019714355469,-29.269271850585938
3442.205,-22.09423828125,-226.1708984375,-48.336875915527344,-0.11608356237411499,-0.19772851467132568,0.7083086371421814,-20.881855010986328,-17.96890640258789,-148.6254425048828,-57.620635986328125,-76.93719482421875,-41.45442581176758,-0.9491880536079407,-0.09803543239831924,0.002374599687755108,-59.4389533996582,79.45213317871094,-173.2640380859375,232.33141035711827,0.7444951876391197,104.6801750966823,0.954240297745402,-38.557098388671875,97.42103958129883,-24.638595581054688
3451.7540000000004,-29.61708641052246,-219.96876525878906,-50.70966720581055,-0.02855721488595009,-0.1951383352279663,0.6884722709655762,-21.713623046875,-22.43361473083496,-147.93292236328125,-49.301612854003906,-74.00276947021484,-33.3314094543457,-0.9275929927825928,-0.046314481645822525,0.06718555092811584,-55.83333206176758,78.1523666381836,-168.63717651367188,227.67279118297964,0.7161623784352835,94.963370704083,0.931175434449923,-34.11970901489258,100.58598136901855,-20.704254150390625
3473.3070000000002,-27.113645553588867,-212.64910888671875,-51.37416076660156,-0.0215322133153677,-0.2288283407688141,0.6604228019714355,-22.552915573120117,-26.757631301879883,-147.21829223632812,-40.74884033203125,-67.59319305419922,-30.266103744506836,-0.9164022207260132,-0.06814093142747879,0.06207217276096344,-53.23792266845703,76.93441009521484,-165.19110107421875,220.44068971039317,0.699274140171842,84.53014120147246,0.9210261512675086,-30.685007095336914,103.69204139709473,-17.972808837890625
3495.744,-26.69182777404785,-204.93301391601562,-52.161651611328125,0.03161301836371422,-0.16541257500648499,0.615069568157196,-23.439393997192383,-30.9356632232666,-146.4882049560547,-45.94248962402344,-56.63233947753906,-22.588001251220703,-0.9133642315864563,-0.11280231177806854,0.06458721309900284,-51.63582229614258,75.93568420410156,-162.6470489501953,213.14509556037842,0.6377078301020148,76.34233444215522,0.9225671190649981,-28.196428298950195,106.87134742736816,-16.158843994140625
3518.499,-27.908735275268555,-197.17686462402344,-53.02884292602539,0.07694617658853531,-0.19930818676948547,0.5381505489349365,-24.4047908782959,-34.96839141845703,-145.74107360839844,-40.81744384765625,-38.96786880493164,-17.1303768157959,-0.85694420337677,-0.10300824046134949,0.01472705602645874,-51.000667572021484,75.21243286132812,-161.21151733398438,206.08171105097745,0.5790081870957505,58.97464142583737,0.8632386410971167,-26.595876693725586,110.18082427978516,-15.470443725585938
3541.031,-26.839950561523438,-189.5333251953125,-52.494850158691406,0.1345060169696808,-0.19453901052474976,0.5789344310760498,-25.4244384765625,-38.84672164916992,-144.93743896484375,-25.3017578125,-33.0966911315918,-10.135083198547363,-0.8756924867630005,-0.11205801367759705,0.025367891415953636,-50.19540786743164,74.69074249267578,-159.91726684570312,198.49174692898586,0.6253817799571284,42.8752821996995,0.8831975202169828,-24.77096939086914,113.5374641418457,-14.979827880859375
3550.672,-26.402544021606445,-180.76556396484375,-52.78509521484375,0.17362786829471588,-0.2054404765367508,0.5356178283691406,-26.49686622619629,-42.55759811401367,-144.10382080078125,-13.881725311279297,-13.945780754089355,1.6033772230148315,-0.8446999192237854,-0.07519718259572983,-0.022800792008638382,-49.62541961669922,74.53499603271484,-159.11561584472656,190.15664522488032,0.599365401166174,19.74228753154568,0.8483468900887339,-23.12855339050293,117.09259414672852,-15.011795043945312
3573.1600000000003,-22.414806365966797,-169.68458557128906,-52.219295501708984,0.23001137375831604,-0.15613919496536255,0.4874155819416046,-27.540803909301758,-46.05403518676758,-143.25244140625,-2.840083599090576,8.948429107666016,21.24953269958496,-0.8744701147079468,-0.04717635735869408,-0.016461830586194992,-49.167808532714844,74.97565460205078,-158.66001892089844,178.94730215238985,0.5611226512823131,23.231080437540527,0.8758964448364963,-21.627004623413086,121.02968978881836,-15.407577514648438
3595.764,-24.435802459716797,-159.63690185546875,-51.45032501220703,0.31362709403038025,-0.2081110030412674,0.4350546896457672,-28.684904098510742,-49.3537712097168,-142.36843872070312,8.469297409057617,38.39193344116211,36.75135803222656,-0.8464987874031067,-0.040190864354372025,-0.07016035169363022,-49.393775939941406,76.0379638671875,-159.13003540039062,169.49390791330703,0.5752779560174005,53.817579555072854,0.8503516787789952,-20.708871841430664,125.3917350769043,-16.7615966796875
3619.3650000000002,-23.339704513549805,-149.79336547851562,-52.126609802246094,0.389912873506546,-0.18112248182296753,0.3651782274246216,-29.814456939697266,-52.43938064575195,-141.50717163085938,21.818265914916992,78.11858367919922,51.389869689941406,-0.878567099571228,-0.07931092381477356,-0.1144537702202797,-51.31045150756836,77.83592987060547,-161.58871459960938,160.31212554774388,0.5640855787314826,96.01806366682905,0.8895336062246268,-21.495994567871094,130.27531051635742,-20.08154296875
3640.595,-20.848661422729492,-139.41604614257812,-49.50324630737305,0.5120722651481628,-0.2106553316116333,0.3266441524028778,-31.02045249938965,-55.33546447753906,-140.54393005371094,37.439327239990234,129.5780487060547,60.56537628173828,-0.9008222818374634,-0.07548779249191284,-0.11979030817747116,-57.83709716796875,80.34994506835938,-169.02572631835938,149.4057294755376,0.6428764078494187,147.85242214722186,0.9118820692410888,-26.8166446685791,135.68540954589844,-28.481796264648438
3651.817,-12.99029541015625,-129.18740844726562,-46.340789794921875,0.5997829437255859,-0.23378106951713562,0.26605579257011414,-32.19436264038086,-58.03293991088867,-139.4729766845703,42.93532180786133,180.12420654296875,65.69438171386719,-0.9136241674423218,-0.08934807777404785,-0.15474987030029297,-76.05267333984375,83.043701171875,171.72659301757812,137.860810511838,0.6965478108563811,196.47881165725215,0.9309348638301986,-43.85831069946289,141.07664108276367,311.19956970214844
3673.3509999999997,-7.489025115966797,-117.40373992919922,-41.56747817993164,0.7201555967330933,-0.23589417338371277,0.18722370266914368,-33.303443908691406,-60.45763397216797,-138.3600616455078,48.68286895751953,211.6668701171875,53.1827392578125,-0.9578958749771118,-0.1229940801858902,-0.12851786613464355,-112.8852310180664,83.82752227783203,133.7129669189453,124.77010414674551,0.7805913523627627,223.6096808953177,0.9742735206166397,-79.581787109375,144.28515625,272.0730285644531
3697.965,-4.863537311553955,-105.99468994140625,-36.0764045715332,0.8142268657684326,-0.2753302752971649,0.12878423929214478,-34.47426223754883,-62.62038803100586,-137.14254760742188,44.23456573486328,209.87738037109375,40.28921127319336,-0.9184103012084961,-0.18550090491771698,-0.13354144990444183,-142.0269317626953,81.77304077148438,103.36150360107422,112.07156310931273,0.8691130707361121,218.23939182054352,0.9464255839387231,-107.55266952514648,144.39342880249023,240.5040512084961
3720.6009999999997,-4.4965291023254395,-92.6220474243164,-31.870145797729492,0.9134567975997925,-0.2737048268318176,0.050544362515211105,-35.653961181640625,-64.50358581542969,-135.9290313720703,39.540260314941406,153.21763610839844,24.500911712646484,-0.9708647727966309,-0.2025638073682785,-0.1260751634836197,-153.21783447265625,79.38465881347656,91.1434326171875,98.05492662895074,0.9549200939839797,160.12298671699148,0.9997526944001742,-117.56387329101562,143.88824462890625,227.0724639892578
3731.006,-5.796217918395996,-76.81632995605469,-26.279712677001953,1.0201904773712158,-0.3098498582839966,-0.05038683861494064,-36.81932067871094,-66.05447387695312,-134.77725219726562,29.484811782836914,81.4261245727539,16.238697052001953,-1.0274797677993774,-0.20996499061584473,-0.1012110784649849,-157.08859252929688,78.04727172851562,86.54444122314453,81.39390633493872,1.0673960737716484,88.10938185433861,1.053586091843196,-120.26927185058594,144.10174560546875,221.32169342041016
3760.956,-8.419597625732422,-61.05436706542969,-21.778520584106445,1.094069004058838,-0.24313020706176758,-0.09808523207902908,-37.90018081665039,-67.29048919677734,-133.7865753173828,19.834964752197266,29.56148910522461,2.121103286743164,-1.066359043121338,-0.22436927258968353,-0.10396918654441833,-157.62403869628906,77.5359115600586,85.62049102783203,65.36688244647907,1.1250422196434195,35.66239677857132,1.0946564625853112,-119.72385787963867,144.82640075683594,219.40706634521484
3771.0,-26.709880828857422,-40.30174255371094,-15.409011840820312,1.0990861654281616,-0.252408891916275,-0.11448542028665543,-39.06722640991211,-68.114990234375,-133.10536193847656,16.321311950683594,1.1881184577941895,-1.2253849506378174,-1.0845143795013428,-0.21595196425914764,-0.14010749757289886,-156.89329528808594,77.5186767578125,86.0672836303711,50.74530355282054,1.1334935197045435,16.410314364402893,1.1146464915338434,-117.82606887817383,145.6336669921875,219.17264556884766
3790.752,-37.67717361450195,-20.232669830322266,-9.224695205688477,1.0775980949401855,-0.25276172161102295,-0.08820287883281708,-40.10833740234375,-68.54428100585938,-132.79595947265625,11.903916358947754,-11.119040489196777,-3.4614806175231934,-1.0499011278152466,-0.17594735324382782,-0.1839156597852707,-155.7501983642578,77.6917495727539,87.04977416992188,43.74957533140187,1.1103539480566014,16.65287164865898,1.0803123711295204,-115.64186096191406,146.23603057861328,219.84573364257812
3812.9460000000004,-40.09932327270508,0.9771907329559326,-3.382535934448242,1.0216301679611206,-0.2460377812385559,-0.06072373688220978,-40.7458610534668,-68.57347106933594,-132.97219848632812,11.190990447998047,-16.267372131347656,-3.6262919902801514,-1.0057345628738403,-0.15289807319641113,-0.1955472081899643,-154.44607543945312,77.9451675415039,88.22584533691406,40.25359832369419,1.0525921157342948,20.075249858113843,1.0359143508886721,-113.70021438598633,146.51863861083984,221.1980438232422
3835.315,-40.34330368041992,21.234167098999023,1.8636486530303955,0.9673376083374023,-0.2263679802417755,-0.012528622522950172,-40.922706604003906,-68.22753143310547,-133.6480712890625,10.45646858215332,-22.111568450927734,-3.896242141723633,-0.937576413154602,-0.12982413172721863,-0.19943687319755554,-152.90113830566406,78.28702545166016,89.66767120361328,45.628337582479794,0.9935499370263122,24.76771885734666,0.967304968494111,-111.97843170166016,146.51455688476562,223.31574249267578
3850.855,-39.819461822509766,39.306522369384766,5.875175952911377,0.9077754020690918,-0.21113920211791992,0.03420795500278473,-40.674339294433594,-67.5551986694336,-134.7730712890625,10.151966094970703,-28.427343368530273,-3.643528938293457,-0.8969475626945496,-0.1071324348449707,-0.1991896778345108,-151.0750732421875,78.73179626464844,91.39205932617188,56.259309745916056,0.9326339729273032,30.404795176253675,0.9250236843320937,-110.4007339477539,146.28699493408203,226.16513061523438
3872.84,-35.736358642578125,57.93982696533203,10.284967422485352,0.8900337815284729,-0.2173580676317215,0.025961361825466156,-39.99018859863281,-66.53785705566406,-136.28866577148438,11.27072525024414,-39.05734634399414,-5.020261764526367,-0.873350977897644,-0.1145566999912262,-0.18729478120803833,-148.37167358398438,79.32955932617188,93.99357604980469,68.84686944723899,0.9165580473348658,40.95984105542365,0.900524571111426,-108.38148498535156,145.86741638183594,230.28224182128906
3895.3419999999996,-35.43241500854492,71.36674499511719,15.59001636505127,0.8508620858192444,-0.17149437963962555,0.09949339181184769,-39.20467758178711,-65.23834991455078,-137.9217071533203,13.468340873718262,-53.445045471191406,-7.988173484802246,-0.887854278087616,-0.09452703595161438,-0.16071082651615143,-144.16107177734375,80.1210708618164,98.08451080322266,81.18938929933154,0.8736564235137753,55.69183070192328,0.9072202320295685,-104.95639419555664,145.3594207763672,236.00621795654297
3918.453,-33.72442626953125,85.16304016113281,19.952621459960938,0.8432309031486511,-0.15805089473724365,0.12546780705451965,-38.30145263671875,-63.659393310546875,-139.666259765625,10.669535636901855,-66.41567993164062,-7.968136787414551,-0.9772261381149292,-0.046094346791505814,-0.09899291396141052,-138.30941772460938,81.09884643554688,103.89903259277344,93.74533289620483,0.8670412977241645,67.73752826426573,0.983308298976331,-100.00796508789062,144.75823974609375,243.56529235839844
3931.607,-33.026023864746094,99.88630676269531,25.441078186035156,0.820264458656311,-0.15633922815322876,0.15544095635414124,-37.367252349853516,-61.76864242553711,-141.4563446044922,5.160534858703613,-79.64602661132812,-2.2117068767547607,-1.0259552001953125,0.009536230936646461,-0.0484517402946949,-130.45193481445312,82.26537322998047,111.84202575683594,108.23696683792467,0.8493748449928149,79.84367427861125,1.027142922696674,-93.08468246459961,144.03401565551758,253.29837036132812
3952.7380000000003,-35.53109359741211,113.05115509033203,29.667688369750977,0.7830334901809692,-0.1658594310283661,0.18184727430343628,-36.504249572753906,-59.604183197021484,-143.25682067871094,0.3527280390262604,-80.92882537841797,-1.693443775177002,-0.9566081762313843,-0.020572606474161148,-0.06752205640077591,-120.26101684570312,83.23055267333984,122.17899322509766,122.16052559108864,0.8208040136217857,80.94730968982026,0.9592088735361373,-83.75676727294922,142.83473587036133,265.4358139038086
3975.347,-35.419246673583984,124.2140121459961,33.73732376098633,0.7606076002120972,-0.1948888897895813,0.17944955825805664,-35.71950149536133,-57.19930648803711,-145.00576782226562,-5.998899459838867,-82.37042999267578,-8.892017364501953,-0.8695485591888428,-0.07556574046611786,-0.13132509589195251,-107.29270935058594,83.72733306884766,135.42218017578125,133.49850509606267,0.8054239534697442,83.06589254753217,0.8826500771713645,-71.57320785522461,140.92663955688477,280.4279479980469
3997.8630000000003,-31.2718505859375,135.8792724609375,38.936946868896484,0.7421733140945435,-0.2050299197435379,0.18548378348350525,-34.96358108520508,-54.5321159362793,-146.67074584960938,-4.899887561798096,-71.14933776855469,-16.50474739074707,-0.8545308709144592,-0.08359862864017487,-0.17489901185035706,-94.72884368896484,83.66642761230469,148.15322875976562,144.76598756287387,0.7919991982820913,73.20275848254981,0.8762427770901016,-59.765262603759766,138.19854354858398,294.823974609375
4020.078,-21.85194969177246,147.15260314941406,45.404197692871094,0.7132784128189087,-0.1834358423948288,0.23679473996162415,-34.17333984375,-51.5941047668457,-148.20245361328125,3.392286539077759,-51.56523513793945,-18.061756134033203,-0.9579348564147949,-0.10384577512741089,-0.08521616458892822,-86.20124816894531,83.30776977539062,156.6425018310547,155.54079042847255,0.773619125501726,54.74219686347525,0.9673080837321136,-52.02790832519531,134.90187454223633,304.84495544433594
4030.7659999999996,-14.67250919342041,154.89181518554688,51.865509033203125,0.6647601127624512,-0.22451773285865784,0.24310104548931122,-33.439212799072266,-48.443668365478516,-149.54002380371094,-2.7538366317749023,-57.56128692626953,-15.173282623291016,-1.2105228900909424,-0.09847590327262878,0.21858511865139008,-77.06708526611328,82.83184051513672,165.86419677734375,164.00240231404504,0.7425714364328422,59.59122313201079,1.2340350987939241,-43.627872467041016,131.27550888061523,315.4042205810547
4053.02,-18.13526725769043,164.34622192382812,58.024749755859375,0.6330398321151733,-0.2216607630252838,0.13082517683506012,-32.923030853271484,-45.05835723876953,-150.74301147460938,-32.4403190612793,-64.94840240478516,-12.046216011047363,-1.1113461256027222,-0.11519376933574677,0.126959428191185,-68.59030151367188,82.20289611816406,175.0281219482422,175.22967831784126,0.6833653121159156,73.59198730783343,1.1244903342370673,-35.66727066040039,127.2612533569336,325.77113342285156
4075.1299999999997,-25.59679412841797,181.14065551757812,74.92045593261719,0.5557006001472473,-0.24403207004070282,0.2477804571390152,-32.77287292480469,-41.20359420776367,-151.7080078125,-45.67652893066406,-43.076576232910156,-40.22187805175781,-0.9167141914367676,-0.09501511603593826,-0.008113199844956398,-66.39656066894531,81.14744567871094,178.1469268798828,197.68714593554571,0.6555531733981468,74.5636385184762,0.9216607863355224,-33.623687744140625,122.35103988647461,329.8549346923828
4097.737999999999,-9.903802871704102,194.2873992919922,82.55938720703125,0.40653401613235474,-0.31991446018218994,0.4221131205558777,-32.41188049316406,-37.03468704223633,-152.6051483154297,-48.08379364013672,-31.24948501586914,-35.65666580200195,-0.9520853161811829,-0.07218380272388458,0.16247493028640747,-65.3280258178711,80.2447509765625,-179.8550567626953,211.33322325410194,0.6676785563815755,67.52761909544819,0.9685427474484937,-32.91614532470703,117.27943801879883,-27.249908447265625
4120.205999999999,20.552448272705078,198.12350463867188,82.71072387695312,0.33486565947532654,-0.4191625416278839,0.48182183504104614,-31.513254165649414,-32.800228118896484,-153.45472717285156,-62.387306213378906,-23.68707275390625,-20.145822525024414,-0.8916884660720825,-0.13881075382232666,0.11252172291278839,-64.96546173095703,79.66654968261719,-178.28375244140625,215.67658673245373,0.7210995263638119,69.70729916888571,0.909416232552492,-33.45220756530762,112.46677780151367,-24.829025268554688
4130.817,38.47172546386719,199.7173614501953,84.41636657714844,0.2516385316848755,-0.3269568383693695,0.41162019968032837,-30.40218734741211,-28.505393981933594,-154.1471405029297,-62.46573257446289,-24.433813095092773,-16.837186813354492,-0.9980099201202393,-0.20458130538463593,0.1645902842283249,-64.45067596435547,79.11243438720703,-176.5595703125,220.21176415187867,0.5827983472607721,69.15540346363427,1.0319725155417894,-34.04848861694336,107.61782836914062,-22.412429809570312
4154.436,9.76978874206543,209.77056884765625,82.83160400390625,0.20194144546985626,-0.23628588020801544,0.42550981044769287,-29.85403060913086,-24.008167266845703,-154.9027557373047,-63.117549896240234,-13.69228458404541,-12.663063049316406,-0.9497694969177246,-0.19983422756195068,0.15694904327392578,-64.85343170166016,78.73057556152344,-175.7526397705078,225.74369304278207,0.5269439850414492,65.81532441480347,0.9831728321944366,-34.9994010925293,102.73874282836914,-20.849884033203125
4175.143,10.045157432556152,224.22988891601562,99.34644317626953,-0.007361124269664288,-0.24483343958854675,0.5448068380355835,-29.455331802368164,-19.131269454956055,-155.43313598632812,-51.407772064208984,13.177977561950684,13.301631927490234,-0.902787446975708,-0.12608036398887634,0.13903534412384033,-66.30868530273438,79.0895004272461,-176.26678466796875,245.45806982641514,0.5973375009670853,54.711530166532256,0.9220912425113467,-36.85335350036621,98.22076988220215,-20.833648681640625
4197.8910000000005,25.185319900512695,217.83804321289062,92.25039672851562,-3.020418807864189e-05,-0.36143848299980164,0.624371349811554,-28.799457550048828,-14.430277824401855,-155.9627227783203,-47.57709503173828,33.116519927978516,29.888338088989258,-0.913077712059021,-0.3096954822540283,0.13128343224525452,-69.34957122802734,79.85663604736328,-178.43820190429688,237.90302458329714,0.7214411690297364,65.21960301566531,0.9730660509798839,-40.550113677978516,94.28691387176514,-22.475479125976562
4219.021,19.31243896484375,225.20831298828125,101.57548522949219,-0.18414545059204102,-0.22083449363708496,0.5781813859939575,-28.335363388061523,-9.506145477294922,-156.33673095703125,-2.1444308757781982,29.532453536987305,31.504064559936523,-0.9389499425888062,-0.21169458329677582,0.0006875111721456051,-71.64824676513672,80.63247680664062,179.22915649414062,247.80906710087356,0.6457330219708353,43.23506076660415,0.9625186044728329,-43.312883377075195,90.13862228393555,335.5658874511719
4240.022,-3.772981643676758,234.61058044433594,107.32483673095703,-0.3028162121772766,-0.3011530339717865,0.692572832107544,-28.368133544921875,-4.360846996307373,-156.67604064941406,18.425613403320312,27.411624908447266,16.70071029663086,-1.0276399850845337,-0.2539982199668884,0.11535757780075073,-73.7784423828125,81.0616226196289,176.66224670410156,258.0212790182979,0.8136632817088834,37.01100017321898,1.0648316324409905,-45.410308837890625,85.42246961593628,333.3382873535156
4250.236,-4.393702030181885,230.1901092529297,113.76454162597656,-0.269085168838501,-0.21515733003616333,0.8808026909828186,-28.449087142944336,0.7675299644470215,-156.86474609375,18.669450759887695,35.74456787109375,33.535667419433594,-1.0204311609268188,-0.27772194147109985,0.11331737041473389,-76.69190979003906,81.82653045654297,173.3261260986328,256.8056890856865,0.9457869132102166,52.448675037925966,1.0636023962941425,-48.24282264709473,81.05900049209595,330.1908721923828
4273.156,-23.96261215209961,232.30860900878906,120.27311706542969,-0.34349629282951355,-0.22270454466342926,0.7469871640205383,-28.934167861938477,5.994625568389893,-156.97946166992188,32.99820327758789,24.36766242980957,27.208730697631836,-1.0866998434066772,-0.10867277532815933,0.12410830706357956,-78.23113250732422,82.48139953613281,171.09226989746094,262.6920617174888,0.8518079834169265,49.22376883192121,1.099149304525918,-49.29696464538574,76.48677396774292,328.0717315673828
4299.95,-24.656864166259766,236.22891235351562,127.6544418334961,-0.6439200043678284,-0.441836953163147,0.8024507164955139,-29.43988609313965,11.360589981079102,-157.05670166015625,36.639225006103516,19.03241539001465,17.699604034423828,-1.0044150352478027,-0.00945416558533907,0.1107635423541069,-79.47218322753906,82.96000671386719,169.0859832763672,269.64368433556865,1.1197231879396445,44.92150517960568,1.0105481218594143,-50.032297134399414,71.59941673278809,326.14268493652344
4310.09,-17.22872543334961,233.9604949951172,126.52554321289062,-0.8989514708518982,-0.41731545329093933,0.7275649309158325,-29.812807083129883,16.675443649291992,-157.1741485595703,29.86480140686035,32.36460876464844,17.5284423828125,-0.7944298982620239,-0.015379559248685837,0.011695667169988155,-83.65259552001953,83.46025085449219,164.27597045898438,266.53903144518074,1.2294782076965713,47.398529048141825,0.7946648241402439,-53.83978843688965,66.7848072052002,321.4501190185547
4330.187,-26.645261764526367,223.57310485839844,115.12418365478516,-1.0588942766189575,-0.29656994342803955,0.7779397368431091,-30.433351516723633,21.69524574279785,-157.43768310546875,44.43858337402344,7.9964423179626465,33.67251205444336,-0.7857396006584167,-0.050086185336112976,-0.1920122653245926,-83.5201644897461,84.16114044189453,163.5102081298828,252.88036865819626,1.3469970506874993,56.32556124967748,0.8104098074674648,-53.08681297302246,62.46589469909668,320.94789123535156
4352.438,-40.314727783203125,208.80641174316406,103.20260620117188,-0.9415446519851685,-0.3928893804550171,0.876998782157898,-31.405330657958984,26.335683822631836,-157.81065368652344,44.78882598876953,-8.046547889709473,26.851953506469727,-1.0453357696533203,0.03002725914120674,-0.09423445910215378,-80.34626770019531,84.70486450195312,165.7870330810547,236.3814137955937,1.3453606434196874,52.837612299452715,1.0500041147017036,-48.94093704223633,58.36918067932129,323.5976867675781
4375.03,-37.314613342285156,201.3091583251953,98.2613296508789,-1.0817222595214844,-0.5283180475234985,0.8688016533851624,-32.404048919677734,30.789081573486328,-158.30665588378906,18.233423233032227,-16.86793327331543,25.707672119140625,-1.1438641548156738,0.13636061549186707,0.03606441989541054,-75.178466796875,85.14779663085938,170.5938720703125,227.09699799698254,1.484607462936954,35.747297820858314,1.1525276849220973,-42.774417877197266,54.35871505737305,328.90052795410156
4390.002,-12.627543449401855,190.7633514404297,86.39012145996094,-1.0349154472351074,-0.5667269229888916,0.846427857875824,-33.05128479003906,34.93011474609375,-159.04693603515625,10.842796325683594,-35.63878631591797,43.873008728027344,-0.8872631788253784,-0.025155916810035706,-0.1656823605298996,-63.09910202026367,85.73638916015625,-177.5564422607422,209.79362285879478,1.4521258577528862,57.5545846747371,0.9029503935657974,-30.04781723022461,50.8062744140625,-18.509506225585938
4412.493,-12.997297286987305,176.5716552734375,78.33743286132812,-1.052686095237732,-0.3691575229167938,0.7331328392028809,-33.786773681640625,38.73891830444336,-159.8733673095703,33.33635711669922,-6.491612911224365,46.69334411621094,-0.8976038098335266,-0.11125452816486359,-0.214408740401268,-54.02995681762695,86.50480651855469,-169.1656036376953,193.6058691519218,1.3348816620774306,57.73839388791628,0.9295382065441455,-20.243183135986328,47.76588821411133,-9.292236328125
4434.84,-26.221363067626953,164.87509155273438,72.80660247802734,-1.1170762777328491,-0.49482738971710205,0.6916178464889526,-34.8775634765625,42.30484390258789,-160.78335571289062,28.047393798828125,7.621440410614014,39.856040954589844,-1.0426371097564697,0.06914035230875015,-0.08571378141641617,-46.78886413574219,87.31758117675781,-162.51565551757812,182.1322515647362,1.4039404551011894,49.32795002240642,1.0484366377055907,-11.911300659179688,45.01273727416992,-1.7322998046875
4450.183,-20.06905174255371,155.03515625,67.94038391113281,-1.10811185836792,-0.5819374918937683,0.7153881192207336,-35.9794807434082,45.68245315551758,-161.82046508789062,7.884067535400391,16.990755081176758,35.90375900268555,-1.0249677896499634,0.002599824219942093,-0.10692048072814941,-41.13454818725586,88.24274444580078,-157.0570831298828,170.45398873977496,1.4416460370872572,40.495977450287725,1.0305327350962923,-5.155067443847656,42.5602912902832,4.7633819580078125
4472.264,-11.046600341796875,141.6689453125,61.154136657714844,-1.0950394868850708,-0.5452358722686768,0.6920119524002075,-36.974422454833984,48.72861099243164,-162.92250061035156,15.545676231384277,25.689468383789062,38.67290115356445,-1.0120457410812378,-0.11193767935037613,-0.1808304786682129,-29.742210388183594,89.71952819824219,-146.13882446289062,154.6995341797058,1.4054444764951943,48.96131247184955,1.034150031723828,7.232212066650391,40.99091720581055,16.783676147460938
4496.106,-13.590963363647461,125.25053405761719,57.56148147583008,-1.0978342294692993,-0.5172874927520752,0.6823436617851257,-37.97203063964844,51.43773651123047,-163.91522216796875,24.924570083618164,30.45879554748535,41.305450439453125,-1.0485661029815674,-0.0430196188390255,-0.15422707796096802,22.08652114868164,90.0,-96.89912414550781,138.51257963290792,1.3922712445247558,57.05359459370484,1.060720298430922,60.05855178833008,38.56226348876953,67.01609802246094
4517.33,-13.834328651428223,108.64183044433594,53.862518310546875,-1.0540235042572021,-0.5121164917945862,0.6102005243301392,-38.92842102050781,53.81393051147461,-164.79127502441406,14.220358848571777,32.93360900878906,33.06879425048828,-1.0760142803192139,0.025972120463848114,-0.08906885981559753,105.25865173339844,90.0,-13.039536476135254,122.04755978832827,1.3212015472998067,48.789203327243136,1.0800067334424888,144.18707275390625,36.18606948852539,151.7517385482788
4529.776,-11.004815101623535,101.44529724121094,52.92927551269531,-1.0658420324325562,-0.48025646805763245,0.5669739246368408,-39.82642364501953,56.057029724121094,-165.69482421875,10.102113723754883,34.618873596191406,32.10138702392578,-1.0758178234100342,0.019265813753008842,-0.10149048268795013,122.77279663085938,88.74663543701172,4.964828014373779,114.95113089516505,1.2992786246333985,48.28061888187253,1.0807661536255204,162.5992202758789,32.689605712890625,170.65965223312378
4552.438,-7.4185099601745605,92.1456298828125,48.6400260925293,-1.0518059730529785,-0.5263615250587463,0.5411142110824585,-40.70941162109375,58.06690979003906,-166.55389404296875,12.156632423400879,38.46310806274414,37.82388687133789,-1.0680160522460938,-0.02170512266457081,-0.11163230240345001,128.8333740234375,87.44839477539062,10.922039985656738,104.45909981811737,1.2946647633451231,55.29774689605158,1.0740536165132122,169.54278564453125,29.381484985351562,177.4759340286255
4576.138,-10.621212005615234,80.56448364257812,47.910972595214844,-1.0907330513000488,-0.4995127022266388,0.5311028361320496,-41.505218505859375,59.885128021240234,-167.29144287109375,5.7828593254089355,41.3435173034668,24.922466278076172,-1.1052162647247314,0.006871978752315044,-0.14338074624538422,134.74720764160156,86.42707061767578,16.762022018432617,94.33402071407161,1.3119762770079268,48.61951470738238,1.114499104664487,176.25242614746094,26.541942596435547,184.05346488952637
4598.633000000001,-8.56978702545166,68.53416442871094,44.83616256713867,-1.0468405485153198,-0.496368408203125,0.5472021102905273,-42.11827850341797,61.4473991394043,-167.8816680908203,5.4294281005859375,37.72504425048828,23.88953971862793,-1.0823273658752441,0.0312836728990078,-0.11185214668512344,137.6422576904297,85.49653625488281,19.531841278076172,82.34472914127579,1.2812832942735055,44.9818603569109,1.0885412706142872,179.76053619384766,24.049137115478516,187.41350936889648
4619.925,-6.586982250213623,59.008934020996094,41.285823822021484,-1.0053855180740356,-0.4537462592124939,0.5494505167007446,-42.57424545288086,62.815155029296875,-168.33111572265625,10.518390655517578,33.12457275390625,25.677146911621094,-1.1021770238876343,0.019824758172035217,-0.03353911638259888,138.57342529296875,84.66402435302734,20.212799072265625,72.3184753581123,1.232307420250744,43.21099091240423,1.102865397657442,181.1476707458496,21.84886932373047,188.54391479492188
4629.6179999999995,1.0864238739013672,49.77558135986328,36.112125396728516,-0.9392154812812805,-0.4666450619697571,0.6037431955337524,-42.84163284301758,64.03689575195312,-168.7205810546875,14.822622299194336,27.356163024902344,24.6774959564209,-1.062260389328003,0.054519172757864,-0.01971292309463024,138.64205932617188,83.94051361083984,19.95218276977539,61.505076353218165,1.2101194900886825,39.71207113647911,1.0638411884630228,181.48369216918945,19.90361785888672,188.6727638244629
4651.827,3.9849774837493896,44.913909912109375,31.755842208862305,-0.9297584891319275,-0.34876155853271484,0.47647786140441895,-42.98575973510742,65.06132507324219,-169.0537872314453,16.133508682250977,21.74919319152832,22.746829986572266,-1.0692856311798096,0.08625198155641556,-0.012372885830700397,138.244384765625,83.32978820800781,19.20206069946289,55.150456603125484,1.1014157367822477,35.36574304776747,1.0728300208671415,181.23014450073242,18.268463134765625,188.2558479309082
4672.234,-2.5770859718322754,42.46653747558594,28.973947525024414,-0.9383686780929565,-0.40877699851989746,0.40995121002197266,-43.40835189819336,66.00678253173828,-169.52401733398438,11.000919342041016,19.79454803466797,17.04692840576172,-1.00540292263031,0.0883643701672554,-0.0657835528254509,138.4300079345703,82.80760955810547,19.14042854309082,51.47366134689107,1.1025853278287983,28.34505470691555,1.0114201770634021,181.83835983276367,16.800827026367188,188.6644458770752
4694.763,-4.39031457901001,37.81837844848633,25.642080307006836,-0.9438899159431458,-0.43953293561935425,0.443913996219635,-43.858943939208984,66.85152435302734,-169.98892211914062,7.028074741363525,16.064895629882812,12.475993156433105,-1.006164312362671,0.046926528215408325,-0.09807787835597992,138.88900756835938,82.41128540039062,19.422290802001953,45.90229725238804,1.1318909006406104,21.52034180510583,1.0120217353127394,182.74795150756836,15.559761047363281,189.41121292114258
4717.142,-1.7442258596420288,29.26766014099121,19.58469009399414,-0.9348359704017639,-0.4633443355560303,0.48525193333625793,-44.19093322753906,67.54513549804688,-170.3762664794922,6.255946159362793,11.985757827758789,11.354072570800781,-0.9899435639381409,0.06819392740726471,-0.11638330668210983,139.01895141601562,82.07892608642578,19.386615753173828,35.25901785438446,1.1506848846037054,17.65531696111791,0.9990914600736197,183.2098846435547,14.533790588378906,189.76288223266602
4739.3910000000005,3.7618138790130615,18.28732681274414,11.551542282104492,-0.9565067291259766,-0.44979971647262573,0.5078569054603577,-44.33480453491211,67.96864318847656,-170.66908264160156,6.150675296783447,7.992720603942871,9.031314849853516,-1.0160088539123535,0.0901593267917633,-0.1113191694021225,138.94363403320312,81.83787536621094,19.14519691467285,21.9548558344548,1.1726651458220712,13.538058840776976,1.0260578214273388,183.27843856811523,13.869232177734375,189.8142795562744
4750.2300000000005,3.943469285964966,7.6244659423828125,3.9937455654144287,-0.9761200547218323,-0.4460507333278656,0.4511811137199402,-44.37823486328125,68.13367462158203,-170.85694885253906,1.2386339902877808,4.503305435180664,4.311412334442139,-1.0501717329025269,0.0893864557147026,-0.1027243584394455,138.92950439453125,81.72117614746094,19.065542221069336,9.46749357312546,1.1641889946696993,6.356276451036703,1.0589631253587295,183.3077392578125,13.587501525878906,189.9224910736084
4772.286,2.602649211883545,0.5608673691749573,-1.812591791152954,-0.9689249396324158,-0.4407276511192322,0.4411565363407135,-44.409751892089844,68.11627960205078,-170.9848175048828,-0.7881278991699219,2.9227046966552734,-0.6482479572296143,-1.0437726974487305,0.06915176659822464,-0.10330133140087128,139.29776000976562,81.70169830322266,19.420618057250977,3.220845250439448,1.152248016122784,3.0957347663120554,1.0511491691630865,183.70751190185547,13.585418701171875,190.4054355621338
4797.2570000000005,2.7827095985412598,-6.115607738494873,-6.569787979125977,-0.9625305533409119,-0.41870591044425964,0.42676612734794617,-44.372833251953125,67.89018249511719,-171.04229736328125,0.5180075764656067,0.8485103845596313,-1.5219337940216064,-1.02116060256958,0.06144752353429794,-0.1274658590555191,139.6787567138672,81.71623992919922,19.77265739440918,9.397140246459037,1.1330970977843344,1.8178515328173273,1.0309181924932391,184.0515899658203,13.826057434082031,190.81495475769043
4819.373,4.285338878631592,-14.783049583435059,-11.28564739227295,-0.9875510931015015,-0.40895554423332214,0.4173676669597626,-44.1799201965332,67.43799591064453,-170.9617919921875,2.3522286415100098,3.990204095840454,-2.708189010620117,-0.9869826436042786,0.07547540962696075,-0.1627340167760849,140.5361328125,81.67363739013672,20.569034576416016,19.085819902580244,1.1474744302460855,5.365537813271428,1.0031518511424513,184.7160530090332,14.235641479492188,191.53082656860352
4839.7480000000005,10.675270080566406,-25.8623104095459,-14.892799377441406,-0.9864688515663147,-0.3607042133808136,0.4193013906478882,-43.58571243286133,66.79463958740234,-170.58612060546875,5.413200855255127,-0.3171002268791199,-4.942286491394043,-1.0112112760543823,0.0770641416311264,-0.15840503573417664,141.29042053222656,81.72940826416016,21.19511604309082,31.695677375778885,1.1309473820034637,7.3368584432465145,1.0264401015601545,184.8761329650879,14.934768676757812,191.78123664855957
4849.412,13.958139419555664,-37.19563674926758,-18.258167266845703,-1.0062191486358643,-0.35013118386268616,0.4489077925682068,-42.69000244140625,65.94364166259766,-169.9438018798828,5.689078330993652,-5.039002895355225,-3.3738510608673096,-0.9913420081138611,0.1351262629032135,-0.16566942632198334,141.32589721679688,81.81266021728516,21.090791702270508,43.72305708871847,1.1561085706900671,8.31504861179388,1.0141323596036496,184.01589965820312,15.8690185546875,191.03459358215332
