Timestamp (ms),Wrist Gyroscope X (deg/s),Wrist Gyroscope Y (deg/s),Wrist Gyroscope Z (deg/s),Wrist Accelerometer X (g),Wrist Accelerometer Y (g),Wrist Accelerometer Z (g),Wrist Roll (deg),Wrist Pitch (deg),Wrist Yaw (deg),Arm Gyroscope X (deg/s),Arm Gyroscope Y (deg/s),Arm Gyroscope Z (deg/s),Arm Accelerometer X (g),Arm Accelerometer Y (g),Arm Accelerometer Z (g),Arm Roll (deg),Arm Pitch (deg),Arm Yaw (deg),Wrist Gyroscope Magnitude (deg/s),Wrist Accelerometer Magnitude (g),Arm Gyroscope Magnitude (deg/s),Arm Accelerometer Magnitude (g),Difference Roll (deg),Difference Pitch (deg),Difference Yaw (deg)
0.0,10.114233016967772,4.44821310043335,11.742868423461914,1.0366196632385254,-0.0717911422252655,0.0033446135930716,-97.0403823852539,-84.11556243896484,124.65950012207033,2.707773208618164,8.639612197875977,10.635680198669434,-0.9744646549224854,0.0169771052896976,0.2787302732467651,20.17289352416992,71.34408569335938,-115.06947326660156,16.12387261544592,1.0391080216969018,13.967556263261184,1.0136864165122428,117.21327590942384,155.45964813232422,-239.72897338867188
6.548,10.938838005065918,3.648276925086975,12.489195346832275,1.034835398197174,-0.0659437868744134,-0.0024212475400418,-96.52409362792967,-83.99848175048828,124.2985725402832,5.150464057922363,10.469866275787354,10.276119709014893,-0.9764117896556854,0.0208600535988807,0.276754081249237,20.58918190002441,71.44169998168945,-114.67279052734376,17.02952636644391,1.036969040960841,15.74858145103961,1.0151003502365423,117.1132755279541,155.4401817321777,-238.97136306762692
28.275,10.871914545694986,2.962129990259806,13.276743253072103,1.0330996910730998,-0.0647361899415651,-0.0056233895011246,-96.10953521728516,-83.86964925130208,124.0286127726237,7.762909571329753,12.965605099995932,9.464977264404297,-0.97588841120402,0.0203675466279188,0.2736618916193644,21.0462163289388,71.57901509602864,-114.27125295003256,17.484999302618803,1.03517360899581,18.3352070479301,1.0137525496644515,117.15575154622395,155.44866434733072,-238.29986572265625
48.248,10.979177236557009,2.412637159228325,14.283705472946169,1.0316652953624723,-0.0726465731859206,-0.0109804620733484,-95.7712860107422,-83.7208480834961,123.83560371398926,10.710370540618896,15.363442182540894,8.604831457138062,-0.971945121884346,0.0224188519641756,0.2695987299084663,21.558214664459225,71.74934196472168,-113.8568630218506,18.284246698339608,1.0344370512940564,21.364796608813517,1.0089226913725662,117.32950067520144,155.47019004821777,-237.69246673583984
70.84,11.565496635437013,1.7103054881095887,15.1852201461792,1.029714250564575,-0.0727438300848006,-0.0140410098247229,-95.51807098388672,-83.56073760986328,123.73819274902344,13.295710372924804,17.14836025238037,8.10984296798706,-0.9745267271995544,0.0307654820382594,0.2761327326297759,22.13172340393066,71.93193817138672,-113.41383514404296,19.30854955745331,1.03252177723838,23.980074006731325,1.0135762887941515,117.64979438781738,155.49267578125,-237.1520278930664
93.747,12.6975980758667,-0.6036982655525207,17.183244132995604,1.0269412994384766,-0.0850574851036071,-0.0140000025276094,-95.09889526367188,-83.2314697265625,123.64108581542968,18.859067535400392,20.608273124694826,7.01101713180542,-0.976922070980072,0.041459472477436,0.2836134910583495,23.281637573242183,72.27991180419922,-112.52701263427734,21.640339900900837,1.0309839517319208,29.26375318362016,1.0184896851633145,118.38053283691406,155.51138153076172,-236.16809844970703
115.682,13.561415672302246,-3.696481382846832,18.25477066040039,1.0210429668426513,-0.1009265236556529,-0.0054245003033429,-95.09606170654295,-82.869482421875,123.97838439941408,24.356922149658203,22.6722843170166,6.308840560913086,-0.9763302803039552,0.0592689029872417,0.2922133088111877,24.600819396972657,72.65402374267578,-111.57960052490236,23.579626128016777,1.026776811333682,34.20408977068525,1.021617011285494,119.69688110351562,155.52350616455078,-235.5579849243164
125.762,15.609022331237792,-6.993494665622711,18.28984546661377,1.0175382375717164,-0.1188106432557105,0.0026090971659869,-95.48192596435548,-82.4938461303711,124.75536804199218,28.262291717529298,22.346284484863283,6.63327693939209,-0.9772866129875184,0.0835562884807586,0.2980157554149628,26.06974105834961,73.00087890625,-110.55858154296877,25.859235055079814,1.0252209198365556,37.02133386190958,1.02603554527018,121.55166702270508,155.4947250366211,-235.3139495849609
154.15300000000002,18.29537467956543,-8.366629362106323,17.662634086608886,1.0192407608032226,-0.1302946239709854,0.0079113294836133,-95.97415924072266,-82.12598876953125,125.69886322021485,29.929167175292967,20.476991653442383,7.455770683288574,-0.987854790687561,0.1066031098365783,0.2982886493206024,27.631353759765624,73.2921127319336,-109.47565155029297,27.552704038232587,1.0282214225991182,37.42666598234996,1.0382152052960367,123.60551300048829,155.41810150146483,-235.1745147705078
174.21200000000002,18.808162689208984,-7.25203046798706,15.583547973632813,1.019407320022583,-0.1355429679155349,0.0053103884216397,-96.32929840087893,-81.8032730102539,126.51600494384766,29.60311279296875,18.17199821472168,8.198953533172608,-0.9903459787368776,0.1290002673864364,0.2795451045036315,29.23813934326172,73.52806549072265,-108.33914947509766,26.67640618979283,1.0289113217027688,35.99419622128892,1.0385758575285446,125.56743774414062,155.33133850097656,-234.8551544189453
195.451,16.84294538497925,-3.40740909576416,13.111660957336426,1.017630672454834,-0.1396120458841323,0.0032695353031158,-96.2359130859375,-81.53805236816406,126.84063873291016,26.50239677429199,16.182942581176757,8.724750137329101,-0.988800048828125,0.1470105171203612,0.2507398068904876,30.8342227935791,73.72198638916015,-107.15045928955078,24.40429849245144,1.027723151249276,32.57239317821836,1.0322465491712272,127.0701358795166,155.26003875732422,-233.99109802246093
215.835,14.838602924346924,2.9169197082519527,10.556529521942135,1.0146514177322388,-0.1489847689867019,0.0013663671910762,-95.39563293457032,-81.3298126220703,126.3710708618164,21.89965896606445,15.591230773925782,8.133861207962036,-0.9796544909477234,0.1535496085882186,0.2178998082876205,32.35552864074707,73.91426391601563,-105.94453125,23.033971759750585,1.0262400423939615,28.791516936686264,1.016534408406869,127.75116157531738,155.24407653808595,-232.3156021118164
225.668,11.5935866355896,10.726197242736816,8.866835975646973,1.002177906036377,-0.14731927216053,0.0040500372648239,-93.65955963134766,-81.16367950439454,124.92290344238282,18.87467231750488,17.560179901123043,5.895663857460022,-0.95989009141922,0.152999797463417,0.186151960492134,33.82333259582519,74.16646118164063,-104.733056640625,22.170781629584877,1.013759933600176,27.566534815552227,0.9903317114959428,127.48289222717284,155.33014068603515,-229.6559600830078
248.37,7.094077777862549,17.203506660461425,7.767945861816406,0.975335669517517,-0.1464105993509292,0.0071678521111607,-91.27711791992188,-81.01607360839844,122.72406921386718,17.787846755981445,20.68710441589355,2.9424780130386354,-0.9294002413749696,0.1530913293361663,0.1719069927930831,35.26986999511719,74.49552307128906,-103.5232162475586,21.894791743320773,0.9871253811553966,28.439630901255946,0.9577545256698888,126.54698791503908,155.5115966796875,-226.24728546142575
270.705,3.529729890823364,21.23132705688477,7.947562980651855,0.9449539065361025,-0.1645392626523971,0.0176611246541142,-88.53291625976563,-80.84051818847657,120.08509521484376,17.910409927368164,23.24920501708984,-0.0290486097335815,-0.9045363306999208,0.155401211977005,0.1745899468660354,36.68742904663086,74.88433532714843,-102.34763793945314,23.358694958462184,0.95974766022614,29.88537901655345,0.9349781306086812,125.22034530639648,155.724853515625,-222.43273315429687
285.989,0.9665025234222412,23.08239135742188,7.815140914916992,0.917478573322296,-0.1760888069868087,0.0288762815296649,-85.70470581054687,-80.6417465209961,117.30995178222656,20.21670265197754,24.06171951293945,-2.6153622388839723,-0.887077271938324,0.1785363346338272,0.1866527050733566,38.09614944458008,75.29056091308594,-101.23126220703124,24.887373548277083,0.935250846459944,31.964768544754897,0.9260017596210774,123.80085525512696,155.93230743408202,-218.5412139892578
308.18,-2.6274294376373293,22.957569885253907,7.96602087020874,0.8991627216339111,-0.1912606120109557,0.0375965148210525,-83.06737976074218,-80.41238403320312,114.65536041259766,23.30879211425781,23.26078262329101,-4.472230172157287,-0.883800208568573,0.2174940466880798,0.2037610232830047,39.45633392333984,75.69368438720703,-100.22897338867188,25.30480936545144,0.9214018474612448,33.73994830513798,0.9360560911952822,122.52371368408204,156.10606842041017,-214.88433380126952
332.08,-5.849940347671509,21.972262573242187,7.089223289489746,0.8946984052658081,-0.2261131107807159,0.0517478145658969,-80.71205596923828,-80.17442779541015,112.2188278198242,24.03804626464844,20.66068477630615,-5.792341041564941,-0.890892219543457,0.263710868358612,0.2175744622945785,40.65892105102539,76.06295776367188,-99.40284881591796,24.696906894444005,0.9264669459484188,32.681757410040674,0.9574786623607996,121.37097702026368,156.23738555908204,-211.62167663574215
353.412,-7.496215391159057,21.22859306335449,4.917595958709717,0.9024168729782104,-0.2578371047973632,0.0731376014649867,-78.52023010253906,-79.95075378417968,109.9128402709961,21.30418357849121,17.355519485473632,-6.84671630859375,-0.8980271697044373,0.2983067363500595,0.2130737841129302,41.64415740966797,76.38663635253906,-98.7447784423828,23.833359076889792,0.9430296458261436,28.92894943875249,0.971968861677573,120.16438751220704,156.33739013671874,-208.6576187133789
375.645,-7.846599340438843,21.762222290039062,2.1822895050048827,0.9150038599967956,-0.268485802412033,0.0837262108922004,-76.30800933837891,-79.75604095458985,107.57521209716796,17.175197696685792,14.5712100982666,-8.25225534439087,-0.9098652720451356,0.3127782821655273,0.2056384950876235,42.37375869750976,76.68155212402344,-98.27210693359372,24.125449176151903,0.9581850042693738,25.40156621604167,0.9849977422232108,118.68176803588868,156.43759307861328,-205.84731903076167
385.867,-7.962150526046753,23.290302658081053,-0.1192592620849609,0.9319103121757508,-0.2752538800239562,0.0902966633439063,-73.97754516601563,-79.57916870117188,105.11028289794922,12.345401048660278,12.476200675964355,-9.817286682128906,-0.9277706742286682,0.298636245727539,0.1960963308811187,42.79315185546875,76.9745590209961,-98.03574829101562,25.325892435901157,0.976635041437892,21.930048097746187,0.9964745629880504,116.77069702148438,156.55372772216796,-203.14603118896488
408.143,-6.884606599807739,25.45060997009277,-1.8942678928375245,0.9498567342758178,-0.2853350043296813,0.1027315512299537,-71.44355010986328,-79.40248260498046,102.45652770996094,7.965346193313598,10.355635643005373,-11.473269081115722,-0.9437888145446778,0.2811310291290283,0.1837575614452361,42.930361938476565,77.25156707763672,-98.01813049316408,26.75081448607741,0.9978854248531565,18.69202307264602,1.0038047232634948,114.37391204833985,156.6540496826172,-200.474658203125
430.627,-4.678274017572403,27.65797691345215,-3.1423344135284426,0.964875555038452,-0.2836488723754882,0.106998561322689,-68.70148544311523,-79.20713500976562,99.63746643066406,5.091871881484986,7.850904858112335,-12.652726936340333,-0.9611912608146668,0.2644620776176453,0.181394201517105,42.819314575195314,77.49473266601562,-98.21579132080078,28.369601358946607,1.0120600763809693,16.600848350636987,1.014206709486797,111.52080001831057,156.70186767578124,-197.85325775146484
454.291,-3.6188838303089135,29.57110633850097,-3.801436376571656,0.9787551164627076,-0.2802672088146209,0.1114995375275611,-65.8412956237793,-78.983544921875,96.72064056396484,4.582076501846314,5.112727558612823,-13.302557373046875,-0.9848945140838624,0.2481890887022018,0.1891947239637374,42.47284774780273,77.70225524902344,-98.66111907958984,30.200012402481683,1.0248125794797698,15.908060363747577,1.03353721862183,108.31414337158203,156.68580017089843,-195.3817596435547
475.934,-3.123886984586716,30.92201538085937,-4.199165105819702,0.9931167840957642,-0.2880287319421767,0.1355858728289604,-62.92556304931641,-78.72106018066407,93.75918579101562,5.831248044967651,1.5140098690986634,-14.04796905517578,-1.001156759262085,0.2393571853637695,0.19832164645195,41.83659133911133,77.86503753662109,-99.43729248046876,31.56568034167961,1.0435568614410564,16.30952349076524,1.0487938605589493,104.76215438842772,156.58609771728516,-193.19647827148435
485.62,-1.5558285653591155,31.963902282714844,-4.9792829036712645,1.0000147461891171,-0.2935356259346008,0.1568815320730209,-59.97396392822266,-78.42789306640626,90.7944549560547,6.856064987182617,-2.464784228801727,-14.646460151672365,-1.006805920600891,0.2423341959714889,0.2106271773576736,40.91245651245117,77.96619262695313,-100.5275100708008,32.523718757490215,1.0543762020278793,17.136886534383965,1.0573537505336377,100.88642044067385,156.3940856933594,-191.32196502685545
510.536,-0.2456638522446155,32.82500991821289,-5.901105976104736,0.9991733312606812,-0.2884986758232116,0.1734340667724609,-57.0167594909668,-78.11253662109375,87.85100708007812,7.0077392578125,-6.369298923015594,-14.928145217895509,-1.0061099767684936,0.2359589219093322,0.2268279820680618,39.69745101928711,78.00084838867187,-101.9160415649414,33.364358877696006,1.0548672924278808,18.366275912335915,1.0586226785348043,96.7142105102539,156.11338500976564,-189.76704864501957
530.466,0.0468023411929607,33.08258285522461,-6.71438455581665,0.9953325986862184,-0.2815692901611327,0.1853049427270889,-54.1317611694336,-77.78099975585937,84.98390045166016,7.6540473937988285,-10.144108200073244,-14.556244468688964,-1.011685800552368,0.2162402004003524,0.2431711494922637,38.25351104736328,77.96561126708984,-103.54903106689451,33.77690367356895,1.0511493946937789,20.05115149665012,1.0631563166019553,92.38527221679688,155.74661102294922,-188.53293151855468
553.036,0.479545509070158,32.26384391784668,-7.356224346160888,0.9963465929031372,-0.2775539278984069,0.1892892211675643,-51.414056396484376,-77.44638671875,82.29220733642578,9.396041297912598,-14.393822479248048,-13.935425758361816,-1.0201843500137329,0.2002851098775863,0.253947901725769,36.63669128417969,77.84933166503906,-105.39281921386718,33.13427355009922,1.0516332249286031,22.910124231804534,1.0707145823262068,88.05074768066406,155.29571838378905,-187.68502655029292
575.534,0.856474494189024,30.63612823486328,-7.918369293212891,0.9970860481262208,-0.274245399236679,0.1932077199220657,-48.91692428588867,-77.11874237060547,79.8275146484375,10.798505210876463,-18.3749116897583,-12.053148651123047,-1.0168325066566468,0.1852200835943222,0.2498674362897872,35.00365676879883,77.64355926513672,-107.28201599121094,31.70889308260161,1.0522059862194797,25.33560756863928,1.0640608495532613,83.9205810546875,154.76230163574218,-187.10953063964843
586.424,1.105514692515135,28.991553115844727,-8.165950489044189,0.9958999156951904,-0.2617672204971313,0.1953041464090346,-46.6315055847168,-76.80079193115235,77.57788543701172,11.695590019226074,-21.989340591430665,-9.609916019439698,-1.0093202114105224,0.1605947509407997,0.239475205540657,33.42304801940918,77.3530990600586,-109.1361801147461,30.18079666831224,1.048566707766773,27.455165686161195,1.05080284279608,80.05455360412597,154.15389099121094,-186.7140655517578
613.017,1.0922990322113038,27.36833686828613,-7.539041996002197,0.9932820081710816,-0.2424467265605926,0.1804769307374953,-44.60887985229492,-76.49325103759766,75.59125213623047,12.301905250549316,-25.062225341796875,-7.067885351181031,-1.0040020108222962,0.1338159337639808,0.2196623921394348,31.95450706481933,76.99229583740234,-110.8892593383789,28.472336633804872,1.038982801803269,29.30534010763114,1.0375025151311557,76.56338691711426,153.485546875,-186.4805114746094
635.257,0.1701773405075073,25.98666648864746,-6.045855939388276,0.98968209028244,-0.2306276679039001,0.16454608887434,-42.89040603637695,-76.18331756591797,73.89780731201172,12.192489624023438,-27.58195304870605,-4.682069981098175,-0.989781129360199,0.1219551786780357,0.1909393310546875,30.65215644836426,76.57312469482422,-112.47346801757811,26.93202317421993,1.0302890643128797,30.91901288383156,1.0162441078415618,73.54256248474121,152.75644226074218,-186.37127532958985
655.2529999999999,-0.9883303165435792,25.299078369140624,-4.304298675805331,0.9822094440460204,-0.2235884130001068,0.151065245270729,-41.4361213684082,-75.8589370727539,72.43167724609376,11.208148956298828,-29.18986701965332,-2.365981066226959,-0.9732975244522096,0.1207994118332862,0.1653075993061065,29.550262451171875,76.10984649658204,-113.83650512695311,26.04961843752716,1.019688239258221,31.59508422625009,0.9953353552089862,70.98638381958008,151.96878356933593,-186.26818237304687
665.518,-2.30843448638916,25.00105819702149,-2.415635967999697,0.9782278060913084,-0.2107692450284957,0.1277804270386695,-40.22736892700196,-75.52179260253907,71.18138580322265,10.795746421813964,-29.69827690124512,-1.0955930694937706,-0.9725502967834472,0.121677105128765,0.1535938084125518,28.60976104736328,75.62948608398438,-115.02691040039062,25.54563476469118,1.0096599239677158,31.725771508806837,0.9926579147482706,68.83712997436524,151.15127868652343,-186.2082962036133
688.163,-4.347819709777832,24.54819221496582,-0.5867705591022969,0.9795976758003236,-0.2065415948629378,0.107172730565071,-39.27950973510743,-75.17471618652344,70.15314636230468,11.490641975402832,-29.39046859741211,-0.637108825147152,-0.9784033179283144,0.1248152256011962,0.1524742394685745,27.811334228515623,75.1506362915039,-116.08906402587893,25.151005074412392,1.0071928127182024,31.721108352363046,0.9984864662098634,67.09084396362304,150.32535247802736,-186.2422103881836
713.178,-6.41150221824646,23.840128707885743,0.5595669738948346,0.9852016687393188,-0.2004011631011962,0.0967876434326171,-38.52953567504883,-74.8305435180664,69.2820816040039,12.974286079406738,-28.36841735839844,-0.5402699694037438,-0.986955976486206,0.1294405013322829,0.1632264137268066,27.149699020385743,74.68449401855469,-117.0436996459961,24.868991867379627,1.0104279456893135,31.43937895564891,1.009291500140168,65.67923469543457,149.5150375366211,-186.32578125
725.522,-8.720543003082275,22.550600433349608,1.4681511275470256,0.992353641986847,-0.1924435377120971,0.0945132434368133,-37.96381607055664,-74.50086517333985,68.54555816650391,14.81647891998291,-26.72740974426269,-0.8824184522032738,-0.9957373142242432,0.1267741799354552,0.1849586427211761,26.58336296081543,74.24371490478515,-117.93876342773436,24.673087530393616,1.015614080334705,30.864435063125317,1.0215628058268158,64.54717903137207,148.744580078125,-186.48432159423828
747.736,-11.251743793487549,20.183261489868165,2.300678050518036,0.9928051233291626,-0.1821350306272506,0.0952943980693816,-37.60863494873047,-74.20333557128906,67.98814239501954,16.273506546020506,-24.81908721923828,-1.2631267413496972,-0.9983915567398072,0.1252318382263183,0.212023651599884,26.094515991210937,73.83052978515624,-118.78383941650392,24.00803853628121,1.0139789307706588,29.86728339451231,1.0291799778930646,63.70315093994141,148.03386535644532,-186.77198181152343
770.267,-13.6558406829834,16.51991367340088,3.0234679222106933,0.9852594614028932,-0.1795157015323638,0.0936648502945899,-37.514608001708986,-73.9577407836914,67.65707550048828,16.345092964172363,-23.09998321533203,-0.9957575321197508,-0.9928868889808656,0.1250648021697997,0.2372738689184189,25.686558532714844,73.43539276123047,-119.54892578125,22.77115838468172,1.005954306676062,28.40413373508627,1.0291835699425222,63.20116653442383,147.39313354492188,-187.20600128173828
793.091,-15.4849271774292,11.561741709709167,3.3137269258499145,0.9701741337776186,-0.1786559849977493,0.089833092689514,-37.69721145629883,-73.78927917480469,67.57738800048828,15.171280479431152,-21.58483276367188,-0.1763283014297486,-0.9803080677986143,0.1301568448543548,0.2556420207023621,25.37049674987793,73.05095977783203,-120.19496307373046,21.308869024617582,0.99070430777145,26.5379432375514,1.021986740515156,63.06770820617676,146.84023895263672,-187.7723510742188
815.313,-17.16836166381836,5.302789950370789,3.245646357536316,0.9508547306060792,-0.1811995595693588,0.0829711124300956,-38.19313583374024,-73.72159271240234,67.78973083496093,12.978289031982422,-19.99290809631348,1.078718113899231,-0.9610344171524048,0.1351189225912093,0.2645933508872986,25.152452087402345,72.67891235351563,-120.6875259399414,20.677086162497623,0.9716675158305116,24.17662777774216,1.006163808241102,63.34558792114258,146.40050506591797,-188.47725677490237
825.39,-17.97346725463867,-1.7671616792678833,2.655359101295472,0.9302860260009764,-0.1803226679563521,0.0732872560620307,-38.9915771484375,-73.77347717285156,68.30201416015625,10.430164527893066,-17.434504127502443,2.640015482902527,-0.9357125997543336,0.1452224403619765,0.2613692104816437,25.077466583251955,72.33828582763672,-120.96134185791016,21.024946761774792,0.95056954380935,20.8582619992578,0.9825292827094052,64.06904373168945,146.11176300048828,-189.2633560180664
847.763,-17.8239315032959,-8.86908733844757,1.8828042209148408,0.912790060043335,-0.1766871750354766,0.0604075379669665,-40.0661506652832,-73.94287414550782,69.10566864013671,6.934084594249725,-14.030356407165527,4.141022968292236,-0.9137140274047852,0.1439317196607589,0.2519746661186218,25.11986389160156,72.05109100341797,-121.02085723876954,22.283872052046775,0.9318311130095678,17.04290961050466,0.9589382156518912,65.18601455688477,145.99396514892578,-190.12652587890625
870.503,-17.307595825195314,-15.308776783943175,0.9908982336521148,0.9010483026504515,-0.1686884224414825,0.0456366411410271,-41.35403289794922,-74.20721435546875,70.14281463623047,3.3051124453544616,-9.677572059631348,5.354383563995361,-0.897427248954773,0.1352784857153892,0.2361624598503112,25.271050262451173,71.84248504638671,-120.87100219726562,24.524875406005467,0.9181673471664552,13.946750410955776,0.9382931257337586,66.6250831604004,146.04969940185546,-191.0138168334961
893.5809999999999,-16.55643081665039,-21.12586078643799,0.3806545257568359,0.8979903221130371,-0.1638307690620422,0.030930089438334,-42.864865112304685,-74.54969635009766,71.42563171386719,0.8454085707664489,-4.177601051330567,6.263401412963868,-0.8857531428337098,0.126390317082405,0.2156596451997757,25.567509841918945,71.73814239501954,-120.4985107421875,27.58386551952892,0.9136303155015516,11.855582494058687,0.9210098776736128,68.43237495422363,146.2878387451172,-191.92414245605465
915.476,-14.824102401733398,-25.87319564819336,-0.1405689358711242,0.8996254324913024,-0.1575989127159118,0.0237050885800271,-44.60854415893554,-74.96089935302734,72.97984619140625,-0.9988160729408264,2.243662452697754,6.691196250915527,-0.8799575567245483,0.1204067215323447,0.1985570490360259,26.02231674194336,71.7556365966797,-119.91028137207032,30.31079781383289,0.9138969256770298,11.58512198426341,0.910690819274068,70.6308609008789,146.71653594970704,-192.89012756347657
925.323,-12.814200592041017,-29.59575538635254,-0.4996200561523437,0.9031193971633912,-0.1518300712108611,0.0174954301211982,-46.575157165527344,-75.41727447509766,74.79981079101563,-3.332605803012848,8.214094924926759,6.386954498291016,-0.8857158660888672,0.1099269151687621,0.1880517244338989,26.565989685058597,71.89052886962891,-119.18062133789064,32.55886770496979,0.916097190278932,13.288634271954724,0.9124038797880876,73.14114685058594,147.30780334472655,-193.98043212890624
950.046,-10.254514789581298,-32.30949325561524,-0.8150050818920136,0.910856068134308,-0.1509783834218978,0.0058846129570156,-48.7526496887207,-75.89921112060547,76.88112335205078,-5.0549407482147215,13.835004425048828,5.3287101745605465,-0.891188633441925,0.1070777907967567,0.1803976327180862,27.181804656982425,72.13766937255859,-118.34316558837892,34.26896222954662,0.9234630808261136,16.76857839828029,0.9156427067923992,75.93445434570313,148.03688049316406,-195.2242889404297
970.056,-7.532864332199097,-34.754690170288086,-1.2352150499820709,0.9163924098014832,-0.152878525853157,0.001293485565111,-51.200982666015626,-76.41144561767578,79.28881530761718,-6.872406435012818,18.9833740234375,4.671969032287597,-0.8952798008918762,0.1182999163866042,0.1757155179977416,27.914452362060548,72.47672882080079,-117.35431823730468,35.95685533159195,0.9292567420378056,21.162768247016395,0.9202248213533148,79.11543502807618,148.88817443847657,-196.64313354492188
993.432,-4.4654625415802,-36.87172622680664,-2.152580213546753,0.9242294549942016,-0.1549812167882919,-0.0028280280530452,-53.91637649536133,-76.9490966796875,82.02441101074218,-9.560191345214845,23.662879943847656,3.889797592163086,-0.905663251876831,0.1331991985440253,0.1800009280443191,28.741586685180664,72.8933609008789,-116.22102661132811,37.52499376560026,0.9373710213211426,26.044149092111088,0.9332384225468934,82.657963180542,149.84245758056642,-198.2454376220703
1013.128,-1.8661461353302,-38.78498916625976,-3.3308654904365538,0.9325226783752442,-0.1617082446813583,-0.0111434966325759,-56.89069137573242,-77.49198303222656,85.0701919555664,-12.504135608673096,27.38125228881836,3.364709091186524,-0.9182487487792969,0.1402245819568633,0.1881473183631896,29.644363403320312,73.36662139892579,-114.954541015625,39.26366083602646,0.9467047322106688,30.39580696305924,0.9480349019045948,86.53505477905273,150.85860443115234,-200.0247329711914
1035.2030000000002,0.2951871871948242,-41.01228485107422,-4.7568540334701535,0.9455585718154907,-0.1639025092124938,-0.0159650218673049,-60.18578872680664,-78.0411590576172,88.47859497070313,-14.900152587890624,31.009627914428712,3.758839702606201,-0.9271148800849914,0.1419005021452903,0.1957874447107314,30.699213409423827,73.88449249267578,-113.48462371826172,41.40770108148057,0.9598686464315872,34.655360606528816,0.9583930239862154,90.88500213623048,151.92565155029297,-201.96321868896484
1046.0320000000002,1.669813346862793,-44.01924133300781,-6.272420120239258,0.956738579273224,-0.1650532454252243,-0.0101160237565636,-63.9325668334961,-78.59532928466797,92.3652603149414,-15.911717414855955,33.62486457824707,4.611066627502441,-0.9412152171134948,0.1398169964551925,0.2019499212503432,31.9391716003418,74.42512817382813,-111.80635681152344,44.55140163744,0.9710390509622412,37.53945083114203,0.973089174641278,95.87173843383788,153.02045745849608,-204.17161712646484
1067.46,2.826479959487915,-47.42438507080078,-7.659720993041992,0.9704611420631408,-0.1672657698392868,-0.0126299334689974,-68.2655876159668,-79.13841705322265,96.86105041503906,-15.460706901550292,35.37350845336914,5.227602005004883,-0.954346477985382,0.1344372630119323,0.2099067091941833,33.35989685058594,74.9728286743164,-109.95189361572264,48.1379879459136,0.9849903721142084,39.07446872925364,0.986605344880904,101.62548446655272,154.11124572753906,-206.8129440307617
1084.94,4.010341024398803,-51.025760650634766,-8.875502490997315,0.9791550397872923,-0.1688185155391692,-0.0129724653437733,-73.28334197998046,-79.64844360351563,102.06494445800782,-15.071552276611328,36.218651580810544,6.309862327575684,-0.9603670001029968,0.1345267981290817,0.2097395688295364,34.99271087646484,75.50508728027344,-107.88957977294922,51.96938830965221,0.9938266007611004,39.84821622995676,0.9923909491813578,108.27605285644532,155.15353088378907,-209.95452423095705
1107.406,5.238140439987182,-54.7257797241211,-9.883761787414551,0.9886309504508972,-0.1668554186820983,-0.0099828992038964,-79.0434814453125,-80.10043334960938,108.03784637451172,-15.41544303894043,36.7041732788086,7.338908004760742,-0.9656719088554382,0.1369647204875946,0.2039818316698073,36.83176651000976,76.01537628173828,-105.60971221923828,55.89989082012945,1.0027697365221937,40.58468186074621,0.9967319901872892,115.87524795532228,156.11580963134764,-213.64755859375
1125.018,6.794985103607178,-57.86541061401367,-10.688125610351562,0.9931150913238526,-0.1665083438158034,-0.0117383426986634,-85.50796203613281,-80.46147918701172,114.7505615234375,-16.199945831298827,36.2621826171875,7.792696857452393,-0.9699182987213136,0.1344219684600829,0.1976511746644973,38.79552001953125,76.49437713623047,-103.18771209716796,59.26939085577703,1.0071593318242458,40.64157135865128,0.9993157931927747,124.30348205566406,156.9558563232422,-217.93827362060543
1147.389,8.211082458496094,-60.37319259643554,-11.341592407226562,0.996646285057068,-0.1622024208307265,-0.0186735635623335,-92.55772552490234,-80.70303344726562,122.07933349609377,-17.03645477294922,35.72850799560547,8.586621379852295,-0.9678009986877442,0.1329767286777496,0.188427859544754,40.90527114868164,76.93504028320312,-100.6030044555664,61.99984310396675,1.0100434956908193,40.65836006640896,0.9953533805061204,133.46299667358397,157.63807373046876,-222.68233795166012
1170.093,9.428603363037109,-62.057288360595706,-11.750305557250975,1.0003064155578614,-0.1546580553054809,-0.0185405971482395,-99.93326263427734,-80.80162353515625,129.75949096679688,-17.94212188720703,35.44184951782226,8.955628967285156,-0.9661193251609802,0.1301745772361754,0.1739821791648864,43.15387649536133,77.34758911132812,-97.8677474975586,63.86715783569882,1.0125367204685554,40.794423318864105,0.9907569434642156,143.08713912963867,158.1492126464844,-227.62723846435543
1185.134,9.373896217346193,-62.723095703125,-11.69370632171631,1.005353033542633,-0.1436106234788894,-0.0156516144052147,-107.33174896240234,-80.74708557128906,137.46136322021485,-18.5666467666626,35.39601669311524,8.737763500213623,-0.967437505722046,0.1211405530571937,0.1572155728936194,45.52439498901367,77.74448089599609,-94.9924819946289,64.50156285583145,1.01584003086683,40.95519758227493,0.9880521685337632,152.85614395141602,158.49156646728517,-232.4538452148437
1207.5659999999998,8.726719093322753,-62.197913360595706,-11.382983207702637,1.0122820138931274,-0.1348360136151313,-0.0189809992909431,-114.4492965698242,-80.5444839477539,144.86832580566406,-17.98108654022217,35.259413146972655,8.58735694885254,-0.9742122173309328,0.1136429667472838,0.1455225095152854,48.03978652954102,78.11963348388672,-91.98361358642578,63.85476705858758,1.0215276067685777,40.54587969289033,0.9918830404921232,162.48908309936525,158.66411743164062,-236.85193939208983
1229.985,7.628420448303222,-60.2192138671875,-10.78492431640625,1.0211782932281497,-0.1275130718946456,-0.019709825515747,-120.9768310546875,-80.21998443603516,151.6617645263672,-16.243641090393066,35.88003234863281,8.131701374053955,-0.9798256278038024,0.1135381206870078,0.1255380779504775,50.80773773193359,78.48463745117188,-88.75631408691406,61.688885414271205,1.0294112461326663,40.30298752809978,0.9948089012067396,171.7845687866211,158.70462188720705,-240.41807861328124
1253.198,6.297891187667847,-56.5074821472168,-9.89416790008545,1.0329572200775146,-0.1236986815929412,-0.0117021827027201,-126.64813232421876,-79.81537170410157,157.569384765625,-15.097031593322754,36.97133941650391,6.962754821777343,-0.9887262225151062,0.1153355494141578,0.1055731892585754,53.82883529663086,78.85174255371093,-85.30048522949218,57.74151076526927,1.0405334937567654,40.66347773546183,1.0014956352376465,180.4769676208496,158.6671142578125,-242.8698699951172
1275.093,4.920911073684692,-50.934417724609375,-8.983533573150634,1.0432949542999268,-0.1228625684976577,-0.0022811980918049,-131.33595275878906,-79.38520812988281,162.46474914550782,-14.633401489257812,37.68291778564453,5.201880684494972,-1.000242257118225,0.1186155304312705,0.0911271512508392,57.03431777954101,79.22169952392578,-81.6784683227539,51.96057906742776,1.0506525902691926,40.93581600888798,1.0117206310380624,188.3702705383301,158.6069076538086,-244.14321746826167
1285.078,4.708673143386841,-43.40452041625976,-8.07980375289917,1.0534970045089722,-0.1251090258359908,0.0028240526095032,-135.01424407958984,-78.98032836914062,166.34222717285155,-14.642190551757812,37.69063339233399,3.5315511733293534,-1.0123136162757873,0.1161628037691115,0.0803047463297843,60.358377075195314,79.58572235107422,-77.94341278076172,44.46401928888225,1.061093819237724,40.80417771674573,1.0224323310553796,195.37262115478515,158.56605072021483,-244.28563995361327
1307.499,5.306527376174927,-33.76803932189942,-7.038482570648194,1.0624568939208985,-0.1331472113728523,0.021921201981604,-137.68792419433595,-78.64930877685546,169.22061767578126,-13.684431457519532,38.07283172607422,1.9591619454324245,-1.0175851225852963,0.1178387165069579,0.0605073418468236,63.90645599365234,79.94194183349609,-74.0170166015625,35.41748874334506,1.071419255067542,40.65307431564482,1.026372432920016,201.5943801879883,158.59125061035155,-243.23763427734372
1327.999,6.068932390213012,-22.560121250152587,-5.661341285705566,1.073264217376709,-0.1309599697589873,0.0341555943712591,-139.37889404296874,-78.43262023925782,171.1217529296875,-12.03453722000122,37.33285903930664,0.3860939703881741,-1.0327677965164184,0.1222402557730674,0.0617856454104184,67.54248657226563,80.27273559570312,-70.04777297973632,26.459721789444774,1.082130684140926,39.4719530804393,1.0420092908936636,206.9213806152344,158.70535583496093,-241.16952590942384
1349.871,5.93865852355957,-10.748642635345458,-3.970464622974396,1.0810916423797607,-0.1436765372753143,0.0539292335510253,-140.16595764160155,-78.34847106933594,172.10731506347656,-10.62454195022583,34.394799423217776,-1.0465220727026463,-1.0434809446334838,0.1283470824360847,0.0685231532901525,70.98481369018555,80.5640640258789,-66.30511703491212,20.05760314922154,1.0928171430486675,36.26205537647227,1.053880513421546,211.1507713317871,158.91253509521485,-238.41243209838868
1373.372,7.3297755241394045,1.7471840858459473,-2.497874021530152,1.0904402256011962,-0.1593081146478652,0.0807167183607816,-140.04588012695314,-78.41600952148437,172.19532165527343,-10.05556344985962,29.93668117523193,-1.902262372523546,-1.0531890630722045,0.127761061489582,0.0761969920247793,74.0110107421875,80.81134948730468,-62.99602355957031,18.428659537273184,1.106480583444323,32.07994371492756,1.0640564344937438,214.05689086914063,159.22735900878905,-235.19134521484372
1395.583,8.361061382293702,14.408172702789306,-0.6959405422210694,1.1030595541000363,-0.1692003667354583,0.1175295703113078,-138.94715576171876,-78.63829803466797,171.30963745117188,-9.125284099578858,24.07802715301513,-2.8998084373772146,-1.065541100502014,0.1216702476143836,0.0799745630472898,76.4168914794922,81.02564849853516,-60.348723602294925,21.35215988520952,1.124006690779922,27.211493226789703,1.0760279303964992,215.36404724121093,159.66394653320313,-231.6583610534668
1405.036,9.17530870437622,27.19693117141724,1.628385019302368,1.120359444618225,-0.176305815577507,0.1500715427100658,-136.67041015625,-79.00553131103516,169.24342346191406,-7.202423524856568,16.439183926582338,-4.369908928871155,-1.0728175163269045,0.1187868893146514,0.0830538809299468,77.95041961669922,81.2139678955078,-58.62851333618164,29.509931368028468,1.146291422810989,20.87129976496119,1.0830364251769466,214.6208297729492,160.21949920654296,-227.8719367980957
1427.313,11.065017223358154,40.79696445465088,4.197792196273804,1.1360275506973267,-0.1953055530786513,0.1831185638904571,-132.86899108886718,-79.49020538330078,165.66765441894532,-6.801432180404663,8.524286007881164,-5.892268943786621,-1.0743231773376465,0.1142715737223624,0.0765692867338657,78.52519226074219,81.38922271728515,-57.89540863037109,42.57937888730434,1.1678535413460982,15.85687065149121,1.0836212765417712,211.39418334960936,160.87942810058593,-223.5630630493164
1453.664,13.96375560760498,56.01066970825195,6.865263998508453,1.1529934644699096,-0.2018004953861236,0.2088603377342224,-127.0288314819336,-80.04400939941407,160.0907745361328,-6.230847978591918,0.7601533174514771,-7.230312061309815,-1.078894019126892,0.1044788107275962,0.0664503775537013,78.11522827148437,81.55885162353516,-58.1829704284668,58.27736285000772,1.189333327970538,14.051803701052116,1.086391781671773,205.144059753418,161.6028610229492,-218.2737449645996
1474.981,16.274346542358398,71.8676528930664,10.407909965515136,1.1715765476226807,-0.2083843111991882,0.2383454471826553,-118.71307983398438,-80.54732513427734,152.06279602050782,-2.9021155834198,-6.4226567029953,-8.54334659576416,-1.078917956352234,0.0972677811980246,0.0620468981564044,76.7874771118164,81.72031707763672,-59.46641082763672,74.47597693061428,1.2140480205642945,14.803229638851803,1.0852701234089637,195.5005569458008,162.26764221191405,-211.52920684814453
1494.922,18.97333755493164,88.39372787475585,14.48104248046875,1.1872905015945434,-0.2166617363691329,0.2612705320119857,-107.86988220214845,-80.83704681396485,141.53629455566406,1.4775167942047118,-13.103509974479676,-9.53739948272705,-1.0758697271347046,0.1005277320742606,0.0656133048236369,74.59027252197265,81.85306243896484,-61.716468048095706,91.59244384810395,1.2354991871565617,17.8409296836024,1.0827983830549432,182.46015472412108,162.6901092529297,-203.25276260375975
1505.555,21.97125015258789,104.80505065917968,18.552400588989254,1.1993525981903077,-0.2303283870220183,0.2860554784536361,-95.11925964355468,-80.73780517578125,129.13006286621095,4.585123825073242,-19.82032470703125,-10.066019248962402,-1.0745944261550904,0.097896859049797,0.0777948655188083,71.48667602539062,81.93419189453125,-64.9430320739746,108.70454508375732,1.2553403969086765,23.87404933638994,1.08210570977579,166.6059356689453,162.6719970703125,-194.07309494018557
1525.042,24.8687198638916,120.3492431640625,22.594816207885746,1.212014698982239,-0.2494122326374054,0.3260538011789321,-81.57777099609375,-80.0961929321289,115.967822265625,9.21574764251709,-27.136647033691407,-9.922154998779297,-1.0700159549713135,0.0886438533663749,0.0883429706096648,67.51283721923828,81.93132019042969,-69.13967056274414,124.97091467680777,1.2807871073360146,31.023459822501053,1.0776176311007544,149.09060821533205,162.0275131225586,-185.10749282836915
1547.244,28.80254783630371,134.95549621582032,26.568802642822263,1.2247851610183715,-0.2554780721664428,0.3619170546531676,-68.43695220947265,-78.80823669433593,103.25395965576172,15.973001194000243,-33.724592208862305,-9.652803993225096,-1.062630844116211,0.0882752910256385,0.1037943840026855,62.93670883178711,81.81861267089843,-74.07883758544922,140.5464475599466,1.3031979975849952,39.00696992946979,1.0714988693771037,131.37366104125977,160.62684936523436,-177.33279724121093
1564.928,31.58622207641601,149.08427734375,30.72768783569336,1.2384440660476683,-0.2645721465349196,0.3926920354366301,-56.82444152832032,-76.84603271484374,92.0980499267578,22.12453384399414,-39.86057891845703,-8.666025733947754,-1.0549817562103272,0.0947762712836265,0.1080747082829474,58.070458984375,81.56925506591797,-79.43522186279297,155.47411166832313,1.326618341339106,46.88427028769993,1.0649930166049908,114.89490051269532,158.41528778076173,-171.53327178955078
1587.583,34.356790161132814,163.09852600097656,34.66119384765625,1.2562640190124512,-0.2809389412403106,0.4297765612602234,-47.37614364624024,-74.25989379882813,83.14289093017578,28.49545745849609,-44.787045288085935,-6.920093727111817,-1.0459263563156127,0.1097282275557517,0.1096898168325423,53.315321350097655,81.17199249267578,-84.81053009033204,170.2579786788835,1.357784998275544,53.988308927420576,1.0580992697485163,100.69146499633788,155.4318862915039,-167.95342102050782
1609.872,36.60917472839356,177.549267578125,38.16838684082031,1.27190158367157,-0.2903032422065735,0.4643933415412903,-40.06029891967773,-71.13116683959962,76.34415740966797,34.40831031799316,-48.17398681640625,-4.686332726478577,-1.0355294942855835,0.1183851450681686,0.1105449557304382,48.98835372924805,80.63978881835938,-89.87698364257812,185.27760469757965,1.385339682507607,59.715911932103054,1.0488892234254343,89.04865264892578,151.77095565795898,-166.22114105224608
1625.7330000000002,37.347303009033205,192.19853515625,41.2658332824707,1.284893274307251,-0.2921983957290649,0.4918955564498901,-34.49264831542969,-67.54290313720703,71.28838806152343,40.45565757751465,-50.32603607177735,-1.9677729845047,-1.0286959886550904,0.1281102970242499,0.1192980617284774,45.31725997924805,79.98434906005859,-94.40826110839843,200.14431040412305,1.4070815884756414,64.91433071270991,1.0439837686566584,79.80990829467774,147.52725219726562,-165.69664916992187
1647.542,36.95203247070312,206.6017120361328,44.34293441772461,1.2876238346099853,-0.3067099750041961,0.5377765774726868,-30.27549362182617,-63.5621208190918,67.55110397338868,46.15264587402344,-51.61365585327148,1.4895458936691288,-1.0176493167877196,0.1369347855448722,0.1276974737644195,42.45030746459961,79.21854095458984,-98.24829711914064,214.56232676217832,1.4300393751136626,69.65556647286006,1.0352795731205895,72.72580108642578,142.78066177368163,-165.7994010925293
1669.709,36.56048583984375,220.3049133300781,46.671765899658205,1.2777786254882812,-0.3208015561103821,0.5792069792747497,-27.012949752807614,-59.25648193359375,64.74324493408203,53.49126892089844,-52.225189208984375,5.504880023002626,-1.007176733016968,0.1556628808379173,0.1474818170070648,40.45204238891601,78.35266723632813,-101.36473541259764,228.1985107535147,1.4410191108235355,75.50323497443242,1.0312598216330096,67.46499214172363,137.60914916992186,-166.10798034667968
1693.849,34.86928672790528,232.8482635498047,48.28218002319336,1.25488760471344,-0.324523651599884,0.6222161173820495,-24.442995452880854,-54.67793655395508,62.5700439453125,58.82051010131836,-51.52569580078125,10.300198435783388,-0.9989717602729796,0.1737159386277198,0.174018295109272,39.26898880004883,77.41041107177735,-103.76776123046876,240.4035562416232,1.440451656905967,79.48840471296694,1.031448369720021,63.71198425292969,132.0883476257324,-166.33780517578126
1715.405,31.97585182189941,243.8456115722656,49.589630889892575,1.2202184200286863,-0.3320164263248443,0.6767382979393005,-22.4118896484375,-49.85891189575195,60.86254653930664,62.4144157409668,-50.890557861328126,15.215092182159424,-0.994840931892395,0.199694626033306,0.2033876001834869,38.75762939453125,76.39586181640625,-105.56578674316408,250.95389756595483,1.4380913416975596,82.46351136270904,1.0377125134427116,61.16951904296875,126.2547737121582,-166.4283332824707
1726.165,28.90246963500977,253.53323974609376,50.33949508666992,1.171980619430542,-0.3339292347431183,0.7303687453269958,-20.788578033447266,-44.818850708007815,59.48284072875977,63.3798324584961,-48.66335754394531,20.27289733886719,-0.9841907501220704,0.2224683344364166,0.2221262842416763,38.8508186340332,75.34274291992188,-106.77012176513672,260.19913838388493,1.4239500881489924,82.97459766705987,1.0346609565720226,59.63939666748047,120.16159362792968,-166.2529624938965
1747.753,23.66343116760254,261.6456237792969,50.71736145019531,1.1120851159095764,-0.3294987678527832,0.7731585025787353,-19.521275329589844,-39.59711570739746,58.34008102416992,63.68703155517578,-44.92210083007812,25.706958770751957,-0.9826778650283814,0.2536438941955566,0.2362909436225891,39.52885208129883,74.27305755615234,-107.3747573852539,267.741569926784,1.3982650603992557,82.69966652931382,1.042448562425664,59.05012741088867,113.8701732635498,-165.71483840942383
1769.455,17.601294994354248,268.47198486328125,50.53747711181641,1.0444466114044189,-0.3278584420681,0.811733877658844,-18.552674102783204,-34.220821380615234,57.35382690429688,62.63260192871094,-39.93737907409668,31.71719627380371,-0.9856611609458924,0.2821042954921722,0.2435784518718719,40.730265045166014,73.2013427734375,-107.4188705444336,273.9507456656106,1.3670370552485716,81.53868719466303,1.054652277598782,59.28293914794922,107.42216415405274,-164.77269744873047
1792.1750000000002,11.134038162231446,273.8568725585937,49.81855773925781,0.9646572709083556,-0.3300902545452118,0.8451804399490357,-17.848569488525392,-28.71909637451172,56.46534500122071,61.15385437011719,-35.71574745178223,36.23251609802246,-0.9865748286247252,0.3161170959472656,0.2568098306655884,42.23739395141602,72.13236541748047,-107.10963745117188,278.7728132910676,1.3288066523072852,80.29237071082781,1.0696435805363609,60.08596343994141,100.8514617919922,-163.5749824523926
1814.825,5.111192226409912,278.5003601074219,48.08934020996094,0.8786803126335144,-0.3197575688362121,0.862087094783783,-17.368727111816405,-23.120538520812996,55.63003692626953,57.526893615722656,-31.5739860534668,41.00532875061035,-0.9819721937179564,0.332352203130722,0.257838499546051,43.96261138916016,71.06131896972656,-106.49040832519532,282.8446260848907,1.2766690446646378,78.15281400963084,1.070410088995564,61.33133850097656,94.18185749053956,-162.12044525146484
1824.698,-2.313044452667236,281.9541870117188,46.59400329589844,0.7802314996719361,-0.3028047323226928,0.8777534604072571,-17.12922058105469,-17.460377407073974,54.81022644042969,55.74646911621094,-30.480684661865237,45.240867614746094,-0.999971866607666,0.33631232380867,0.271663749217987,45.74047317504883,69.95370178222656,-105.77401733398438,285.9570470680595,1.2183651205707295,78.68934125273117,1.091775166192711,62.86969375610352,87.41407918930054,-160.58424377441406
1852.181,-9.618050479888916,284.4106201171875,45.06095962524414,0.6782301306724549,-0.285257413983345,0.8773481011390686,-17.114488220214845,-11.760989022254943,53.98468399047852,54.27444152832031,-33.183041381835935,48.71008987426758,-1.0150532722473145,0.3349492251873016,0.2779601782560348,47.38283004760742,68.76973419189453,-105.16546783447264,288.34997023840856,1.1519081618896054,80.83876230254093,1.1069897227851293,64.49731826782227,80.53072321414948,-159.15015182495117
1875.214,-17.204244232177736,285.8156677246094,44.13705291748047,0.5695752620697021,-0.2716619104146957,0.8761346459388732,-17.330080795288087,-6.041953396797181,53.134587097167966,54.045013427734375,-39.63265953063965,51.19291152954101,-1.009892427921295,0.344156140089035,0.2872444868087768,48.74607620239258,67.46432647705078,-104.83338012695312,289.97475808401,1.0879036238065385,84.9836777984945,1.107880287286671,66.07615699768067,73.50627987384796,-157.96796722412108
1884.707,-24.63289918899536,286.5764221191406,42.765193176269534,0.4534021258354187,-0.2430919766426086,0.8462690114974976,-17.78069496154785,-0.3220948457717895,52.22911605834961,52.43817138671875,-48.54933662414551,54.64713287353516,-1.0056366086006163,0.3456282377243042,0.296273809671402,49.78054122924805,65.99315338134765,-104.82343444824218,291.0531045781875,0.999783445981446,90.66236828366377,1.1073561587474596,67.5612361907959,66.31524822711944,-157.0525505065918
1907.121,-33.83091659545899,284.9392028808594,42.48583068847656,0.3251906350255013,-0.2354801714420318,0.830962872505188,-18.514847183227538,5.35473792552948,51.26311111450195,52.176639556884766,-57.326806640625,56.38997955322266,-1.0023690938949583,0.3594488263130188,0.3179058015346527,50.49798965454102,64.3841567993164,-105.14771270751952,290.31790199258774,0.9367654742783892,96.66464039206006,1.115677494899134,69.01283683776856,59.02941887378692,-156.41082382202148
1934.672,-39.57941284179688,281.8932861328125,41.50135192871094,0.2080647107213735,-0.232964265346527,0.7868997812271118,-19.479850387573244,10.95174844264984,50.20282897949219,47.46468429565429,-64.23953399658203,57.83985061645508,-0.9696992397308348,0.3868165969848632,0.325472092628479,50.930998992919925,62.66187744140625,-105.67183380126951,287.81748181230364,0.8608931592748938,99.89888679535709,1.0963290157168657,70.41084938049316,51.71012899875641,-155.87466278076172
1944.748,-45.57625885009766,277.3033874511719,40.49368591308594,0.0914178665727376,-0.2234056621789932,0.7392339468002319,-20.696027755737305,16.434646129608154,49.023312377929685,38.71876049041748,-68.7822982788086,59.35270385742187,-0.928330910205841,0.399055677652359,0.3441714465618133,51.089374542236335,60.85694808959961,-106.32174835205078,284.0870328267076,0.792887087420359,100.70408724603084,1.0682093722352897,71.78540229797363,44.42230195999146,-155.34506072998047
1967.126,-51.25246963500977,271.1212860107422,39.55145111083984,-0.0109676633030176,-0.216231095790863,0.6876586675643921,-22.176528549194337,21.76834526062012,47.69889602661133,26.49724597930908,-71.1319091796875,60.385344696044925,-0.9059805512428284,0.3955617487430573,0.3549465954303741,50.98443984985352,59.01669082641602,-107.01050109863282,278.9195156543734,0.7344501822954499,98.4849167835466,1.050659974154976,73.16096839904785,37.2483455657959,-154.70939712524415
1984.872,-56.76030731201172,263.8878143310547,39.21828002929688,-0.1006064746528863,-0.2130273967981338,0.64602632522583,-23.94997367858887,26.92878303527832,46.21198959350586,17.942099952697752,-71.50831756591796,60.80236053466797,-0.8767542958259582,0.3856357395648956,0.3590776562690735,50.74953155517578,57.17676696777344,-107.66386871337887,272.9289206991658,0.6988480614223602,96.4386273290869,1.023236924990346,74.69950523376465,30.24798393249512,-153.87585830688477
2007.667,-62.09873657226562,255.9075439453125,36.546410751342776,-0.1527129460126161,-0.2285575240850448,0.5881584763526917,-26.079963302612303,31.870458602905277,44.47159652709961,12.468787956237792,-70.04047927856445,61.31586685180664,-0.8450904965400696,0.3762891769409179,0.3422049939632415,50.506273651123045,55.36191101074219,-108.22857208251952,266.21858226111567,0.6588739130199643,94.13517941602348,0.9868621518738244,76.58623695373535,23.491452407836917,-152.70016860961914
2028.758,-70.41646118164063,246.8393585205078,33.13420295715332,-0.2167704313993454,-0.2138208299875258,0.5359261333942412,-28.686315536499023,36.5476261138916,42.41826629638672,7.144998073577881,-66.38729858398438,61.569384765625,-0.8125778198242187,0.3817115128040313,0.3248952269554138,50.29317016601563,53.59992065429688,-108.6610092163086,259.2871237364235,0.6268023900720932,91.16093055251945,0.9558307486020654,78.97948570251465,17.052294540405274,-151.07927551269532
2051.683,-75.15936660766602,239.0012573242188,30.45483474731445,-0.2759328991174697,-0.2233188807964324,0.4916722118854523,-31.75944328308105,40.97084350585938,39.98230819702148,1.3956673622131348,-58.661991882324216,61.09029693603516,-0.7956305146217346,0.3879072844982147,0.3036344110965728,50.149565887451175,51.94539108276367,-108.88819580078123,252.7620179759409,0.6197279346714247,86.24434245782821,0.9366411002350928,81.90900917053223,10.974547576904296,-148.87050399780273
2066.143,-78.14277648925781,231.7545959472656,29.675481414794923,-0.3308347165584564,-0.2087538599967956,0.4447198092937469,-35.30831336975098,45.152783966064455,37.127248764038086,-4.242840099334717,-46.151638984680176,59.31297760009765,-0.7695202350616455,0.3862786054611206,0.2867722332477569,50.12460708618164,50.48245468139648,-108.84423828125,246.61267486740945,0.6069184784138899,78.79530669876905,0.9083241378008268,85.43292045593262,5.329670715332031,-145.9714870452881
2087.179,-82.1933380126953,222.9632781982422,30.86800155639649,-0.3770821392536163,-0.2182135641574859,0.3978898227214813,-39.37174301147461,49.07527923583984,33.853899765014646,-11.479816722869874,-28.782758712768555,56.48567657470703,-0.7343456506729126,0.375279438495636,0.2600646942853927,50.23872222900391,49.288916778564456,-108.45039672851564,239.91891621038047,0.605845543990833,70.8230603085072,0.864945078785499,89.61046524047852,0.2136375427246093,-142.30429649353027
2109.6330000000003,-85.30520477294922,213.7814483642578,34.27322196960449,-0.4312532484531403,-0.1948942601680755,0.3287576735019684,-43.97275924682617,52.73376770019532,30.141781616210935,-20.32980871200561,-7.156097793579102,52.84444808959961,-0.697537612915039,0.3698142230510711,0.2487805932760238,50.49492721557617,48.42128677368164,-107.63028106689453,233.18223828696424,0.5854935848920073,66.7055142107688,0.8279835054551187,94.46768646240234,-4.312480926513672,-137.77206268310547
2131.834,-86.11834869384765,204.28640747070312,39.45883064270019,-0.4645416021347045,-0.2138117015361785,0.2763933956623077,-49.10120162963867,56.13139953613281,25.97083740234375,-26.789168548583984,18.79689826965332,48.28653411865234,-0.6747007608413697,0.36401646733284,0.2502340406179428,50.9919075012207,47.94291381835937,-106.30433807373046,225.7119639373881,0.5899662942800665,69.71926587015466,0.8070046368477067,100.09310913085938,-8.188485717773437,-132.27517547607422
2154.391,-87.75596466064454,192.37859802246092,44.550141143798825,-0.4860584259033203,-0.2210972219705581,0.2068151131272316,-54.80943832397461,59.22349624633789,21.31762809753418,-34.858377075195314,60.097699356079104,47.05886306762695,-0.6775486588478088,0.3773484885692596,0.2550680547952652,52.04466171264649,47.967621612548825,-104.00634002685548,216.54545441674716,0.5835900904881793,94.17269727909596,0.8167861656052873,106.85410003662108,-11.255874633789062,-125.32396812438964
2164.301,-89.69182586669922,179.01563720703126,47.350188446044925,-0.5061911463737487,-0.2406871259212493,0.1432406961917877,-61.1353141784668,61.94652404785156,16.14245738983154,-41.09751129150391,97.41352443695068,30.040675354003906,-0.6874065637588501,0.3834525585174561,0.2523692637681961,53.460812377929685,48.670736694335936,-101.05454559326172,206.00313874588565,0.5865336643389728,119.85704715483936,0.8270997541093094,114.59612655639648,-13.275787353515623,-117.19700298309326
2187.972,-88.48173370361329,165.60797424316405,48.15589370727539,-0.5270531713962555,-0.2504491448402404,0.0763897098600864,-68.02528457641601,64.26669540405274,10.4283175945282,-45.94066543579102,113.3007553100586,14.301490783691406,-0.6801675438880921,0.3806359231472015,0.2441632360219955,54.91764602661133,49.78861999511719,-97.92745056152344,194.0245495865803,0.5943664808746355,130.18836552238358,0.8173291285944739,122.94293060302736,-14.478075408935547,-108.35576815605164
2209.765,-85.45246887207031,151.95409088134767,49.37693634033203,-0.5590692460536957,-0.2555315226316451,0.0298357240855693,-75.32981643676757,66.19972305297851,4.288919782638549,-53.551588439941405,131.5545425415039,0.4401580810546882,-0.7124469995498657,0.3816818237304687,0.2317020565271377,56.5186767578125,51.30112915039062,-94.45975646972656,181.3894484279542,0.620620780567537,147.30451981713276,0.8425466142055212,131.84849319458007,-14.89859390258789,-98.7486762523651
2232.625,-81.22163848876953,137.28461151123048,50.02405471801758,-0.6001813054084778,-0.2714075535535812,-0.02923981025815,-82.83491363525391,67.75088348388672,-2.084866189956665,-59.154467010498045,141.8171585083008,-12.531935119628908,-0.7327295541763306,0.3694871127605438,0.2045133709907531,58.220001983642575,53.09031677246094,-90.7895751953125,167.37094553950146,0.663030903506774,157.9776381540657,0.8474627744664962,141.05491561889647,-14.660566711425782,-88.70470900535584
2254.264,-74.68229522705079,122.39462432861328,49.34214935302735,-0.6435310125350953,-0.2742635577917099,-0.0802743189036846,-90.29736022949218,68.93739624023438,-8.498420572280883,-57.28265228271484,127.18500671386718,-27.95548858642578,-0.7428749322891235,0.3514614582061767,0.1784199088811874,59.67336654663086,54.92239608764648,-87.57526550292968,151.84299835818263,0.7087646721865103,142.7573840037187,0.8425125520862107,149.97072677612306,-14.015000152587891,-79.0768449306488
2264.302,-65.96359405517578,107.17194213867188,48.25209655761719,-0.6972065567970276,-0.2729118019342422,-0.132011754065752,-97.45403900146484,69.81449279785156,-14.72963376045227,-53.74352416992188,106.76705169677734,-25.54105339050293,-0.7430354595184326,0.3495277702808379,0.1603230267763137,60.9711799621582,56.46637191772461,-84.71554870605469,135.04797936713635,0.7635449553572139,122.31526077682877,0.8377269750832607,158.42521896362305,-13.348120880126952,-69.98591494560242
2291.732,-56.35932235717773,92.00534133911133,46.91942367553711,-0.7550587177276611,-0.2655086934566498,-0.1830347761511802,-104.04263458251953,70.45262756347657,-20.53603572845459,-48.66266441345215,97.6800750732422,-22.54245262145996,-0.7802582502365112,0.3722797989845275,0.1552767097949981,62.30131072998047,57.839603424072266,-81.981982421875,117.98908729269584,0.8245219413353768,111.48367449857624,0.8790234543006351,166.3439453125,-12.613024139404295,-61.44594669342041
2312.14,-46.35437126159668,76.4913558959961,44.23182067871094,-0.8165018320083618,-0.263678553700447,-0.240805697441101,-109.86516876220703,70.9061279296875,-25.725414085388184,-38.20602416992188,76.34538764953614,-20.361832046508788,-0.7998981475830078,0.3911767363548278,0.1527647703886031,63.419560241699216,58.9415641784668,-79.79740753173829,100.13359891711204,0.8941379389751652,87.97635516779135,0.9041351353229684,173.28472900390625,-11.964563751220703,-54.0719934463501
2334.141,-35.05248394012451,61.27130699157715,40.18906288146973,-0.8745193362236023,-0.2541341572999954,-0.2906953275203704,-114.76390838623048,71.2337631225586,-30.165257263183594,-27.59781837463379,54.65850639343262,-17.81861743927002,-0.8300433278083801,0.4270425975322722,0.1623591691255569,64.26334838867187,59.768984985351565,-78.22366943359376,81.66482532651294,0.957514384410848,64.1692226358775,0.9482261168100244,179.02725677490236,-11.46477813720703,-48.05841217041016
2354.083,-23.39750599861145,46.32205352783203,34.67802505493164,-0.9300684928894044,-0.2427933126688003,-0.3260040253400802,-118.62237396240236,71.47729034423828,-33.74465827941894,-19.460824394226076,37.87852745056152,-15.90993137359619,-0.8347174286842346,0.461594820022583,0.1718438357114791,64.85209808349609,60.38323440551758,-77.16344299316407,63.35211536078669,1.016300316758835,46.01113314041904,0.9696494923367708,183.47447204589844,-11.094055938720704,-43.41878471374512
2364.225,-13.470469617843628,31.164521431922918,27.93094539642334,-0.9698261618614196,-0.2315072268247603,-0.3706383407115936,-121.3390625,71.68191223144531,-36.32768592834473,-14.51494140625,26.7239143371582,-14.558573913574218,-0.8528263211250305,0.4884077250957489,0.1830660223960876,65.24158477783203,60.8562515258789,-76.46950988769531,46.227831296095424,1.064614685727686,34.09815966803087,1.0002840417549936,186.58064727783204,-10.825660705566406,-40.14182395935059
2384.1420000000003,-5.083647298812866,15.504653191566469,19.288173484802247,-0.9990004658699037,-0.2235608994960784,-0.4008416593074798,-122.85357055664062,71.86231842041016,-37.81725006103515,-12.845384216308592,22.74715347290039,-14.411246490478517,-0.8629457592964173,0.507801479101181,0.1869715064764022,65.56402435302735,61.27852401733399,-75.89587097167968,33.54051945157492,1.1002007071315136,29.98080102175654,1.019210441689174,188.417594909668,-10.583794403076173,-38.07862091064453
2407.783,3.8956587314605713,-0.1191570043563842,9.703336143493653,-1.0105518460273744,-0.2171739965677261,-0.4133419096469879,-123.0906494140625,72.02867584228515,-38.14898834228516,-13.01327896118164,24.58181800842285,-13.616814804077148,-0.8590717554092407,0.5182644903659821,0.1922774165868758,65.97409057617188,61.68709716796875,-75.21661987304688,27.875391165759236,1.1138337694239486,31.314191050164528,1.0217292229530313,189.0647399902344,-10.341578674316406,-37.06763153076172
2426.926,10.633699083328247,-15.978538489341735,-0.7836259841918952,-1.004093325138092,-0.2001660704612731,-0.4113458931446075,-122.02138061523438,72.1717758178711,-37.24756317138672,-14.109077072143554,29.69601707458496,-13.36105556488037,-0.8552369713783264,0.5127652704715728,0.1898460716009139,66.56163177490234,62.12509689331055,-74.30728912353516,30.42355470062501,1.1036698635744084,35.96998399140902,1.0153667819718617,188.58301239013676,-10.046678924560547,-37.05972595214844
2448.549,14.132473278045657,-31.988732504844663,-10.91299877166748,-0.9905314683914184,-0.1943635910749435,-0.3989490211009979,-119.67538299560547,72.28047180175781,-35.07951469421387,-16.103170967102052,37.17135200500488,-13.205830383300782,-0.8559659600257874,0.4950721740722656,0.1806591272354125,67.4031967163086,62.6166244506836,-73.06308288574219,39.834982242405125,1.08600333868297,42.97984550968,1.005867351568038,187.07857971191407,-9.66384735107422,-37.98356819152832
2464.18,16.373366355895996,-48.29106063842774,-20.987499618530272,-0.9697888612747192,-0.1914660066366195,-0.3731006085872649,-116.08547973632812,72.3126235961914,-31.65111961364746,-17.328767395019533,45.59442291259766,-13.819103813171386,-0.8513059258460999,0.4697851181030273,0.1632998257875442,68.56136779785156,63.17972106933594,-71.43695068359375,55.66165996504132,1.0572445234163304,50.93590241782151,0.9868355133957378,184.6468475341797,-9.132902526855467,-39.78583106994629
2487.318,18.74780502319336,-64.35893669128419,-30.183202743530277,-0.9412314534187316,-0.1903851181268691,-0.3410155534744262,-111.34068298339844,72.21517028808594,-27.05203838348389,-15.628647232055664,51.73904876708984,-14.224835395812988,-0.8414800524711609,0.4492949366569519,0.1518929004669189,70.02858123779296,63.78058776855469,-69.50067443847657,73.8508680976498,1.0195989945141606,56.09562215777383,0.966418342285538,181.3692642211914,-8.43458251953125,-42.44863605499268
2510.501,18.962909317016603,-79.56855621337891,-39.0131290435791,-0.910870897769928,-0.1797224968671798,-0.3014989078044891,-105.66717681884764,71.91283721923828,-21.47179012298584,-12.64542546272278,54.33682327270508,-13.895456314086914,-0.838996434211731,0.4310565114021301,0.1326980039477348,71.72903900146484,64.37629470825195,-67.37360992431641,90.83739750811664,0.977077132593533,57.84732488268016,0.9531062015803616,177.3962158203125,-7.536542510986328,-45.90181980133057
2531.771,18.17214431762695,-94.09825820922852,-46.98478698730469,-0.8852864861488342,-0.1837197393178939,-0.254469084739685,-99.34872436523438,71.33615264892578,-15.167985582351683,-6.795773363113403,52.07427139282227,-12.412541389465334,-0.8491940975189209,0.4083351790904999,0.1087761595845222,73.54657897949218,64.91949462890625,-65.24600067138672,106.8649666509672,0.9410391279877178,55.20730052285158,0.9500011211218474,172.89530334472656,-6.416658020019531,-50.07801508903504
2554.034,17.568806457519532,-108.74282989501953,-54.70896377563477,-0.8598024725914002,-0.1825863808393478,-0.215946465730667,-92.64119720458984,70.41519165039062,-8.407425451278685,3.3583770275115965,41.52749824523926,-10.91985673904419,-0.8684336066246032,0.3826781988143921,0.0916400551795959,75.2002960205078,65.37380981445312,-63.51428070068359,123.0728736953674,0.9076246867217588,49.83423938661252,0.956060976758796,167.84149322509765,-5.0413818359375,-55.10685524940491
2563.993,16.551218223571777,-122.84439392089844,-61.86346206665039,-0.839335298538208,-0.1848963946104049,-0.1724175229668617,-85.88047943115234,69.09253692626953,-1.5115371227264398,17.092320203781128,21.87507743835449,-9.582254505157472,-0.8971982955932617,0.3603526175022125,0.0916585683822631,76.33099975585938,65.70527648925781,-62.64084014892578,138.638603761903,0.8790039791479787,49.708946994291225,0.9745782191903934,162.21147918701172,-3.3872604370117188,-61.12930302619934
2586.79,13.760225963592529,-136.3392822265625,-68.68148727416992,-0.8199638962745667,-0.182041648030281,-0.1240174539387225,-79.41247100830078,67.33627395629883,5.193815851211548,33.07191767692566,-7.236961746215819,-7.583191680908205,-0.9355287075042724,0.3404683828353881,0.1044068843126296,76.54750213623046,65.85884704589844,-63.10619659423829,153.38919327446496,0.8509083372430192,60.139981758601856,1.0037621615514192,155.95997314453126,-1.4774269104003903,-68.30001244544982
2610.455,11.082894897460935,-149.54830169677734,-74.91161880493163,-0.7982434272766114,-0.196629050374031,-0.0877867277711629,-73.4404800415039,65.14625701904296,11.511870431900023,51.39446792602539,-44.13151512145996,-5.639933598041536,-0.9648190021514892,0.3296617329120636,0.1325101122260093,75.57425079345703,65.76808624267578,-65.25700378417969,167.74891020210592,0.8281742720239602,81.83254948503995,1.0305596771486194,149.01473083496094,0.6218292236328127,-76.76887421607971
2631.353,8.665346717834472,-161.92515563964844,-81.55624694824219,-0.7720407366752624,-0.2079015672206878,-0.0557460755109786,-68.12086639404296,62.52305603027344,17.262703800201415,72.25837707519531,-84.55536918640136,-5.233814346790315,-0.9785759449005128,0.3364097118377686,0.1751285001635551,73.37986755371094,65.38427124023437,-69.20379638671875,181.6149672630625,0.8039262338322969,114.87089594799087,1.0521383864185607,141.5007339477539,2.8612152099609376,-86.46650018692017
2654.0910000000003,7.33691520690918,-173.66779479980468,-88.33726348876954,-0.7437836170196533,-0.232563754916191,-0.0258502915501594,-63.504825592041016,59.48090744018555,22.379332542419437,86.88188171386719,-101.9195541381836,-7.582914364337922,-0.9443260908126831,0.3623025178909301,0.2167239367961883,70.76912536621094,64.87388610839844,-73.93775939941406,195.03212704013603,0.7826848690824499,135.5563855448329,1.0387235709930709,134.27395095825196,5.392978668212891,-96.3170919418335
2664.05,6.847444152832031,-184.62535095214844,-95.83362731933592,-0.7190473079681396,-0.2457658857107162,0.0127325013279914,-59.5948989868164,56.03409957885742,26.830086517333985,89.54106140136719,-102.67115859985353,-6.645415604114534,-0.9173170924186708,0.3809800565242767,0.2530586540699005,68.23435974121094,64.28695297241211,-78.65765991210938,208.1656922914944,0.7631959181979443,138.06432758903887,1.028358151747784,127.82925872802734,8.252853393554688,-105.48774642944336
2689.167,6.819944095611572,-195.2570068359375,-103.45218200683594,-0.6906309962272644,-0.2702030450105667,0.0568938799202441,-56.32480239868164,52.20689697265625,30.668789672851563,87.10887451171875,-90.42971572875976,-1.945685780048372,-0.8879838228225708,0.4065053820610046,0.2604842394590377,66.32246246337891,63.64145736694336,-82.65617523193359,221.11168399015705,0.7484758523649564,128.92149816363084,1.01343377658443,122.64726486206057,11.434560394287107,-113.32496490478516
2711.491,7.225110912322998,-205.25571899414064,-111.73138275146484,-0.6580600380897522,-0.2959259390830993,0.1086795356124639,-53.61963424682617,48.02069091796875,33.972079849243165,84.03034210205078,-67.43621597290038,12.098475074768064,-0.8549088120460511,0.473714131116867,0.2738263249397278,65.57855987548828,62.86430969238281,-85.31182861328125,233.83672574173352,0.7365996467988001,117.49284532110488,1.0214820387297237,119.19819412231443,14.843618774414065,-119.2839084625244
2731.603,8.906250476837158,-213.92808227539064,-118.7893844604492,-0.6003518044948578,-0.3354052066802978,0.186892420053482,-51.3664665222168,43.5283920288086,36.81682472229004,78.09077606201171,-38.47184791564941,23.77077436447144,-0.8180396795272827,0.4919963419437408,0.2972479224205017,66.05470733642578,62.0829460144043,-86.49391632080078,244.89089693916853,0.7343781485464309,97.78633786848776,1.0051344474983632,117.42117385864258,18.554553985595703,-123.3107410430908
2753.975,12.523674297332764,-221.15813903808595,-126.57499237060549,-0.5311350286006927,-0.3610404670238495,0.247836522758007,-49.48316421508789,38.76025161743164,39.23703002929688,65.5176010131836,-25.315458679199217,34.84710111618042,-0.8144712209701538,0.4868757486343383,0.3068942070007324,66.93590087890625,61.22138442993164,-86.94453582763671,255.2778811868145,0.7119976873533009,82.37169151722368,1.0029037866953332,116.41906509399412,22.4611328125,-126.1815658569336
2764.011,14.868171405792236,-226.3516876220703,-131.83116455078124,-0.4301417976617812,-0.3921914279460907,0.3217755585908889,-47.91030502319336,33.79029006958008,41.31568908691407,53.36373662948608,-22.218760681152343,44.70292663574219,-0.8351746797561646,0.5196888446807861,0.2934278607368469,67.85553131103515,60.21398086547852,-87.08315582275391,262.5265350658425,0.6942252653962454,77.31474083379426,1.031805801826851,115.76583633422852,26.42369079589844,-128.39884490966796
2794.054,18.344725322723388,-230.2677032470703,-136.90897216796876,-0.3200660958886146,-0.4249399840831757,0.4024016290903091,-46.57613677978516,28.65175437927246,43.10739212036133,41.05893077850342,-17.69910535812378,45.765526580810544,-0.8698211550712586,0.4969425737857819,0.3100060105323791,68.68474731445312,59.23171463012695,-87.05103454589843,268.6513272156953,0.6989213764009075,68.67653782888313,1.058110296317585,115.26088409423828,30.57996025085449,-130.15842666625977
2803.924,24.69455757141113,-233.5988800048828,-139.83382263183594,-0.202119143679738,-0.4640543699264526,0.4596682786941528,-45.36238555908203,23.39104118347168,44.67170639038086,30.219669532775885,-16.173931980133055,29.06211128234863,-0.8805416464805603,0.4318430304527282,0.3122577369213104,69.1002212524414,58.57483444213867,-87.25252075195313,273.49507870945126,0.7069566135059497,53.271570990415135,1.034653007363547,114.46260681152344,35.183793258666995,-131.924227142334
2826.489,31.095000076293942,-237.20502014160155,-142.21288146972657,-0.0727584023028612,-0.460831731557846,0.4908078730106354,-44.22383499145508,18.02148714065552,46.06530914306641,14.680474853515625,-15.01020917892456,15.170697021484376,-0.8890093564987183,0.4121402978897094,0.3113140165805816,69.06317443847657,58.18647384643555,-87.63704223632813,278.440460554868,0.7095819395212536,37.08426007202727,1.032666651847552,113.28700942993164,40.16498670578003,-133.70235137939454
2846.436,33.824036026000975,-240.7873779296875,-141.95148620605468,0.0510257642716169,-0.4636473357677459,0.5372573077678681,-43.17941284179688,12.577772736549376,47.368115234375,4.7176222801208505,-16.803371715545655,2.204263687133788,-0.9081167340278624,0.4200552523136139,0.2970745980739593,68.62478637695312,58.02857666015625,-88.28200073242188,281.7044042802334,0.7349025005056744,33.27346198635079,1.0480981915287892,111.80419921875,45.45080392360687,-135.65011596679688
2863.79,36.12461967468262,-244.6994659423828,-140.97569580078124,0.1808980118483305,-0.4610607504844665,0.5854164838790894,-42.23497848510742,7.070006012916565,48.60869750976563,0.7729806900024425,-15.80299711227417,-15.801498794555664,-0.8846887350082397,0.4114663422107696,0.3043845295906067,67.91251525878906,58.20252380371094,-89.1744613647461,284.8450356239925,0.7919889166964728,33.463294504011245,1.026062722773124,110.14749374389648,51.13251779079437,-137.7831588745117
2886.417,41.43413619995117,-248.2167907714844,-139.40802612304688,0.323141610249877,-0.5020851969718934,0.5866403222084046,-41.3094955444336,1.5116844415664672,49.821884155273445,-3.778736209869384,-18.98998260498047,-30.014108657836918,-0.828216302394867,0.4240943908691406,0.2827606022357941,66.82312545776367,58.60393829345704,-90.41071319580078,287.78529350616384,0.859856736781644,40.10276768817513,0.975241749279711,108.13262100219728,57.09225385189056,-140.23259735107422
2908.793,41.64383773803711,-250.19723205566407,-137.35599670410156,0.4672906577587127,-0.4397220611572265,0.603082251548767,-40.50124740600586,-4.067722487449646,50.9946876525879,-16.39364366531372,-20.10705738067627,-35.65421295166016,-0.8184240341186524,0.4504233002662658,0.2612115085124969,65.36841049194337,59.081153106689456,-91.79579315185546,288.53736767725485,0.9045669299745216,47.285681673080525,0.972911361783526,105.86965789794922,63.1488755941391,-142.79048080444335
2931.405,38.89193344116211,-251.03789978027345,-134.06365051269532,0.6038880527019501,-0.4964510977268219,0.640595281124115,-39.86571731567383,-9.631540179252625,52.177920532226565,-27.31443128585816,-16.29115672111511,-42.50844841003418,-0.8045088648796082,0.4552033305168151,0.2033734306693076,63.69747161865234,59.70646667480469,-93.17841033935548,287.34145569558103,1.0319471212509916,55.857255070966445,0.9485274710341234,103.56318893432618,69.33800685405731,-145.35633087158203
2953.935,38.02775421142578,-248.70490417480468,-131.94384765625,0.7389809012413024,-0.4571641266345977,0.640814745426178,-39.34666519165039,-15.143292236328126,53.3178596496582,-33.804639625549314,-9.62429461479187,-46.702056121826175,-0.7885383605957031,0.4504778027534485,0.169996553659439,62.010772705078125,60.449833679199216,-94.42932739257812,284.180953792468,1.1051949975810549,60.50603574024976,0.926660906070316,101.35743789672853,75.59312591552734,-147.74718704223633
2963.911,34.47298755645752,-245.7438842773437,-127.946435546875,0.8473821401596069,-0.5017863810062408,0.626655387878418,-39.02173690795898,-20.567425537109376,54.48367004394531,-39.09589576721192,-4.6601309299469,-45.84062728881836,-0.8312748074531555,0.4257726848125457,0.1662809550762176,60.33028793334961,61.22196044921875,-95.5433563232422,279.4394113210876,1.1869798473515183,61.82912860966614,0.9526268410471644,99.3520248413086,81.78938598632813,-150.0270263671875
2986.403,28.47367916107178,-242.15973815917968,-124.61705780029295,0.9180862069129944,-0.467710942029953,0.6409823179244996,-38.93842086791992,-25.89858264923096,55.67784957885742,-41.89356460571289,-0.0044813632965088,-45.31919937133789,-0.8990194797515869,0.4282818615436554,0.1795359969139098,58.682247161865234,62.01924057006836,-96.54532928466796,274.00270247187086,1.225592656392354,62.32905564112584,1.0165407411504952,97.62066802978516,87.91782321929932,-152.2231788635254
3009.128,23.69432144165039,-239.51517028808595,-120.62100067138672,0.990889024734497,-0.5297709286212922,0.6401963233947754,-39.109494018554685,-31.136981201171874,56.974299621582034,-43.32043304443359,4.201386213302612,-47.04545288085937,-0.8999247312545776,0.4034108877182006,0.1815824627876281,57.03285522460938,62.874507904052734,-97.50502319335938,269.4070718700583,1.3030954333718958,64.15087615612978,1.006435456903785,96.14234924316406,94.0114891052246,-154.4793228149414
3031.431,20.63851890563965,-235.5983154296875,-116.1097396850586,1.0440029501914978,-0.4785289585590362,0.6027794480323792,-39.53468856811524,-36.25147552490235,58.41146163940429,-45.31057357788086,8.554503154754638,-47.00565643310547,-0.903938603401184,0.3934643805027008,0.1871698111295699,55.42087097167969,63.7656852722168,-98.36611938476562,263.6796116710017,1.3035698967695768,66.3409651660786,1.00630398471701,94.95555953979492,100.01716079711916,-156.77758102416993
3053.907,15.482571029663086,-231.09851989746093,-109.60664672851564,1.1060186266899108,-0.5103277087211608,0.5662838816642761,-40.298021697998045,-41.20141830444336,60.06977920532226,-49.52175216674805,14.583792400360108,-45.37859344482422,-0.9368292570114136,0.3859248161315918,0.1985272929072379,53.91942901611328,64.69451751708985,-99.0038803100586,256.28711707019795,1.3526649160415414,69.97661985967561,1.033877329543473,94.21745071411132,105.8959358215332,-159.07365951538085
3063.779,11.66830759048462,-224.4751983642578,-104.49847106933592,1.149410092830658,-0.4864998459815979,0.537604808807373,-41.41687698364258,-45.9703727722168,61.95843505859375,-52.842306518554686,19.329315376281738,-44.2547966003418,-0.942788028717041,0.3878746211528778,0.1908214196562766,52.505453491210936,65.64945907592774,-99.46310424804688,248.05477836101915,1.3661127195214584,72.96629920617968,1.038427405914107,93.92233047485352,111.61983184814451,-161.42153930664062
3088.7250000000004,8.182241916656494,-216.69700622558597,-98.81213073730468,1.1943678617477418,-0.4898985981941223,0.4947226047515869,-42.93979873657226,-50.52485885620117,64.15393753051758,-57.5935676574707,21.275581741333006,-42.36224594116211,-0.9286209106445312,0.3820240795612334,0.1963304445147514,51.047400665283206,66.57765045166016,-99.8536361694336,238.41806457749635,1.386454446311394,75.72092092878778,1.0249708064177792,93.98719940185546,117.10250930786133,-164.00757369995117
3109.009,6.442244052886963,-207.41798400878903,-94.07344665527344,1.2194294929504397,-0.4671035408973694,0.4470935106277466,-44.89962997436523,-54.844092559814456,66.71710205078125,-62.504248046875,23.354784965515137,-39.71383666992188,-0.9409832239151,0.3596673846244811,0.1679617136716842,49.55574264526367,67.48409423828124,-100.157861328125,227.93908434334529,1.3830352480176866,78.4271202312952,1.0247250111717978,94.4553726196289,122.3281867980957,-166.87496337890624
3131.4120000000003,6.035558414459228,-197.1213195800781,-89.24349517822266,1.2321343183517457,-0.4656855583190917,0.3894329905509949,-47.3744514465332,-58.89127960205078,69.73354034423828,-65.21381301879883,23.86439800262451,-37.269169616699216,-0.9484835624694824,0.3286302566528319,0.1401561401784419,47.997354888916014,68.35526580810547,-100.46062469482422,216.56442824788772,1.376288365684286,79.35250818620645,1.0201485430393809,95.37180633544922,127.24654541015624,-170.1941650390625
3153.655,5.836283206939697,-185.6135803222656,-83.5922607421875,1.2319561958312988,-0.4506847441196441,0.3485024183988571,-50.43945770263672,-62.62689361572266,73.30758361816406,-62.25215301513672,24.38059139251709,-32.20486927032471,-0.9539855003356934,0.3043302595615386,0.1175770442932844,46.61219100952148,69.16017150878906,-100.6296844482422,203.75872165314956,1.3635514299855327,75.41999682052446,1.0155843969662324,97.0516487121582,131.7870651245117,-173.93726806640626
3163.777,8.094831943511963,-173.21030883789064,-78.82237091064454,1.2298401594161987,-0.4468777418136597,0.2885229766368865,-54.11457748413086,-66.01803894042969,77.50255584716797,-59.25150451660157,26.52533893585205,-27.10053195953369,-0.9408485412597656,0.3026407241821289,0.1085826318711042,45.534803771972655,69.91734008789062,-100.52804412841796,190.51763845107047,1.3452697863039471,72.41325126715579,1.0013398084014775,99.64938125610352,135.9353790283203,-178.03059997558594
3191.962,9.947116374969482,-159.65829162597657,-72.56922607421875,1.2242406368255616,-0.4258891522884369,0.2474165260791778,-58.47828826904297,-69.01254653930664,82.38125305175781,-57.60891265869141,32.120541381835935,-22.41384525299072,-0.9442126274108886,0.2820904016494751,0.0855949264019727,44.88715515136719,70.69186096191406,-100.00057067871094,175.69381538892233,1.3222917757776096,71.65919174724982,0.9929865842009148,103.36544342041016,139.70440750122071,-182.38182373046877
3212.644,12.156618976593018,-145.3566635131836,-65.8901268005371,1.216440200805664,-0.4225639581680298,0.2265620112419128,-63.591244506835935,-71.5722412109375,88.02384643554687,-52.12251892089844,38.5818603515625,-17.630264282226562,-0.954678988456726,0.2583262652158737,0.0867434483021497,44.79906539916992,71.49523620605468,-98.98948974609377,160.11805644635808,1.3092600740504712,68.33441660257192,0.9981889054471096,108.39030990600584,143.06747741699218,-187.01333618164065
3234.49,14.32640619277954,-130.70499725341796,-59.38436279296875,1.2003220319747925,-0.4020910859107971,0.207444068789482,-69.4110610961914,-73.69862213134766,94.38635711669922,-44.18318176269531,44.80306396484375,-11.64525547027588,-0.9846079111099244,0.246774810552597,0.0978103626519441,45.45627288818359,72.30211791992187,-97.36086730957032,144.49908645600607,1.2844310669720875,64.96058663127894,1.0254148997147523,114.867333984375,146.00074005126953,-191.74722442626955
3244.907,16.371787738800048,-116.4404067993164,-52.62979736328125,1.1816572189331054,-0.3974747598171234,0.1996434122323989,-75.74267349243163,-75.39778442382813,101.26676330566406,-39.12491531372071,49.03051605224609,-10.040008163452148,-0.9970508575439452,0.2322357267141342,0.113795618712902,46.63334426879883,73.14244079589844,-95.29790954589843,129.10766835183082,1.2643839728790571,65.25211435953007,1.0352449538347082,122.37601776123049,148.54022521972655,-196.5646728515625
3266.739,18.642194175720213,-102.05108489990236,-45.33012504577637,1.1640185832977294,-0.3763215065002441,0.2018602728843689,-82.31331634521484,-76.6967529296875,108.4040023803711,-34.910211181640626,52.37408218383789,-9.497268676757812,-0.999200749397278,0.2052869170904159,0.120217303931713,48.22405242919922,74.00432891845703,-92.89271545410156,113.43611953547428,1.2410653427306473,65.42855979111735,1.030358089893431,130.53736877441406,150.70108184814453,-201.29671783447264
3290.943,21.17677917480469,-87.79638214111328,-37.98042106628418,1.1490589141845704,-0.3618112862110137,0.2001419365406036,-88.83625793457031,-77.629638671875,115.51843566894532,-29.05467185974121,53.97365798950195,-8.077511501312255,-0.999794888496399,0.1879761040210723,0.131398306787014,50.21673126220704,74.84213714599609,-90.19040222167968,98.27259365367428,1.2223428904660572,62.65681826869976,1.0292308167163011,139.05298919677733,152.4717758178711,-205.708837890625
3303.613,22.948657608032228,-73.69955978393554,-30.541720581054687,1.129158043861389,-0.3441909372806548,0.2039709091186523,-94.95746154785157,-78.23853454589843,122.24211730957032,-24.32531013488769,52.99246520996094,-5.897897481918335,-1.0158254623413083,0.1834446296095847,0.1686065375804901,52.48635787963868,75.60356292724609,-87.30115814208985,83.4115481094082,1.199316916687981,58.73258110218368,1.0502243605103678,147.44381942749024,153.84209747314452,-209.54327545166012
3326.14,23.405476760864257,-60.90256958007812,-23.61340293884277,1.1151407957077026,-0.3297731220722198,0.2278623908758163,-100.40267791748047,-78.58377532958984,128.281591796875,-21.486620330810545,47.81601867675781,-4.155179786682129,-1.029012393951416,0.1826438203454017,0.2127366408705711,54.7266242980957,76.24156188964844,-84.50857391357422,69.96553282774964,1.186955131184931,52.76482727694184,1.0690953415545417,155.12930221557616,154.8253372192383,-212.79016571044923
3349.259,24.692597961425783,-50.14032669067383,-17.561456871032714,1.1034918308258057,-0.3262623488903046,0.2559975683689117,-105.01510620117188,-78.73927764892578,133.49432525634765,-20.361701011657715,40.893660354614255,-2.058449459075928,-1.0322238206863403,0.1746177420020103,0.2334268361330032,56.75242156982422,76.7323989868164,-81.9487075805664,59.33852530687566,1.1799089676538133,45.93773405521314,1.0739607014720542,161.76752777099608,155.4716766357422,-215.44303283691409
3371.061,25.53050651550293,-40.310997009277344,-12.119218647480013,1.098568081855774,-0.3026775836944579,0.2704324603080749,-108.65140075683594,-78.76529235839844,137.7308380126953,-18.0201078414917,33.26452751159668,0.2674081802368164,-1.038027215003967,0.1615662589669227,0.2356095701456069,58.49336242675781,77.08265075683593,-79.7228515625,50.01598473755017,1.1716614014183175,38.06334446479581,1.077251704328464,167.14476318359374,155.8479431152344,-217.4536895751953
3391.3540000000003,24.42705345153809,-30.42609558105469,-6.925842964649201,1.1005159854888915,-0.2922610640525817,0.2821954488754272,-111.24375457763672,-78.7081527709961,140.88599548339843,-14.69057102203369,25.586213493347167,2.4095537185668947,-1.0438212394714357,0.1565191879868507,0.2286877274513244,59.915933990478514,77.30333709716797,-77.88574981689453,40.7445377937478,1.1733277641123174,29.955936896091124,1.0804989515492227,171.15968856811523,156.01148986816406,-218.77174530029296
3403.659,22.67379035949707,-19.723073482513428,-2.411863815784455,1.104714822769165,-0.279639321565628,0.2910343050956726,-112.71180419921876,-78.61734466552734,142.86276245117188,-10.718351793289184,18.569554233551024,4.261912870407104,-1.048710298538208,0.1590584963560104,0.2095338493585586,61.05224609375,77.41400299072265,-76.4220977783203,32.829701728612946,1.1762471986954242,22.36465383457887,1.08183611203483,173.76405029296876,156.03134765625,-219.28486022949215
3425.876,20.36076850891113,-7.73494749069214,1.9375918269157408,1.1096059799194335,-0.2672039955854415,0.2838661551475525,-112.95462951660156,-78.52317504882812,143.55010070800782,-6.858218050003051,12.597115182876587,4.841811275482177,-1.0522125959396362,0.1561378717422485,0.1922617226839065,61.874453735351565,77.45575561523438,-75.36557312011719,28.01506179897641,1.1764460682651567,16.614009879522442,1.081513175398007,174.82908325195314,155.9789306640625,-218.915673828125
3448.601,16.286701679229736,5.243018817901612,5.919435966014862,1.109615421295166,-0.2593992203474045,0.2822894275188446,-111.94913940429689,-78.44307861328124,142.8875244140625,-1.6051970005035403,7.1844877243042,5.422407722473144,-1.0503702640533448,0.156862461566925,0.1859572082757949,62.414493560791016,77.43354187011718,-74.72422790527344,26.72665229190985,1.1743037901774636,13.306847008352015,1.0786882850442348,174.3636329650879,155.87662048339843,-217.61175231933595
3470.935,12.754930210113525,18.522375965118407,9.38465394973755,1.112677526473999,-0.2584738522768021,0.2853240251541137,-109.7021224975586,-78.37611236572266,140.89505615234376,2.400548505783081,2.412310123443602,5.255217218399048,-1.048483419418335,0.1521278291940688,0.1712632149457931,62.67313461303711,77.37430877685547,-74.45428466796875,30.19133894417077,1.1777126975420726,11.541236260934053,1.0736182406341288,172.3752571105957,155.75042114257812,-215.3493408203125
3493.576,9.61865038871765,32.15496568679809,12.85079860687256,1.1159983158111573,-0.2475357234477996,0.2823914527893066,-106.20623321533203,-78.29447937011719,137.5706329345703,6.462205457687378,-2.625939655303956,4.749903631210327,-1.0472621679306031,0.1418894857168197,0.1562719106674193,62.617079162597655,77.28543243408203,-74.58974914550781,38.32534342065608,1.1777589464974008,12.189030156410263,1.068614159800945,168.82331237792968,155.5799118041992,-212.1603820800781
3504.2430000000004,6.346926403045655,45.862121963500975,16.681328964233398,1.1210155725479125,-0.2461906313896179,0.2744793534278869,-101.52046813964844,-78.1435317993164,132.96263122558594,11.275784111022949,-8.336615371704102,4.196045351028443,-1.0482566356658936,0.1442969501018523,0.1571719795465469,62.203311920166016,77.15133514404297,-75.18166046142578,49.98453869824544,1.1802335064562874,15.92998844855006,1.0700314601163436,163.72378005981446,155.29486694335938,-208.14429168701173
3527.71,3.2765085101127625,59.06708908081055,20.33597526550293,1.1260653972625732,-0.2548047333955764,0.284231811761856,-95.83289489746092,-77.86412353515625,127.26836547851562,15.135931587219238,-14.095627355575562,4.036803770065307,-1.047499680519104,0.1556867390871047,0.1531434953212737,61.467003631591794,76.95981140136719,-76.16819915771484,62.70687781226093,1.1891325664046963,21.62012969038281,1.070326812171244,157.29989852905274,154.82393493652344,-203.4365646362305
3548.488,1.723294937610626,72.10762634277344,23.501771926879883,1.1359735488891602,-0.257411453127861,0.2915098667144775,-89.36456756591797,-77.40050964355468,120.7359619140625,17.842523765563964,-19.96400117874145,3.697935152053833,-1.048405909538269,0.1643065303564071,0.1488006383180617,60.39916076660156,76.71162261962891,-77.53633117675781,75.93859139128658,1.2008250517387036,27.13184224447885,1.0719969205384712,149.76372833251952,154.11213226318358,-198.2722930908203
3571.379,-0.4717703700065613,84.97402496337891,26.84061965942383,1.1459906816482544,-0.268188139796257,0.2991857409477233,-82.43571472167969,-76.68723754882812,113.6751693725586,21.68851852416992,-25.361757659912108,4.110180377960205,-1.0474223375320435,0.1683710128068923,0.1516814976930617,59.09932403564453,76.39504547119141,-79.24172515869141,89.1694136869419,1.2147523946963834,33.65889683991468,1.0721205797817794,141.53503875732423,153.08228302001953,-192.91689453125
3590.866,-1.5592686533927915,97.62620849609377,30.02690544128418,1.1572103023529052,-0.2853873670101165,0.3154019892215728,-75.34689331054688,-75.66736297607422,106.39825592041016,25.21066780090332,-30.37098655700684,4.656443691253662,-1.0466565132141112,0.1817751556634902,0.1510891765356063,57.65103149414063,76.00439453125,-81.19484252929688,102.17911421411944,1.233299106997947,39.79154919615874,1.0732817012893006,132.9979248046875,151.67175750732423,-187.59309844970704
3613.478,-1.490145814418793,110.03697052001954,33.10581474304199,1.1713762521743774,-0.2978070080280304,0.3331339240074157,-68.44114761352539,-74.30171356201171,99.28545532226562,27.711642837524412,-34.84077606201172,4.930695915222168,-1.0416694164276123,0.196135327219963,0.1397633656859397,56.12106628417969,75.54828643798828,-83.29728088378906,114.94565786188562,1.2540143133694506,44.826334817064,1.069392889451446,124.56221389770508,149.85,-182.58273620605468
3623.362,-0.7752817869186401,122.7366729736328,36.52045097351074,1.1825751066207886,-0.3160633563995361,0.3511354923248291,-61.98917388916016,-72.55931091308594,92.60070495605468,29.857496643066405,-39.16217994689941,5.394026565551758,-1.0346986532211304,0.2064002484083175,0.141279225051403,54.52782516479492,75.01992797851562,-85.52075653076173,128.0939035359272,1.2739589958881288,49.553538498541855,1.0648420282425666,116.51699905395508,147.57923889160156,-178.1214614868164
3645.976,0.7336243629455567,135.71798400878907,40.06374664306641,1.193455123901367,-0.3373421370983123,0.3767681062221527,-56.15284576416016,-70.4305206298828,86.5254409790039,31.67091026306152,-42.78324432373047,5.92420711517334,-1.0277837991714478,0.2119729816913604,0.1424904063344001,52.93792953491211,74.4261489868164,-87.79871673583985,141.56795559878142,1.296644916077351,53.58618165893644,1.0594825576401732,109.09077529907226,144.8566696166992,-174.32415771484375
3663.341,3.7026095390319824,148.71681518554686,43.94086227416992,1.2024704933166503,-0.3520497977733611,0.4066025853157043,-50.99649505615234,-67.91709518432617,81.15817108154297,33.64032173156738,-46.85939559936524,6.258813667297363,-1.021504783630371,0.2170578032732009,0.1417719289660453,51.34654693603515,73.76385192871093,-90.11215057373047,155.15494720172686,1.318082533828697,58.03554315426733,1.0542506243744598,102.3430419921875,141.68094711303712,-171.27032165527345
3685.883,6.224301767349243,161.5054901123047,47.87765655517578,1.2056777477264404,-0.3701297581195831,0.4347732841968536,-46.57465057373047,-65.04143753051758,76.54176177978516,37.28822021484375,-50.03013305664062,6.93555793762207,-1.0057621717453002,0.2338477253913879,0.1510077998042106,49.8682243347168,73.02930297851563,-92.38188781738282,168.5941520649289,1.335072767618947,62.840895543213456,1.0442197931098227,96.44287490844728,138.0707405090332,-168.92364959716798
3703.464,7.963130331039428,174.22878723144532,51.57607803344727,1.205052661895752,-0.3918860554695129,0.4673847794532776,-42.84618072509765,-61.82920532226562,72.61795501708984,40.00459594726563,-51.93940887451172,9.074554538726806,-0.9865985989570618,0.2466904640197753,0.1597767531871795,48.60381240844727,72.22009887695313,-94.4942840576172,181.89177022040215,1.3514541822207673,66.34579651028267,1.0300238278198808,91.44999313354492,134.04930419921874,-167.11223907470702
3725.869,9.847350311279296,186.67198486328124,54.983289337158205,1.2023206233978272,-0.4113448202610016,0.499114441871643,-39.710531616210936,-58.308729553222655,69.2917236328125,43.58162689208984,-52.350396728515626,11.901918315887452,-0.9654946565628052,0.2572359085083007,0.1610851258039474,47.66320114135742,71.35225067138671,-96.3488037109375,194.8557199759614,1.3661478847445818,69.52036459839579,1.0128214778759606,87.37373275756836,129.66098022460938,-165.64052734375
3749.421,11.347103309631349,198.79863586425785,58.47425537109375,1.1976346254348755,-0.4291448831558228,0.530813068151474,-37.08335647583008,-54.49529037475586,66.47555160522461,49.39410552978516,-51.016936492919925,15.262588691711423,-0.9434722661972046,0.2693635910749435,0.1602629601955413,47.15716552734375,70.44610443115235,-97.8802017211914,207.53312915178608,1.3792788854043403,73.36451720169703,0.9949102996521522,84.24052200317382,124.9413948059082,-164.35575332641602
3763.256,12.616087532043457,211.13009948730468,61.92084274291992,1.1920525550842285,-0.4447708547115326,0.5621758997440338,-34.86524620056152,-50.38305511474609,64.04656066894532,54.928158569335935,-47.37905044555664,18.6466911315918,-0.9168524026870728,0.286753362417221,0.1603860974311828,47.14275131225586,69.53326416015625,-99.0253677368164,220.38741891950696,1.3918803074511628,75.7678481726197,0.9741241726264374,82.00799751281738,119.91631927490236,-163.07192840576172
3785.696,13.948329734802249,224.14010009765624,65.79559097290038,1.1841025829315186,-0.4524236440658569,0.5958340883255004,-32.978179168701175,-45.960059356689456,61.943145751953125,58.41643829345704,-42.4646614074707,21.95984306335449,-0.8961062550544738,0.2934330761432647,0.1599297553300857,47.56559600830078,68.64039154052735,-99.78544921875,234.0186669615702,1.4015939790365255,76.36027428388824,0.9566165244475352,80.54377517700195,114.6004508972168,-161.7285949707031
3810.434,14.768626022338868,236.88016052246093,69.57909698486328,1.1574596643447876,-0.4519095003604889,0.6321283340454101,-31.374213409423827,-41.23372650146485,60.09341201782227,64.14853363037109,-37.08418731689453,25.58355712890625,-0.8889965772628784,0.3148558855056763,0.174964079260826,48.433685302734375,67.76048736572265,-100.19918670654296,247.33300958945955,1.3957051126656592,79.19929868764527,0.9601100383597296,79.8078987121582,108.9942138671875,-160.29259872436523
3831.02,14.176283073425292,248.14174194335936,72.77001190185547,1.1086182832717897,-0.4555112481117248,0.6737537145614624,-30.033136749267577,-36.23715400695801,58.45263519287109,68.81635894775391,-31.070864105224608,29.33275375366211,-0.8915213227272034,0.3393989086151122,0.1959765285253524,49.69863510131836,66.89676361083984,-100.29124450683594,258.99929390944527,1.378791415104367,81.69894917061251,0.9753362197086872,79.73177185058594,103.13391761779783,-158.74387969970704
3852.357,12.71273488998413,257.6171142578125,75.03052062988282,1.0384766340255738,-0.4564776957035065,0.7129026174545288,-28.93400535583496,-31.01448097229004,56.97853240966797,71.15094604492188,-25.1693416595459,32.73931999206543,-0.8884759902954101,0.3627307116985321,0.2242184728384017,51.25115051269531,66.04492645263672,-100.11035614013672,268.6636283553882,1.3458497250619197,82.9368724198216,0.9873849042012154,80.18515586853027,97.05940742492676,-157.0888885498047
3863.101,10.423939514160155,265.00625,76.28530426025391,0.9454372763633728,-0.4462796688079834,0.7453767538070679,-28.06361846923828,-25.629975891113283,55.63143157958984,70.52393341064453,-19.338085174560547,35.86139106750488,-0.8921450614929199,0.3975662231445312,0.2558343708515166,53.00285339355469,65.19914245605469,-99.69822540283204,276.01877090592563,1.2916931973719403,82.06563034847694,1.0115559064148278,81.06647186279297,90.82911834716796,-155.32965698242188
3885.748,6.813011813163757,269.81736450195314,76.91327362060547,0.8364054799079895,-0.4441552758216858,0.7740143656730651,-27.42475280761719,-20.139669609069824,54.386477661132815,65.99953765869141,-14.20839023590088,38.498128509521486,-0.8968796849250793,0.4278686821460724,0.2794252067804336,54.828712463378906,64.35836410522461,-99.10531768798828,280.69693272415174,1.230804877851772,78.38393317821539,1.0331622804725336,82.25346527099609,84.49803371429444,-153.4917953491211
3909.54,3.15153968334198,272.56055908203126,76.94679565429688,0.724893307685852,-0.4428214788436889,0.7917593240737915,-26.998444747924804,-14.59004521369934,53.21114807128906,57.78268737792969,-10.02013864517212,39.746514892578126,-0.9104637145996094,0.4416410505771637,0.2971943736076355,56.56808013916016,63.54143524169922,-98.42566528320312,283.27582819779025,1.1678087239434187,71.70240662466489,1.0551540672670496,83.56652488708497,78.13148045539856,-151.63681335449218
3931.121,-1.2618895769119267,274.2635559082031,76.7260009765625,0.6118685781955719,-0.4241493105888366,0.7999384999275208,-26.78431930541992,-9.005910491943359,52.07942962646485,48.13771209716797,-8.548241710662841,40.34805679321289,-0.9264622449874876,0.4488620638847351,0.3026988863945007,58.09674835205078,62.73353576660156,-97.7678482055664,284.87635604454147,1.1007909772872293,64.51090707570835,1.0735309084534004,84.88106765747071,71.73944625854492,-149.84727783203124
3952.974,-5.586276078224183,274.91392822265624,76.20420989990234,0.495059460401535,-0.4034929990768433,0.7863117694854737,-26.77433967590332,-3.4128190994262697,50.95186996459961,40.124593353271486,-10.6014666557312,40.19979019165039,-0.9441267848014832,0.4540496468544006,0.3030853390693664,59.33451461791992,61.91414108276367,-97.26035766601562,285.4300923101514,1.02158151356781,58.90392080038088,1.0911267964645197,86.10885429382324,65.32696018218994,-148.21222763061525
3962.981,-11.19093143939972,273.6184448242187,76.34615783691406,0.3734627723693847,-0.3959891259670257,0.7644488573074341,-26.987995529174803,2.156570816040039,49.83619384765625,32.464992141723634,-16.182216548919676,41.510292053222656,-0.9584637522697448,0.4441796123981475,0.297096711397171,60.217227172851565,61.03028030395508,-96.98018798828124,284.41819552151725,0.950035188365818,56.58930945879258,1.0977280515303045,87.20522270202636,58.87370948791504,-146.8163818359375
3985.81,-15.956044006347655,270.47996215820314,75.41118469238282,0.2489463359117508,-0.3745271623134613,0.7247158050537109,-27.409068298339843,7.655417823791504,48.69397125244141,30.351847839355468,-24.4907322883606,43.64086608886719,-0.9581122636795044,0.4506661891937256,0.295584625005722,60.812442779541016,60.03214797973633,-96.98171691894532,281.3616964908174,0.8675507402059021,60.04353362465182,1.0999700822989869,88.22151107788086,52.37673015594483,-145.67568817138672
4008.107,-20.9886157989502,265.31481018066404,74.69073486328125,0.1283784627914428,-0.3612151265144348,0.684461236000061,-28.04342269897461,13.045941972732544,47.52272491455078,30.038149261474608,-31.292314720153808,46.21700820922852,-0.946287763118744,0.4424442052841186,0.2889624059200286,61.21822967529297,58.93341979980469,-97.19780578613282,276.5195852555129,0.8003805578309754,64.176417163741,1.08449794943048,89.26165237426758,45.88747782707215,-144.72053070068358
4030.617,-23.733039093017577,258.4611358642578,73.12540435791016,0.0249993622303009,-0.3469996690750122,0.6255795359611511,-28.85740623474121,18.28609161376953,46.29466934204102,29.793048095703124,-36.47536735534668,47.67250747680664,-0.9117897748947144,0.4587237417697906,0.2820012032985687,61.49294586181641,57.75566940307617,-97.5684799194336,269.71628923676747,0.7295760806281549,67.353982620702,1.0606634361222294,90.3503520965576,39.46957778930664,-143.8631492614746
4052.872,-26.58915901184082,250.24703979492188,71.81124114990234,-0.0696058690547943,-0.340931111574173,0.5921067833900452,-29.86094093322754,23.350650215148924,45.00171356201172,26.06499195098877,-37.36242218017578,47.50699234008789,-0.8695988416671753,0.4767782092094421,0.2659633755683899,61.68673400878906,56.568048095703126,-97.96544036865234,261.72637060993327,0.6966051590062633,65.94569388696775,1.02940141467361,91.5476749420166,33.2173978805542,-142.96715393066407
4073.018,-27.429884338378905,242.17034912109372,68.61614151000977,-0.1368612617254256,-0.3168488204479217,0.5363188862800599,-31.0454402923584,28.21917266845703,43.57905426025391,20.399059295654297,-35.317261123657225,46.51532897949219,-0.8313634514808654,0.4828538835048676,0.25388063788414,61.82300262451172,55.41869888305664,-98.3154281616211,253.2178000710132,0.6446737631289169,63.0418722131099,0.9960619054677826,92.86844291687012,27.199526214599608,-141.894482421875
4083.124,-29.72385482788086,233.70967712402344,65.67749633789063,-0.201777696609497,-0.3078811407089233,0.503756821155548,-32.45597114562988,32.86781692504883,42.00914840698242,11.134355354309085,-30.226115036010743,43.51642608642578,-0.8115193486213684,0.4721622169017792,0.2368541806936263,61.88171615600586,54.38453826904297,-98.559375,244.62703819791244,0.6311609578168454,56.67372263730232,0.9700382845913428,94.33768730163574,21.51672134399414,-140.56852340698242
4103.138999999999,-31.23440589904785,225.31475830078125,61.89539337158203,-0.254679051041603,-0.2888867795467377,0.4661950767040252,-34.10861587524414,37.28368186950684,40.2448112487793,2.441084671020508,-25.03459033966065,38.63275833129883,-0.7915582895278931,0.4700075924396515,0.218105912208557,61.84887008666992,53.4929313659668,-98.72008209228515,235.8227161079849,0.611618911223103,48.69601374163441,0.947174952696772,95.95748596191406,16.20924949645996,-138.96489334106445
4125.431,-33.124782180786134,216.67526550292968,58.537742614746094,-0.3042491465806961,-0.2805343151092529,0.4348736763000488,-36.045047760009766,41.46022033691406,38.25723419189453,-3.458067750930786,-16.42421112060547,33.323917388916016,-0.7769414067268372,0.4387036621570587,0.2015515893697738,61.83385467529297,52.78528060913086,-98.7246841430664,226.94770465463057,0.6066830081092716,39.832704052245205,0.91605257712183,97.87890243530272,11.325060272216795,-136.98191833496094
4142.956,-34.38618698120117,207.93115844726563,55.05631484985352,-0.3502802342176437,-0.2605346858501434,0.3891361534595489,-38.28093719482422,45.39436569213867,36.01244506835938,-8.476563692092896,-8.855369758605956,28.332258224487305,-0.7624105095863343,0.4136488497257232,0.1929146468639373,61.82865447998047,52.25194473266602,-98.58459014892578,217.88283234034392,0.5905445943292463,33.59174189409133,0.8890937115719154,100.10959167480468,6.857579040527344,-134.59703521728517
4165.474999999999,-36.20185317993164,198.5418823242188,52.59095001220703,-0.4014678955078125,-0.2591717422008514,0.3589030623435973,-40.86643905639649,49.07927703857422,33.48479118347168,-13.170045328140258,0.8418733596801772,23.507941818237303,-0.7537713170051574,0.4039362549781799,0.1777351081371307,61.89578704833984,51.89967193603516,-98.22416229248049,208.5734700500213,0.6038958924018113,31.989756830403337,0.8738885197076834,102.76222610473631,2.8203948974609374,-131.70895347595214
4188.068,-37.19390640258789,189.0885040283203,50.23369827270508,-0.4416893243789673,-0.2425742208957671,0.3215355575084686,-43.80997085571289,52.52483291625977,30.64719581604004,-17.248666048049927,13.67894229888916,18.22049121856689,-0.7405489683151245,0.3978864550590515,0.1731469929218291,62.10680084228515,51.76231994628906,-97.56614532470704,199.19578288559163,0.6041862839882505,34.62106980265043,0.8587552463930941,105.91677169799804,-0.7625129699707032,-128.21334114074708
4203.464999999999,-37.703469848632814,179.05880737304688,48.71548156738281,-0.485103303194046,-0.244702249765396,0.2738280028104782,-47.15377655029297,55.72275314331055,27.460074996948244,-23.66856446266174,29.78853073120117,11.693560695648197,-0.7195305705070496,0.3964191138744354,0.1714790582656859,62.47979583740234,51.88174743652344,-96.52478332519532,189.42792333059813,0.6154543109750913,43.89335397740261,0.8396019946441264,109.63357238769532,-3.841005706787109,-123.98485832214357
4225.554,-38.93051452636719,168.9630340576172,47.52511215209961,-0.5311552226543427,-0.231877914071083,0.2272493600845336,-50.93099365234375,58.67594680786133,23.90279808044433,-35.11744060516357,47.47060222625733,4.100725841522217,-0.7073853492736817,0.4020263850688934,0.1705850005149841,62.96134872436524,52.29528045654297,-95.0494400024414,179.88242020987647,0.6297265775660577,61.69250569204475,0.8314695722006233,113.89234237670898,-6.380666351318359,-118.95223808288574
4248.013,-40.88467254638672,158.17107849121095,47.20364074707031,-0.5784308314323425,-0.2382220238447189,0.1810347691178321,-55.16766891479492,61.36901092529297,19.9705322265625,-46.83930206298828,68.21578903198242,-4.918622684478758,-0.710472583770752,0.4014311850070953,0.1676185131072997,63.63230438232422,53.04256896972656,-93.05271911621094,170.23082837647777,0.6575900844722222,84.92774918929186,0.8331873303287765,118.79997329711914,-8.326441955566406,-113.02325134277343
4270.569,-42.431330871582034,146.8697982788086,46.49578704833984,-0.6243660926818848,-0.2383515626192092,0.133922504261136,-59.859700775146486,63.78309020996094,15.657135391235352,-55.87688446044922,88.78607177734375,-16.40730447769165,-0.7085935115814209,0.4045379757881164,0.171151915192604,64.5674819946289,54.15111999511719,-90.52963256835938,159.99073510353915,0.6881377104567471,107.17969514679469,0.8337440429587225,124.42718276977538,-9.63197021484375,-106.18676795959472
4293.621,-43.647769165039065,134.95938720703126,46.340223693847655,-0.6741423368453979,-0.2479899734258651,0.0798812061548232,-64.97628173828124,65.91748046875,10.992347502708435,-64.52251358032227,105.92394561767578,-28.06534872055054,-0.7184951543807984,0.4085252940654754,0.1662019908428191,65.75974731445312,55.57925643920898,-87.51982269287109,149.48598725031644,0.727026371891519,127.69456219919128,0.8431963357881276,130.73602905273438,-10.338224029541015,-98.51217019557951
4303.757,-45.84362716674805,122.8168228149414,45.88442687988281,-0.7214707255363464,-0.2517042011022567,0.0326594859361648,-70.46380081176758,67.76838836669921,6.043260455131531,-71.36587142944336,116.13413543701172,-36.71709098815918,-0.7435884714126587,0.4199687540531158,0.1556213825941085,67.17025909423828,57.20582046508789,-84.13356018066406,139.2515732953197,0.7683949866107898,141.48614592157162,0.8684290124208633,137.63405990600586,-10.562567901611327,-90.1768206357956
4325.577,-46.91077194213867,110.54998626708984,45.2756965637207,-0.7710912346839904,-0.2688156127929687,-0.0120177268981933,-76.2246078491211,69.33247985839844,0.8850680112838745,-72.52372436523437,115.91854095458984,-41.34322738647461,-0.782119607925415,0.4344413042068481,0.1404568567872047,68.70620422363281,58.86827545166015,-80.62593688964844,128.66287322293297,0.8196701183890245,143.0220527519496,0.9064637621805606,144.9308120727539,-10.46420440673828,-81.5110049009323
4345.749,-47.20521087646485,98.2528533935547,43.77533950805664,-0.8179541230201721,-0.2815393686294555,-0.0643708154559135,-82.10797576904297,70.6208511352539,-4.351677823066711,-68.03051071166992,104.67821578979492,-41.27829437255859,-0.8242899537086487,0.4496719479560852,0.1304462492465972,70.18059844970703,60.40223007202148,-77.34890441894531,117.8361713153568,0.869697339807297,131.7171613419138,0.9487873851225354,152.28857421875,-10.218621063232424,-72.9972265958786
4367.685,-47.0681884765625,86.1855079650879,42.10778884887695,-0.86734459400177,-0.2935944676399231,-0.1101428318768739,-87.95740051269532,71.65836334228516,-9.520722699165344,-58.8993335723877,84.587406539917,-36.42495994567871,-0.8696093678474426,0.4648946762084961,0.123901417851448,71.40240173339843,61.6689682006836,-74.62162780761719,107.13804193057562,0.9243979081293756,109.60717564345688,0.9942208268188631,159.35980224609375,-9.989395141601562,-65.10090510845184
4388.043,-45.7289306640625,74.60863647460937,39.4200912475586,-0.9128854870796204,-0.3007451713085174,-0.1616874605417251,-93.5821548461914,72.46567840576172,-14.459245967864993,-46.7326358795166,60.16858549118042,-27.44433174133301,-0.9026613116264344,0.4863469183444976,0.1255551397800445,72.25818328857422,62.57092056274414,-72.62313537597656,96.17597671862728,0.9767839027104298,81.71050905769606,1.0333193091751744,165.84033813476563,-9.894757843017578,-58.16388940811157
4410.434,-43.10094604492188,63.38440856933594,36.17866744995117,-0.961533796787262,-0.2968600273132324,-0.2101527750492095,-98.79068145751953,73.0837417602539,-19.00390930175781,-33.781941413879395,36.06770887374877,-19.150951385498047,-0.9178324937820436,0.5132542967796325,0.1382952719926833,72.67787170410156,63.13714370727539,-71.42536773681641,84.98413816857386,1.0303537561564242,54.7172212300937,1.0618461892026616,171.4685531616211,-9.946598052978516,-52.4214584350586
4433.633000000001,-40.76827087402344,51.94037132263183,32.020132827758786,-1.0038270950317385,-0.2858022719621658,-0.2614379584789276,-103.41290740966797,73.54313659667969,-22.977134704589844,-23.947373390197757,16.92442865371704,-11.361097407341004,-0.9225057363510132,0.5343385517597199,0.1579622909426688,72.7019287109375,63.41695327758789,-70.8995346069336,73.69587575190978,1.0784023174466757,34.15531575647893,1.0790032769957911,176.11483612060547,-10.126183319091798,-47.92239990234375
4443.815,-38.37394027709961,40.77704277038574,26.62409362792969,-1.0373756170272828,-0.2654590159654617,-0.2962608009576796,-107.32968292236328,73.87056427001953,-26.26001396179199,-18.534895133972167,5.360687685012818,-4.55361611843109,-0.9174377679824828,0.545274430513382,0.1726534634828567,72.4781280517578,63.48654479980469,-70.7684539794922,62.74310443626189,1.1127999398560051,22.088828451479092,1.0819660734882337,179.80781097412108,-10.384019470214843,-44.5084400177002
4470.385,-36.036094665527344,29.52142972946167,20.5756422996521,-1.0563357591629028,-0.2405025631189346,-0.3222137153148651,-110.40791168212893,74.09778900146485,-28.717418670654297,-16.776290702819825,0.6478043556213379,-0.2941444158554063,-0.9097609758377077,0.5399467170238494,0.1820575922727584,72.151708984375,63.44617691040039,-70.78146209716797,52.48309026548793,1.1311373120864476,17.745289978485477,1.0741741564088532,182.55962066650392,-10.651612091064454,-42.06404342651367
4493.58,-34.06073150634766,17.903447914123536,14.421512818336486,-1.0637371778488158,-0.2251019567251204,-0.328029054403305,-112.66697540283204,74.2543441772461,-30.35607872009277,-16.890627098083495,0.5956480026245117,1.9167467355728165,-0.9007774829864502,0.5179515540599823,0.1836140096187591,71.83996276855468,63.37217559814453,-70.76908264160156,43.9079778278269,1.136126603119216,17.890063498536456,1.0564386088324051,184.5069381713867,-10.882168579101563,-40.41300392150879
4513.589,-31.61553077697754,6.0000303268432615,7.64667284488678,-1.0498870015144348,-0.2087265789508818,-0.3206404566764831,-114.0141815185547,74.35736389160157,-31.09135055541992,-17.877073287963867,3.18592529296875,3.8506321191787736,-0.8944607973098755,0.4812496364116668,0.1754551857709884,71.62995300292968,63.28984298706055,-70.62401275634765,37.66729565691234,1.1176878223403013,19.302398583168475,1.0319949941707214,185.6441345214844,-11.067520904541016,-39.53266220092773
4523.65,-28.76341896057129,-5.738300514221191,1.53830988407135,-1.0262334942817688,-0.1948019534349441,-0.292640921473503,-114.43468933105468,74.43682861328125,-30.91778106689453,-18.07157516479492,6.8530881881713865,3.934053039550783,-0.881756329536438,0.4430939853191374,0.1622536152601241,71.55774536132813,63.24589767456055,-70.32443084716797,34.904477190420224,1.085312174678364,20.53086120250485,1.000946665135668,185.9924346923828,-11.190930938720705,-39.40664978027344
4545.115,-24.663255310058595,-17.54642734527588,-4.013336539268494,-0.9911869883537292,-0.1904494404792785,-0.2677670240402222,-113.89405822753906,74.5009765625,-29.82635841369629,-18.56685905456543,10.995769357681274,2.0379467964172377,-0.8716677665710449,0.4130823850631713,0.1508103281259536,71.61090698242188,63.27746124267578,-69.87270965576172,35.75345157056073,1.0448333841040502,22.67985364021738,0.9766241073102832,185.50496520996091,-11.22351531982422,-40.04635124206543
4563.936,-19.695781707763672,-28.791370487213136,-9.893601870536804,-0.9578208446502684,-0.1790653020143508,-0.2329124778509139,-112.39529266357422,74.53800201416016,-27.838994598388677,-20.539113235473632,16.066401863098143,-1.1108008384704575,-0.8552195429801941,0.3969643473625183,0.1315859049558639,71.79791412353515,63.40596618652344,-69.23215026855469,40.11506623544917,1.0026450722622275,27.04448508710679,0.952376232957002,184.19320678710935,-11.132035827636718,-41.39315567016602
4585.072,-15.343436813354492,-40.161739349365234,-15.71930446624756,-0.9237388253211976,-0.1678761899471282,-0.2028990328311919,-109.88385009765624,74.52745513916015,-24.89132461547852,-20.02617244720459,21.11934337615967,-4.176658916473388,-0.839905607700348,0.3856190979480743,0.1116266205906867,72.17729797363282,63.62571792602539,-68.39284820556641,47.70404682351793,0.9614001608555436,30.338963302353186,0.9313696865081612,182.06114807128907,-10.901737213134766,-43.50152359008789
4608.7300000000005,-11.487947463989258,-51.3439525604248,-22.07387351989746,-0.8955906867980957,-0.1674607157707213,-0.1759174734354018,-106.43588409423828,74.4168685913086,-21.04290714263916,-16.778625345230104,24.49524917602539,-7.191465473175048,-0.8358182311058044,0.3772845029830932,0.0951288908720015,72.74137115478516,63.923929595947264,-67.4234603881836,58.03978770273534,0.9286345234484884,32.05826783183051,0.9224191667036452,179.17725524902343,-10.492938995361328,-46.380553245544434
4630.256,-7.319910830259323,-62.38276519775391,-29.23551139831543,-0.8725991368293762,-0.1629623889923095,-0.149116352200508,-102.12731323242188,74.14974365234374,-16.37226333618164,-11.533600282669068,26.82710037231445,-9.82296676635742,-0.8440279483795166,0.3693740189075469,0.081255655735731,73.4970947265625,64.28689346313476,-66.36074981689453,69.6946799909186,0.9012415316944952,33.54449382060076,0.9255444616616731,175.62440795898436,-9.862850189208984,-49.98848648071289
4643.769,-3.813289946317673,-73.85906066894532,-35.98542022705078,-0.8583697199821472,-0.1597162336111068,-0.1216942191123961,-97.10214080810547,73.68391265869141,-11.01537787914276,-2.737815904617311,25.46390895843506,-11.107610702514648,-0.8621901869773865,0.3560768783092499,0.0641179688274859,74.3873306274414,64.67304229736328,-65.34416122436525,82.43586069069995,0.8824069555656925,33.46949357014748,0.9360087261028576,171.48947143554688,-9.010870361328124,-54.32878334522248
4665.9800000000005,-1.2590516269207002,-85.8268310546875,-42.02751197814941,-0.8471669793128968,-0.1675696074962615,-0.0996345423161983,-91.56778259277344,72.97781829833984,-5.151849246025085,14.17508044242859,16.702929878234862,-9.797442817687989,-0.9100866913795472,0.3406849861145019,0.0648467503488063,75.26893463134766,64.99926300048828,-64.7026496887207,95.75830966967496,0.8702128601874477,36.99215937075788,0.9753206329731942,166.8367172241211,-7.978555297851562,-59.55080044269562
4687.871,1.3404179394245148,-97.22369842529297,-48.52741775512696,-0.8371603131294251,-0.1769764870405197,-0.0765265185385942,-85.79288787841797,71.97643127441407,0.93815758228302,38.68932852745056,-5.077033805847168,-7.606228351593016,-0.9760392069816588,0.3475761771202087,0.0835375256836413,75.73715667724609,65.17775115966796,-65.0406623840332,108.7555149551292,0.8600236433801429,56.043654374844,1.0407459150220562,161.53004455566406,-6.798680114746094,-65.97881996631622
4711.296,3.812777787446976,-107.63239288330078,-55.04408416748047,-0.8310275435447693,-0.1774185746908187,-0.0508102007210254,-80.06891021728515,70.64924621582031,6.962458920478821,64.00115375518799,-33.965805244445804,-3.2668784141540512,-0.983974838256836,0.3575725257396698,0.1119221739470958,75.54905548095704,65.10733642578126,-66.63864364624024,120.99510574347218,0.8519595419729773,84.38179255353789,1.0559697670297483,155.6179656982422,-5.541909790039062,-73.60110256671905
4732.793,6.325053310394287,-116.79702758789062,-60.69900054931641,-0.8325523018836976,-0.2022062093019485,-0.0282169494777917,-74.64120788574219,68.99224700927735,12.657554173469544,81.89873161315919,-55.28465404510498,1.169508838653566,-0.9375653624534608,0.3606063663959503,0.1269560128450393,74.90949096679688,64.81261978149413,-69.1268913269043,131.8467544082006,0.8585467579996102,103.63296843281564,1.0170765615676003,149.55069885253906,-4.179627227783203,-81.78444550037383
4742.66,8.170155715942382,-125.1206039428711,-68.33174514770508,-0.8298362851142883,-0.2318355232477187,0.0029308211058378,-69.72479782104492,66.97074737548829,17.830454635620118,94.88629684448242,-69.88209457397461,4.979834079742433,-0.8939993619918823,0.3882077693939209,0.140256206691265,74.00912322998047,64.33296203613281,-72.1910888671875,142.906684801424,0.8645814022399756,119.0886767463523,0.990535159253128,143.7339210510254,-2.6377853393554687,-90.02154350280762
4765.974,10.842617988586426,-132.17713317871093,-76.07035903930664,-0.8219292402267456,-0.2567496865987776,0.0441250655800104,-65.39841156005859,64.6047607421875,22.36861057281494,98.70923156738282,-76.12413787841797,8.764391613006593,-0.8509194850921631,0.4256585359573364,0.150013968348503,73.02698364257813,63.713575744628905,-75.42888488769532,153.03320483374432,0.8665110021641727,125.39176565170312,0.9669127862023232,138.4253952026367,-0.8911849975585937,-97.79749546051023
4787.604,14.948625946044922,-138.67872009277343,-83.67632598876953,-0.8118766903877258,-0.2932729810476302,0.0897897154092788,-61.64894485473633,61.91365280151367,26.262569427490234,89.00852737426757,-69.00100326538086,11.702033615112306,-0.7958274006843566,0.4380884826183318,0.1525155544281005,72.24957733154297,63.04796142578125,-78.24441833496094,162.80042306516583,0.8737887755516383,113.724915183472,0.9223590352424051,133.8985221862793,1.1343086242675782,-104.50698776245116
4807.559,19.64969596862793,-145.25522155761718,-90.57559967041016,-0.7964316010475159,-0.3208232104778289,0.1295121479779481,-58.40671844482422,58.94183120727539,29.56413116455078,73.39010696411133,-55.25038299560547,13.22815532684326,-0.7981874465942382,0.4560089766979217,0.148413798213005,71.81801910400391,62.41825714111328,-80.35683746337891,172.44537371585932,0.8721661971989405,93.3667267840225,0.931637142417679,130.22473754882813,3.4764259338378904,-109.92096862792968
4831.299999999999,22.30900707244873,-152.6362274169922,-96.8481460571289,-0.7623342394828796,-0.3363116741180419,0.1738105997443198,-55.59962615966797,55.71012573242187,32.3989673614502,61.91341781616211,-49.422430419921874,16.48144588470459,-0.8454413414001465,0.4956212043762207,0.1733263134956359,71.47009887695313,61.753753662109375,-82.12687377929687,182.22128381077957,0.8543030628631698,82.00682427731954,0.996317857965224,127.0697250366211,6.0436279296875,-114.52584114074708
4852.445000000001,25.30422554016113,-159.3075744628906,-101.51569519042968,-0.7226699709892273,-0.3511888206005096,0.2289334297180175,-53.13712310791016,52.25589828491211,34.843445205688475,52.75361938476563,-46.27430953979492,24.062307167053223,-0.8808800458908081,0.5107553839683533,0.1951924979686736,71.17657928466797,60.96876831054688,-83.64161682128906,190.62002268935,0.8408123196690763,75.79649894894047,1.0376599799752138,124.31370239257812,8.712870025634766,-118.48506202697754
4862.531,28.52760505676269,-165.7027130126953,-106.45218505859376,-0.6778961539268493,-0.3780986487865448,0.2741388231515884,-50.966879272460936,48.583397674560544,36.931627655029295,45.59972457885742,-41.45832405090332,33.245391082763675,-0.8790054559707642,0.4956574559211731,0.2143951326608657,71.01572875976562,60.05079803466797,-84.84835052490234,199.0351170406261,0.8307653086942117,73.0065169105416,1.032500695476307,121.98260803222657,11.467400360107424,-121.77997817993165
4884.974,30.18043098449707,-172.216748046875,-110.71995239257812,-0.6156466245651245,-0.3733849346637726,0.3045280754566192,-49.04595184326172,44.71952667236328,38.75116119384766,41.03573150634766,-38.68788566589355,39.61317176818848,-0.8896244645118714,0.4924526274204254,0.2311943262815475,70.94192047119141,59.04005966186524,-85.85929870605469,206.97945234977823,0.7898929556227534,71.50148934717383,1.0438366937921686,119.98787231445311,14.320532989501952,-124.61045989990234
4912.66,30.142093658447266,-179.4063232421875,-113.10009307861328,-0.5404172778129578,-0.3999187767505646,0.3686987042427063,-47.341793823242185,40.66725463867188,40.37362213134766,38.884178924560544,-32.976539611816406,41.120138549804686,-0.8793981432914734,0.5049497187137604,0.254362428188324,71.03861846923829,58.03525314331055,-86.63318328857422,214.25813373503183,0.7793026014684659,67.2939280106131,1.0470936411991052,118.38041229248049,17.36799850463867,-127.00680541992188
4932.420999999999,32.662811279296875,-184.6950256347656,-116.71784057617188,-0.4744656622409821,-0.4197791039943695,0.4494379699230194,-45.80066757202148,36.44325332641601,41.777122497558594,34.40390968322754,-24.989207077026364,38.13023014068604,-0.8641126394271851,0.4890078663825988,0.2554902851581573,71.27928619384765,57.15179443359375,-87.14188232421876,220.9614053736128,0.7917814377905011,58.06846226916186,1.0267404121497683,117.07995376586912,20.708541107177734,-128.91900482177735
4942.835,35.46866912841797,-189.1310913085937,-118.76545104980468,-0.3831877261400222,-0.4243631720542907,0.4723017156124115,-44.386138916015625,32.094342422485354,42.99914474487305,25.75655417442322,-15.571503067016602,27.75299005508423,-0.8454114079475403,0.4645960330963135,0.2535133212804794,71.52345428466796,56.54147109985352,-87.44066467285157,226.18746405294752,0.7576533201333668,44.58293254153131,0.9988704757908444,115.9095932006836,24.447128677368163,-130.4398094177246
