Timestamp (ms),Wrist Gyroscope X (deg/s),Wrist Gyroscope Y (deg/s),Wrist Gyroscope Z (deg/s),Wrist Accelerometer X (g),Wrist Accelerometer Y (g),Wrist Accelerometer Z (g),Wrist Roll (deg),Wrist Pitch (deg),Wrist Yaw (deg),Arm Gyroscope X (deg/s),Arm Gyroscope Y (deg/s),Arm Gyroscope Z (deg/s),Arm Accelerometer X (g),Arm Accelerometer Y (g),Arm Accelerometer Z (g),Arm Roll (deg),Arm Pitch (deg),Arm Yaw (deg),Wrist Gyroscope Magnitude (deg/s),Wrist Accelerometer Magnitude (g),Arm Gyroscope Magnitude (deg/s),Arm Accelerometer Magnitude (g),Difference Roll (deg),Difference Pitch (deg),Difference Yaw (deg)
0.0,-3.1185429096221924,-0.1986122280359268,-0.5766677260398865,-0.8969347476959229,-0.1938708275556564,0.4102484881877899,-25.810415267944336,63.47706985473633,-137.40753173828125,-1.6389280557632446,-0.5839000940322876,-0.5467787981033325,-0.9975623488426208,-0.153895616531372,0.0065157869830727,-88.8510513305664,80.81334686279297,164.78497314453125,3.1776252709431074,1.0051774278513377,1.8237301186946848,1.0093844441519726,-63.04063606262207,17.33627700805664,302.1925048828125
0.075,-3.1964256167411804,-0.2693155743181705,-0.5626945048570633,-0.8955223709344864,-0.1947093494236469,0.4093209058046341,-25.830252647399902,63.47295665740967,-137.4177703857422,-1.7378789484500885,-0.6894780397415161,-0.5614749491214752,-0.9953858852386476,-0.1538613811135291,0.005865740822628,-88.83037185668945,80.81129837036133,164.82041931152344,3.2567303707439303,1.0037009771469936,1.9521417277551216,1.0072243007621922,-63.00011920928955,17.33834171295166,302.2381896972656
0.127,-3.2305836545096507,-0.337391966746913,-0.6062691575951047,-0.8948648538854388,-0.1960865664813253,0.4090710812144809,-25.8520450592041,63.467603259616425,-137.42755635579428,-1.7587504320674474,-0.7258290317323474,-0.4947701022028923,-0.9930340051651,-0.1543861561351351,0.0046128950909607,-88.81486256917317,80.81037224663629,164.8495127360026,3.3042497453221293,1.0032807173268243,1.965916661416961,1.0049740789799222,-62.96281750996907,17.342768987019866,302.2770690917969
0.18,-3.2248867203791938,-0.431342566696306,-0.6376904820402464,-0.8941054170330366,-0.196937706011037,0.4087297326574722,-25.87290346622467,63.461097160975136,-137.43529987335205,-1.6709389534468453,-0.6871714595084389,-0.4539194679819047,-0.9917461685836316,-0.1550403234238425,0.0040323029485685,-88.80526399612427,80.80949608484904,164.86988925933838,3.315508998631575,1.0026310144689117,1.8628699590475903,1.003799892535734,-62.9323605298996,17.34839892387391,302.30518913269043
0.24,-3.3020202867190043,-0.5149642180899778,-0.6699339179197947,-0.8936484865347545,-0.1974776492019493,0.4086695091923077,-25.894867038726808,63.453774579366055,-137.44187271118165,-1.5910042050977549,-0.6358896329502265,-0.4488058926910162,-0.9912270325422288,-0.1553480431934197,0.003935936091778,-88.79922126770019,80.8082890065511,164.88516189575196,3.408421566384688,1.0023052465011182,1.7711794757298007,1.00333420960287,-62.90435422897338,17.35451442718505,302.3270346069336
1.825,-3.493068823019664,-0.7033564954499403,-0.7363232831160228,-0.8923541502157846,-0.1992371407647927,0.4081319432457287,-25.948982410430908,63.43664933522543,-137.4590852355957,-1.5111258492370443,-0.5975990393261115,-0.4375925516337156,-0.989395460486412,-0.1559332678218681,0.0033461650817964,-88.77968605041504,80.80484448750813,164.9288478088379,3.638462881396808,1.0012807052794932,1.6828883460530517,1.0016135772170225,-62.83070363998413,17.368195152282702,302.38793304443357
1.891,-3.728683747450511,-0.9049000021318594,-0.85100861231486,-0.8916812245051066,-0.201095574547847,0.4079931252201397,-26.0173761177063,63.4134116490682,-137.47755935668943,-1.3755528346200785,-0.4870324125389258,-0.4157415910810232,-0.9884236258268356,-0.1567384163041908,0.00288609833767,-88.76794441223144,80.80075726826985,164.96515396118164,3.930158032521579,1.0009961171076296,1.5172960298667493,1.000777959790197,-62.750568294525145,17.387345619201646,302.44271331787104
14.691,-4.00367577791214,-1.121666858047247,-0.973616189956665,-0.8910492515563965,-0.202662339657545,0.4082191631197929,-26.10025339126587,63.38352207183839,-137.497296295166,-1.203789695650339,-0.3407343588769435,-0.4619260280579328,-0.9890875834226608,-0.1575663246214388,0.0033068784838541,-88.76346015930176,80.794740524292,164.99490005493163,4.270302654429508,1.0008414848280964,1.333636078572635,1.0015649403712648,-62.66320676803589,17.411218452453603,302.49219635009763
37.228,-4.358642873764039,-1.2992874413728714,-1.128674530982971,-0.8911248779296874,-0.204156982898712,0.4093700015544891,-26.20061714172364,63.34696929931641,-137.51984558105468,-1.1036756429076195,-0.2576344329118728,-0.5462695685029029,-0.9903514170646668,-0.1574434739351271,0.0040632896358146,-88.75895446777344,80.78674896240234,165.02838562011718,4.686130787036671,1.0016822948940585,1.258127921652531,1.0027965332456128,-62.558337326049795,17.43977966308593,302.54823120117186
60.727,-4.637438831329346,-1.485660570859909,-1.3071913146972656,-0.8912458968162538,-0.2058220309019088,0.4103495132923125,-26.31767890930176,63.30321014404298,-137.54528076171874,-1.0523679029941555,-0.2678664261102676,-0.6265273946523666,-0.9911501216888428,-0.1574055421352385,0.0043051405623554,-88.74676208496093,80.77680389404297,165.07532958984376,5.042001128455749,1.002531136701316,1.253701400549304,1.0035803917245285,-62.42908317565917,17.473593749999992,302.6206103515625
82.003,-4.818224220275879,-1.648257484436035,-1.501596071720123,-0.8915997552871705,-0.2070906436443327,0.4115463876724242,-26.44174003601075,63.25450637817384,-137.56976745605468,-1.0051621690392494,-0.3352918416261673,-0.6969809266924859,-0.991624264717102,-0.1576284927129744,0.0038472772901877,-88.72750671386719,80.76542205810547,165.1315362548828,5.3091268711962245,1.0035970742879772,1.2682878290442874,1.0040817823430743,-62.28576667785644,17.510915679931628,302.7013037109375
102.217,-4.906730289459228,-1.85346670627594,-1.6677424573898318,-0.8919169569015504,-0.2079071336984633,0.4129011249542236,-26.56847732543946,63.20041732788086,-137.59009033203125,-0.9420752781629564,-0.450678396821022,-0.7956368684768677,-0.9920499277114868,-0.1579124635457992,0.0032712496817111,-88.69563720703124,80.75199340820313,165.203427734375,5.503880982447812,1.0046036896406942,1.3128803729078498,1.0045447258783204,-62.12715988159178,17.551576080322278,302.79351806640625
112.35,-5.007784481048583,-2.108042521476745,-1.804586863517761,-0.8921904277801513,-0.2082329952716826,0.4132747912406921,-26.69616500854492,63.14092147827149,-137.60520751953123,-0.8904763552546502,-0.6028077282011509,-0.8890446710586547,-0.9917020964622498,-0.157579412460327,0.0023156724125146,-88.64834228515625,80.73691009521484,165.2932159423828,5.725232085161783,1.0050675563450369,1.3952511328017012,1.00414624517432,-61.95217727661132,17.59598861694335,302.89842346191404
134.535,-5.085891036987304,-2.463954043388367,-1.9058798122406,-0.8921705102920532,-0.2090509212017058,0.4127327072620391,-26.82230926513672,63.074815368652345,-137.61433471679686,-0.827557498216629,-0.733459645807743,-0.9582462787628174,-0.990668761730194,-0.1582662802934645,0.0010129429213702,-88.58944305419922,80.720048828125,165.39474670410158,5.964036806286824,1.004996912798202,1.46323285762922,1.003231696568309,-61.7671337890625,17.645233459472657,303.00908142089844
157.174,-5.116398620605469,-2.8909503602981568,-1.9664130163192748,-0.8919458937644957,-0.2099282509088515,0.412803429365158,-26.9429810333252,63.00093185424805,-137.61601623535157,-0.7300536945462227,-0.7715990255773069,-1.020107343196869,-0.989887044429779,-0.1591590780019759,-0.0001728797890245,-88.52919555664063,80.70151824951172,165.49476623535156,6.196927382291279,1.0050094622582566,1.4727397749896665,1.0026006197523438,-61.586214523315434,17.70058639526367,303.11078247070316
177.291,-5.068182182312012,-3.4233590793609623,-1.9929816341400148,-0.8918126511573792,-0.2107638478279113,0.4129563105106354,-27.05350631713867,62.91778320312501,-137.60905273437498,-0.5549843209981918,-0.7081661373376846,-1.078726408481598,-0.989789674282074,-0.1596386271715163,-0.000128724630922,-88.47394805908202,80.68174316406251,165.58323120117188,6.43256043993117,1.0051289065120637,1.4046912610894993,1.0025807235183866,-61.42044174194335,17.7639599609375,303.19228393554687
199.676,-4.963471832275391,-3.9802407121658328,-2.0083633804321286,-0.8914451909065246,-0.2118602114915846,0.4131926584243774,-27.152313690185547,62.824986114501954,-137.59501220703126,-0.3695526847243309,-0.6180692006647587,-1.121942799091339,-0.9900114488601686,-0.1594238305091857,0.000497048520483,-88.4245196533203,80.66147094726563,165.65712768554687,6.671723332425766,1.005130563946512,1.333167044308493,1.0027656125265083,-61.27220596313475,17.836484832763674,303.25213989257816
219.717,-4.749286594390869,-4.558377342224121,-2.0214169549942014,-0.8911723875999451,-0.2132683640718459,0.4148884022235871,-27.236456069946293,62.72158981323243,-137.5722918701172,-0.221614980995655,-0.5455754393339156,-1.168348686695099,-0.9899369406700136,-0.1592496162652968,0.0010517388023436,-88.37979583740234,80.64059112548827,165.71883422851562,6.886265581263991,1.0058846881398031,1.3083594358998838,1.0026647959005337,-61.14333976745605,17.919001312255844,303.29112609863284
242.082,-4.383219852447509,-5.181084632873536,-2.0335885047912594,-0.8902221369743348,-0.2143292903900145,0.4165144026279448,-27.301994552612307,62.60686172485352,-137.53803405761718,-0.0624264031648635,-0.4500918458402156,-1.2096659970283508,-0.989361035823822,-0.1589942187070846,0.0010152624128386,-88.34424377441407,80.61923248291015,165.76511413574218,7.084612653822891,1.0059407266209837,1.2921964053001187,1.00205561300081,-61.04224922180176,18.012370758056626,303.30314819335933
252.098,-4.038631439208984,-5.845346441268921,-2.0906590270996093,-0.889321482181549,-0.2155707126855849,0.4175367867946624,-27.35099014282227,62.4800163269043,-137.4919836425781,0.2218503132462501,-0.3212992933392524,-1.2262573218345645,-0.9891887497901916,-0.1583207714557647,0.0016886115539818,-88.31656005859375,80.59818756103515,165.7961828613281,7.406043078987292,1.0058331865494246,1.286917952606397,1.0017797666128074,-60.96556991577148,18.11817123413085,303.2881665039062
353.944,-3.805941228866577,-6.47440113067627,-2.200985555648804,-0.888094596862793,-0.2170188671350478,0.419708434343338,-27.387924270629885,62.34067764282226,-137.4348272705078,0.4808044016361236,-0.2186297018826008,-1.261237201690674,-0.9896315693855284,-0.1576070845127105,0.0027995793754234,-88.29260345458985,80.57713409423827,165.81845642089843,7.826071559515877,1.005964398738048,1.3673664827347742,1.0021070171681965,-60.90467918395997,18.236456451416018,303.25328369140624
354.014,-3.666886138916016,-7.091050777435302,-2.3785762214660644,-0.8870938324928282,-0.2186301350593566,0.4230911302566528,-27.41683288574219,62.188066711425776,-137.3672637939453,0.6164233574271203,-0.0938994240760803,-1.305249454975128,-0.989539396762848,-0.1567711037397384,0.0035666657146066,-88.27860321044923,80.55593933105469,165.8298944091797,8.329866741146823,1.006846913937138,1.4465375892580226,1.0018872779998138,-60.861770324707045,18.367872619628912,303.197158203125
354.36400000000003,-3.578206148147583,-7.742089691162109,-2.646339254379273,-0.8860686111450196,-0.2206665498018264,0.4260025215148925,-27.441991729736326,62.02099563598632,-137.29332092285156,0.6081900060176849,0.1387572789192199,-1.3213310289382936,-0.9890193009376528,-0.1564730024337767,0.0036376946512609,-88.29240814208985,80.53488006591797,165.81504455566406,8.930096498577628,1.0076157294300998,1.4611859409082704,1.001327224707398,-60.850416412353525,18.513884429931657,303.1083654785156
354.418,-3.5739720010757443,-8.459991664886475,-3.0642611789703373,-0.8861396241188049,-0.2237739366292953,0.429584070444107,-27.46969535827637,61.83679595947266,-137.21903259277343,0.39472681671381,0.4934280514717102,-1.316279079914093,-0.9886287593841552,-0.156591721177101,0.0024626777600496,-88.35623474121094,80.51418487548828,165.75454284667967,9.681654373471854,1.0098815186581622,1.4600928456888207,1.0009564704843117,-60.88653938293457,18.677388916015623,302.9735754394531
357.045,-3.4016710567474364,-9.393453788757324,-3.604316568374634,-0.8869343972206115,-0.2271153265237807,0.4347546529769898,-27.49633560180664,61.63017044067383,-137.14480224609375,0.0981100076436997,0.9437532997131348,-1.2953119027614597,-0.9874237751960754,-0.157079541683197,-0.000913489209488,-88.48976501464844,80.49387054443359,165.62979309082033,10.62070797945657,1.0135312549695918,1.6056552524607486,0.9998402515904272,-60.993429412841806,18.86370010375976,302.7745953369141
371.9,-3.024538712501526,-10.726100406646728,-4.304176006317139,-0.8886300206184388,-0.2323236244916915,0.4403288352489471,-27.51802810668945,61.39251708984375,-137.0700225830078,-0.1495639684796333,1.4793177652359009,-1.2664341568946835,-0.9839072370529176,-0.1581474566459655,-0.0077598101552575,-88.7128353881836,80.47355926513673,165.42010437011717,11.946672986662172,1.0185907240854777,1.9531016115295856,0.9965662465798945,-61.19480728149416,19.08104217529298,302.490126953125
483.992,-2.289595947265625,-12.66003746032715,-5.191356611251831,-0.8905188202857971,-0.240215498805046,0.4456088948249816,-27.52670890808105,61.11142898559571,-136.99280395507813,0.0983203935623168,2.048065090179444,-1.1824910032749174,-0.9801847290992738,-0.1613153874874114,-0.0155792702920734,-89.0215609741211,80.45309112548829,165.1195440673828,13.873319053629883,1.0243507906457174,2.3669648257268423,0.9934925621575956,-61.49485206604005,19.341662139892577,302.11234802246094
484.057,-1.3085833072662354,-15.23780960083008,-6.379526309967041,-0.8927787566184998,-0.2492114150524139,0.4559801113605499,-27.515355377197267,60.771030273437496,-136.90990844726562,1.2049204444885253,2.5467257177829743,-1.0818495893478397,-0.9796045064926148,-0.1641734147071838,-0.0216071778256445,-89.38311309814455,80.43314056396484,164.7441387939453,16.571107013195192,1.0329947239062165,3.017953560467046,0.9935012679261388,-61.86775772094728,19.662110290527345,301.65404724121095
484.092,-0.3946175289154053,-18.49433776855469,-7.90249662399292,-0.8954198431968688,-0.2588403338193893,0.4731173992156982,-27.48238327026367,60.35420623779297,-136.81707885742188,2.9512047863006594,2.7363375383615494,-1.0362726485729217,-0.982292478084564,-0.1654415524005889,-0.0231990512274205,-89.73273468017578,80.41367309570312,164.34694763183592,20.11580735102957,1.0452823003586469,4.155840927743842,0.9963973182120088,-62.25035140991211,20.059466857910145,301.1640264892578
484.13,0.2055665397644042,-22.369055519104,-9.886293449401856,-0.8975800895690919,-0.2712922483682631,0.4951451337337493,-27.439009170532227,59.84408889770508,-136.72199890136716,4.718721160888672,2.4409710359573364,-1.0950609064102172,-0.985841646194458,-0.1657981169223785,-0.0225543384160845,-90.00606323242188,80.39314117431641,163.99231018066405,24.457221849317104,1.060385875366029,5.4243734551880864,0.999940730807478,-62.56705406188965,20.549052276611334,300.7143090820312
484.16,0.518702449798584,-26.86835342407226,-12.410176753997805,-0.8996620130538939,-0.2845058518648147,0.5201481580734253,-27.396282577514647,59.22446517944336,-136.63510375976563,6.485670719146728,1.790912474989891,-1.1193598663806914,-0.991140775680542,-0.166557713150978,-0.019878071323037,-90.1557339477539,80.37217834472656,163.7265100097656,29.60050599259665,1.0774457869538892,6.8208693493377694,1.005234622735525,-62.759451370239255,21.147713165283207,300.36161376953123
491.844,0.1538466644287109,-31.991232948303217,-15.573572368621823,-0.9032745814323424,-0.2977314400672912,0.5512258362770079,-27.37327392578125,58.47795593261719,-136.56757202148438,7.937051267623902,0.8986664032936096,-1.2563655066490174,-0.9966388630867004,-0.1678581804037093,-0.0179766145348548,-90.16418823242188,80.34827026367188,163.5723455810547,35.58087703626006,1.0992719874742571,8.085965521543875,1.0108355706114274,-62.79091430664063,21.870314331054686,300.1399176025391
515.565,-0.6581835460662842,-37.972606048583984,-19.275360145568847,-0.9079842281341552,-0.3128117781877517,0.582726376056671,-27.38205406188965,57.5859878540039,-136.52569519042967,8.8634889793396,-0.1940596812963486,-1.3252157533168791,-0.9986226463317872,-0.1712630313634871,-0.0182172735780477,-90.02767150878906,80.32138458251953,163.54432006835935,42.589805405080845,1.1233239054099675,8.964111380366633,1.0133657211170752,-62.64561744689941,22.735396728515624,300.070015258789
536.714,-1.4608398866653445,-44.94191696166992,-23.51321445465088,-0.9120300936698914,-0.3298824930191039,0.6118824148178101,-27.424402923583983,56.52842483520508,-136.5150811767578,9.927075748443604,-1.2695981001853944,-1.332945899963379,-0.9971213960647584,-0.1763885349035262,-0.0222652569413184,-89.76044281005859,80.29148895263673,163.6253839111328,50.74230195167056,1.14674384259227,10.096309079240823,1.0128473406205931,-62.33603988647461,23.763064117431647,300.14046508789056
559.2909999999999,-2.356687440872192,-52.98866271972656,-28.175595054626463,-0.9154353857040404,-0.3477047777175903,0.6409482777118682,-27.497125473022464,55.28427261352539,-136.52808837890626,11.614471912384031,-2.0469785219430925,-1.4241627550125122,-0.9946565508842468,-0.1860963982343673,-0.0271689438074826,-89.39091674804688,80.25418121337891,163.77492004394531,60.06010746911127,1.1703568911014086,11.879154785826254,1.0122804330620865,-61.89379127502441,24.969908599853525,300.3030084228516
581.856,-3.1641752576828006,-62.17051300048828,-33.06785125732422,-0.9174677515029908,-0.3659709131717681,0.6737086772918701,-27.586833953857425,53.8320149230957,-136.54840759277346,14.265977478027343,-2.7398697316646574,-1.8848986196517945,-0.993523335456848,-0.196000131368637,-0.0289647025614976,-88.90481506347656,80.20182281494141,163.98938110351563,70.48877555030825,1.195644247338686,14.648475769049858,1.0130861876406665,-61.31798110961914,26.36980789184571,300.5377886962891
591.985,-3.7567806625366216,-72.36291564941405,-38.07268417358399,-0.914622666835785,-0.3823297989368438,0.7072200918197631,-27.67746459960937,52.15404342651367,-136.5593975830078,17.6764715385437,-3.4466088169813154,-2.547457070350647,-0.9944293999671936,-0.1997533869743346,-0.0248192016035317,-88.27178161621094,80.13362243652344,164.28549743652343,81.8537368872802,1.217731890080261,18.18863095220524,1.01459708253822,-60.59431701660158,27.979579010009772,300.84489501953124
614.401,-4.291791648864747,-83.13013931274413,-43.19465057373047,-0.906590745449066,-0.3975502467155456,0.7402901649475099,-27.76299430847168,50.24049606323242,-136.55306274414062,21.16567455291748,-4.200333757400513,-3.86651267528534,-0.9976477575302124,-0.1988515728712081,-0.0149679857492446,-87.47714172363281,80.03855712890625,164.67667297363283,93.7806876488981,1.2361158953413292,21.922100793986854,1.017382443693523,-59.714147415161136,29.798061065673828,301.22973571777345
639.137,-4.473734531402587,-94.19281021118164,-48.2340672302246,-0.8949631381034852,-0.4100669085979461,0.7760135293006897,-27.83023712158203,48.08818099975586,-136.51945373535156,23.87407293319702,-4.915864133834839,-5.724972662925721,-1.0013673949241635,-0.1963220864534377,-0.0014619820564984,-86.54083190917969,79.90650695800781,165.1588006591797,105.91895504444412,1.2535193998294667,25.038218598637982,1.0204318490904578,-58.71059478759766,31.818325958251947,301.6782543945312
661.617,-4.2221950435638425,-105.37455841064452,-53.18829727172852,-0.8797983694076539,-0.4195056581497192,0.8091112470626831,-27.869097366333005,45.69851821899414,-136.45601135253906,25.44070316314697,-5.583918352127076,-7.865271577835084,-1.0056518697738648,-0.1876090246438979,0.0163868103176355,-85.48780151367188,79.73541381835938,165.7290869140625,118.11274045542248,1.2667640578084485,27.207940359234808,1.023133108085107,-57.618704147338875,34.03689559936524,302.1850982666016
671.9159999999999,-3.590212593078613,-116.30262664794924,-58.0257908630371,-0.8587254905700684,-0.4260127282142639,0.8395494222640991,-27.87646377563476,43.07903793334961,-136.3670227050781,24.769568080902097,-5.712005910873414,-9.991402215957642,-1.0078652667999268,-0.1783315962553023,0.0325989273935555,-84.43259338378905,79.52713836669922,166.31580261230468,130.02377858282958,1.2742603914347128,27.312755860244863,1.0240396693057658,-56.55612960815429,36.44810043334961,302.6828253173828
701.813,-2.32227650642395,-126.8982745361328,-62.57608474731445,-0.8351472949981689,-0.4317771911621094,0.8664172387123108,-27.84479537963868,40.24088493347168,-136.25605407714843,21.97189669847489,-5.1858273696899415,-12.417025518417358,-1.0091202449798584,-0.1755316758155821,0.0462500918656586,-83.50165679931641,79.27394226074219,166.83261352539063,141.5073546877444,1.2785074808887371,25.765084373269666,1.0253165896640988,-55.656861419677725,39.033057327270505,303.0886676025391
721.631,-0.5536258125305178,-137.19064880371096,-66.59604934692382,-0.8075475955009461,-0.4352818119525909,0.8917249703407286,-27.76429244995117,37.1957098388672,-136.12007751464844,17.36351330280304,-3.864331817626953,-14.935837459564208,-1.009828794002533,-0.1767214328050612,0.0567656029015778,-82.82271240234374,78.97439270019531,167.18645385742187,152.5011947800455,1.27936577941778,23.22722314939656,1.0267458262306517,-55.05841995239257,41.77868286132811,303.3065313720703
731.8679999999999,1.0481691455841062,-147.1369351196289,-70.08512359619141,-0.7742314386367799,-0.4383734476566315,0.911635501384735,-27.642314300537112,33.955265121459966,-135.95874633789063,11.321063058376312,-2.495933589935303,-17.56834098815918,-1.012657585144043,-0.1807804942131041,0.0672275961190461,-82.43081115722657,78.62583770751954,167.37023071289065,162.97944927029624,1.2738464929374091,21.04858091020233,1.0308620283615282,-54.78849685668946,44.67057258605957,303.3289770507813
752.934,3.0006496810913084,-156.6102105712891,-72.81053115844726,-0.7340481400489807,-0.4374339842796326,0.9281448674201964,-27.47305488586425,30.53088550567627,-135.76734252929683,3.903919744491577,-1.9345168113708493,-20.404848518371583,-1.01885422706604,-0.1873539429903029,0.0756031699478625,-82.29064025878907,78.22203002929687,167.44927978515625,172.7342913299712,1.2615974228851992,20.8648217754813,1.0386920983961114,-54.81758537292482,47.69114452362061,303.21662231445305
771.833,4.38002468585968,-165.6320379638672,-74.89644836425782,-0.6878269946575164,-0.4333113312721252,0.9382926058769224,-27.27057380676269,26.934844551086428,-135.54361816406248,-4.431169393062592,-3.395768680572509,-23.561040649414064,-1.0278236055374146,-0.1911673402786254,0.0870727843046187,-82.24107482910156,77.75287322998047,167.60812561035158,181.8313355664876,1.241474002398648,24.213408343422323,1.0490700576490082,-54.97050102233887,50.81802867889404,303.15174377441406
876.201,4.69807354927063,-173.857841796875,-76.49067657470702,-0.6329637038707733,-0.4290399408340454,0.9430507731437684,-27.06121253967285,23.182124691009523,-135.2896600341797,-14.330455827713012,-7.345746631622314,-26.496162261962887,-1.0372346782684323,-0.1918557077646254,0.0992577339708804,-82.1104800415039,77.21675811767578,168.0557489013672,189.9985385527952,1.2141099958305872,31.005944146538912,1.0594887862349078,-55.04926750183105,54.03463342666626,303.34540893554686
876.284,4.792809271812439,-181.11789428710932,-77.67276092529296,-0.5707090604305267,-0.4235834562778472,0.9399069786071778,-26.856221542358394,19.290205812454225,-135.00936218261717,-25.2605574631691,-14.268117389678952,-29.06897232055664,-1.0449834394454958,-0.1936903381347655,0.1114044520258902,-81.69853302001954,76.60974060058592,169.01879821777342,197.12869005162648,1.178370444522543,41.06921096112044,1.0686053002550977,-54.84231147766114,57.3195347881317,304.02816040039056
876.3570000000001,4.723581809997559,-187.0641296386719,-78.49580657958984,-0.4978748974204063,-0.4151809632778168,0.9288453459739684,-26.664590988159183,15.282991223335268,-134.7087725830078,-37.12964042186737,-23.174854373931883,-31.39617416381836,-1.048176953792572,-0.1984491622447966,0.1224724663794039,-80.91856384277344,75.92530639648437,156.20694030761717,202.92090201152263,1.1326995729173632,53.86468068442375,1.0738046849770173,-54.253972854614254,60.64231517314911,290.91571289062495
876.419,3.719058146476746,-191.44247619628905,-79.07815948486328,-0.4192988950014114,-0.4102539420127867,0.9146345782279968,-26.51118675231934,11.19372673034668,-134.39684204101562,-49.02181401014328,-32.75772556304931,-33.27266540527344,-1.0436269855499267,-0.2097060620784758,0.1327264389395713,-79.78367980957032,75.16136016845704,129.6082891845703,207.16517176682245,1.0865892839416105,67.69990469772031,1.0727302666719478,-53.272493057250976,63.967633438110354,264.00513122558596
877.171,2.8719544672966006,-194.1761596679688,-79.19937194824219,-0.33979574739933,-0.4064176869392394,0.8966934537887573,-26.39746520996093,7.053713641166686,-134.07692260742186,-59.88448383331299,-41.18189891815185,-34.83316207885742,-1.030653986930847,-0.229058117866516,0.1363761740922927,-78.43203918457031,74.31974395751953,89.06027404785155,209.7264161302976,1.0414872232895231,80.5943508125672,1.0645720844532105,-52.03457397460939,67.26603031635285,223.1371966552734
899.319,3.2602411842346184,-195.3645849609375,-78.67390594482421,-0.2618406261503695,-0.4011054897308349,0.8732375621795654,-26.30087768554688,2.8952962017059325,-133.74774963378906,-67.74370758056641,-47.91455478668213,-36.0415153503418,-1.011851875782013,-0.2542011356353759,0.1370412972569465,-76.98308746337891,73.40647705078125,34.37911315917969,210.6360218627236,0.995986931338128,90.46549234882976,1.0522560301731512,-50.68220977783203,70.51118084907532,168.12686279296875
1048.713,4.185779087543487,-195.04302551269527,-77.49109619140624,-0.1871537749469279,-0.393979480266571,0.8450905418395995,-26.212529373168945,-1.250170283317566,-133.40819335937502,-70.03245749473572,-51.073899536132814,-35.925130920410155,-0.990605194568634,-0.2814190685749053,0.1342145070433616,-75.48632995605469,72.33658782958985,-34.46472595214844,209.9146791833801,0.9510122976359194,93.8280520325748,1.0385128201254046,-49.27380058288574,73.58675811290742,98.94346740722658
1048.758,5.2150973176956175,-193.5006958007812,-75.78116241455078,-0.1214862729609011,-0.3838681125640868,0.8165817737579346,-26.129564208984373,-5.357279539108276,-133.05742248535157,-68.84790128707886,-52.043068389892575,-34.833195037841804,-0.9671439909934998,-0.3025626826286315,0.1292318060994148,-74.1408642578125,71.27902282714845,-89.08718933105469,207.8761676872076,0.9104501280109196,93.06914609909516,1.0215735587523718,-48.01130004882812,76.63630236625673,43.97023315429688
1048.796,6.675840795040131,-190.9457421875,-73.51008453369141,-0.0619919346272944,-0.3699651670455932,0.7877456045150757,-26.043821258544927,-9.406580605506898,-132.692294921875,-64.36055851936341,-51.10631622314453,-32.77839813232422,-0.9463207054138184,-0.3193957376480102,0.1201432868838309,-72.97156005859375,70.26472442626952,-129.58309814453125,204.71584168795144,0.8725023565691559,88.47915254423272,1.005967655596279,-46.92773880004883,79.67130503177643,3.1091967773437545
1048.841,8.879913520812988,-187.5983575439453,-70.74673507690429,-0.0064762939512729,-0.3548972189426421,0.756149435043335,-25.94261260986328,-13.37750799179077,-132.30898010253907,-56.85977451324462,-49.02410598754883,-30.325201263427736,-0.9321634197235108,-0.3291130936145782,0.1130670097470283,-71.94335815429687,69.31377807617187,-155.98101135253904,200.691547259382,0.8353178715392839,80.96922104875928,0.9950016171606572,-46.0007455444336,82.69128606796264,-23.672031249999975
1048.877,10.871917517185212,-183.62118591308592,-67.53592834472656,0.049947136491537,-0.3357786607742309,0.720814733505249,-25.834117584228515,-17.252475733757016,-131.90239807128904,-48.05722193717956,-45.32265998840332,-27.554524383544923,-0.9181203842163086,-0.3369148349761962,0.1040523029863833,-71.071044921875,68.44532592773437,-168.32701171875,195.9490753333952,0.7967533529978292,71.57438021210606,0.9835057334338778,-45.236927337646485,85.69780166149138,-36.424613647460944
1048.907,11.842120347023007,-179.0589172363281,-64.0574186706543,0.1083609618246554,-0.3165402150154113,0.6913594627380371,-25.74142623901368,-21.01606647491455,-131.46949279785156,-41.85692190170288,-42.26125312805176,-26.00750473022461,-0.9063595581054688,-0.3353628575801849,0.0969435742497443,-70.49652587890625,67.8714614868164,-166.98395080566405,190.540506304846,0.7680610083105343,64.91845445889153,0.9712640997184052,-44.75509963989258,88.88752796173095,-35.51445800781249
1048.937,13.123163287639615,-174.025712890625,-59.91920562744141,0.1664136262238024,-0.3004452288150787,0.663081727027893,-25.666552200317387,-24.65365837097168,-130.99706665039062,-34.17394188880921,-36.99767545700073,-23.91807364463806,-0.8992194557189942,-0.3368560147285461,0.089098376482725,-70.00051879882812,67.34091918945312,-165.8817663574219,184.5195853149142,0.7467517708241432,55.75626009975555,0.9643682517037876,-44.33396659851074,91.9945775604248,-34.884699707031274
1061.817,15.057720603942872,-168.64504577636717,-55.15334396362304,0.2261481632292269,-0.2839216190576553,0.6274807047843932,-25.60739753723145,-28.153651962280275,-130.46972839355467,-25.93850095748901,-29.4876649093628,-21.44344633102417,-0.891460416316986,-0.3338312947750091,0.0835801619291304,-69.63264739990234,66.88038269042968,-165.0881805419922,178.07239473053957,0.7249044850026742,44.74538640217602,0.9555786993750504,-44.02524986267089,95.03403465270996,-34.61845214843751
1071.724,16.46246171951294,-162.57414123535156,-49.94646865844727,0.2912641791999338,-0.2684377175569534,0.5875218141078948,-25.5815364074707,-31.50086761474609,-129.87900146484375,-18.0671493434906,-20.33436853408813,-17.068098649978634,-0.8810461640357972,-0.3356013441085815,0.0805393745005129,-69.41580474853515,66.53456817626953,-164.62096679687502,170.86841070170846,0.7085728701727364,32.11274545418857,0.9462331616333328,-43.83426834106445,98.03543579101563,-34.74196533203127
1093.9920000000002,17.039048156738282,-155.65668243408203,-44.46358177185059,0.3554711830615996,-0.2567444735765457,0.5527205848693847,-25.610717926025387,-34.682345657348634,-129.21983978271484,-9.855465621948245,-10.480114059448244,-11.534876136779785,-0.8783356046676636,-0.3331181669235229,0.0815166342258452,-69.33456390380859,66.33358947753906,-164.4716345214844,162.7769702766775,0.7055335085151275,18.439532554143018,0.94291362765468,-43.7238459777832,101.0159351348877,-35.25179473876955
1121.391,17.838867168426514,-147.90702850341796,-38.67614631652832,0.4163947439193725,-0.2459368449449538,0.5156622493267059,-25.6950700378418,-37.68270507812501,-128.48728729248046,-1.529038581848145,0.8056968116760231,-4.645030088424683,-0.8776625585556029,-0.3363304507732391,0.0828422068059443,-69.39258911132814,66.21533203125,-164.51981384277343,153.91737574575902,0.7069491281880443,4.9561487931150445,0.9435425639769393,-43.69751907348633,103.89803710937501,-36.03252655029297
1141.3819999999998,17.955039939880372,-139.00189178466798,-33.074477195739746,0.4773222506046295,-0.2384470361471176,0.4775336265563964,-25.847129821777344,-40.48318412780762,-127.68907989501956,5.026331253051757,11.44358055114746,1.3297526168823235,-0.8788093328475952,-0.3338964390754699,0.0847844779491423,-69.72743560791017,66.29738220214844,-165.01132812500003,144.00635548728658,0.7160529899816894,12.56931914298108,0.9439179430588356,-43.88030578613282,106.78056632995606,-37.322248229980474
1151.486,17.46108474731445,-128.8578109741211,-27.909596862792966,0.5349660265445709,-0.2358452898263931,0.4429002499580383,-26.06662658691406,-43.06222381591797,-126.84453247070311,9.632782402038575,20.51059865951538,6.552485609054564,-0.8821861410140992,-0.3329824411869048,0.0870479245483874,-70.32637817382812,66.55016387939455,-165.89077941894533,132.99688164253644,0.7334659376570085,23.58834928166033,0.946946162516286,-44.25975158691406,109.61238769531252,-39.046246948242214
1171.364,17.09492908477783,-117.66841979980468,-23.13399007797241,0.5850593900680542,-0.2355072957277297,0.4160188627243041,-26.336645431518555,-45.403043060302736,-125.97310791015624,12.553037071228028,27.7694607925415,9.98250680923462,-0.8874696397781372,-0.3285355937480926,0.085702559351921,-71.18533630371094,66.92598907470703,-167.11703796386718,121.13329482650248,0.7555328387239136,32.068241838562656,0.9502015189247056,-44.848690872192385,112.32903213500977,-41.14393005371093
1193.294,17.386623458862307,-105.4737237548828,-18.818488082885743,0.6290306282043457,-0.2376559251546859,0.387653515934944,-26.621678314208985,-47.48476867675781,-125.1020056152344,13.31120346069336,33.088809146881104,12.161660013198851,-0.8887662291526794,-0.3260849308967589,0.0813352401554583,-72.2941046142578,67.38319854736328,-168.63066467285157,108.54094421805672,0.7761669397732729,37.6824017627239,0.950185357459987,-45.67242630004882,114.86796722412109,-43.52865905761716
1212.254,18.204658889770503,-92.0623720550537,-14.905442131757734,0.6692728579044342,-0.2459082967042922,0.3562355089187621,-26.88520523071289,-49.28586303710937,-124.26287963867188,12.91710702896118,35.69384452819825,13.18148727416992,-0.8897140169143677,-0.3247794723510741,0.0755002637207507,-73.55275756835938,67.86440155029297,-170.29396362304686,95.02137737814166,0.7970575804358082,40.18275498220512,0.950143687752776,-46.66755233764649,117.15026458740235,-46.03108398437499
1233.818,19.86370323181152,-77.76529808044434,-11.326190674304964,0.7047569227218629,-0.2535648185014724,0.3248112100362777,-27.07821113586425,-50.79084732055664,-123.49009216308596,11.423314447402957,35.10573951721192,14.252246475219726,-0.8906583571434021,-0.3300704884529113,0.0707663173973559,-74.83969268798828,68.34725799560547,-171.94985534667967,81.05733086410231,0.8163821160898279,39.57311700643497,0.9524844923540282,-47.761481552124025,119.13810531616211,-48.45976318359371
1256.366,21.0615739440918,-62.62025658607483,-8.181347872018815,0.737764573097229,-0.2580113542079925,0.295931287407875,-27.176593933105465,-51.9901708984375,-122.8206524658203,9.499434700012204,31.385057449340813,14.691679801940918,-0.8938311553001403,-0.3365319991111755,0.0667432801425456,-76.01573791503907,68.80395629882813,-173.4382958984375,66.57192264694841,0.8357282758674981,35.93197108594209,0.9574145319845182,-48.8391439819336,120.79412719726562,-50.6176434326172
1271.3190000000002,21.00575155258179,-46.46739801406861,-5.598573808670045,0.7680571866035462,-0.2629269456863403,0.2679002600908279,-27.16689079284668,-52.871848602294925,-122.29782073974611,7.135325899124146,24.966516113281248,15.135178756713866,-0.8996099638938905,-0.3425419473648071,0.0654602406919001,-76.94136779785157,69.22454193115234,-174.5999945068359,51.30111797200706,0.854875996866233,30.05517324054424,0.9648409796194826,-49.77447700500489,122.09639053344728,-52.3021737670898
1294.111,19.94453541755676,-29.50943369865417,-3.62089048743248,0.792627079486847,-0.2675206065177917,0.246258743405342,-27.0349048614502,-53.4300424194336,-121.96040802001951,4.589002742767335,16.308472213745116,15.252333374023436,-0.90793461561203,-0.3459643220901489,0.0671144177019595,-77.49155303955078,69.59650146484374,-175.3000012207031,35.80086616493268,0.8720483534478313,22.796027844165568,0.9739306563864464,-50.45664817810058,123.02654388427734,-53.339593200683595
1441.833,17.74373202323914,-12.362328453063965,-2.337639970779419,0.8099328804016113,-0.2652845764160156,0.2347757130861281,-26.777483062744142,-53.66887710571289,-121.83718994140624,2.104745740890503,6.32771575927734,15.206404571533202,-0.9164315485954284,-0.3473017036914825,0.071319297403097,-77.57785430908203,69.9140380859375,-175.44871520996094,21.75159193086664,0.8840174278231033,16.60435730033383,0.982624902406861,-50.80037124633789,123.58291519165039,-53.6115252685547
1441.872,13.732793836593627,4.944384794235231,-1.5853305494785308,0.8211034607887268,-0.2613805961608886,0.2308864754438399,-26.417467575073243,-53.59078063964844,-121.94409271240234,-0.6445126533508299,-4.331329421997074,14.367643270492554,-0.923739619255066,-0.3456229293346404,0.0768130122125147,-77.16231140136719,70.16066009521485,-175.00335021972654,14.6816157320289,0.8920982422981925,15.020152604761272,0.9892675736667568,-50.744843826293945,123.7514407348633,-53.059257507324205
1441.903,9.175947790145871,22.348401222229008,-0.9785897850990296,0.8219181537628174,-0.2624799251556396,0.2334089750051497,-25.9676180267334,-53.193798522949216,-122.27956787109376,-3.795994024276733,-14.852553863525396,13.052114839553832,-0.9293927478790284,-0.3424236440658569,0.0835097478330134,-76.25912414550781,70.32535003662109,-173.9730694580078,24.178641256379773,0.8938259966053478,20.133693865909684,0.9939812421814634,-50.29150611877441,123.51914855957031,-51.69350158691405
1441.933,5.230446653366089,39.45690037727356,-0.3250216281414032,0.8112266993522643,-0.2636704075336456,0.2451485639810561,-25.434503326416017,-52.48125930786133,-122.8236557006836,-7.214455070495606,-24.167846145629888,10.511738729476928,-0.9321588397026062,-0.3384939312934875,0.0885388602316378,-74.96423858642578,70.38592956542968,-172.45550354003908,39.80339431046753,0.887529526254142,27.324527450622497,0.9956592658783158,-49.52973526000976,122.86718887329101,-49.63184783935547
1441.965,1.908310360312462,55.88452672958374,0.6611113214492799,0.7941403722763061,-0.259962373971939,0.2656780576705932,-24.838473205566405,-51.46216827392578,-123.53964385986326,-10.722780656814574,-31.51532867431641,7.055859842300414,-0.9319389867782594,-0.3355001163482666,0.0932362115383147,-73.41212829589844,70.3302017211914,-170.5919091796875,55.92100718334912,0.8768262068893102,34.029092326692094,0.994868631674055,-48.57365509033204,121.79236999511718,-47.05226531982423
1441.995,-1.0079313480854042,71.77229720115662,2.06610725402832,0.768862373828888,-0.25955934882164,0.2886508220434188,-24.20761329650879,-50.14128616333008,-124.3880221557617,-14.08127759933472,-36.56119117736817,2.708400831222534,-0.9323422026634216,-0.3317088365554809,0.1000305020809172,-71.75020721435547,70.15141174316406,-168.54251525878908,71.80910367299369,0.8613011683011047,39.27261786792621,0.9946350267624964,-47.54259391784668,120.29269790649414,-44.15449310302738
1442.027,-2.704929644465447,87.10064712524415,3.797430953979492,0.7346761918067932,-0.2629265749454498,0.3163417887687682,-23.55183937072753,-48.52385940551758,-125.33191253662108,-16.959815845489505,-38.20831481933594,-1.85057827949524,-0.9297519207000734,-0.3268140339851378,0.1067387735843657,-70.16613525390625,69.86572479248046,-166.51695861816407,87.22533952853409,0.841992647201685,41.84417898364052,0.9912816010808476,-46.61429588317871,118.38958419799803,-41.18504608154299
1532.001,-3.599723083972932,101.60320724487306,5.6695394039154055,0.6946442055702209,-0.2602824193239211,0.3563558149337767,-22.88679832458496,-46.62116668701172,-126.33772796630858,-18.666923179626465,-36.079240093231206,-5.866842966079712,-0.9239764952659608,-0.3252699446678161,0.1107902798056601,-68.83453979492188,69.50864746093751,-164.72541625976564,101.82491544694972,0.8229623180793352,41.04370150324818,0.9858030162297072,-45.94774147033692,116.12981414794923,-38.38768829345706
1532.0510000000002,-4.037959850430489,114.52951278686524,7.849132833480835,0.6496291780471802,-0.24927099943161,0.4063402938842772,-22.23620651245117,-44.45634643554688,-127.36625915527344,-19.364194831848145,-31.45342975616456,-8.148623704910278,-0.9186082100868224,-0.3227148711681366,0.1159398901462553,-67.8252084350586,69.13316284179687,-163.2650042724609,114.86915732775287,0.8057707704811894,37.82446765251268,0.9805243443378184,-45.58900192260743,113.58950927734375,-35.898745117187474
1532.092,-4.489386656284333,126.06063262939452,10.217784996032714,0.5971859097480774,-0.2487189012765884,0.4508941233158111,-21.62575134277344,-42.04828674316406,-128.38794708251953,-18.729681100845337,-25.17534050941468,-8.451825342178346,-0.9152819347381592,-0.3187660408020019,0.1243248924612998,-67.14032897949218,68.79264312744141,-162.16827453613283,126.55370726177064,0.7885414466561704,32.49664714272884,0.9771435348566376,-45.51457763671874,110.84092987060546,-33.780327453613296
1532.141,-3.8085209149122248,136.23437713623048,12.570826091766357,0.5422990024089812,-0.2497067070007324,0.5018151450157166,-21.04821006774902,-39.41828887939453,-129.38435791015627,-16.583529605865476,-17.621078319549564,-6.277069063186645,-0.909108657836914,-0.3174853265285492,0.1260028079152106,-66.75975402832032,68.54558715820312,-161.44564819335938,136.86612442049142,0.7799103072162019,24.998348972608795,0.9711602297857403,-45.71154396057129,107.96387603759766,-32.06129028320311
1541.09,-2.6371955025196083,144.60393981933595,14.795325393676755,0.4864208436012268,-0.2399442926049232,0.5655813097953797,-20.50687088012696,-36.60043983459472,-130.3382797241211,-12.360792875289915,-9.743567838668827,-1.855458164215088,-0.904724576473236,-0.3144723296165466,0.1241909509897231,-66.60055145263672,68.44061462402344,-161.05285705566408,145.38279081410366,0.7836202643074408,15.848313466476863,0.9658378733912156,-46.09368057250976,105.04105445861816,-30.714577331542984
1561.139,-1.2228536182641991,150.64682067871095,17.10370136260986,0.426955823302269,-0.2315860188007354,0.6255180728435517,-20.010224914550783,-33.63854431152344,-131.22818572998045,-7.595423278808592,-2.883667488098149,3.702744941711425,-0.9098541927337646,-0.3071362936496734,0.126666500866413,-66.55987243652343,68.49471923828125,-160.89236022949217,151.61957839235913,0.7919572075621282,8.928399244520335,0.9686133167336746,-46.54964752197265,102.1332635498047,-29.664174499511716
1571.067,0.3294812583923331,155.26881103515626,19.294700584411625,0.3672387689352035,-0.2390535601973533,0.6729258859157563,-19.55696914672852,-30.563634567260745,-132.04901794433596,-2.0988462543487545,3.6959764385223344,9.492884426116944,-0.9155864071846008,-0.3026670193672179,0.1277899509668349,-66.60225341796874,68.7107940673828,-160.9403125,156.46340693214114,0.8030194057353651,10.40097361601882,0.9727466603396524,-47.04528427124022,99.27442863464356,-28.891294555664047
1596.172,3.4814103603363025,158.59665405273438,21.27003574371338,0.313290239572525,-0.2366368150711059,0.7275000774860383,-19.10931999206543,-27.40462993621826,-132.80114746093747,3.807097778320313,9.858211898803706,14.890855865478514,-0.919899311065674,-0.3028856694698333,0.1203252065181731,-66.72604248046875,69.07603576660156,-161.19880554199216,160.05446983873523,0.8266825988253282,18.259680274907947,0.9759265477447222,-47.61672248840332,96.48066570281982,-28.397658081054686
1612.282,5.8628611183166495,160.35520629882814,23.14645656585693,0.2609888964891433,-0.2267551520466804,0.7850476574897767,-18.67948799133301,-24.19659919738769,-133.47928039550783,9.16664158821106,15.100439119338985,18.67134355545044,-0.9289801144599916,-0.299392031431198,0.1189411747455596,-66.92721801757813,69.55308013916016,-161.65023010253907,162.12317471351065,0.8578070456696656,25.70349489406536,0.9832530928486582,-48.24773002624512,93.74967933654784,-28.17094970703124
1633.587,7.735938787460325,160.72885375976563,25.294419555664064,0.2056246933341026,-0.2307675671577453,0.8258278965950012,-18.277220993042,-20.96553482055664,-134.0736395263672,12.090352325439452,18.877524204254147,20.968765563964844,-0.9438036489486696,-0.3000216960906982,0.1200483298301696,-67.22294128417968,70.09965698242186,-162.2596258544922,162.8908126338297,0.8817748575204286,30.69571091719457,0.9975920746422235,-48.94572029113768,91.0651918029785,-28.18598632812501
1654.4319999999998,11.350336532592772,160.6678039550781,27.636306915283207,0.1542709577083587,-0.2409415987133979,0.8579132819175721,-17.859603347778325,-17.71961835861206,-134.5834167480469,14.00263976097107,22.234178400039667,22.5937756729126,-0.94757869720459,-0.3004746532440184,0.115914013981819,-67.64518554687501,70.69779235839844,-163.0382604980469,163.42196555869182,0.9043603162862698,34.65416726106999,1.0008129012335114,-49.78558219909669,88.41741071701051,-28.45484375000001
1671.029,16.17663375854492,160.0652624511719,29.710887298583987,0.1069968542456626,-0.2373498475551604,0.8906454229354859,-17.392043800354006,-14.46725914001465,-135.0127325439453,15.345703716278075,24.69965095520019,22.4599401473999,-0.9521596932411194,-0.2993471145629882,0.1119495794177054,-68.2136734008789,71.30574432373047,-163.99399353027343,163.60106523916582,0.927918394229178,36.74251340451955,1.004365214830746,-50.8216296005249,85.77300346374511,-28.981260986328124
1693.741,18.471905155181883,158.86106201171873,31.347480010986327,0.0556741738319396,-0.234155029952526,0.9204321813583374,-16.917015190124513,-11.222912154197692,-135.36740600585938,15.07458396911621,26.5598461151123,21.10249034881592,-0.9607116961479188,-0.2924992179870604,0.1136798363924025,-68.95994415283204,71.89631134033203,-165.1265625,162.97457717875008,0.951379835903623,37.12120157567977,1.0106660481289833,-52.04292896270752,83.11922349452972,-29.759156494140626
1716.631,20.260445566177367,157.32261962890624,32.57568176269531,0.003141464293003,-0.2410900646448134,0.9338012647628784,-16.44026470184326,-7.992852716445924,-135.65613891601564,13.636367101669313,28.184906387329097,19.889086265563964,-0.9667362403869628,-0.2843249511718749,0.1123518455028533,-69.9083901977539,72.46902862548828,-166.43641662597656,161.932292467395,0.9644268194845558,37.093331048492246,1.013924343096814,-53.46812549591064,80.4618813419342,-30.780277709960927
1738.487,22.832433414459228,155.91004638671876,33.04997207641601,-0.0428097742795943,-0.2431718683242797,0.9432095861434936,-15.937324028015135,-4.776412129402161,-135.89682617187498,12.12756544113159,29.629937286376947,18.42948650360108,-0.968464457988739,-0.2704500126838683,0.1146028065681456,-71.0592303466797,73.01789825439452,-167.92202026367187,161.0017491649901,0.9749920808453632,36.941264189385485,1.0120278746266935,-55.121906318664564,77.79431038379668,-32.02519409179689
1750.996,22.82733035087585,154.54012207031252,32.32860221862793,-0.0886464831233024,-0.2372688478231429,0.9554512405395508,-15.45178253173828,-1.57801513671875,-136.1141925048828,9.116353769302368,30.106111068725586,16.59722179412842,-0.9763586473464964,-0.2589177107810974,0.1133625799790024,-72.40735626220703,73.5291683959961,-169.54518981933592,159.527034893354,0.9884542367585958,35.566186202810755,1.01644757058291,-56.95557373046875,75.10718353271484,-33.43099731445312
1773.748,20.234501686096188,153.02441650390625,30.87697120666504,-0.1370943051576613,-0.2356145572662352,0.9627544379234314,-15.034292945861816,1.5915378618240357,-136.32544799804683,4.703990516662597,29.42163856506347,15.943941078186034,-0.9842107772827148,-0.2465947234630583,0.1127840030938386,-73.87802032470702,74.01814270019531,-171.19873718261718,157.4144035841156,1.0006024064750636,33.79304069980608,1.0208819927460466,-58.84372737884521,72.42660483837128,-34.87328918457035
1796.066,18.121627769470216,151.5662762451172,29.01551612854004,-0.1852287301421164,-0.2398900437355041,0.9607256984710691,-14.678719596862791,4.730232200622558,-136.5442449951172,-0.3695449161529545,27.22958587646484,16.277156639099122,-0.9887130236625672,-0.2374097025394439,0.1069031323119997,-75.37224975585937,74.49420227050781,-172.76605102539065,155.37898720236265,1.0073980262320386,31.72590012438728,1.0224211899789442,-60.69353015899658,69.76397006988526,-36.221806030273456
1818.665,16.598420963287353,150.22800964355469,26.82695976257325,-0.2345573484897612,-0.2394241654872893,0.9614678502082824,-14.37240837097168,7.83717128276825,-136.78226135253905,-5.509024543762207,23.56349697113037,16.82386615753174,-0.9919558262825012,-0.2324720895290374,0.099279329329729,-76.78490753173828,74.95334106445313,-174.13730041503908,153.504554427682,1.018214863245459,29.47253320328584,1.0236581553125814,-62.4124991607666,67.11616978168487,-37.355039062500026
1934.435,13.787937316894531,148.66708740234375,24.516333389282227,-0.2873824220895766,-0.2333472275733947,0.96535870552063,-14.138057594299315,10.903899068832398,-137.0443963623047,-10.258227853775026,19.004073114395137,17.66670467376709,-0.993017361164093,-0.2360285830497741,0.079767342172563,-78.03751770019531,75.39766693115234,-175.23885925292967,151.30452965792253,1.0339037747618138,27.901585755425188,1.0237948038875062,-63.899460105896,64.49376786231994,-38.194462890624976
1934.617,10.703472528457642,146.7049395751953,22.52285255432129,-0.3404302561283111,-0.2308246839046477,0.9627614736557006,-13.98383029937744,13.921379742622374,-137.32806091308595,-12.75323923110962,14.549891853332516,18.39336414337158,-0.9905317759513854,-0.2371103364229201,0.0661397095303981,-79.06751190185545,75.82762725830078,-176.0533612060547,148.80921512834092,1.046939563271426,26.695698311530503,1.020661046569703,-65.08368160247801,61.9062475156784,-38.72530029296874
1934.662,8.665141620635985,144.4834326171875,21.09886833190918,-0.3941072595119476,-0.2306659120321272,0.9604254484176636,-13.888021812438964,16.887905025482176,-137.6256964111328,-13.9195135307312,10.615512514114378,18.801483917236325,-0.98602858543396,-0.2396353048086165,0.0491571629606186,-79.88730865478516,76.24154174804687,-176.62124816894533,146.27272208118052,1.0634586672465935,25.68925379141294,1.015920212060943,-65.9992868423462,59.353636722564694,-38.995551757812535
1934.708,7.375412836074828,141.64414459228516,20.205820770263674,-0.4452897077798843,-0.2253092205524444,0.9595566964149476,-13.829106826782226,19.79256629943848,-137.92593383789062,-13.247535252571106,7.477488994598386,18.824975204467773,-0.9809263944625854,-0.242221940755844,0.0340385717060416,-80.50700775146484,76.63771301269531,-176.9925555419922,143.2680550743352,1.0815711822877925,24.203093260599577,1.010963245771419,-66.67790092468262,56.84514671325684,-39.06662170410158
1934.748,5.178088006973267,138.03238525390626,19.783712692260742,-0.4911556971073151,-0.216827043890953,0.9576527905464172,-13.819157218933103,22.61997371673584,-138.21705261230468,-11.082039756774902,5.33474257946014,18.6916487121582,-0.9770231485366822,-0.2408569705486297,0.0192060879617929,-80.96153289794923,77.02097900390625,-177.23512756347657,139.53905282099586,1.0978828503099964,22.3751830191078,1.0064567486251912,-67.14237567901613,54.401005287170406,-39.01807495117188
1938.233,2.384022607803344,133.76788848876953,19.69736885070801,-0.5339011907577514,-0.2145964634418487,0.9521417117118836,-13.870162010192873,25.358021469116213,-138.492734375,-7.660822920799253,4.229836099147792,18.301184844970702,-0.9771025896072388,-0.2335965645313262,0.0132689591590314,-81.28876983642577,77.39284820556641,-177.41690002441408,135.2313495243586,1.1125088596482855,20.28578536757407,1.0047252812859713,-67.4186078262329,52.0348267364502,-38.92416564941408
1962.724,-0.0109841251373296,128.8875927734375,19.97345939636231,-0.5717432034015656,-0.2126993292570113,0.9440003299713132,-13.969588737487792,27.99555267333984,-138.74480895996095,-4.232543630599976,3.430717821121211,17.868390769958495,-0.9795243549346924,-0.228171225786209,0.0076504938304423,-81.50650970458983,77.75344329833985,-177.55837707519532,130.42603563645028,1.1239519199183812,18.68056848870048,1.0057776097343072,-67.53692096710203,49.757890625,-38.813568115234375
2055.758,-2.9875705623626714,123.55958221435546,20.23681205749512,-0.6016657543182373,-0.2093924152851104,0.9329773616790772,-14.126432304382323,30.52127258300781,-138.97274291992187,-0.4101244211196892,2.742696399688717,17.238739624023438,-0.9833467841148376,-0.2224924290180205,0.0073436176683753,-81.59762054443358,78.09942779541015,-177.6519287109375,125.24146476747045,1.1297316588039468,17.46037598124794,1.0082299874134826,-67.47118824005126,47.578155212402336,-38.67918579101564
2055.851,-7.030236492156983,118.07098052978516,20.44762428283692,-0.6276155149936675,-0.2092741101980208,0.91938823223114,-14.36258403778076,32.931279983520504,-139.17941833496093,3.152881917953492,2.178157272338863,16.48839569091797,-0.9873415851593018,-0.2146764624118804,0.010179918874055,-81.5634146118164,78.43000396728516,-177.69383544921874,120.03452006490724,1.1326833667998486,16.927853554183503,1.010461785545027,-67.20083057403563,45.498723983764656,-38.51441711425781
2055.916,-10.673611879348757,112.6193426513672,20.617708282470705,-0.6510871362686157,-0.2137595814466475,0.9016847991943358,-14.672083053588867,35.2268563079834,-139.3691387939453,6.212718510627748,1.720006672143932,15.516840171813964,-0.9903052043914796,-0.2077481704950332,0.0164223158825188,-81.41472534179687,78.74037841796874,-177.6849334716797,114.9875307352849,1.1325383414140302,16.80263738709301,1.011994759199784,-66.742642288208,43.513522109985345,-38.3157946777344
2055.987,-13.30081386566162,107.28297027587892,20.77776062011719,-0.6718257904052735,-0.2159934574365614,0.8815733861923217,-15.032628440856934,37.41092506408692,-139.54316345214843,8.159384317398072,1.1650204330682712,14.496586151123047,-0.9911548590660096,-0.2003498077392577,0.0215841364860533,-81.16724639892578,79.02949371337891,-177.6168292236328,110.08298096023285,1.129236335561191,16.675845858168657,1.011431596826581,-66.13461795806884,41.618568649291994,-38.07366577148437
2056.0640000000003,-15.65052291870117,101.96682586669922,20.734633102417,-0.6942183971405029,-0.216897416114807,0.8622204422950744,-15.43853443145752,39.4846295928955,-139.70542846679686,9.220191969871523,0.6315016984939532,13.606952629089356,-0.9914418482780456,-0.1900153452157973,0.0250991217885165,-80.83922637939455,79.30195495605469,-177.48872009277343,105.22403458740024,1.1280105332651476,16.448704940108986,1.0097983639563994,-65.40069194793702,39.817325363159185,-37.783291625976574
2074.8410000000003,-17.931741600036624,96.45430755615234,20.59455711364746,-0.7180193614959716,-0.2170023649930953,0.8427576398849487,-15.886622467041017,41.4455583190918,-139.85562927246093,9.141017866134645,0.4683322232961612,12.735101394653322,-0.9915443921089172,-0.1799032199382781,0.0258431181125342,-80.49916992187501,79.55953552246095,-177.34592163085938,100.2452821117014,1.1282208425127271,15.683123101999527,1.0080641432074555,-64.61254745483399,38.113977203369146,-37.49029235839845
2095.7340000000004,-19.574822273254394,90.72297454833983,20.348505096435545,-0.7421508574485778,-0.2186006188392638,0.823444516658783,-16.363528633117674,43.29009826660156,-139.99398559570312,8.388732700347902,0.692957395315166,11.922256965637208,-0.9926628613471984,-0.1698384344577788,0.0247080789878963,-80.20708282470703,79.8051077270508,-177.23508666992186,95.01522739849584,1.1298827362978805,14.59421931534171,1.007390261658484,-63.843554191589355,36.515009460449235,-37.24110107421873
2111.26,-20.60430820465088,84.54729080200195,19.9923657989502,-0.7671565532684326,-0.2192322641611098,0.8071892309188844,-16.852097091674803,45.01004928588867,-140.11615539550783,7.040619335174561,1.281044703125949,11.269240303039547,-0.9926641035079956,-0.160256488919258,0.0182836755551397,-80.03512634277344,80.04340454101562,-177.2166223144531,89.28872598928467,1.134965381579248,13.349425948777416,1.0056830800137122,-63.18302925109863,35.03335525512695,-37.10046691894527
2133.731,-21.47712886810303,77.63132064819335,19.45458312988281,-0.7907232213020324,-0.2217559361457823,0.7939249610900879,-17.345109329223632,46.59013885498047,-140.21745544433594,5.763752055168153,2.3286084353923755,10.80345947265625,-0.990992465019226,-0.1549363350868224,0.0103123410791158,-80.04471008300781,80.27726074218751,-177.35475830078127,82.86356144142754,1.1422503017132684,12.464268593710653,1.003084083232084,-62.69960075378418,33.68712188720704,-37.13730285644533
2155.711,-22.09586250305176,69.86181381225586,18.786588134765623,-0.8102339005470277,-0.2278416633605956,0.7838444709777832,-17.832002754211427,48.012096862792966,-140.29060546875002,4.814601335525513,3.813765770792956,10.391203613281249,-0.9903187084198,-0.1541088050603865,0.0030045744031667,-80.28593322753906,80.5063491821289,-163.3077532958984,75.6428189760098,1.1501317106492694,12.070721101375232,1.002242333725105,-62.45393047332763,32.494252319335935,-23.017147827148392
2178.251,-21.74903415679932,61.27431373596191,17.903682594299315,-0.8268171501159669,-0.2388109791278838,0.7786466002464294,-18.28965560913086,49.25787368774414,-140.33033752441406,4.415990452766419,5.440304958820339,10.039443912506105,-0.9906260776519776,-0.1522239017486571,-0.0042126106843351,-80.77292388916015,80.7324853515625,-135.10032409667969,67.43963123419441,1.160580807851496,12.242888703089855,1.002262384845657,-62.48326828002929,31.474611663818365,5.230013427734377
2201.002,-20.468907127380373,51.69340267181396,16.68349998474121,-0.8403753566741944,-0.2503943967819212,0.7782574486732482,-18.693784179687498,50.30593032836914,-140.33050537109378,4.3059750747680665,7.070525720715517,9.5984348487854,-0.9915972089767456,-0.1535427516698836,-0.0097717118822037,-81.5061294555664,80.95143615722655,-92.7379071044922,58.04759435601519,1.1724388045695413,12.675318806965036,1.0034619513434178,-62.8123452758789,30.64550582885741,47.592598266601584
2210.84,-18.987245445251467,41.17949207305908,14.977907819747928,-0.8485949945449829,-0.26370035469532,0.7825474047660828,-19.03905830383301,51.13586929321289,-140.2900341796875,4.52317623615265,8.385519952774043,8.900405983924866,-0.9969326782226564,-0.1587297254800795,-0.0095245881378649,-82.43179077148437,81.15393524169922,-36.17271728515624,47.75566751339807,1.1840742301643796,13.038147675968132,1.0095348475601895,-63.39273246765136,30.018065948486324,104.11731689453126
2233.694,-17.10893898010254,30.00195728302001,12.786699433922768,-0.8531069660186767,-0.2798607718944549,0.7918634128570556,-19.31995758056641,51.732326202392585,-140.21199462890627,4.751258945167065,9.134796829223628,7.78138632774353,-1.0049326181411744,-0.1611077976226806,-0.0060553189925848,-83.4724200439453,81.33103881835937,34.67317016601563,36.828425383805246,1.1971471136567031,12.906159299219038,1.0177828630641252,-64.1524624633789,29.59871261596679,174.8851647949219
2255.553,-14.322152304649354,18.30118106842041,10.126594878435135,-0.8552921819686891,-0.2955183303356169,0.8058020853996277,-19.519919204711915,52.08277145385743,-140.09934020996093,4.482406329512598,9.123626518249509,6.14743854045868,-1.0124246978759763,-0.1618868637084959,-0.0012711729202419,-84.53727996826171,81.47149963378907,91.1014678955078,25.34965875448092,1.2116818068022237,11.879542413581298,1.025286663031968,-65.0173607635498,29.388728179931633,231.20080810546872
2278.306,-11.265279502868651,6.043862037658689,6.9508720368146895,-0.8548463010787964,-0.3074496436119079,0.8219068908691407,-19.636148529052733,52.177915496826174,-139.95661865234374,3.650400866568089,8.293569569587703,3.95365306854248,-1.019080889225006,-0.1640045189857482,0.0059276163950562,-85.52127349853515,81.5619808959961,133.22753356933595,14.551612030293304,1.2250789440209016,9.886359050663067,1.0322104812815565,-65.88512496948242,29.384065399169927,273.1841522216797
2300.663,-8.520024294853211,-6.58609775543213,3.301265223026276,-0.8511276078224181,-0.3180119609832763,0.8392725658416749,-19.681424179077148,52.00893417358399,-139.7921856689453,2.1677937877178204,6.695046834945674,1.266695294380188,-1.0236146378517152,-0.1665544968843459,0.0116275934502482,-86.33773681640625,81.59177459716797,161.14980773925782,11.26347413996942,1.2369026848949796,7.15034957166354,1.0371415179164991,-66.65631263732911,29.58284042358398,300.94199340820313
2310.79,-5.527342329025269,-19.47698947906494,-0.7045464819669724,-0.8476450681686402,-0.3277091825008392,0.8558487296104431,-19.65802604675293,51.56849578857422,-139.61453063964842,0.3343236431479462,4.431728434562679,-1.7085419845581051,-1.0245145893096923,-0.1669027829170226,0.0151167185232042,-86.90733703613282,81.5566488647461,174.95465087890625,20.25835674814453,1.2483479153912969,4.7614183736652285,1.0381306265748855,-67.2493109893799,29.988153076171876,314.5691815185547
2335.594,-2.322177414894105,-32.695596351623536,-5.013426129817963,-0.8440898227691651,-0.3320939671993255,0.8707842516899109,-19.565590133667,50.850048828125,-139.4291619873047,-1.63219204545021,1.7139624023437452,-4.740043568611145,-1.0233410692214966,-0.1677783828973769,0.0168824696354567,-87.17868041992188,81.45598175048828,174.69788024902343,33.15914610320483,1.2573938304858288,5.298087487217511,1.0371410451351577,-67.61309028625487,30.60593292236328,314.1270422363281
2358.022,0.3876875782012934,-46.09871952056885,-9.639636805653572,-0.83981782913208,-0.3336051416397094,0.8832809400558472,-19.42217658996582,49.85152389526368,-139.24616943359374,-3.437485934197902,-0.9996704053878832,-7.72778058052063,-1.0203484249114991,-0.1701597362756728,0.0172797652706503,-87.15936157226562,81.29085052490234,174.7699237060547,47.097397389232434,1.2636342808433585,8.516703773637342,1.034583894305625,-67.73718498229981,31.439326629638657,314.01609313964843
2448.377,2.865437302589416,-59.52345928192138,-14.36782788157463,-0.8359588360786437,-0.3342386460304259,0.8929168343544006,-19.238712234497072,48.56940689086914,-139.0727410888672,-4.942631755471229,-3.4248740959167527,-10.441404490470886,-1.0149566888809205,-0.173946161866188,0.0147605493478476,-86.90000854492186,81.06712707519532,175.11508911132813,61.299978905837946,1.2680075398796715,12.049161754109694,1.0298602921509064,-67.66129631042479,32.49772018432618,314.1878302001953
2448.432,5.318002758026123,-72.91253776550293,-18.99987348020077,-0.8324027633666992,-0.3317136359214782,0.9001589155197143,-19.01662841796876,47.00881713867188,-138.9100793457031,-5.852305813133715,-5.374885678291325,-12.74955451965332,-1.0096283173561098,-0.1759053033590316,0.0127379766106604,-86.45841217041016,80.79506103515625,175.66436645507812,75.53485625195762,1.2701237616493883,15.02298305379968,1.0249167141798872,-67.4417837524414,33.78624389648437,314.57444580078123
2448.47,7.190209708213805,-86.1318814086914,-23.45227850914001,-0.8267433786392212,-0.3261658775806427,0.9066556954383852,-18.767325439453124,45.17816329956055,-138.7582263183594,-6.515471968650817,-6.658362951278692,-14.684429512023923,-1.0041338872909549,-0.178665707707405,0.0108692066743969,-85.9237124633789,80.48282287597655,176.3231121826172,89.5567388749682,1.2696114932894265,17.390159351162787,1.0199629593129165,-67.15638702392579,35.304659576416,315.0813385009766
2448.51,8.492015733718869,-98.93758087158204,-27.58572494506836,-0.8187271785736083,-0.3205922079086303,0.9123677968978882,-18.502453308105466,43.09037338256836,-138.6168634033203,-6.924850025177001,-7.123596730232244,-16.2423246383667,-0.9988730335235596,-0.1835518413782119,0.0092227468267082,-85.39511779785155,80.1381903076172,176.9847998046875,103.06178467641404,1.267086640101275,19.039755458100384,1.0156395397152085,-66.8926644897461,37.047816925048835,315.60166320800784
2450.523,9.24107657432556,-111.19479965209962,-31.29006713867188,-0.8063708710670472,-0.313434487581253,0.9190735363960266,-18.230008010864257,40.75940147399903,-138.48241821289062,-6.932102847099304,-6.820611457824711,-17.348710441589354,-0.9932361555099488,-0.1878484904766082,0.0079704651981591,-84.94816955566407,79.77206329345702,177.56351074218747,115.88248041643618,1.2622089070412432,19.88850282267329,1.010875187301577,-66.71816154479981,39.012661819457996,316.0459289550781
2472.88,9.232316007614134,-122.72452819824218,-34.602522125244136,-0.7889395880699158,-0.3063346552848816,0.9255296683311462,-17.96400100708008,38.205185241699226,-138.3532745361328,-6.526391258239745,-5.764692106246953,-18.05609302520752,-0.9871804475784302,-0.1928318345546721,0.0074342853389679,-84.64237274169923,79.39356628417968,177.99005493164063,127.84318526137244,1.2541418427010549,20.046145596358457,1.0058651107864172,-66.67837173461916,41.18838104248046,316.3433294677734
2493.402,8.635107860565185,-133.4119723510742,-37.55303329467773,-0.7652981638908387,-0.3003897678852081,0.9302416348457336,-17.716863403320314,35.44605041503907,-138.2294128417969,-5.458502564430236,-3.9265656852722217,-18.355016174316404,-0.9803994607925416,-0.1996938836574554,0.0073813068866728,-84.52586730957032,79.01128570556641,178.2014758300781,138.86522157832954,1.24147685902931,19.547884465743746,1.0005574614103174,-66.80900390625,43.56523529052734,316.430888671875
2579.743,7.407702169418334,-143.12444732666015,-40.14588912963867,-0.7352441644668579,-0.2948609411716461,0.9359776210784914,-17.500730590820314,32.50178680419923,-138.11020935058593,-3.651921625137328,-1.3921832561492966,-18.32237518310547,-0.9757993316650392,-0.207084954380989,0.0076334693096577,-84.63129547119141,78.63302703857423,178.14968688964842,148.83270436299264,1.2262059627855957,18.73457066829468,0.9975604161466184,-67.1305648803711,46.131240234375,316.25989624023435
2581.3,5.7775150418281545,-151.79356842041017,-42.40404327392578,-0.6977105033397675,-0.2896898007392883,0.942425320148468,-17.32319892883301,29.392650909423832,-137.99480041503907,-1.3215670347213735,1.4965902900695751,-18.236431655883788,-0.9734818124771116,-0.21341226875782,0.0083967055194079,-84.95895233154297,78.26101593017577,177.82437683105468,157.711033158233,1.2078433719567876,18.34540164355398,0.9966354099386906,-67.63575340270997,48.86836502075194,315.8191772460938
2581.362,4.264021582603454,-159.42692443847656,-44.24803146362304,-0.6542203903198242,-0.2862577128410339,0.9468243169784548,-17.18201469421387,26.13991092681885,-137.8808282470703,1.2145083713531502,3.860508975982661,-18.306984634399413,-0.9754353523254394,-0.2225287151336669,0.0111327835358678,-85.43802185058594,77.89012542724609,177.29437316894533,165.50835146413127,1.1859275207587183,18.74897988003256,1.0005583913468277,-68.25600715637208,51.75021450042724,315.1752014160156
2581.419,2.885411298274993,-166.05397338867186,-45.64942031860352,-0.6038009524345398,-0.2828386056423187,0.9507334542274476,-17.07299964904785,22.76326034545898,-137.7640301513672,3.7545652437210086,4.724187736511226,-18.78746833801269,-0.9826613426208496,-0.2310216790437697,0.0173873233236371,-85.92309936523438,77.51068145751954,176.7085498046875,172.23854752043889,1.1612352767591083,19.732807111280195,1.0096022233939337,-68.85009971618652,54.74742111206056,314.4725799560547
2590.61,1.6834242630004876,-171.5858837890625,-46.5750846862793,-0.5473038959503173,-0.2798311722278594,0.9549800276756286,-16.99147651672363,19.28157953262329,-137.63988891601565,5.514970321655275,3.3441745185852,-19.89150382995605,-0.9936760449409484,-0.238372983932495,0.0260108158178626,-86.24018157958984,77.10748962402344,176.2620263671875,177.80266574620586,1.135708542158664,20.91100967138243,1.0221987694660362,-69.24870506286621,57.825910091400154,313.90191528320315
2612.965,1.064333727359771,-176.08771545410156,-47.05311935424805,-0.4849842286109924,-0.276967738866806,0.9558496141433716,-16.92580741882324,15.71503028392792,-137.50500366210937,6.200375633239747,-0.540265769958501,-22.07592041015625,-1.0063732051849368,-0.2443199843168257,0.0380170192942022,-86.21878631591797,76.65516052246093,161.75159912109376,182.2690658918648,1.107054341589618,22.93649509081576,1.0363033226844311,-69.29297889709473,60.940130238533015,299.2566027832031
2635.332,0.4283001136779778,-179.5972424316406,-47.162017059326175,-0.4185377663373947,-0.2753655934333801,0.9532539224624632,-16.877572937011717,12.082826385498048,-137.35723449707032,5.305034389495851,-6.657647867202764,-24.86397766113281,-1.015093936920166,-0.2523349875211715,0.0521479191817342,-85.73780090332032,76.13571258544923,133.3338311767578,185.68685678620616,1.0768904830982975,26.28088754457724,1.047286041239153,-68.8602279663086,64.05288619995117,270.6910656738281
2657.857,-0.4350466465950021,-182.09472290039065,-47.14492279052735,-0.3497261717915534,-0.274813756942749,0.9469452095031736,-16.853535079956053,8.40310610294342,-137.19855224609375,3.08391296863556,-13.785386734008792,-28.145680007934573,-1.0187450456619265,-0.2584992563724517,0.0656739911064504,-84.79272644042967,75.53618041992188,91.04145751953124,188.09923210550207,1.0462008535849954,31.491692709559963,1.053079487367255,-67.93919136047361,67.13307431697845,228.240009765625
2680.393,-0.9167378067970284,-183.61044921875,-47.07293350219727,-0.2799999480694531,-0.2742630815505981,0.93637512922287,-16.847936096191408,4.69322434425354,-137.0319793701172,-0.2262193870544427,-20.59929491996765,-31.62026298522949,-1.016817810535431,-0.2638900631666183,0.077500059083104,-83.48800567626952,74.85033721923828,34.79148254394532,189.55078089794267,1.015095360765516,37.738881245553095,1.0533578140489748,-66.64006958007812,70.15711287498475,171.82346191406253
2690.515,-1.4566178631782545,-184.3255139160156,-47.08649780273438,-0.2107285344600676,-0.2723797917366027,0.9245168447494508,-16.863426208496094,0.9710819196701048,-136.86232055664064,-4.198404755592345,-25.725410099029546,-35.005256271362306,-1.0099902534484864,-0.272346972823143,0.0866315734386443,-82.01041748046876,74.0796160888672,-35.59361694335938,190.250243341052,0.986574205221099,43.643914740531486,1.04964670969966,-65.14699127197267,73.1085341691971,101.26870361328126
2712.968,-1.8897028565406808,-184.3391809082031,-47.08862548828125,-0.1433301085978746,-0.2706902748346328,0.9077924275398256,-16.899995803833008,-2.750574808120727,-136.6914141845703,-8.313257637023925,-28.89545418739319,-37.3612232208252,-0.995274612903595,-0.283007173538208,0.0918767565488814,-80.53576873779296,73.24580474853516,-91.49139160156253,190.2678197835064,0.9580729807375724,47.95746579826339,1.0388002472845437,-63.635772933959956,75.9963795566559,45.20002258300778
2735.91,-1.479066696166993,-183.7773767089844,-46.96166107177735,-0.076784166842699,-0.266773218512535,0.8864482378959655,-16.94188606262207,-6.461570200920105,-136.51827270507812,-11.372299780845642,-30.458723602294924,-38.714360656738286,-0.9817236375808716,-0.2930599737167357,0.094509760737419,-79.17214385986327,72.37211822509765,-133.03442749023438,189.6884536258023,0.9288994761878846,50.5555611861487,1.0288816956552955,-62.230257797241194,78.83368842601776,3.4838452148437398
2756.541,-0.2249402785301215,-182.7656506347656,-46.44467864990234,-0.009950503334403,-0.2598609054088592,0.8615998697280883,-16.973375549316405,-10.152849941253663,-136.337109375,-13.30553584098816,-30.79779296875,-39.112599487304685,-0.9689979577064516,-0.3032850110530852,0.0970462465286254,-77.97261657714844,71.48086181640625,-160.30172424316407,188.57476454968943,0.8999894656005585,51.52995996909093,1.0199788301401351,-60.99924102783204,81.63371175765991,-23.964614868164062
2777.866,1.293952732086181,-181.342045288086,-45.36146591186524,0.0567500580847263,-0.2497864705324172,0.8375853323936463,-16.990635528564454,-13.814354367256165,-136.13955139160154,-13.80908414363861,-29.896441040039065,-38.00351615905762,-0.956792149543762,-0.315826048851013,0.0973174756765365,-76.95388946533203,70.60676300048829,-173.34255554199217,186.9338767923364,0.8758784384802705,50.28673018002241,1.012258860980465,-59.96325393676757,84.42111736774444,-37.203004150390626
2800.381,3.425034101009369,-179.39742309570312,-43.61499801635742,0.1217722573131322,-0.2391645228862761,0.8080063271522523,-16.986078872680665,-17.43588032722473,-135.91515502929687,-12.464178733825683,-28.720809783935543,-35.99790496826172,-0.94701819896698,-0.3245758891105651,0.0985182815790175,-76.0557876586914,69.77278015136719,-172.13584472656248,184.6549060380976,0.8514119898008415,47.7083832073333,1.005931821134941,-59.069708786010736,87.20866047859192,-36.22068969726561
2810.469,6.180091490745544,-176.8696490478516,-41.25884643554688,0.1848617675900458,-0.2280084127187727,0.7756147599220276,-16.953251724243163,-21.00498483657837,-135.6542498779297,-9.401412487030028,-26.62979205131531,-33.28133644104004,-0.9390705037117004,-0.3311943900585173,0.1009434437751769,-75.25085754394532,68.99992584228515,-171.0916259765625,181.7233025628145,0.8293008894219003,43.648364651488144,1.000865981932033,-58.297605819702156,90.00491067886352,-35.437376098632825
2837.143,8.864892914295195,-173.6859210205078,-38.36809982299805,0.2449740574508904,-0.2146978145837783,0.7413620805740356,-16.89828804016113,-24.507598304748537,-135.34964599609376,-5.318354187011718,-22.834279232025143,-29.888444766998287,-0.9294528388977052,-0.3365634882450102,0.1027057561278342,-74.569794921875,68.31143218994141,-170.26621704101564,178.09406663657143,0.8097685934414014,37.986949468133226,0.9938340071140868,-57.67150688171387,92.81903049468995,-34.91657104492188
2860.26,10.829457550048826,-169.75822204589844,-35.17910133361816,0.3016420103609561,-0.2006784987449645,0.7064427638053894,-16.839747009277342,-27.928740730285647,-134.99814453125,-0.4169594001770008,-17.000454339981083,-25.586314888000487,-0.9201311421394348,-0.3411748325824736,0.1019680914282798,-74.05937225341798,67.73732391357422,-169.72866271972657,173.7029080748329,0.7939276672380987,30.722122525227533,0.9866301621134568,-57.21962524414063,95.66606464385987,-34.730518188476566
2870.4,12.357757606506349,-165.18112731933593,-31.866907196044924,0.3538953530788421,-0.1894218343496321,0.6643472003936768,-16.79464050292969,-31.25570533752442,-134.59589111328123,4.82781951904297,-9.80481716156006,-21.53939296722412,-0.9102106356620788,-0.3400771248340606,0.1022944584488868,-73.75218078613281,67.2829507446289,-169.52332458496093,168.6802263746085,0.7761956937075173,24.153420674442348,0.9770363393124732,-56.95754028320312,98.53865608215332,-34.927433471679706
2972.653,13.249052276611328,-159.98157287597655,-28.479761199951177,0.4050736492872238,-0.1785054594278334,0.6213420701026917,-16.781332473754883,-34.47688186645509,-134.1394464111328,9.462445163726809,-0.8145126247406026,-17.140135345458983,-0.8991543650627136,-0.3387655150890349,0.1013557186722754,-73.72343261718751,66.96360504150391,-169.7187286376953,163.03600168093556,0.7628989634754454,19.595548957685544,0.9661850899969654,-56.942100143432626,101.440486907959,-35.5792822265625
2972.7070000000003,12.926536712646485,-154.12493133544922,-25.27043735504151,0.4560712242126465,-0.1667226469516753,0.5801862227916718,-16.824624176025388,-37.57936721801758,-133.6312744140625,13.192453536987308,9.041467781066892,-12.247893676757812,-0.891249668598175,-0.3385136532783507,0.0962100712954997,-74.01928009033203,66.79141082763672,-170.34466186523437,156.7168938393542,0.7565801052622666,20.144474911965403,0.9582138816834672,-57.194655914306644,104.3707780456543,-36.71338745117188
2972.752,11.888034420013426,-147.59619720458986,-22.33119831085205,0.5047389829158784,-0.1585903096199034,0.5392605018615723,-16.94092430114746,-40.54791496276856,-133.07372741699217,16.390295047760013,18.90143103599548,-7.741078300476073,-0.8862550449371337,-0.3357226884365081,0.0906032389402388,-74.6503680419922,66.7566146850586,-171.40163696289065,149.74860670345552,0.7554562965839169,26.1883592501558,0.9520329170328196,-57.70944374084473,107.30452964782715,-38.32790954589848
2972.792,11.144513931274414,-140.26719970703124,-19.552374267578124,0.5511148023605347,-0.1550376611948012,0.4968206048011779,-17.12585563659668,-43.363661270141606,-132.46834594726562,18.95028202056885,27.89834596633911,-3.5449849700927736,-0.8831991291046142,-0.3312648272514343,0.0833773772418498,-75.6006576538086,66.84400146484374,-158.45779174804687,142.06119401129925,0.7580203922881319,33.911617695928754,0.9469576941240836,-58.474802017211914,110.20766273498535,-25.989445800781255
2972.839,10.516875858306884,-131.79680328369142,-17.010557975769046,0.5975432503223419,-0.1526630163192748,0.4575991082191467,-17.370161361694336,-46.00441833496094,-131.82515380859377,20.554635314941407,35.68527173042297,0.7570066070556638,-0.8828758668899536,-0.3312282168865203,0.0727886858955024,-76.8515362548828,67.04115814208986,-131.47031127929688,133.30551795130648,0.7679589028069448,41.18864783417255,0.9457695918102385,-59.481374893188466,113.04557647705079,0.35484252929688864
2993.12,10.128071327209472,-122.07185485839844,-14.69536783218384,0.6413101971149444,-0.1527921891212462,0.4196262907981872,-17.658886108398434,-48.44318008422852,-131.15805480957033,21.498542556762697,41.23559753417968,5.307691192626953,-0.8838654732704162,-0.3327866435050963,0.0596527960151432,-78.33193634033202,67.3355990600586,-90.3458074951172,123.36964542829053,0.7814796516283175,46.80527130422462,0.9463210771230604,-60.67305023193359,115.77877914428711,40.81224731445313
3015.243,10.456002407073974,-111.06486846923828,-12.35835186958313,0.6803991389274597,-0.1571732461452483,0.3818815863132476,-17.96814239501953,-50.65200134277344,-130.47842346191405,21.901035690307616,44.395295715332026,8.857398071289062,-0.8860726356506348,-0.3328417396545409,0.048218737579882,-79.9661947631836,67.69309967041016,-34.989118041992185,112.23841523898298,0.7959145453641276,50.289672364742856,0.9477517533399352,-61.99805236816407,118.34510101318361,95.48930541992186
3105.2940000000003,11.229561462402344,-98.66470001220702,-10.043373355865478,0.7177453255653381,-0.1621272891759871,0.346604966521263,-18.27073684692383,-52.60438522338867,-129.8063537597656,21.127723236083984,44.86916145324706,12.14321897506714,-0.8886202120780945,-0.3339093339443206,0.0356241466477512,-81.66677276611327,68.09529602050782,34.72183471679688,99.80829338036986,0.813374829389042,51.05957408493089,0.9499528432681476,-63.396035919189444,120.69968124389649,164.5281884765625
3105.343,11.580381422042848,-84.92016395568848,-7.894922533035277,0.7526754379272461,-0.1653694427013396,0.3153372859954834,-18.549034957885745,-54.277449340820304,-129.17042694091796,19.112138671875005,42.38680843353272,14.722757911682129,-0.8905307817459107,-0.3370697212219237,0.0250707033649086,-83.32252502441406,68.51825714111328,90.13398681640624,86.06897978914144,0.8326493688085763,48.77166159072273,0.9525175118436509,-64.77349006652832,122.79570648193359,219.3044137573242
3105.384,11.314695143699646,-70.1088339805603,-5.891872196197509,0.7825521349906921,-0.1695027810335158,0.2862858754396438,-18.78777084350586,-55.65095428466797,-128.59977294921873,16.263946554660798,37.15508915901184,16.366200828552245,-0.8952047681808472,-0.339540147781372,0.0180000576749443,-84.80994079589843,68.94048919677735,131.3972741699219,71.25998236236768,0.8503403078960973,43.73635944505996,0.9576027835200884,-66.02216995239257,124.59144348144531,259.99704711914063
3105.419,10.253841953277588,-54.45791660308838,-4.256661081314087,0.8091406106948853,-0.1734689420461654,0.2590810239315032,-18.970511627197265,-56.71326416015624,-128.12930938720703,12.813745675086976,29.57793737411498,16.539404487609865,-0.9006810832023622,-0.3408509492874145,0.0141231241449713,-86.01374694824219,69.33479675292969,158.64652221679688,55.57809927581995,0.8671349253096106,36.22979931406808,0.963122653613924,-67.04323532104492,126.04806091308593,286.7758316040039
3112.503,7.983819203376768,-37.85602067947387,-3.2018649101257326,0.8327881240844727,-0.1775683170557021,0.2349138063192367,-19.0823152923584,-57.45230239868164,-127.80227294921876,8.94691500425339,19.68691061973572,16.12316082000732,-0.906136965751648,-0.3425047767162322,0.0137056453898548,-86.7990869140625,69.69185913085938,172.03148803710937,38.821020203746,0.8833182117660211,26.97365478889756,0.9688041946082768,-67.7167716217041,127.14416152954102,299.8337609863281
3132.752,4.733583784103393,-20.63377639770508,-2.67156476020813,0.849332377910614,-0.1825192910432815,0.2178772258758544,-19.11151954650879,-57.86078720092773,-127.6531918334961,5.004638700485232,8.234677352905267,14.867382698059084,-0.9130253410339356,-0.3456820321083068,0.0173322710767387,-87.06186920166016,69.99703643798827,171.66153442382816,21.33768502297293,0.8956278609587792,17.71709310015026,0.9764280558819172,-67.95034965515137,127.857823638916,299.31472625732425
3155.168,1.0399077939987176,-3.3330169486999504,-2.521131210327148,0.8589240550994873,-0.1860769915580749,0.2095266705751418,-19.050094451904297,-57.93971160888672,-127.70062866210938,1.1659731221199054,-3.7844576930999807,12.74003014564514,-0.9202731847763062,-0.3465975403785705,0.0217770456150173,-86.75499816894532,70.23536773681641,171.9808135986328,4.306566240060175,0.903480273662992,13.341288598344487,0.9836192501829756,-67.70490371704102,128.17507934570312,299.6814422607422
3175.35,-2.8447459697723394,13.853723754882813,-2.6906097221374514,0.8613435339927673,-0.1898833721876144,0.2085595512390136,-18.895012817382813,-57.69384780883789,-127.95290435791016,-2.383211069107054,-15.659851684570317,10.16640003204346,-0.9237315249443052,-0.3459527719020843,0.0269797778874634,-85.87359985351563,70.39660186767578,158.5851007080078,14.396444775916065,0.9063473202903556,18.821964280972043,0.9867579029212404,-66.97858703613281,128.09044967651369,286.53800506591796
3197.565,-6.368948149681092,30.900552959442138,-2.93889126777649,0.8545221447944641,-0.1951380890607833,0.2159021896123885,-18.645420608520507,-57.12566757202149,-128.4040496826172,-5.38974770784378,-26.334223947525025,7.418150072097778,-0.9246527934074402,-0.3441069507598877,0.033270932547748,-84.47448852539063,70.47383880615234,131.40019775390624,31.68666526500425,0.902718519376804,27.88493646693089,0.9871673297217888,-65.82906791687012,127.59950637817383,259.80424743652344
3220.14,-9.339933433532718,47.32757564544678,-3.077006320953369,0.8388896107673645,-0.1961481112241744,0.2370060324668884,-18.31343879699707,-56.24504119873048,-129.02970123291016,-7.912557883262633,-34.69517808914185,4.362207355499268,-0.9248971581459046,-0.3439928722381592,0.0374597472697495,-82.69316467285157,70.4574478149414,90.27159545898438,48.33840854762904,0.8935220870330667,35.852375205913795,0.9875064971748502,-64.37972587585449,126.70248901367188,219.30129669189455
3230.086,-11.656832375526433,62.59622034072876,-2.791566133499145,0.8183991050720214,-0.1916919341683386,0.2646992242336273,-17.923653869628907,-55.07140106201172,-129.788115234375,-9.99732023000717,-40.07052287101745,0.9534669017791748,-0.9242750430107116,-0.3413424372673034,0.042425256744027,-80.70587371826171,70.343291015625,35.001912841796866,63.73351852403792,0.881242629539543,41.30983314019595,0.9862042978114792,-62.782219848632806,125.41469207763672,164.79002807617186
3260.148,-13.077176570892334,76.99561752319337,-1.992547245025635,0.790886378288269,-0.194089394211769,0.29289675116539,-17.498588218688965,-53.617506408691405,-130.63571289062503,-11.61211507797241,-42.63019279479981,-2.157090930938721,-0.922783524990082,-0.3370759487152098,0.0514601189643143,-78.66933959960937,70.1415951538086,-34.584179687500004,78.12367060864355,0.8654250187917304,44.2360440770896,0.9837671335428936,-61.17075138092041,123.7591015625,96.05153320312502
3280.13,-12.88278875350952,90.54121719360352,-0.7734312343597414,0.7610434675216675,-0.1946772667765616,0.3221472537517547,-17.04150863647461,-51.89601409912109,-131.5338671875,-13.09850482940674,-42.95300537109375,-4.887721395492553,-0.9209720063209534,-0.3334803092479705,0.0631683248281478,-76.71388641357422,69.86416748046875,-89.82606079101564,91.45641832502038,0.8490378382361963,45.17102300828658,0.9815237084984544,-59.672377777099605,121.76018157958984,41.70780639648436
3290.057,-12.727762718200683,102.9690251159668,0.5769527626037597,0.7287558293342591,-0.1850519517064094,0.3652909958362579,-16.582281188964846,-49.92713394165039,-132.45197509765623,-14.766517066955569,-41.03977462768555,-7.258644752502441,-0.9218981313705444,-0.3331378650665282,0.0745993183553218,-74.96932495117187,69.52872680664062,-130.85670654296877,103.75427196811556,0.8359227208648298,44.21539382865366,0.983077850459802,-58.38704376220703,119.455860748291,1.5952685546874648
3310.151,-12.63898693084717,113.71424255371092,2.4702147769927976,0.6931551098823547,-0.175323040485382,0.4105847978591918,-16.155950012207033,-47.73854293823242,-133.35024658203128,-16.60359523773193,-37.476294975280766,-9.215667276382446,-0.9218946957588195,-0.3285163140296935,0.0887238472700118,-73.51435913085938,69.15858459472656,-157.757421875,114.441141689721,0.8244889636096602,42.01286211675747,0.982692586583564,-57.35840911865235,116.89712753295899,-24.40717529296873
3331.735,-12.339089088439945,123.49009429931644,4.604764232635498,0.6521981716156006,-0.1780552867054939,0.4497412848472594,-15.776108283996582,-45.34503707885742,-134.20895629882813,-18.336317787170408,-33.52452548980713,-10.00783067703247,-0.9209678840637208,-0.3296513092517852,0.1017613627016544,-72.34665985107422,68.78119323730469,-170.5282763671875,124.19041977231852,0.8119934503914251,39.50026625440621,0.9834669308660666,-56.57055156707764,114.12623031616212,-36.31932006835936
3350.122,-11.438377227783205,132.12640106201172,6.707125616073609,0.6117105972766876,-0.1744229006767272,0.4927122342586516,-15.43478500366211,-42.76814453125,-135.02222534179683,-19.25703237533569,-28.665709772109988,-10.383404712677002,-0.917438280582428,-0.3369117856025695,0.1101511794328689,-71.48288940429687,68.41307861328126,-169.20542602539064,132.7900894842474,0.8045983773841692,36.06066147578012,0.9835323239662264,-56.048104400634756,111.18122314453126,-34.18320068359381
3372.375,-12.250122718811037,139.43101104736328,8.830416955947877,0.5664202845096588,-0.1632421503961085,0.5520974600315094,-15.171107597351073,-40.03340599060059,-135.7826904296875,-18.67565287113189,-22.280254726409915,-10.003577928543091,-0.9156319546699524,-0.342406622171402,0.1142322266101836,-70.94118377685547,68.08559509277343,-168.24245239257812,140.24638537920242,0.8076456795793516,30.74510257275397,0.9842119552798916,-55.77007617950439,108.11900108337403,-32.45976196289061
3395.4,-12.873071632385251,145.22530853271488,11.674090385437012,0.5180023229122162,-0.1652250513434409,0.599669646024704,-14.994676513671871,-37.165202941894535,-136.46839233398435,-16.545640316009518,-15.384664487838748,-8.097576236724853,-0.912441828250885,-0.3380700647830962,0.118277489542961,-70.66861022949217,67.8373452758789,-167.61777954101564,146.26137767025887,0.8094624194471837,24.000351159508003,0.980219885116013,-55.673933715820304,105.00254821777344,-31.149387207031282
3517.52,-12.029496335983277,150.3030926513672,14.442171459198,0.4661077171564101,-0.1761831726133823,0.6372734773159027,-14.870651817321775,-34.17950584411621,-137.08506774902344,-13.31119294643402,-8.200505371093756,-3.572514524459838,-0.9101327347755432,-0.3372022545337677,0.1203670296072959,-70.60608093261719,67.719921875,-167.2910418701172,151.47377581324028,0.8089588365270381,16.037425168212284,0.9780261638571582,-55.73542911529542,101.8994277191162,-30.20597412109376
3517.563,-10.133725070953371,154.3249755859375,17.032009887695313,0.413803231716156,-0.1755975106358527,0.6848899173736573,-14.769190101623536,-31.09840713500977,-137.6384881591797,-9.1279109954834,-0.2914706134796191,2.534396362304688,-0.9055876016616822,-0.3319427490234374,0.1197530534863471,-70.73892913818358,67.76964752197266,-167.26572814941406,155.59235146442265,0.8192324451828908,9.477704320206035,0.9719134152443304,-55.96973903656004,98.86805465698242,-29.627239990234358
3517.598,-9.6028262424469,157.28250854492188,19.538493404388426,0.3593049824237823,-0.1718378017842769,0.7370580148696899,-14.71089416503906,-27.94322971343994,-138.13059265136718,-4.913089337348937,7.208559722900387,10.084867773056027,-0.907210190296173,-0.3235835254192352,0.1177751344442367,-71.025546875,68.0127197265625,-167.4960736083984,158.78209751272144,0.8377844697774333,13.334404302983229,0.9703646786612328,-56.314652709960946,95.95594944000243,-29.365480957031224
3517.63,-8.262137985229492,159.20683410644534,22.213504486083984,0.3025309893488883,-0.1834416684508323,0.7711369609832763,-14.678155136108398,-24.732585792541503,-138.5576806640625,-1.4818397521972642,13.615875139236447,18.445055351257327,-0.9130300164222718,-0.3159704339504241,0.115223772227764,-71.42606414794922,68.45527496337891,-167.92008789062498,160.96123363045356,0.8484268134818497,22.974071728133342,0.9730044417705752,-56.74790901184082,93.18786075592041,-29.362407226562482
3517.6620000000003,-5.964356422424317,160.5346600341797,24.41946807861328,0.2431643928214907,-0.1925958786904811,0.8082154178619385,-14.639243545532228,-21.480297622680663,-138.9329913330078,1.037389092445375,19.393146915435786,26.15040078163147,-0.9203033399581908,-0.3208124661445617,0.1107001718878745,-71.96575744628906,69.07563415527343,-168.54221923828123,162.49080294301513,0.8656987097683296,32.57320654238316,0.9808839911161572,-57.32651390075684,90.5559317779541,-29.60922790527343
3517.6980000000003,-4.261772747039796,161.1309228515625,26.45653167724609,0.1863666108995675,-0.1947761371731758,0.8469579601287842,-14.598143196105957,-18.202650508880616,-139.260009765625,3.392230691909792,24.07922396659851,30.62121660232544,-0.9293821454048156,-0.3216177439689635,0.1057342478632926,-72.66645751953124,69.80454223632812,-169.38109130859374,163.3440696025807,0.8888239665399476,39.10211199036796,0.9891253088482572,-58.06831432342528,88.00719274520873,-30.12108154296874
3532.3790000000004,-4.212701764106752,161.21442626953126,28.33599548339844,0.1326091578975319,-0.1981616468727588,0.8784187293052673,-14.58265064239502,-14.910791263580323,-139.54191955566404,5.077215838432314,27.50513160705566,32.91228308677673,-0.9428896307945251,-0.3209345674514769,0.0990491867065429,-73.53874053955079,70.59166656494139,-170.43206909179688,163.73993628190593,0.91020475226396,43.191767310167,1.0009248692246238,-58.95608989715576,85.50245782852171,-30.89014953613284
3671.6,-3.677384443283082,160.90137634277346,30.19461601257324,0.0782564386725425,-0.211377340555191,0.9001350951194762,-14.583058471679688,-11.611758446693422,-139.77892578125,6.4482438659667976,30.0398454284668,33.865121383666995,-0.9560359382629396,-0.3155431258678435,0.0930591498315334,-74.58145904541016,71.40570068359375,-171.68654968261717,163.7513080909257,0.9279265271343649,45.72547002111247,1.0110549860913187,-59.998400573730464,83.01745913028716,-31.907623901367174
3671.644,-2.7440225934982307,160.2918914794922,31.63335327148437,0.0235265895351767,-0.217797570824623,0.9243280076980592,-14.58397388458252,-8.315733213424682,-139.98089233398437,7.481104602813723,31.72232025146484,33.02947494506835,-0.965406138896942,-0.3081465196609496,0.0891358879208564,-75.79675567626953,72.2056265258789,-173.13928771972655,163.40651508818573,0.9499323913244178,46.40278809901011,1.0173045252600117,-61.21278179168701,80.52135973930358,-33.15839538574218
3671.676,-2.631634159088136,159.31070861816406,32.82566093444824,-0.0258739638328551,-0.2212360471487044,0.9378113412857056,-14.597271270751952,-5.032273135185242,-140.15231567382813,8.038710242509843,31.848085784912108,30.8664818572998,-0.9759595465660096,-0.2958744478225708,0.0852068211138247,-77.134443359375,72.95690338134764,-160.32629028320312,162.67867529136143,0.9639009090184022,45.07395182112582,1.0233762395971313,-62.537172088623045,77.98917651653288,-20.173974609374994
3671.706,-3.7348237943649294,158.17088378906251,33.69827171325684,-0.0728205358609556,-0.2242667061090468,0.95272762298584,-14.644153175354004,-1.7638770675659177,-140.30082031249998,7.816885664463044,30.95976127624512,29.173548355102536,-0.9841983032226562,-0.2846642100811004,0.0775262653827666,-78.5479769897461,73.6628451538086,-133.1802520751953,161.76387391456893,0.9814725210174388,43.25166405354689,1.0274679237775024,-63.9038238143921,75.42672222137452,7.120568237304667
3671.739,-4.448571281433106,156.6980773925781,34.47994064331054,-0.1254720013588666,-0.2332871782779693,0.9639080810546876,-14.717659072875978,1.482664866447449,-140.42871643066405,7.2376333463192,29.30728248596192,27.25561019897461,-0.9904676795005798,-0.270338476896286,0.0720803300291299,-79.99080169677734,74.31688232421875,-91.6444989013672,160.50839090758654,0.9996423957578164,40.67146949012502,1.0292252864183695,-65.27314262390136,72.8342174577713,48.78421752929685
3671.77,-5.16223358631134,154.76236389160155,34.851559448242185,-0.1793810038641094,-0.2345063674449919,0.969555299282074,-14.8135400390625,4.695480422973633,-140.5434680175781,5.854765214920045,26.82692962646484,24.842962684631345,-0.9932983779907228,-0.2588797056674957,0.0694081951677798,-81.41515899658202,74.90537506103514,-35.653223266601564,158.72198691073174,1.0135128313373707,37.02884313417204,1.0288235355404436,-66.60161895751952,70.20989463806151,104.89024475097654
3678.001,-7.04651909828186,152.62375671386718,34.97449508666992,-0.2265225572884081,-0.2363981443643568,0.9691706490516662,-14.955008125305175,7.871067090034485,-140.65109436035158,4.165651465654375,23.192671918869006,22.449345321655272,-0.9939293789863588,-0.2511077159643172,0.06301143579185,-82.72964416503906,75.42598022460939,34.894550170898434,156.73825267439875,1.022980106650476,32.54574915777065,1.0270935383252957,-67.77463603973389,67.5549131345749,175.54564453125002
3699.767,-9.257317261695862,150.3719677734375,34.85602844238281,-0.2771601405739783,-0.2401299881935119,0.9729917526245118,-15.148767433166505,11.0051557636261,-140.75875915527345,2.6103583049774186,19.382140464782708,20.25822578430176,-0.991749346256256,-0.2403856688737868,0.0547326186392455,-83.8908905029297,75.88705596923828,91.23932006835938,154.636248446849,1.0398043592080786,28.158072579718244,1.0219333124733327,-68.74212306976318,64.88190020561217,231.99807922363283
3719.876,-10.381839332580569,147.67657958984375,34.67875564575195,-0.3302737462520598,-0.2448546904325484,0.9708456134796142,-15.372894515991211,14.086696887016297,-140.86737854003906,1.1931101787090317,15.391898131370535,18.520829849243164,-0.990681564807892,-0.2308505159616469,0.0496984151937066,-84.84809875488281,76.29999420166016,133.42820373535156,152.04858052747727,1.0543129384119296,24.11130809992779,1.018435985245385,-69.4752042388916,62.21329731464386,274.29558227539064
3729.78,-11.7751243019104,144.71700073242187,34.16733444213867,-0.3765523695945739,-0.2446390455961227,0.9652404499053956,-15.63148136138916,17.10590976715088,-140.98357666015627,0.176418063640596,11.178577497005456,17.338003997802737,-0.9885207796096802,-0.2262963944673537,0.0447946165408938,-85.54774719238281,76.6757095336914,161.50639587402344,149.1612235005941,1.0645792952199664,20.630029103652745,1.015081251693725,-69.91626583099365,59.56979976654053,302.48997253417974
3752.077,-13.273123245239258,141.67120361328125,33.70624710083008,-0.4187102371454239,-0.2494345372915267,0.959517548084259,-15.9291003036499,20.059308700561523,-141.10837280273438,-0.1735942208766923,7.201760492324825,16.699118499755862,-0.9870208263397215,-0.2230590015649794,0.0359860028699039,-85.98079589843749,77.02780487060546,175.4687365722656,146.22932957358904,1.076201549973723,18.186699750400592,1.0125514417599064,-70.05169559478759,56.96849617004394,316.57710937499996
3777.218,-13.334623737335209,138.44305786132813,33.35661300659179,-0.4628910851478576,-0.2548930078744888,0.9519804906845092,-16.237143363952637,22.94213962554932,-141.2402294921875,-0.1644335603713975,4.511914355754848,16.532992973327634,-0.9879316186904908,-0.2181222295761107,0.0306193017307667,-86.2197509765625,77.37038604736328,175.23187561035155,143.02781579637886,1.0888091921069476,17.138385752618127,1.0121875971785796,-69.98260761260985,54.42824642181397,316.47210510253905
3789.878,-12.345223054885864,134.98643768310546,33.09151290893554,-0.5027301657199861,-0.257896162867546,0.9421072006225586,-16.53237537384033,25.7489656829834,-141.37491394042968,0.1374870634078993,2.128190331459041,16.990220413208007,-0.9895736813545228,-0.2151459062099456,0.0281548709236084,-86.25639984130859,77.71654876708985,175.19659729003905,139.53060996516876,1.09855087629637,17.123541878621676,1.013082685936921,-69.72402446746827,51.96758308410645,316.57151123046873
3812.146,-12.29289276123047,131.3827279663086,32.736280822753905,-0.5395342361927031,-0.2582030987739562,0.9287721514701844,-16.83244029998779,28.47651504516601,-141.5120135498047,0.5332361078262343,0.4378917050361591,17.17489372253418,-0.9875495243072508,-0.2130644702911376,0.0250150632578878,-86.14175750732421,78.06133056640627,175.30790832519534,135.95661257332932,1.1047097997153243,17.188748188055264,1.010582151460096,-69.30931720733642,49.58481552124026,316.81992187500003
3835.505,-12.033661336898804,127.52309020996093,32.56481117248535,-0.576461466550827,-0.2624105262756347,0.9133340740203856,-17.133189010620118,31.121875991821287,-141.64692443847656,0.9505750036239636,-0.5446827578544658,17.026848487854004,-0.9874315071105958,-0.2087915170192718,0.0222814660891889,-85.93017547607423,78.4007794189453,175.5089208984375,132.16434643491652,1.111461307236946,17.06205853853968,1.009510446971697,-68.79698646545411,47.27890342712402,317.15584533691407
3857.021,-11.187513294219972,123.39460052490236,32.38269462585449,-0.6132383036613465,-0.2639491486549377,0.8973140835762023,-17.419495239257813,33.68075729370118,-141.77618286132812,1.2446804237365736,-1.2042426514625593,16.573201332092285,-0.9878767299652098,-0.2024343580007552,0.0204721498209982,-85.64617156982422,78.73039581298829,175.7763885498047,128.0625893992462,1.1184377205447391,16.66344598559674,1.0086125181774357,-68.2266763305664,45.049638519287114,317.5525714111328
3879.716,-11.174312829971315,118.80737121582033,32.08020881652832,-0.648255239725113,-0.2608190882205962,0.8838329148292541,-17.702804412841793,36.14342407226563,-141.89542907714844,1.7225708198547376,-1.8070940566062967,16.017829971313475,-0.9839919328689576,-0.195707675218582,0.0153024195693432,-85.30447967529297,79.048291015625,176.09188842773438,123.56859034620348,1.126686324558376,16.2112219202855,1.0033821715255484,-67.60167526245118,42.904866943359366,317.9873175048828
3889.673,-12.650153636932377,113.55223297119142,31.59422653198242,-0.6831478381156921,-0.2587491869926452,0.8662752199172974,-18.01211769104004,38.49782943725586,-142.00349975585937,2.2193352985382093,-1.4929414677619977,15.283287239074705,-0.9808583641052246,-0.1896901881694793,0.0090469877049326,-85.00136932373047,79.35214141845704,176.35862487792969,118.54252886595572,1.1331702727896902,15.515579016767784,0.9990732435159512,-66.98925163269044,40.85431198120118,318.36212463378905
3912.126,-13.219370031356814,107.5738558959961,31.08835220336914,-0.7173558807373047,-0.2615444552898406,0.8491640710830689,-18.32721969604492,40.730328292846686,-142.09570678710938,2.851012735366823,-0.788120462894444,14.749826469421384,-0.9832571220397948,-0.18034865796566,0.0043167538009583,-84.7721435546875,79.64929077148437,176.53927734374997,112.75358911839214,1.1419652277278958,15.043496546990012,0.9996693657581854,-66.44492385864258,38.91896247863769,318.6349841308594
4021.07,-13.08445064544678,100.89511169433594,30.3718034362793,-0.7489119863510132,-0.2614243954420089,0.8351473665237427,-18.62799682617188,42.82591262817383,-142.16708129882812,3.089543590545656,0.3179032325744584,14.5232413482666,-0.9850255751609802,-0.1716972655057906,-0.0018825547769665,-84.67846405029296,79.94622802734375,176.58052062988278,106.17661162646716,1.1518172605252894,14.851628911441455,0.9998794320896266,-66.05046722412108,37.12031539916992,318.7476019287109
4021.133,-13.392408533096312,93.39319747924806,29.37523002624512,-0.7765186715126038,-0.2620127356052398,0.8245037412643432,-18.91952850341797,44.7659423828125,-142.21393493652346,3.3878700542449964,1.985429937839504,14.417941665649412,-0.9848068642616272,-0.1655965948104857,-0.008781662005931,-84.79406646728515,80.24466796875001,176.4071551513672,98.81573802188592,1.1625138021485764,14.94311337762612,0.9986710718235678,-65.87453796386718,35.47872558593751,318.62109008789065
4021.194,-13.492890014648438,84.96370635986328,28.103496856689453,-0.801230173110962,-0.2672991031408309,0.813682246208191,-19.19583236694336,46.53122512817383,-142.23083251953125,3.633916320800784,3.895251245498653,14.35858974456787,-0.9896217703819274,-0.1603842812776565,-0.0138425792753695,-85.15781524658203,80.54530212402344,175.98098388671875,90.50246413731742,1.1728160122703484,15.314941382354382,1.002629534322526,-65.96198287963867,34.01407699584961,318.21181640625
4021.241,-12.435303840637207,75.66832969665526,26.5144323348999,-0.8213863253593445,-0.2756136453151702,0.8092062830924988,-19.4307056427002,48.10136627197265,-142.21434020996094,3.803463382720949,5.643420846462245,14.12039539337158,-0.9944135618209838,-0.1547889190912245,-0.0184631438925861,-85.77119201660156,80.84364288330079,175.29981811523436,81.13783348557364,1.185518108494181,15.674823718917322,1.006557911443412,-66.34048637390136,32.74227661132814,317.5141583251953
4021.29,-11.163921251296998,65.48200855255126,24.411282577514648,-0.8371094465255737,-0.2852065813541412,0.8105298924446105,-19.618870544433594,49.454741363525386,-142.16477722167969,3.7394163227081294,7.428572106361384,13.668698654174804,-0.9956320524215698,-0.1549224340915679,-0.0254961275868116,-86.67205566406251,81.13078582763671,174.32800903320313,70.77031368349888,1.1996056543949518,16.000007527266558,1.0079356114930986,-67.05318511962892,31.676044464111328,316.49278625488284
4034.387,-9.835681562423709,54.20311305522919,21.776547660827635,-0.8494704914093016,-0.2979104900360107,0.816835310459137,-19.75825294494629,50.57036987304688,-142.08171875,4.100865077972413,8.927946109771725,12.904090938568112,-0.9989524602890014,-0.1575799608230589,-0.0309799575805663,-87.82391784667969,81.39756439208985,173.09252380371095,59.23627372395782,1.2155536599679715,16.218535047209333,1.0117792346861738,-68.0656649017334,30.82719451904297,315.17424255371094
4058.16,-8.000882754325868,41.84228754997254,18.58255100488663,-0.8579411482810974,-0.3127610516548156,0.8267791628837585,-19.83939880371093,51.42856689453125,-141.96662109375,4.513739776611329,9.75170508384704,11.722459955215452,-1.0065987730026245,-0.1598406529426574,-0.0315241672098635,-89.12177154541016,81.63507507324218,171.697421875,46.47690129636731,1.2318466923789189,15.902379262705358,1.0196979441294367,-69.28237274169922,30.206508178710926,313.66404296875
4152.834000000001,-5.737052593231202,28.61887224674225,14.777760014533996,-0.8612506151199341,-0.327981379032135,0.843492250442505,-19.85646644592285,52.01295761108398,-141.82896911621094,4.559960031509401,9.746080799102778,9.892671394348142,-1.0134255695343015,-0.1620297998189925,-0.0285760653764008,-90.44249267578128,81.82990905761719,170.27394653320314,32.71598710386123,1.2493212491560557,14.61657530846939,1.0266945176281517,-70.58602622985843,29.816951446533203,312.10291564941406
4153.165999999999,-3.4102516412735,14.645240116119384,10.3462366938591,-0.861146092414856,-0.3426392555236816,0.8607758641242981,-19.81408271789551,52.31136993408204,-141.67709716796875,4.253459243774415,8.911569013595576,7.563963270187375,-1.0185383892059323,-0.16449676156044,-0.0245763134956359,-91.66177307128906,81.97244445800781,168.95607727050782,18.25260222655821,1.2648752271137778,12.43871047075502,1.032028890116514,-71.84769035339355,29.661074523925777,310.63317443847654
4153.222000000001,-1.1396518039703376,0.0432056570053106,5.337588434219359,-0.8573907184600829,-0.3529180788993835,0.878615732192993,-19.71910850524902,52.312582702636725,-141.51955139160157,3.8762101459503184,7.016320724487299,4.5991981697082505,-1.0251701831817628,-0.163910316824913,-0.0171306616626679,-92.60344757080078,82.05327178955078,167.9243103027344,5.458069553990896,1.2773549308522505,9.241557520715103,1.038332295566103,-72.88433906555176,29.740689086914053,309.44386169433596
4153.268,0.6357747888565056,-14.882251262664797,-0.2583469653129587,-0.8517649745941162,-0.360018583536148,0.8958364129066467,-19.59399688720704,52.00432815551758,-141.3720446777344,2.8676242351532,4.376801462173457,1.0819954776763905,-1.0280468583106994,-0.161234529018402,-0.0090076749399304,-93.15742095947266,82.06443542480469,167.30338562011718,14.89806549125489,1.2874936237225167,5.3432550011237385,1.040652705967802,-73.56342407226562,30.06010726928711,308.67543029785156
4153.32,2.2875323390960687,-29.976738028526302,-6.265733251571657,-0.8466025376319886,-0.3643610167503356,0.9109482598304748,-19.452281723022463,51.37577377319336,-141.24792053222657,1.2498956775665298,1.5737518501281695,-2.697256069183352,-1.026144790649414,-0.1589707493782043,-0.0052963173575699,-93.32506805419922,82.00158660888671,167.10516418457033,30.70988505698379,1.295886391370953,3.363647483510684,1.038399191791071,-73.87278633117675,30.625812835693353,308.3530847167969
4174.784,3.769944834709167,-45.21284482002258,-12.546141312122346,-0.8434214019775391,-0.3645196723937988,0.921444284915924,-19.30505691528321,50.41787826538086,-141.1543426513672,-0.2548112773895249,-1.2213297748565717,-6.340349473953248,-1.0223318076133727,-0.1588461655378341,-0.0056190331280231,-93.12615051269532,81.8674072265625,167.30865844726563,47.07249178235561,1.3012662383540343,6.461935209973505,1.034613938963415,-73.8210935974121,31.44952896118165,308.46300109863284
4198.619,4.979401397705077,-60.474301266670224,-18.870359148979187,-0.8411073303222656,-0.3601209950447082,0.9314632725715636,-19.160516281127933,49.12483871459961,-141.09480041503906,-1.5067862892150865,-3.623357124328618,-9.763635559082031,-1.0198535680770875,-0.1610472327470778,-0.0062274629063903,-92.62433074951171,81.66569458007812,167.84594238281252,63.54546408975956,1.305669368693149,10.52272308399117,1.0325097059056192,-73.46381446838379,32.54085586547851,308.9407427978516
4209.856000000001,5.815370860099792,-75.53485466003418,-25.01765498876572,-0.8396873140335084,-0.3557232880592346,0.9411719131469728,-19.025749740600585,47.50041763305664,-141.06869201660157,-2.6853494071960435,-5.298395757675175,-12.716675367355348,-1.016416573524475,-0.1642197471857069,-0.0087602255307137,-91.94555389404296,81.40515869140624,168.59002319335937,79.78230297434325,1.3105031144996238,14.035595158110707,1.0296346526085458,-72.91980415344237,33.9047410583496,309.658715209961
4231.994000000001,6.804560871124266,-90.31137382507325,-30.70914470672607,-0.8371788334846496,-0.3495349168777465,0.9486158776283264,-18.89017875671387,45.5554264831543,-141.06693420410156,-3.3255177545547467,-6.35064849853516,-15.08099563598633,-1.0128385782241822,-0.1709612751007079,-0.0116542111895977,-91.18740356445312,81.09526397705079,169.43119873046876,95.63209638735106,1.3125986213005147,16.698090730992107,1.027231991208264,-72.29722480773925,35.53983749389649,310.4981329345703
4254.203,7.320474472045897,-104.63711151123049,-35.84849853515625,-0.8298450422286987,-0.3405723595619201,0.9557572603225708,-18.753699264526368,43.308397979736334,-141.07847229003906,-3.318825473785399,-6.787612867355351,-16.903365936279297,-1.0092628574371338,-0.1794151586294173,-0.0124955798499285,-90.42187225341796,80.74599365234376,170.2829632568359,110.84957960738804,1.3107647641237656,18.515130864736065,1.0251621598868996,-71.6681729888916,37.43759567260742,311.361435546875
4275.08,7.250883903503417,-118.28533096313475,-40.29672393798828,-0.8172539687156677,-0.3330846858024597,0.9627419376373292,-18.62048240661621,40.78274993896484,-141.0926318359375,-3.027903146743773,-6.340809450149541,-18.41175815582276,-1.005266408920288,-0.1859890902042388,-0.0107692697085438,-89.7466098022461,80.36494598388671,171.0396221923828,125.17116600309694,1.3060327315130016,19.707026674201067,1.022383720404696,-71.1261273956299,39.58219604492187,312.1322540283203
4290.358,6.758527164459228,-131.1576434326172,-44.017312927246095,-0.7993420147895813,-0.3256109309196472,0.9699975538253784,-18.49092193603516,38.00316703796387,-141.09827575683593,-2.459624376296996,-5.226635046005253,-19.44684829711914,-0.9982067584991456,-0.1923770481348036,-0.008668378908187,-89.22508972167968,79.9620623779297,171.62930175781247,138.5118368861138,1.298408791317066,20.28663044144518,1.0166124149130424,-70.73416778564452,41.95889533996583,312.7275775146484
4311.727,5.809735202789306,-143.25029449462892,-47.09610359191895,-0.7745479464530944,-0.3172721362113952,0.976359100341797,-18.36895797729492,34.99121299743653,-141.08723937988282,-1.3309503459930403,-3.5220748233795205,-19.99458885192871,-0.990419385433197,-0.1977572113275527,-0.0059871785994618,-88.89155395507812,79.54831970214843,172.00367980957031,150.9054103386131,1.2860261360451002,20.34600755044229,1.0099872870395468,-70.5225959777832,44.557106704711906,313.09091918945313
4334.157,4.315531480312346,-154.4726400756836,-49.6705891418457,-0.7429294991493225,-0.310298535823822,0.9820016837120058,-18.26450798034668,31.767142868042,-141.05581115722657,-0.0059078598022447,-1.0603609371185343,-20.1374626159668,-0.983995740413666,-0.2021202915906904,-0.001643706075847,-88.79727447509765,79.13314392089845,172.10679321289064,162.3194004720548,1.2698648466879794,20.165361410826105,1.004541154554958,-70.53276649475097,47.36600105285645,313.1626043701172
4354.139,2.638761038780212,-164.79214447021485,-51.81759963989258,-0.7056278765201569,-0.3059356021881103,0.986495566368103,-18.18317031860352,28.3472040939331,-141.00272949218748,1.681947698593141,1.3915447807311971,-20.08732299804688,-0.9821896767616272,-0.2052260071039199,0.0037827470805496,-88.91141540527344,78.72191284179686,171.9629608154297,172.76711947402535,1.2508720139456602,20.205590567104093,1.00340848327309,-70.72824508666993,50.374708747863764,312.9656903076172
4376.837,0.8934484219551081,-174.16836853027343,-53.69257019042969,-0.6617093217372895,-0.3010888242721557,0.9919003367424012,-18.128548202514647,24.745317268371583,-140.92857482910156,3.3894034671783464,2.936193971633907,-20.108476867675783,-0.9844619488716126,-0.2112828963994978,0.0097536221332848,-89.1315704345703,78.31193969726561,171.67685241699218,182.25891182664856,1.229788593460397,20.602430265389373,1.006926474094198,-71.00302223205566,53.566622428894036,312.60542724609377
4399.91,-0.7351979541778572,-182.58454772949216,-55.30863952636719,-0.6105861747264862,-0.2984301424026488,0.9920385432243348,-18.10350662231445,20.975090789794923,-140.83505065917967,4.909667892456056,2.670348815917965,-20.810663604736327,-0.9918445944786072,-0.217514680624008,0.0177725664619355,-89.29304168701171,77.88908569335938,171.42161621093751,190.77920010282213,1.2025042610752985,21.54807001293586,1.015570873943341,-71.18953506469725,56.91399490356446,312.2566668701172
4410.541,-2.1110136914253244,-189.9459893798828,-56.582440032958985,-0.5515669655799866,-0.2985749185085296,0.9884386825561524,-18.1075106048584,17.05366521835327,-140.7219207763672,5.592908754348756,0.2111145305633503,-22.730085296630858,-1.0039337420463563,-0.2302935242652892,0.0289020790904759,-89.22893096923829,77.42422485351562,171.38655334472656,198.2057208568696,1.1706340712002328,23.40901482915504,1.0304141865839578,-71.12142036437989,60.37055963516235,312.10847412109376
4431.601,-3.1730703639984137,-196.2003076171875,-57.43876647949219,-0.4835173746943473,-0.2981611883640289,0.9808345007896426,-18.137022628784184,13.002894887924194,-140.58693969726562,5.490874762535097,-4.983257217407231,-26.0078409576416,-1.016922972202301,-0.2423949790000915,0.0414640138577668,-88.75285614013671,76.88728820800782,171.7797399902344,204.45987620875525,1.1334573056878814,27.04422950336478,1.0462346398788436,-70.61583351135253,63.884393320083625,312.3666796875
4454.124,-3.975592200756073,-201.2627093505859,-57.89715438842774,-0.406957948282361,-0.296866819858551,0.9698933458328248,-18.189182434082035,8.849859313964844,-140.42813781738283,3.803043470382692,-11.998945865631107,-30.18837440490723,-1.026165301799774,-0.2563370841741561,0.0554432792030274,-87.7939227294922,76.25500549316408,158.30821655273436,209.4625598878295,1.0929033729904531,32.707427149423175,1.0591496044230553,-69.60474029541015,67.40514617919924,298.73635437011717
4546.444,-4.10818109035492,-205.08689453125,-57.84903732299806,-0.3233444867283105,-0.2955134570598602,0.9493479681015016,-18.25367233276368,4.626340646743775,-140.2419940185547,0.8519049263000504,-19.799068479537965,-34.9043448638916,-1.0299531865119935,-0.2703705692291259,0.0715328301209955,-86.3780239868164,75.51141479492188,130.97216796875,213.12912184762743,1.0455340381544322,40.137789488689634,1.067249154085685,-68.12435165405272,70.8850741481781,271.2141619873047
4546.484,-4.067946016788484,-207.53363098144533,-57.41648712158203,-0.2342337573319673,-0.2919335317611694,0.9255026745796204,-18.32912437438965,0.3661256599426267,-140.02805114746093,-3.247811861038207,-26.966449337005617,-39.16958854675293,-1.0272619485855103,-0.282985673546791,0.0864254304766654,-84.64684600830078,74.66125427246094,89.6505303955078,215.36807833688127,0.998321511685705,47.66544176499269,1.0690263595802991,-66.31772163391113,74.29512861251831,229.67858154296874
4546.518,-3.581773881912232,-208.5645538330078,-56.63875839233399,-0.1428401861339807,-0.2843300294876098,0.8933352136611938,-18.41058723449708,-3.900601892471313,-139.78646423339845,-7.769731750488281,-33.11862694740296,-41.56670829772949,-1.0165142726898195,-0.2903309941291809,0.0991045655310152,-82.73512603759765,73.73988433837891,34.21412170410156,216.1479844271696,0.9483114933450432,53.71222785422631,1.0617980352417509,-64.32453880310058,77.64048623085023,174.0005859375
4546.556,-2.653233127593995,-208.18398925781247,-55.55975494384766,-0.0548180104047059,-0.2764930510520934,0.8598706245422363,-18.49345573425293,-8.145797595977784,-139.51877868652343,-12.15328360557556,-36.77470088958741,-42.63337203979493,-1.0032853794097902,-0.3010747146606445,0.1068448591232299,-80.85217895507813,72.7750296020508,-35.556950683593755,215.48665712462744,0.9048927629810516,57.59935190086552,1.052921345717,-62.3587232208252,80.92082719802858,103.96182800292968
4559.956999999999,-0.827780714035035,-206.5831060791016,-54.05819320678711,0.0240820125490426,-0.2674684166908264,0.8199071264266967,-18.565739440917973,-12.3466179561615,-139.22280700683592,-15.344447498321534,-38.33491485595703,-42.92197326660157,-0.9868785071372986,-0.3077446055412292,0.1102858641743659,-79.1273696899414,71.7887728881836,-91.02359802246094,213.54051885059704,0.8627670561749522,59.55932802795109,1.0396147853536697,-60.56163024902343,84.1353908443451,48.19920898437498
4569.993,1.4566873741149895,-203.9504602050781,-52.13512130737305,0.0954080445319413,-0.2556899344921112,0.7779030466079713,-18.623588180542,-16.48615547180176,-138.8953448486328,-16.79579899787903,-37.91838508605957,-41.59122955322266,-0.9703168606758116,-0.3111444973945617,0.1078246274590491,-77.6293212890625,70.82233154296875,-132.29391479492188,210.51361720730452,0.8243865522216823,58.73442914731292,1.0246715857568025,-59.0057331085205,87.30848701477052,6.601430053710914
4677.514,4.469095621109007,-200.3358233642578,-49.6122688293457,0.1594873736053704,-0.2437099146842956,0.7354515719413758,-18.659268798828126,-20.54675435066224,-138.52930297851563,-16.105486907958984,-35.36599355697632,-39.225564041137694,-0.9563136458396913,-0.3169872987270355,0.1014744995534419,-76.39448822021484,69.90730499267578,-159.45267333984376,206.4359274862324,0.7910244999530712,55.21580465011738,1.0125778048293803,-57.73521942138672,90.45405934333802,-20.923370361328125
4677.567,7.728300342559814,-195.88626403808595,-46.58655113220215,0.2139944160729646,-0.2304409825801849,0.6963240432739257,-18.671918716430667,-24.510313186645508,-138.1192474365234,-13.163598766326905,-30.410017421245573,-36.95141994476319,-0.9418095660209655,-0.3186931455135345,0.0917840567231177,-75.46861724853515,69.05845764160156,-172.5979083251953,201.49804418747297,0.7640443899435937,49.63322403366061,0.9984963158241812,-56.796698532104486,93.56877082824707,-34.4786608886719
4677.609,10.821740312576292,-190.76128723144527,-43.03987068176269,0.2628872139006852,-0.2143560147285461,0.6525632154941559,-18.67122261047363,-28.363002700805666,-137.6570703125,-8.46294708251953,-24.101927638053898,-32.677826232910164,-0.923688759803772,-0.3136058056354522,0.0823186260461806,-74.80619750976561,68.32730255126953,-171.72137390136717,195.85558260589275,0.7354569589709797,41.477279521441424,0.9789412048280643,-56.134974899291976,96.69030525207519,-34.064303588867176
4677.65,13.111022281646726,-184.72714599609367,-39.14810752868653,0.3141269427537917,-0.1980340057611465,0.6072153198719026,-18.6803044128418,-32.088832015991215,-137.13661010742186,-2.242859973907469,-16.252385904788973,-25.78194400787354,-0.906786253452301,-0.3127493977546692,0.0732457999885081,-74.38087677001951,67.77178955078125,-171.22887084960936,189.2844201095525,0.7117609488366068,30.55943561792112,0.9619971114623608,-55.70057235717771,99.86062156677247,-34.092260742187506
4677.696,14.365228691101072,-177.52158203125,-35.080329208374025,0.3661732459068297,-0.1847523802518844,0.5632550084590912,-18.72516456604004,-35.665150299072266,-136.55560607910155,4.915619583129884,-6.498804407119755,-17.933941078186038,-0.8927102994918823,-0.3117765295505523,0.0637739445269107,-74.22113861083984,67.42119232177734,-171.1735760498047,181.5238314370688,0.6967585611823736,19.698325238555125,0.9477359332630552,-55.49597404479981,103.0863426208496,-34.61796997070314
4690.433,14.776718521118164,-169.13808685302735,-31.06454788208008,0.4170559453964233,-0.1730283164978026,0.515662043094635,-18.824788436889648,-39.06940803527832,-135.91602966308594,12.209919605255129,4.251271803379056,-9.467905540466312,-0.8785755586624144,-0.305009524822235,0.0567798687517642,-74.33901275634767,67.29349090576173,-171.5740197753906,172.60084000280133,0.6854063047485786,16.02487703653891,0.9317455532529936,-55.51422431945802,106.36289894104004,-35.657990112304674
4711.536,14.55825496673584,-159.44462707519534,-27.10226150512696,0.4689804369211196,-0.1659236699342726,0.4672976720333099,-18.99339134216309,-42.27674789428711,-135.2205877685547,18.74697216033936,15.589951353073117,-0.6066786575317404,-0.8680610013008117,-0.3030423629283904,0.0495050655677914,-74.77101135253906,67.39280853271484,-158.05288146972657,162.38554267396125,0.6825250389157401,24.389825898624814,0.9207688782889338,-55.77762001037597,109.66955642700195,-22.832293701171864
4733.866,14.282646141052243,-148.1585238647461,-23.35389411926269,0.5217762517929077,-0.1665736758708952,0.4179660713672637,-19.22704528808594,-45.25471328735351,-134.48000000000002,24.329803218841555,26.90826171636581,6.656241340637204,-0.8665298557281493,-0.3054268908500671,0.0425607205927371,-75.57115844726562,67.68001037597655,-130.6453405761719,150.66634177912724,0.6889795956647645,36.882237215884814,0.9197668136326508,-56.34411315917968,112.93472366333006,3.8346594238281284
4756.42,14.257969360351565,-135.35280395507814,-19.8613885307312,0.5728588211536408,-0.1724045181274413,0.372204800248146,-19.50404281616211,-47.96878219604492,-133.71436950683594,28.44506603240967,37.75274418354034,11.502120323181147,-0.8679415249824523,-0.3044737029075622,0.0345810861699282,-76.79937103271484,68.09910125732422,-89.38156005859375,137.54325131808977,0.7045757306152807,48.648640750846496,0.9204469447348932,-57.29532821655273,116.06788345336915,44.33280944824219
4778.708,14.728226051330566,-121.13516754150388,-16.69464303970337,0.6222552704811096,-0.179728922843933,0.3278898835182189,-19.7903434753418,-50.38992614746094,-132.95123840332033,30.67610542297364,46.00563180208206,14.89506496429443,-0.8695827174186708,-0.3058244264125823,0.0280510154087095,-78.40927001953125,68.5993685913086,-34.16710510253906,123.16395805652895,0.7259585959693229,57.2660856154905,0.9222198987710492,-58.61892654418945,118.98929473876954,98.78413330078126
