Timestamp (ms),Wrist Gyroscope X (deg/s),Wrist Gyroscope Y (deg/s),Wrist Gyroscope Z (deg/s),Wrist Accelerometer X (g),Wrist Accelerometer Y (g),Wrist Accelerometer Z (g),Wrist Roll (deg),Wrist Pitch (deg),Wrist Yaw (deg),Arm Gyroscope X (deg/s),Arm Gyroscope Y (deg/s),Arm Gyroscope Z (deg/s),Arm Accelerometer X (g),Arm Accelerometer Y (g),Arm Accelerometer Z (g),Arm Roll (deg),Arm Pitch (deg),Arm Yaw (deg),Wrist Gyroscope Magnitude (deg/s),Wrist Accelerometer Magnitude (g),Arm Gyroscope Magnitude (deg/s),Arm Accelerometer Magnitude (g),Difference Roll (deg),Difference Pitch (deg),Difference Yaw (deg)
0.0,37.86915588378906,-134.90634155273438,-7.124590873718262,-0.9620053172111512,0.0464739389717578,0.7759997248649597,4.390583038330078,51.33433532714844,-119.64266967773438,36.58756637573242,-14.905866622924805,5.374425888061523,-1.0422284603118896,0.0118358246982097,0.0997299477458,-17.906845092773438,85.33645629882812,-140.1356658935547,140.30165271161852,1.2368466478656808,39.87128448777786,1.0470560217618534,-22.297428131103516,34.00212097167969,-20.492996215820312
20.36,38.17056941986084,-136.79834747314453,-7.438198804855347,-0.9566692411899568,0.0425971839576958,0.7813926041126251,4.463617920875549,50.62667465209961,-119.79910850524902,38.73545932769776,-15.691407203674316,5.093509674072266,-1.0374761521816254,0.0021232012659311,0.094450008124113,-17.15851879119873,85.25398063659668,-139.6030158996582,142.21851863481126,1.2359631705200615,42.10225540465875,1.0417687259482555,-21.62213671207428,34.62730598449707,-19.80390739440918
35.137,38.25178252326118,-138.92986891004773,-7.864162815941704,-0.9528846542040508,0.0425770377947223,0.7904178102811178,4.532006502151489,49.89899190266927,-119.96320300632054,41.93948597378201,-16.18545913696289,5.32621627383762,-1.03147378232744,-0.005296293232176,0.0927935292323429,-16.336142539978027,85.17035463121202,-139.03531307644317,144.3140755379237,1.238774508607012,45.26873259784336,1.035652863375692,-20.868149042129517,35.27136272854275,-19.072110070122633
57.411,37.79538544019064,-141.12669054667154,-8.285673002401987,-0.945662334561348,0.043488010453681,0.8003879301249981,4.588633090257645,49.15103363990784,-120.13287178675334,44.87301715215048,-16.395129084587097,5.925201276938121,-1.027108514060577,-0.0076618121189918,0.0940959653817116,-15.412647902965546,85.08826049168904,-138.3923610051473,146.33484315887074,1.2396730604280377,48.14037739995079,1.0314381482773405,-20.00128099322319,35.937226851781205,-18.259489218393966
79.957,36.95494894663493,-143.24734547932945,-8.52302669843038,-0.9376808977127076,0.045181512882312,0.8104412025213241,4.634598145484924,48.38520267486573,-120.30199109395346,47.32529909769694,-16.491068782806398,6.599202502568562,-1.024554884235064,-0.0095310261713651,0.0969021346420048,-14.429924731254578,85.0062810007731,-137.70584681193034,148.182698796536,1.2402023132480655,50.54887494253095,1.0291713049672448,-19.064522876739503,36.62107832590737,-17.40385571797688
102.696,35.37345625559489,-148.1945641072591,-9.040873187383015,-0.9196885657310484,0.0479163754483063,0.833626930117607,4.748214993476868,46.55071155548096,-120.7002424367269,52.67810976664225,-16.82797960281372,7.938707087834676,-1.0174167678753534,-0.0148239249324736,0.1007004057615994,-12.109968156814576,84.81000231424967,-136.07605341593427,152.62584193509747,1.2421984123278542,55.86758645516701,1.022495574574719,-16.858183150291445,38.259290758768714,-15.375810979207372
124.414,32.79723684946696,-154.0014494832357,-9.443173812230429,-0.8979438757896423,0.0546957973142464,0.8611608809232711,4.849622874259948,44.3376240158081,-121.16575620015462,58.12190851847331,-16.377578105926514,10.111967776616414,-1.009821808139483,-0.012950693150827,0.1091245730966328,-9.154895997047424,84.58750643412273,-133.98702692667644,157.73800657909183,1.245348504292879,61.226082732450166,1.0157834302156654,-14.004518871307372,40.24988241831463,-12.821270726521817
134.617,29.10829418182373,-160.40259674072266,-9.590791330337524,-0.8691753578186034,0.0617421369254588,0.8888386744260789,4.927568755149841,41.73066226959229,-121.69007362365724,62.03974563598632,-14.95978546142578,12.967371740341187,-1.0034473687410357,-0.0038097929232753,0.1193440984934567,-5.492709426879882,84.34897880554199,-131.34218338012695,163.3042225715078,1.244713655129857,65.12202353645016,1.0105266697127009,-10.420278182029723,42.6183165359497,-9.652109756469713
157.062,24.995232620239257,-167.25299865722656,-9.411898765563963,-0.8362989711761475,0.0676989559829234,0.9180728316307069,4.983923397064209,38.71706649780273,-122.2636703491211,64.89229034423828,-12.489217948913574,16.34115535736084,-0.9994074296951292,0.0056243272498249,0.1286529421806334,-1.07032648563385,84.10326477050782,-128.0749252319336,169.37210824674565,1.2437189561994642,68.07366061487944,1.0076697986535923,-6.054249882698059,45.38619827270509,-5.811254882812506
179.54600000000002,20.9451802444458,-174.63601318359375,-9.212933692932127,-0.7977745318412781,0.0735384492576121,0.9479849410057068,5.022903842926025,35.28232894897461,-122.88606567382811,67.40067718505858,-9.218460636138916,20.21573303222656,-0.9967112040519714,0.0178671640995889,0.1358740863204001,4.196153841018677,83.85411743164063,-124.10237579345704,176.12869108513527,1.2411799045857044,70.96835325364944,1.006088578192346,-0.8267500019073486,48.57178848266602,-1.216310119628929
200.008,17.084664783477784,-181.7131134033203,-9.016350059509278,-0.7547687554359437,0.0770024317502974,0.9721359157562256,5.024458560943603,31.718382720947268,-123.49269287109377,69.69917495727539,-5.55326169013977,24.097418632507324,-0.9969433546066284,0.0315515984408556,0.1419026181101798,9.936469864845275,83.62820861816405,-119.69866363525392,182.73706772816337,1.233147796243815,73.95606323942866,1.0074859347330931,4.912011303901672,51.909825897216784,3.7940292358398438
222.651,13.532097930908204,-188.25905517578124,-8.819289665222168,-0.7039896893501282,0.0773296388983725,0.9950736618041992,4.995669555664063,28.03410545349121,-124.08296386718747,72.55188598632813,-2.6641224670410155,27.94288604736328,-1.0032263016700744,0.043087126938626,0.1477223014831542,16.045574188232422,83.3978350830078,-114.9789178466797,188.9507062709442,1.2213733860617155,77.79253556317906,1.0149588125761166,11.04990463256836,55.3637296295166,9.104046020507766
245.333,10.539950256347655,-194.30538879394533,-8.732810401916504,-0.6484393095970153,0.0755492842197417,1.0163402223587037,4.947355308532715,24.234750938415527,-124.65941680908202,77.53200256347657,-1.887518148422241,31.065557250976564,-1.015838577747345,0.0510432643443345,0.1546583402156829,22.251256690025333,83.12013549804688,-110.25759979248046,194.786900594697,1.2079439888342955,83.5454546553986,1.0288112718438422,17.30390138149262,58.88538455963135,14.401817016601555
254.544,7.873874607086181,-199.92283142089843,-8.89814796447754,-0.5885616111755372,0.0744379377365111,1.0294006800651547,4.88465763092041,20.324732189178462,-125.22820159912108,84.20925231933593,-4.444427013397217,32.94426406860352,-1.028405258655548,0.0611707484722136,0.1620892423391341,28.153692350387576,82.74403320312499,-105.96908935546875,200.2755937748652,1.1881125943455917,90.53328472269676,1.0428960441871038,23.269034719467165,62.41930101394652,19.259112243652325
276.949,5.419922246932984,-204.97704528808595,-9.25242923736572,-0.5233037412166596,0.0711982718110083,1.0369921231269836,4.81106273651123,16.310276248455047,-125.7940347290039,92.1097003173828,-10.504866762161251,33.5965828704834,-1.039622175693512,0.0751642706990241,0.1724580591917037,33.352472381591795,82.22408874511719,-102.54062713623046,205.2573314134949,1.1637304941040412,98.60669094347548,1.0565063738395508,28.541409645080563,65.91381249666213,23.253407592773442
305.526,3.2807557511329657,-209.41642211914063,-9.724977149963378,-0.4551204049587249,0.0684443736076354,1.0418031644821169,4.7350457572937,12.198434863090515,-126.35985900878904,100.2479461669922,-19.99391660690308,33.25412139892578,-1.0508263993263245,0.0898242135345935,0.1839676624536513,37.52825950622559,81.52521423339843,-100.30160034179688,209.6677762367121,1.1389350503050155,107.49532083769252,1.070583304412551,32.79321374893189,69.32677937030792,26.05825866699216
325.355,1.366487936973572,-213.4198712158204,-10.383812294006349,-0.3865857195854186,0.0658372375369071,1.0385451316833496,4.662707424163818,7.994185411930085,-126.93113861083984,107.56334594726565,-31.540325002670283,31.563409423828126,-1.054990255832672,0.1065820091962813,0.1970096337795256,40.46605575561525,80.64216430664062,-99.45613555908204,213.67670036018524,1.110116683496403,116.45133879480052,1.0785068198153158,35.80334833145143,72.64797889471053,27.475003051757795
335.386,-0.3527061009407042,-216.99504150390624,-11.163860664367675,-0.3164131225645542,0.0631449334323405,1.0301347494125366,4.599358215332031,3.7079722309112553,-127.51299743652343,113.30375579833984,-43.431191463470455,29.494832382202144,-1.0500158548355103,0.126391864567995,0.2098377120494841,42.231679229736336,79.58695831298829,-99.91178649902344,217.2823145674978,1.0794823521931498,124.87575668319556,1.0782115118255249,37.632321014404305,75.87898608207703,27.6012109375
357.034,-1.925148315429688,-220.09500366210932,-11.89975425720215,-0.2438770154118537,0.0588136778026818,1.0230263948440552,4.548569278717041,-0.6486044526100159,-128.10789154052733,117.0125451660156,-54.15775670051575,27.668551101684567,-1.041680958271027,0.1468174600601195,0.22816320002079,43.070178527832034,78.38426330566406,-101.38693115234376,220.4248647145828,1.0533366280019394,131.8732234273798,1.076435335376295,38.521609249114995,79.03286775827408,26.72096038818357
377.005,-4.025347430706025,-222.8135522460937,-12.39447868347168,-0.171829512566328,0.053638755828142,1.0071527862548826,4.501109809875488,-5.065509099960328,-128.7140365600586,117.71072052001952,-62.51564414978027,26.11762580871582,-1.0296275281906129,0.1634740370512007,0.2479271322488784,43.27819290161133,77.07310058593751,-103.52537475585936,223.1943224822165,1.0231125218550237,135.8166037960315,1.071599025056892,38.77708309173584,82.13860968589783,25.188661804199228
395.605,-6.63546241760254,-225.12340454101565,-12.545497703552249,-0.0993022906780242,0.0487000279873608,0.982327332496643,4.446731395721435,-9.53137187719345,-129.32722351074216,114.6289064025879,-67.84422973632813,25.130683670043943,-1.0096009087562563,0.1821861630678176,0.2679495680332183,43.15435958862305,75.69155242919922,-105.951455078125,225.5703130872124,0.9885340792455476,135.55138122974898,1.0603220095725734,38.707628192901616,85.22292430639267,23.375768432617164
416.94,-9.630212261676787,-226.8402868652344,-12.513231925964355,-0.0258457513153552,0.0435706239938735,0.9500070166587828,4.379422655105591,-14.030589528083803,-129.94603759765624,108.7377523803711,-71.08053848266601,25.184670639038085,-0.991830394268036,0.2035823267698287,0.2842660862207412,42.93729263305664,74.25842987060547,-108.36998535156248,227.38917675768948,0.9513567857734508,132.3276591605757,1.0516560761685176,38.55786997795105,88.28901939868928,21.576052246093766
439.376,-12.60178795337677,-227.77524597167968,-12.398548240661622,0.0468461596965789,0.0400075493752955,0.9115308570861818,4.302608499526977,-18.546607906818387,-130.57157348632813,100.2031672668457,-72.85810546875,25.46949722290039,-0.9782885003089904,0.2230630296468734,0.2996650046110153,42.70231155395509,72.79374328613281,-110.65272277832032,228.4602629245556,0.9136102397114444,126.4819099776339,1.0471889132437258,38.399703054428116,91.3403511929512,19.91885070800781
461.869,-16.201768395900725,-227.84193603515624,-12.572017364501953,0.1174139137566089,0.0388297547399996,0.8580028843879699,4.211078557968139,-23.060456047058103,-131.2138916015625,90.59426513671876,-73.34670349121095,25.80547897338867,-0.9629585480690002,0.2403639131784438,0.3051260548830032,42.49827438354493,71.31955169677734,-112.72844787597656,228.76297938262644,0.8668694980300604,119.38585566864994,1.0383476707856945,38.287195825576795,94.38000774383545,18.485443725585938
474.356,-19.716678390502928,-226.8465313720704,-13.25844741821289,0.185740853846073,0.0391731806099414,0.8043803048133851,4.114156227111817,-27.54816230773925,-131.88732543945312,81.51758102416991,-73.59479675292968,26.354498291015624,-0.9490548181533814,0.2555379045009612,0.3043931436538696,42.3372444152832,69.83987579345703,-114.5973208618164,228.0874451394371,0.8264755759477963,112.9418864076047,1.0289119760214551,38.22308818817139,97.38803810119627,17.290004577636722
496.859,-23.258662910461425,-224.56028198242188,-14.718551101684568,0.2501441882550715,0.0395717392861842,0.7486281037330628,4.026192197799682,-31.982868881225585,-132.61618896484373,74.9104539489746,-73.6245330810547,26.681485900878908,-0.9413158345222474,0.2686523455381392,0.3019183945655822,42.228128814697264,68.36389816284179,-116.29913208007812,226.2408481926732,0.7903050519684686,108.3699666518522,1.0244043635510918,38.201936616897584,100.34676704406738,16.317056884765606
520.402,-26.89709754943848,-220.81435852050785,-16.682272644042968,0.3084822434186934,0.0411670279502867,0.6884109163284302,3.962182769775391,-36.33702537536621,-133.42288024902342,69.44259597778321,-72.65670974731447,26.392825775146484,-0.9315974664688108,0.2754504334926604,0.2965309077501297,42.16601669311523,66.9178288269043,-117.85943603515624,223.07113889066324,0.7554903099411922,103.91271750770628,1.015715196348621,38.20383392333984,103.25485420227051,15.563444213867186
542.092,-31.25806243896485,-215.52299865722657,-19.004899482727048,0.3628523743152618,0.0423272920399903,0.6224074745178223,3.923223123550416,-40.58044303894043,-134.32732543945315,64.28816116333009,-70.60467041015625,26.08369361877441,-0.9184935069084168,0.2812377250194549,0.2859507596492767,42.16840789794922,65.51960876464844,-119.26324371337893,218.60561662955888,0.7216955795439758,98.98659617487203,1.0022438910519926,38.24518477439881,106.10005180358887,15.064081726074221
561.7560000000001,-34.92974311828614,-208.4753912353516,-21.354583892822266,0.4127395206689834,0.0414354676753281,0.5655302441120147,3.9363716506958006,-44.67977867126465,-135.34368591308595,58.39888790130615,-67.53391571044922,25.52763023376465,-0.9071615481376648,0.2855168104171752,0.2761209815740585,42.21314300537109,64.1881983947754,-120.51511962890626,212.4572756068333,0.7013524555520785,92.85967792668244,0.9903053670034024,38.27677135467529,108.86797706604005,14.828566284179686
584.778,-37.97294570922851,-199.61166931152343,-23.67742015838623,0.456975005865097,0.041420722529292,0.5095727443695067,4.035762319564819,-48.60187850952148,-136.49266113281251,50.71204998016358,-62.316898498535146,24.396399154663087,-0.8945943188667297,0.2901379299163817,0.2647664415836334,42.28150207519531,62.96104263305664,-121.59233581542968,204.5663299678756,0.6857158405961792,83.9660177892282,0.9770262444344322,38.245739755630495,111.56292114257812,14.900325317382837
594.5200000000001,-40.1253148651123,-188.897412109375,-25.67469757080078,0.4960119855403899,0.0434384087473153,0.4511955153942107,4.255495223999024,-52.31213455200195,-137.78871704101562,40.02620399475098,-54.68256727695465,22.77609268188477,-0.8782330822944641,0.2899403977394103,0.2487300658226012,42.33984954833984,61.88208114624024,-122.46247467041016,194.81135308291337,0.6719316767842296,71.49147199548975,0.957718866224237,38.08435432434082,114.19421569824219,15.326242370605456
616.636,-40.78261184692383,-176.386787109375,-27.22014663696289,0.5324852502346039,0.0457118203490971,0.3992007756233214,4.634960041046142,-55.77357711791992,-139.2404327392578,27.804312019348146,-44.82863465309144,20.56144979476929,-0.8616203761100769,0.2892861807346343,0.2346223551034926,42.37740936279297,60.98922500610352,-123.10068634033205,183.07500233172905,0.6670767358372636,56.616777278404285,0.9386819570048268,37.742449321746825,116.76280212402344,16.139746398925766
639.073,-39.143573150634765,-162.3339422607422,-28.36199195861817,0.5650838160514831,0.0468353561870753,0.3545602339506149,5.23051085472107,-58.9546142578125,-140.857861328125,15.517122497558594,-32.93384036540985,17.26150576233864,-0.8461212539672852,0.2875001454353332,0.2211435592174529,42.39375793457031,60.32274353027344,-123.49839630126954,169.37807035379106,0.6687497508422648,40.2911716508938,0.92058784688039,37.16324707984924,119.27735778808594,17.359465026855474
663.11,-35.94059288024902,-146.92156921386717,-29.23229507446289,0.595405501127243,0.0538045728579162,0.3065668940544128,6.090110416412354,-61.825714263916005,-142.65785888671877,4.421511459350586,-19.55417905807496,13.27890349626541,-0.8335651111602782,0.2864524555206298,0.2084782844781874,42.413783416748046,59.90774993896484,-123.64575408935544,154.05259099466468,0.6718525905012019,24.046724522968933,0.9057311957288506,36.323673000335695,121.73346420288084,19.012104797363335
683.701,-31.53902847290039,-130.22117736816406,-29.72501983642578,0.6261168742179871,0.066339524630457,0.2561449076235293,7.237058582305909,-64.35677551269531,-144.63976196289062,-3.5155817222595216,-6.3269038438797,8.844662207365037,-0.8236158204078675,0.2866218125820159,0.1988540160655974,42.47856674194336,59.746764221191405,-123.56248718261718,137.24373266725578,0.6797304512894535,11.428782816117224,0.8944484349471141,35.241508159637455,124.10353973388672,21.07727478027344
703.0880000000001,-26.11552387237549,-112.63292388916015,-29.977334671020508,0.65972975730896,0.0759717305004596,0.2115131978690623,8.676605911254883,-66.52390045166015,-146.7885809326172,-7.724523315429688,5.385942935943603,4.100241589546203,-0.8179850578308105,0.2929046189785003,0.1930393064022063,42.61800903320312,59.81583526611328,-123.29675048828123,119.4438643251646,0.6969597473218743,10.270765446280135,0.8900319345223855,33.94140312194824,126.33973571777344,23.491830444335974
724.56,-19.74310478210449,-94.40653999328616,-30.24538162231445,0.6973151111602783,0.0851476471684872,0.1710100252926349,10.3982373046875,-68.30985412597656,-149.07306823730468,-8.813466367721558,14.854414258003237,-0.6066342437267298,-0.820422351360321,0.3035533237457274,0.1887876898050307,42.84637557983398,60.079347686767576,-122.90088317871091,101.08000835684834,0.7230096229106415,17.28290535381684,0.8949180112114165,32.44813827514648,128.38920181274415,26.17218505859377
744.381,-13.33723342895508,-75.37583911895751,-30.319319229125973,0.7372774577140808,0.1005077435821294,0.1321548740565776,12.33525245666504,-69.69661926269532,-151.42135009765624,-7.023853855133057,21.404233770370485,-4.710149531364441,-0.8331780529022217,0.3152467429637908,0.1903243541717528,43.17384719848633,60.48902053833008,-122.43491577148438,82.33261830491638,0.7557412036604986,23.01437061669835,0.910927843782432,30.83859474182129,130.1856398010254,28.98643432617186
754.467,-7.492303104400635,-55.75680343627929,-29.70328544616699,0.7793592643737793,0.1099107087589799,0.1002682389318942,14.344483623504638,-70.67633392333985,-153.6961004638672,-2.908672456741333,24.2527592420578,-7.914572259187699,-0.850240581035614,0.3220649254322051,0.1987121301889418,43.58421691894532,60.9840267944336,-121.97716552734376,63.61792908871345,0.7934323831327047,25.676782515722824,0.9306564202312566,29.239733295440686,131.66036071777347,31.71893493652344
776.631,-1.644359474182129,-35.6922529220581,-28.13869068145752,0.8230625915527344,0.1113104092702268,0.077261112295091,16.26481761932373,-71.25087066650391,-155.73138305664062,2.288295288085937,23.36221633911133,-10.238823592662811,-0.8740249252319335,0.3213358211517333,0.2125816345214843,44.017188720703125,61.499774322509765,-121.62068939208984,45.47995987244538,0.8341410649875016,25.60982147853798,0.9551791618423068,27.752371101379396,132.75064498901367,34.11069366455078
794.6379999999999,4.366760654449462,-15.23548469543457,-25.26074637889862,0.8625029516220094,0.1142323849909006,0.067430524304509,17.924632682800297,-71.42886138916016,-157.34639587402344,8.639280862808228,19.03085634231568,-11.586772397756578,-0.9020741581916808,0.3113728857040404,0.2310731685161589,44.4176661682129,61.97666671752929,-121.44929321289062,29.82103117159279,0.8726438305204297,23.89694460691063,0.9818786432329548,26.4930334854126,133.40552810668945,35.89710266113282
816.525,9.694975357055664,5.438965568542481,-20.90105046272278,0.8911981916427612,0.1167459285259246,0.0633211006596683,19.150528678894045,-71.22274047851563,-158.378349609375,16.13438678741455,11.624927978515627,-12.01170234680176,-0.9243784427642824,0.2947781074047088,0.2501610881090164,44.74291854858399,62.35945587158203,-121.53352783203124,23.67337753838669,0.901040171359446,23.23227024592593,1.001973157353184,25.592389869689942,133.58219635009766,36.84482177734375
839.039,15.2903729057312,25.64235115051269,-15.446248021125792,0.909888916015625,0.1137910243868827,0.0662988784909247,19.85295776367188,-70.65568267822266,-158.73277404785156,23.94769392967224,2.2108833885192896,-11.954201011657716,-0.931799750328064,0.2792777156829833,0.2672738075256347,44.95453613281249,62.60886276245117,-121.9187466430664,33.614167460352945,0.919370316036068,26.85671185633136,1.0088023123376542,25.10157836914061,133.26454544067383,36.814027404785165
862.929,22.629073791503902,44.80991367340088,-9.83359766960144,0.915213282108307,0.1137404185533522,0.0771484158560632,20.078366088867188,-69.75491439819336,-158.42479248046874,30.719056072235105,-7.394564895629881,-12.05837127685547,-0.9289647889137268,0.2723975324630737,0.2804008120298385,45.0244792175293,62.71884826660156,-122.6088934326172,51.15371919231835,0.9254750740183396,33.81928907909359,1.0078693417901394,24.94611312866211,132.47376266479492,35.815899047851545
875.097,31.68402132034301,62.561467285156255,-5.097417197227478,0.9055490279197692,0.1168220362067221,0.096652441471815,19.958961181640625,-68.5450309753418,-157.55531799316407,34.90958891868591,-14.88274110794067,-12.438650550842286,-0.9150649356842042,0.2780243968963622,0.2876026952266693,44.96530532836914,62.71917907714844,-123.53260955810546,70.31214730032228,0.9181547388933884,39.936141637414025,0.9986774815174152,25.006344146728516,131.26421005249023,34.022708435058604
896.557,41.51956199645996,78.89507930755614,-2.0633699893951416,0.8827115774154664,0.1177191358804701,0.1205859864130615,19.660514526367187,-67.04418136596681,-156.27781311035156,34.92604080200195,-18.437313880920406,-13.301142158508302,-0.8919753241539002,0.2931709623336792,0.2900847852230072,44.80095291137695,62.66896331787109,-124.57352966308596,89.17715549980606,0.8986537174991024,41.67353179138447,0.9827097102771444,25.140438385009766,129.7131446838379,31.704283447265595
918.896,51.907306041717526,93.7753074645996,-1.2425212144851685,0.8486656761169435,0.1226409062743186,0.1551234193891286,19.36988159179688,-65.26505294799804,-154.77512634277343,30.23241950988769,-17.016653575897216,-14.53936737060547,-0.8679742860794069,0.3109301829338073,0.2924833106994629,44.56404602050782,62.643371887207024,-125.59198364257811,107.19011414098392,0.871399734308997,37.61593933269992,0.9672659546329672,25.194164428710938,127.90842483520507,29.18314270019532
943.156,60.31077880859375,107.54149810791016,-2.563064994812012,0.8045404529571533,0.1327903741598128,0.1988449953123926,19.20097320556641,-63.2148323059082,-153.20663513183595,21.35644618988037,-10.881513671874998,-16.35312793731689,-0.8520988488197327,0.318590772151947,0.2963234972953796,44.27121566772461,62.72218170166016,-126.47468200683592,123.32531434365126,0.8393199366599068,29.01602879421497,0.9567550069425572,25.070242462158202,125.93701400756837,26.731953125000032
964.547,64.52835380554198,120.75511230468751,-5.289697737693787,0.755382046699524,0.1408905935287475,0.2542473685741424,19.161893157958986,-60.89363586425782,-151.66501037597658,9.699832305908204,-0.799745140075683,-18.68707252502441,-0.8419119930267334,0.31601112306118,0.2958485460281372,43.95179824829102,62.97458419799805,-127.12782257080076,137.017102927799,0.8093787248548855,21.06971804764689,0.9466811480575692,24.789905090332034,123.86822006225586,24.53718780517582
974.477,63.13255981445312,133.22140625,-8.340856695175171,0.7022314071655273,0.1492059046030044,0.3181276977062225,19.17878807067872,-58.310875549316414,-150.18833129882813,-2.875569114685059,11.50865577697754,-21.31882194519043,-0.838149139881134,0.3024795162677764,0.2937346398830413,43.62961227416992,63.44153762817383,-127.50392852783202,147.65917879482635,0.7852366415456803,24.396930640083028,0.9382259200812418,24.4508242034912,121.75241317749024,22.684402770996115
996.479,56.95977066040039,144.1366177368164,-11.02483268737793,0.6483884572982789,0.1642426830530166,0.3851567828655242,19.175457916259766,-55.4953776550293,-148.7977752685547,-14.41461471557617,23.992960624694824,-24.006413917541504,-0.8419369888305663,0.2794608378410338,0.2900362348556518,43.3235482788086,64.13151641845704,-127.60459259033205,155.37479519561472,0.7718348255173617,36.87480421801575,0.933315204299778,24.148090362548835,119.62689407348634,21.19318267822264
1018.76,46.51690486907959,153.00155944824218,-12.819319181442262,0.6003909075260163,0.1762352782487868,0.4537203115224837,19.05969093322754,-52.49414932250977,-147.4838970947266,-23.04679523468018,34.72089981079101,-26.99750274658204,-0.8509211492538451,0.2557308518886566,0.2829444295167922,43.04416107177735,65.0247622680664,-127.4848843383789,160.42953149737951,0.7729102381437319,49.65441378983312,0.9324819682169546,23.984470138549813,117.51891159057617,19.999012756347682
1038.743,34.50986553192139,159.4983709716797,-13.615223274230956,0.5585679352283478,0.1837000280618667,0.5217502546310425,18.78867546081544,-49.35683258056641,-146.23374450683593,-28.960742874145502,43.377428703308105,-29.735452423095705,-0.860479302406311,0.2415056788921355,0.2682448345422744,42.82083236694336,66.08601913452148,-127.17628326416016,163.75602421424992,0.7861088771809844,60.03768049766027,0.933115702399984,24.032156906127916,115.4428517150879,19.05746124267577
1063.038,22.777161254882813,163.2261828613281,-13.807562179565432,0.5208750426769256,0.1925491648912429,0.58200603723526,18.37394733428955,-46.13813598632812,-145.0570703125,-32.99291530609131,49.745493698120114,-31.63766822814941,-0.8723242044448852,0.234014436006546,0.2534878116846084,42.67305221557617,67.26754287719726,-126.70034057617184,165.38511003005448,0.8044358385615941,67.55803915581829,0.9380662794240688,24.29910488128662,113.40567886352538,18.356729736328163
1084.964,12.679937858581544,164.61192687988282,-13.943476219177247,0.4868966019153595,0.2037162220478057,0.639770222902298,17.85993366241455,-42.88556228637695,-143.97231018066407,-35.379229125976565,53.81741989135743,-32.55772048950195,-0.8895849800109863,0.230142103433609,0.2391046476364135,42.622352905273445,68.52090698242188,-126.07164001464844,165.68731944322153,0.8293820218660464,72.16654142179434,0.9494724097915254,24.762419242858893,111.40646926879883,17.90067016601563
1094.418,3.47051284790039,164.6579052734375,-14.515179138183594,0.45819176197052,0.2100078952312469,0.6906275677680969,17.26891384124756,-39.621490249633794,-142.992373046875,-36.12295989990234,56.335204162597655,-33.027644577026365,-0.9108146142959596,0.2359431433677673,0.2240933096408843,42.70668807983399,69.81316375732422,-125.28848785400392,165.33287832091148,0.8549909029682042,74.62806956017215,0.9671971050117788,25.437774238586428,109.43465400695801,17.703885192871084
1116.233,-4.060102424621582,164.19072814941404,-15.704455223083496,0.4290629231929778,0.2161040842533111,0.7326888370513915,16.637947540283204,-36.34830703735352,-142.13105529785156,-37.19580459594727,58.27902572631835,-32.80629356384277,-0.9324219870567324,0.2452178823947906,0.2082362115383147,42.961015930175776,71.12398345947267,-124.30779418945312,164.99002865563432,0.8761443369842585,76.52598001035858,0.986359412987396,26.323068389892573,107.47229049682619,17.82326110839844
1143.788,-10.169126510620115,163.55587036132812,-17.84252197265625,0.3959059226512909,0.2215503430366515,0.769101333618164,15.99738910675049,-33.06518501281738,-141.40420959472655,-38.77627456665039,59.58388168334962,-31.504910125732422,-0.9530488061904908,0.2559996056556701,0.1934992271661758,43.4356478881836,72.4266180419922,-123.06800262451172,164.84019368462685,0.89294060018753,77.75858658536781,1.0056240728974648,27.438258781433113,105.49180305480958,18.336206970214832
1164.249,-14.792498283386232,163.21378601074218,-21.02855709075928,0.3579211628437042,0.2250352668762206,0.800553481578827,15.37219596862793,-29.76502700805664,-140.82227111816408,-39.91815521240234,60.9233592224121,-29.5893696975708,-0.9709314489364624,0.266695150732994,0.1798876672983168,44.23661590576173,73.70858154296874,-121.4710580444336,165.22638458413246,0.90533657112558,78.61708219976134,1.0228361329188478,28.864419937133803,103.4736085510254,19.351213073730477
1174.0790000000002,-17.977122173309326,163.21839477539064,-25.115098762512208,0.3176184558868408,0.2207039231061935,0.8225013661384584,14.780209884643554,-26.43431083679199,-140.39025451660157,-40.66218780517578,62.25080047607422,-27.05128015518189,-0.9840390729904176,0.2739178091287612,0.1667014318704604,45.47848495483398,74.95513885498046,-119.40908172607422,166.1149887895132,0.908900545986213,79.12235736534602,1.034965328268248,30.698275070190427,101.38944969177246,20.981172790527353
1197.068,-18.30103231430053,163.56557189941407,-29.66103973388672,0.2717740741372108,0.2146720165014266,0.8441465950012207,14.262760772705075,-23.06682758331299,-140.1033184814453,-41.396200866699225,62.981156005859376,-23.33691205978393,-0.993090467453003,0.2678123056888579,0.1561172431707381,47.24365371704102,76.13723815917969,-116.79729797363282,167.2375596947249,0.9124301046623144,78.89792723840466,1.0403483557153526,32.98089294433595,99.20406574249267,23.30602050781249
1216.995,-17.015897502899172,163.9955340576172,-34.575570793151854,0.2204402837529778,0.2088817936182021,0.8622532963752747,13.838175773620604,-19.663961181640623,-139.95637390136716,-40.63405136108399,63.7576382446289,-19.040095310211186,-0.9944904828071596,0.2541508829593658,0.1495788609981536,49.68799606323242,77.23644927978515,-113.5073962402344,168.46229861409498,0.9141697159260296,77.9659399607938,1.0372935107097447,35.84982028961181,96.90041046142576,26.44897766113276
1233.712,-14.73541353225708,164.44022521972656,-39.14367362976074,0.1679602404683828,0.1994947439432143,0.8802465009689332,13.506255950927732,-16.230110216140748,-139.93047424316407,-38.64675720214844,64.90600646972656,-15.12498645782471,-0.9914839935302734,0.2327256023883818,0.148559209704399,52.953691253662114,78.24867797851562,-109.42089111328126,169.67600675261735,0.9180646478909944,77.03977371098243,1.029209188756965,39.447435302734384,94.47878819465636,30.509583129882813
1257.174,-12.325799465179442,164.89446044921874,-42.59632064819336,0.1184914028272032,0.1906946009397506,0.8980057382583618,13.248614807128906,-12.769949593544007,-139.99305236816406,-37.35083038330079,65.02429443359375,-11.31598255157471,-0.9920155453681944,0.2041771680116652,0.1491432696580886,57.00922622680664,79.1492935180664,-104.55589752197264,170.75290613063805,0.9256451530238112,75.83729200081144,1.0237318365049146,43.76061141967773,91.91924311161041,35.43715484619142
1278.811,-10.1479603767395,165.33421447753906,-44.59338226318359,0.071038067638874,0.1837775593996047,0.91577641248703,13.04435821533203,-9.296081733703613,-140.10887573242186,-37.572267608642576,64.47358993530273,-8.297227883338929,-0.991611580848694,0.1780663874745368,0.1515631335973739,61.76371185302735,79.92684509277345,-98.97523498535158,171.5428614614528,0.9367321047451912,75.08237531504366,1.0188093781897245,48.71935363769532,89.22292682647706,41.13364074707029
1315.454,-9.018014373779298,165.49436218261718,-45.1634066772461,0.0236795521154999,0.17942287504673,0.9299046993255616,12.864009704589842,-5.822281718254089,-140.24743774414063,-39.90431762695313,63.88437072753906,-6.574387235641479,-0.986097218990326,0.1598721915483473,0.152991554737091,67.12369491577148,80.58799072265626,-92.73267791748049,171.7831243171787,0.9473521199143368,75.60945678981285,1.010620234683533,54.25968521118164,86.41027244091035,47.51475982666014
1315.586,-8.247398014068605,165.36696350097654,-44.24052017211914,-0.0220729038119316,0.1732404804229735,0.9423509407043456,12.693410682678222,-2.359606313705444,-140.37869567871093,-45.46940124511719,61.66083786010743,-5.391140055656433,-0.9873589372634888,0.1473780956864356,0.1497449278831481,72.78299697875977,81.12177490234374,-86.0738282775879,171.38108360211592,0.9583969806850596,76.80227709058909,1.0094659565874302,60.08958629608155,83.48138121604919,54.30486740112303
1337.2520000000002,-7.412679805755614,165.38480224609376,-42.16813125610352,-0.064982283450663,0.1719534391164779,0.9494828510284424,12.534331855773925,1.08993999004364,-140.47936462402342,-52.78477127075196,57.54706512451172,-4.371802816390991,-1.0006464409828186,0.137663179039955,0.1395997873693704,78.36956436157227,81.5201187133789,-79.33958435058594,170.8368576435254,0.9671134198135946,78.21131275215753,1.0196727667975358,65.83523250579834,80.43017872333526,61.13978027343748
1358.481,-5.906921558380128,165.62839538574218,-39.66639434814453,-0.1089669723063706,0.1713808035850524,0.9546202301979064,12.403788833618162,4.527130422592164,-140.53918273925785,-58.915826416015626,52.01682094573975,-3.976664681434632,-1.015668649673462,0.1283927087485789,0.1292513354122638,83.55216323852538,81.80636779785156,-72.88939346313477,170.41443577624258,0.9759841006871884,78.69331690538786,1.0318785787558362,71.14837440490722,77.2792373752594,67.64978927612309
1380.918,-3.7230575180053713,165.98572143554685,-37.24629180908203,-0.1613657842203974,0.1790933543443678,0.9563207626342772,12.323051300048828,7.958214592933655,-140.55601623535156,-61.87260391235352,45.236100921630864,-4.467070035934448,-1.0235640692710877,0.1187060467898844,0.1199421971291302,88.11941070556641,82.01403350830078,-67.00130279541015,170.15406880615174,0.9862366586843072,76.77550817932044,1.037381636669665,75.79635940551758,74.05581891536713,73.55471343994141
1404.855,-1.6118831825256348,166.30082214355468,-35.05134025573731,-0.219169878810644,0.1874685752391814,0.9502886033058168,12.29403392791748,11.384853801727294,-140.53025024414063,-61.77879333496094,37.12145986557007,-5.137944273948669,-1.027733771800995,0.1152105526626109,0.1044377608597277,91.847099609375,82.16383026123046,-61.962955932617184,169.96222541123598,0.9930902940080528,72.25662986769551,1.0394312978925144,79.55306568145751,70.77897645950317,78.56729431152345
1413.538,0.6684327411651612,166.7816827392578,-33.089490051269536,-0.2786798258125781,0.1949856626987456,0.9406612396240236,12.323465576171875,14.81041253566742,-140.46203491210937,-58.46832595825195,28.619674673080446,-6.104962024688721,-1.0319457674026489,0.1070609040558337,0.090656345412135,94.62207611083984,82.29150848388672,-57.95296524047851,170.03379326334212,1.000262676352568,65.38273074808251,1.0414377931499217,82.29861053466797,67.48109594821929,82.50906967163087
1438.764,3.0318658828735354,167.05250183105468,-31.230715713500977,-0.3433538115024566,0.2024478185176848,0.9365347528457642,12.420645904541017,18.230714378356936,-140.34706237792972,-53.07130279541016,19.866340560913088,-8.012413659095765,-1.0279514622688293,0.0933532720804213,0.0836336997151374,96.37728637695312,82.44327667236328,-55.08081787109376,169.9737867517335,1.0178282283291766,57.23140257174163,1.0355644054894833,83.9566404724121,64.21256229400635,85.26624450683596
1458.808,3.472873907089233,166.496689453125,-29.02022487640381,-0.4171963119506835,0.2096513146162032,0.9318562412261964,12.557328453063963,21.630990734100344,-140.17380737304686,-47.94889266967773,12.392417497634888,-11.719476709365845,-1.007505087852478,0.0821646639704703,0.0734398350492119,97.28191467285156,82.66743835449218,-53.17020401000976,169.0425446563732,1.04228714409119,50.89218460653198,1.0135141555134122,84.7245862197876,61.03644762039183,87.00360336303709
1481.231,1.1141448783874512,164.85199401855468,-25.87675239562989,-0.4860785043239593,0.207647858262062,0.9153805947303774,12.68817771911621,24.984000663757325,-139.92193908691405,-45.47596832275391,6.04547417640686,-15.857279148101806,-0.9905764412879942,0.0734418863058089,0.0510224507004022,97.42934692382812,82.98379455566406,-52.07520553588868,166.8742867108302,1.0570296015796237,48.53931143815849,0.9946047894387082,84.74116920471191,57.999793891906734,87.84673355102538
1504.927,-1.8907930469512937,162.59341003417967,-21.80454063415528,-0.5521848297119141,0.2029454791545867,0.9011001324653624,12.816546134948732,28.274429168701168,-139.56979125976562,-44.53379470825195,0.9597942829132078,-20.2406533908844,-0.985784602165222,0.0617749693989752,0.0353288837894796,96.93543182373048,83.40557006835937,-51.649541015625005,164.0598368801938,1.0761395831407532,48.92713077498171,0.9883499171549012,84.11888568878175,55.1311408996582,87.92025024414062
1514.621,-5.830263423919678,159.40721618652344,-17.525663108825686,-0.619928560256958,0.2015956258773802,0.891364643573761,12.931270446777342,31.48282440185547,-139.11139831542968,-44.70863204956055,-2.4958652782440187,-24.95553062438965,-0.982017924785614,0.0672973084449767,0.0192651821672916,95.98669494628908,83.934677734375,-51.68416732788086,160.47367825077535,1.1043021072190955,51.26275092086833,0.9845096645376932,83.05542449951173,52.45185333251953,87.42723098754882
1544.78,-10.902328824996948,155.2306005859375,-13.88950942993164,-0.6874207055568695,0.2034231269359587,0.8707401704788207,13.003735008239747,34.59361557006836,-138.56735412597655,-45.74803802490234,-4.320026197433473,-28.890694484710696,-0.9778047513961792,0.0872416919469832,-0.0020850332453846,94.70658142089844,84.5460562133789,-52.03789352416993,156.2316184524867,1.1278814829077537,54.27907365903839,0.9816911897487676,81.7028464126587,49.952440643310545,86.52946060180662
1563.616,-14.884156684875489,150.38712341308593,-11.71284885406494,-0.7451607990264894,0.2065167176723479,0.8382902717590334,13.03519130706787,37.599810409545896,-137.9788659667969,-46.05547775268555,-5.272206048965455,-30.06076065063477,-0.9853361201286316,0.1107688257098197,-0.0234746442735194,93.14490692138672,85.18246612548828,-52.67608642578125,151.57511615354557,1.1404579566164594,55.2499096700222,0.991820579189122,80.10971561431884,47.58265571594238,85.30277954101564
1573.725,-15.788023767471312,145.3461978149414,-11.419070816040035,-0.8016552901268007,0.212122128009796,0.8214096832275392,13.061356391906738,40.50659629821777,-137.3951043701172,-43.84789943695069,-5.3698775005340575,-29.05170686721802,-0.9980519580841064,0.1311529121175408,-0.0331609792634844,91.46191986083984,85.80058502197265,-53.48771270751953,146.6464254322077,1.167202154333025,52.87225682059018,1.0071784588334598,78.4005634689331,45.29398872375488,83.90739166259766
1604.797,-16.19933364868164,139.58088897705076,-12.904457054138186,-0.8511721920967101,0.2185435104370116,0.8054577231407165,13.062650680541992,43.30462203979492,-136.86584716796875,-40.357875213623046,-4.392760076522827,-27.06287246704101,-1.0041141080856324,0.1449208731204271,-0.0444221498817204,90.08548706054688,86.37909790039063,-54.06800033569336,141.1090641672149,1.192064390173567,48.78989136097341,1.0154902899204434,77.02283638000489,43.07447586059571,82.79784683227538
1613.539,-16.27702589035034,132.97016204833986,-14.877597198486333,-0.8931950211524964,0.2278733676671981,0.7861511826515197,13.037970848083496,45.97887191772461,-136.4109942626953,-35.689504394531255,-2.5550664520263675,-24.083901691436765,-1.0049519729614258,0.1337442110106348,-0.0561739464476703,89.49212982177734,86.89536621093751,-53.95841278076172,134.7863066687314,1.2115103381680166,43.13123472826076,1.0153676645419754,76.45415897369384,40.9164942932129,82.45258148193359
1635.898,-16.668076438903807,125.02688323974608,-16.38885349273682,-0.9259897208213804,0.2330284345149993,0.772769467830658,12.97926986694336,48.50063034057617,-136.02971679687502,-29.5727006149292,0.3514520168304443,-20.83478801727295,-1.005430760383606,0.1097649839520454,-0.062838675379753,90.29637908935548,87.34667846679687,-52.568843917846685,127.19332067221389,1.2283858777968135,36.17674020562202,1.0133548562823542,77.31710922241213,38.8460481262207,83.46087287902833
1658.275,-17.520609226226806,115.8776788330078,-16.49327335357666,-0.9461343812942504,0.2301406623423099,0.770565586090088,12.888975791931154,50.83758728027344,-135.69924926757812,-22.70800397872925,3.972720928192139,-17.850697593688963,-1.006590609550476,0.0899894345179199,-0.0599252702295779,93.04528686523436,87.72613189697266,-49.35685111999511,118.34963567877872,1.2417352030110012,29.1561890660047,1.0123802603627463,80.1563110733032,36.88854461669922,86.34239814758301
1673.36,-18.909839611053464,105.58581817626953,-15.33049789428711,-0.953228106498718,0.2261749437451362,0.7565214562416077,12.770585899353028,52.96109710693359,-135.39660461425785,-16.921019666194915,7.875747070312499,-15.078594975471496,-1.007588629722595,0.0733826586604117,-0.058833517730236,97.97134674072268,88.01698699951172,-44.05611686706543,108.35576218990276,1.2377898213958498,23.99400602012105,1.0119689936687002,85.20076084136966,35.05588989257812,91.34048774719243
1695.917,-19.00130940556526,94.39089324951172,-12.932883694171906,-0.958346426486969,0.2195859931409358,0.7452670931816101,12.664619483947757,54.84820037841797,-135.09667907714845,-12.18845452785492,11.544712352752686,-12.22046872138977,-1.009529528617859,0.0561735874507575,-0.0597211208939551,104.78182830810547,88.19762298583984,-36.93105506420135,97.1491120299806,1.233721573825878,20.76484198966737,1.0128533720925823,92.11720882415771,33.34942260742187,98.16562401294709
1718.327,-18.18198454141617,82.40489265441894,-10.18501716852188,-0.955647406578064,0.1989138069748878,0.7370476341247558,12.578918190002442,56.48297897338868,-134.80360290527344,-8.276606132984162,14.785014705657956,-9.585695118904113,-1.0121533346176148,0.0475813446380197,-0.0581204193830489,112.86927429199218,88.26170349121094,-28.575703954696657,84.99932629129299,1.223138538054264,19.46752218027901,1.0149366188508426,100.29035610198974,31.778724517822255,106.22789895057679
1740.685,-15.60185887694359,70.47349746704101,-7.287016785144805,-0.9488152837753296,0.173248451501131,0.7242514324188233,12.547736892700197,57.86743927001953,-134.51411743164064,-6.048407640457154,17.328553752899168,-6.785710936784744,-1.01577392578125,0.0437081571202724,-0.0605031523108481,121.5560317993164,88.19341125488282,-19.63568613529205,72.54676050162462,1.206153226598477,19.56803217162769,1.0185124951297615,109.0082949066162,30.325971984863287,114.8784312963486
1762.502,-12.304227070808407,58.49974309921265,-4.696591732501984,-0.9537020921707152,0.1571211180090903,0.7101622152328491,12.580488395690915,59.001943359375005,-134.23296936035155,-6.309008853435516,18.780478706359865,-4.641712644100189,-1.0217191171646118,0.0324915215000509,-0.0772302782535552,130.06381591796875,88.00907775878906,-10.851479320526122,59.963921822923645,1.1994019752691978,20.34835299043054,1.0251488522298329,117.48332752227783,29.007134399414056,123.38149003982542
1773.932,-9.90912135720253,45.976776161193854,-2.280373947620392,-0.9657750058174134,0.141096182912588,0.7102013421058654,12.645853958129882,59.87529373168945,-133.97106994628905,-8.1040668964386,19.56058193206787,-3.6486743485927584,-1.0257810640335083,0.0209086350444703,-0.0930651947855948,137.82106567382814,87.74336639404297,-2.7796244955062868,47.08773447076506,1.2070689462591189,21.48499686490949,1.0302063350754644,125.17521171569827,27.868072662353512,131.19144545078277
1796.005,-8.722705025672912,32.99244401931763,-0.3904129767417907,-0.967771155834198,0.12557335793972,0.7132011079788209,12.696525688171388,60.48321731567383,-133.75223144531247,-9.9496706700325,19.484522094726564,-3.041422065496445,-1.0330059814453123,0.0147769371420144,-0.0987995463609694,144.41579071044922,87.43187194824218,4.155644779205322,34.12827812276962,1.208720604073222,22.088295449909243,1.037825161544191,131.71926502227782,26.948654632568342,137.9078762245178
1818.241,-7.900609487295151,20.011104431152344,1.183568184375763,-0.9672228908538818,0.1232480438053607,0.7196502685546875,12.717691307067872,60.829205169677735,-133.58362548828126,-11.99995635509491,18.08856652021408,-2.89434313416481,-1.0413228750228882,0.0104275702591984,-0.1019291757792233,149.81725494384767,87.11686645507811,9.924287085533145,21.54680404311252,1.211860845940829,21.89914184297365,1.0463515762603297,137.0995636367798,26.287661285400375,143.5079125738144
1840.695,-7.999929392337799,6.687431774139403,2.3714352059364323,-0.9650366806983948,0.126151786148548,0.7338096690177918,12.675590438842772,60.9090463256836,-133.48063903808594,-13.60820277929306,15.38428948879242,-3.480232073068619,-1.0470283317565918,0.0061726324819028,-0.0987573971599339,154.09732910156248,86.84472381591797,14.587372980117795,10.693190307486082,1.2188874839729242,20.831984092729712,1.051693611460369,141.42173866271972,25.935677490234376,148.06801201820375
1863.186,-8.031905013322831,-6.8308386230468745,3.4178110814094547,-0.948346424102783,0.1250508922338484,0.7579198169708252,12.565734939575195,60.72428039550781,-133.44809814453123,-14.079709758758543,11.562335455417632,-4.033372846841813,-1.050795497894287,0.0009347220230847,-0.078060394451022,157.337958984375,86.65394500732423,18.20601185321808,11.0839202011452,1.2204266117690594,18.65995510702341,1.0536913576954174,144.7722240447998,25.929664611816413,151.65410999774932
1874.434,-7.441057395935059,-20.0221209526062,4.26815443277359,-0.9242147922515868,0.1291097798943518,0.7841543006896972,12.40265956878662,60.28696807861328,-133.48324340820312,-12.772081966400147,6.110717802047729,-4.135816279649735,-1.0573290967941282,-0.0049843637458979,-0.0523703139275312,159.5725067138672,86.58117553710937,20.781313705444333,21.782373719877203,1.2189094653710586,14.750319525750031,1.0586370070001836,147.16984714508058,26.294207458496096,154.26455711364747
1898.535,-6.769120559692384,-33.00824031829834,5.264695377349854,-0.9064713644981384,0.1393735700845717,0.8111864113807676,12.200656509399414,59.60064758300781,-133.57071472167968,-10.74587764263153,-0.6378371834754943,-4.567384861707688,-1.0561041760444645,-0.0087346038594841,-0.0330074132233858,160.98273742675784,86.65784057617188,22.48521923065185,34.10398714928322,1.224393205102856,11.693661832718982,1.0566559578646393,148.78208091735843,27.057192993164065,156.05593395233154
1920.562,-6.514842824935913,-46.29649766921997,6.535184593200684,-0.8936517000198364,0.1480009698867797,0.8386633324623107,11.964200401306154,58.65651412963867,-133.69507324218748,-8.756816034317016,-7.671711015701294,-4.817585526704788,-1.0492352056503296,-0.0099290425702928,-0.0141494538635016,161.40530029296875,86.89514251708984,23.15113883972168,47.207176479184994,1.2344528477234598,12.599448689304609,1.049377582049039,149.4410998916626,28.238628387451165,156.84621208190916
1940.68,-6.328664875030517,-59.96495246887207,8.041647891998291,-0.8832755947113038,0.1554198297858237,0.870681688785553,11.705411567687989,57.44459350585937,-133.84225036621092,-6.629191498756408,-14.68085149526596,-4.410453925132751,-1.0453021168708805,-0.0134315841272472,0.0010185987874864,160.0864794921875,87.29179534912109,21.99838466644287,60.83186356272025,1.249967080722418,16.701068360406047,1.045388903963688,148.38106792449952,29.847201843261715,155.84063503265378
1962.783,-6.490395746231078,-74.16403671264649,9.60093960762024,-0.8822503161430358,0.1674968028068541,0.8980763649940491,11.422418670654295,55.94797988891602,-134.00721862792966,-3.266220436096192,-21.400720734596256,-3.779312789440155,-1.0389934301376342,-0.0136372921988367,0.0060793477296828,154.8299084472656,87.79904083251952,16.752432556152346,75.06402347201116,1.2700243921460443,21.975947057129904,1.0391007083418344,143.40748977661133,31.851060943603507,150.759651184082
1983.216,-6.816777267456056,-89.19514450073243,11.40376682281494,-0.8870824241638184,0.1781682643294334,0.9240982007980346,11.121173858642578,54.14447311401367,-134.18277770996093,0.7558311700820923,-27.167215569019323,-2.812766876220703,-1.028483259677887,-0.0103002114593981,0.0088629760220645,144.38538116455078,88.3294772338867,6.199729347229003,90.17920022139128,1.2932968114059062,27.32289406397496,1.0285730222680975,133.2642073059082,34.185004119873035,140.38250705718994
1995.041,-7.264046964645385,-104.89216857910156,13.373954219818112,-0.8907917475700378,0.1847975903749465,0.9553542709350584,10.808544654846193,52.01746597290039,-134.36363098144528,5.035839958190918,-31.901602401733403,-0.9947005331516264,-1.0261781644821166,-0.0081791272014378,0.0187010560184716,128.71204650878906,88.76070007324219,-9.686222915649417,105.99054702663356,1.3192277551435634,32.31193818132002,1.0263811440580295,117.90350185394287,36.7432341003418,124.67740806579587
2013.155,-7.662200317382812,-120.90410705566406,15.284291839599607,-0.8916591024398803,0.1881073006987571,0.9896330118179322,10.49049514770508,49.55942199707032,-134.55004943847658,9.85820186138153,-36.14169540405273,1.3209242963790897,-1.0321293807029723,-0.0048604534193872,0.0328156137838958,108.36107093811036,88.97805297851562,-30.34762691497803,122.10701041983307,1.345293205817935,37.48534555817563,1.032662358675747,97.87057579040528,39.418630981445304,104.20242252349854
2036.417,-7.738293123245239,-136.84163848876952,17.086460876464844,-0.8878608322143554,0.1951094383001327,1.0208603882789613,10.178036460876465,46.77189758300781,-134.74143798828123,14.90109724998474,-40.00200263977051,3.888037086725235,-1.0361529397964475,0.0059414210915565,0.0516595123708247,84.95367736816407,88.87873291015624,-54.11651016235352,138.12118718732225,1.3669383609553258,42.863967931509336,1.0374569486739196,74.7756409072876,42.10683532714844,80.62492782592771
2056.014,-7.504479427337647,-152.4212255859375,18.72467952728272,-0.8777990293502809,0.1994147065281867,1.051363561153412,9.881604537963868,43.6706509399414,-134.93805786132813,19.20160509586334,-43.3593367767334,7.121371417045593,-1.039969294071197,0.0191698373667895,0.0760497909411787,63.20761993408204,88.43215759277344,-76.14983364105225,153.7503198175341,1.3840746724180752,47.9525562909339,1.0429224256759515,53.32601539611817,44.76150665283203,58.78822422027588
2073.285,-7.121525869369506,-167.34927246093747,20.05234786987305,-0.8569154715538024,0.2001844555139541,1.080675632953644,9.602436103820802,40.27496658325195,-135.1423876953125,23.13744918823242,-46.31248184204102,10.784977105855942,-1.042539961338043,0.0293885167874395,0.1030411175638436,46.11957206726074,87.6624542236328,-93.53828262329102,168.69674501604229,1.393641907118702,52.88197481638949,1.0480318353058269,36.51713596343994,47.387487640380854,41.60410507202147
2096.232,-6.490833930969238,-181.45381225585936,21.169262351989747,-0.8287122750282288,0.1992467537522315,1.104660611152649,9.344676628112794,36.60794898986816,-135.35402893066407,27.591808853149416,-48.75943984985352,14.67494197130203,-1.0393946504592897,0.0372466406784951,0.1268661272898315,34.311691970825194,86.65915557861328,-105.70410694122316,182.79976634512263,1.395255664563097,57.91497916878931,1.047770760185042,24.9670153427124,50.05120658874512,29.649921989440912
2118.072,-5.951635608673096,-194.6791851806641,22.21641311645508,-0.7943618297576903,0.1971612793207167,1.1211535978317262,9.10812301635742,32.69137477874756,-135.56881774902345,33.5283056640625,-50.5701823425293,18.7563602077961,-1.031599814891815,0.0432057050615548,0.1470437495410441,27.791803207397457,85.50132934570313,-112.68608825683592,196.0330995540976,1.3881169534914526,63.508201605021576,1.0429222287945457,18.68368019104004,52.80995456695557,22.882729492187536
2140.5460000000003,-5.711098785400391,-207.0409533691406,23.264057617187497,-0.7534711861610413,0.1916487842798232,1.1318320751190185,8.889241104125976,28.54255374908447,-135.78149780273438,41.22592323303223,-51.831677551269536,22.83212383270264,-1.0243223953247071,0.0480351666547357,0.1661151567101478,25.89054222106933,84.2637661743164,-115.21723236083986,208.42214229336352,1.3731321608494518,70.05287590746373,1.038815668002813,17.001301116943356,55.72121242523193,20.56426544189452
2153.195,-5.896362342834474,-218.52603088378905,24.130615081787106,-0.7052786910533906,0.1823307859897613,1.1393749046325683,8.6801438331604,24.17305311203004,-135.99111389160157,50.76663810729981,-52.87723587036133,26.46732765197754,-1.016873438358307,0.0560387185961007,0.185389582812786,26.312043228149413,82.98686614990234,-115.6886267089844,219.93335319347565,1.3523452668901172,77.93441506192568,1.035152754445467,17.631899394989013,58.8138130378723,20.30248718261717
2176.101,-6.410121765136718,-229.01081665039064,24.70298080444336,-0.6532700943946839,0.1702759695053099,1.136377396583557,8.47706531524658,19.598422855734825,-136.1989825439453,61.6187964630127,-54.47387573242187,29.5164336013794,-1.019144263267517,0.0662791151367127,0.2029974782466888,27.50372398376465,81.6809048461914,-115.6351953125,230.4284727731089,1.3217826256565166,87.38134278784095,1.0412761048967325,19.02665866851807,62.08248199045657,20.563787231445303
2198.107,-6.930417957305909,-238.434642944336,24.84756652832031,-0.5960612857341766,0.1571775069832801,1.1242872667312622,8.281078586578369,14.833905304670337,-136.4102020263672,73.87478775024415,-57.64374679565431,31.2578353881836,-1.0269112181663511,0.0784166995063423,0.2195460033416747,28.960253982543943,80.31873107910157,-115.58022552490232,239.82600195023727,1.282191749773259,98.77923912918097,1.0530414409417468,20.679175395965572,65.48482577443123,20.82997650146487
2220.587,-7.315216178894042,-246.70949584960937,24.36286613464356,-0.5323385721445083,0.1446742329001426,1.1038990116119385,8.095509357452391,9.89970536530018,-136.63499816894532,87.41437789916992,-62.47231307983399,31.80067497253417,-1.0338230514526363,0.0951142725534736,0.2344041389226912,30.436323089599608,78.88056915283204,-115.79442749023436,248.01741264759403,1.2340615936394397,112.0506416481068,1.06432237921708,22.340813732147218,68.98086378753186,20.84057067871096
2242.8880000000004,-7.591013278961182,-253.71983032226564,23.12119510650635,-0.4632690960168838,0.1302166393399237,1.075061249732971,7.92324571609497,4.822744882106781,-136.88702575683592,101.36884307861328,-69.12956115722656,31.870499038696288,-1.0358873867988587,0.1172909714281558,0.2493949055671691,31.813798294067382,77.33669647216797,-116.4059796142578,254.8842196851617,1.177850295734862,126.7685579387207,1.071922417449316,23.890552577972414,72.5139515900612,20.481046142578123
2252.982,-8.036488990783692,-259.2171136474609,21.382035064697263,-0.3863208781927824,0.1170804286003111,1.034767928123474,7.766044082641601,-0.3644110280275342,-137.17411193847656,114.1992430114746,-77.12103210449219,32.13008918762207,-1.0360218858718873,0.1400771543383598,0.2643444824218749,33.033696517944335,75.66232299804688,-117.45280639648438,260.22161437230307,1.1107188270493222,141.49722021460525,1.0783510386511266,25.267652435302736,76.02673402607441,19.72130554199218
2278.774,-8.945744647979737,-263.12145080566404,19.30054920196533,-0.3032140038907527,0.1061561493575572,0.985629620552063,7.621082916259766,-5.627978994846344,-137.50215759277344,124.8649917602539,-85.13614242553712,32.69599861145019,-1.0189846444129942,0.1667503403127193,0.2811308532953262,34.11953720092773,73.85120819091796,-118.86884277343748,263.9799905691373,1.0366646560539667,154.62359858569314,1.070126131920178,26.498454284667964,79.4791871857643,18.633314819335965
2298.6710000000003,-10.886485710144044,-265.27382385253907,16.963589820861817,-0.2132348147779702,0.0957592654228209,0.92475417137146,7.473469886779784,-10.9302575558424,-137.87484802246095,131.4043603515625,-91.37851440429688,34.52304771423339,-0.98950519323349,0.2010828584432601,0.2999531841278076,35.196682128906254,71.91676849365236,-120.44334930419924,266.03849453053886,0.9538391901241156,163.7344790739532,1.053340759708922,27.72321224212647,82.84702604949476,17.431498718261707
2320.348,-13.58699338912964,-265.4217614746094,14.563495635986328,-0.1182437071204185,0.0852951113879679,0.8594578385353089,7.313650989532471,-16.229223014116286,-138.29151733398436,130.9543760681152,-95.70912017822266,37.67536231994629,-0.959771282672882,0.2362538385391235,0.325200172662735,36.28596710205078,69.87569198608398,-122.01292114257812,266.16801697194967,0.8717365465093512,166.5194199564064,1.0405440613294048,28.972316112518314,86.10491500020026,16.278596191406237
2342.892,-17.4087117767334,-263.36959350585937,12.186511936187744,-0.0239520790427923,0.076721101105213,0.7916942381858826,7.124722881317139,-21.48123912394047,-138.74902221679685,123.45703704833984,-97.67545410156252,40.58439643859863,-0.9367951250076294,0.2623514485359192,0.3499077582359314,37.329907531738286,67.77647232055664,-123.4951840209961,264.22550426167766,0.7957635303417677,162.57068482659147,1.0338514535757302,30.205184650421145,89.2577114444971,15.25383819580074
2353.101,-21.98850009918213,-259.17792236328125,9.835133122205734,0.0636869588494301,0.0665154944360255,0.7197124671936035,6.894508075714112,-26.642742824554443,-139.24333801269532,110.68275146484376,-96.99942443847657,41.84940452575684,-0.9131247973442076,0.2838343358039855,0.3662511956691742,38.2583090209961,65.68639862060547,-124.85720520019532,260.2948701390219,0.7255800267106735,153.00631513890048,1.0239622864321174,31.363800945281987,92.32914144515992,14.386132812499994
2375.463,-26.595794219970703,-252.8847326660156,7.551382119655608,0.1421656795591115,0.0580253265798091,0.6506702375411988,6.6255551528930665,-31.67134605407715,-139.77130798339846,93.7786328125,-93.9156994628906,41.6687287902832,-0.8926467180252076,0.2989487618207931,0.370740321278572,39.00794067382814,63.665279235839854,-126.0811328125,254.39152434322625,0.6685430255347202,139.10741726012984,1.0117494310436248,32.382385520935074,95.33662528991701,13.690175170898456
2398.699,-30.95878929138184,-244.6513854980469,5.137727094888687,0.207306519895792,0.051979580670595,0.5897551596164703,6.330343818664551,-36.5269320678711,-140.33791076660154,74.7803296661377,-89.27920867919923,40.0326503753662,-0.8782985138893128,0.3040671193599701,0.3658154296874999,39.50508209228516,61.75920318603515,-127.1988088989258,246.6559208699513,0.6272870302279839,123.14823548649224,0.9988423404989878,33.174738273620605,98.28613525390625,13.139101867675734
2423.575,-35.26123538970947,-234.76603027343748,2.6625256681442258,0.2589875925332308,0.046446415465325,0.5340063428878784,6.013012504577636,-41.17749702453614,-140.94587097167968,57.45985519409179,-82.89541213989257,36.6347891998291,-0.8645494461059571,0.2995146256685256,0.3456338042020798,39.7576368713379,60.01639434814454,-128.234248046875,237.4142639659433,0.5953105213585786,107.3097949512744,0.9780682401339263,33.74462436676026,101.19389137268067,12.711622924804686
2432.804,-38.85269989013672,-223.5358605957032,0.2420623242855072,0.3026499289274215,0.0389417392387985,0.4798546230793,5.687270965576173,-45.59711532592773,-141.5953125,42.38827163696288,-74.3577703857422,32.18846839904785,-0.8440144991874694,0.2920506048202514,0.3166658061742782,39.82929565429688,58.47690704345704,-129.16361022949218,226.8873549918185,0.5686597381785464,91.44364979037208,0.9475923508632575,34.1420246887207,104.07402236938478,12.431702270507827
2456.401,-41.19010826110839,-211.22255371093743,-2.122207417488098,0.3422352284193038,0.0340879019536077,0.4326252740621567,5.384246120452881,-49.76887130737305,-142.29366760253907,28.54274917602539,-64.19030670166016,27.607456426620484,-0.8239708995819092,0.2796609187126159,0.2897909557819366,39.76452362060547,57.16130004882813,-129.957060546875,215.211746842626,0.5526767268378215,75.48016729794949,0.9171243486387292,34.380277500152594,106.93017135620119,12.336607055664075
2472.916,-42.38274597167968,-197.94099304199216,-4.391664003133775,0.381724556684494,0.0305145171284674,0.3896409833431243,5.137522773742676,-53.677590942382814,-143.05429260253908,17.2425076675415,-52.72632883071899,22.32200918197632,-0.8087879490852355,0.2687488329410552,0.2698134464025497,39.60956481933594,56.09420211791992,-130.61369903564452,202.47523452330248,0.5463193835405751,59.796671450429166,0.8939592706898354,34.47204204559326,109.77179306030274,12.440593566894563
2496.192,-42.19040901184082,-183.96909973144528,-6.256657812595368,0.4229156732559204,0.0252959950827061,0.3480454277992248,4.977802925109864,-57.314194030761726,-143.8811511230469,7.894392929077142,-39.54049137115479,15.89016812324524,-0.794597749710083,0.2610042428970336,0.2535934472084045,39.39227294921876,55.3085319519043,-131.13550903320314,188.84863260179776,0.5483002588588466,43.33900484062859,0.8739670675269311,34.414470024108894,112.62272598266603,12.745642089843756
2518.664,-40.1333837890625,-169.45550506591795,-7.781944476366043,0.4678202199935913,0.0227937756478785,0.3054154604673386,4.9573544311523445,-60.67183868408203,-144.7900555419922,-1.5030879592895563,-24.774348430633545,8.608478202819825,-0.7807891631126405,0.2591477346420288,0.2461458313465117,39.10726501464844,54.83832138061523,-131.51793762207032,174.31699673680353,0.5591546458142098,26.270392279983565,0.8587066064107683,34.149910583496094,115.51016006469726,13.272117919921868
2533.958,-36.56446403503418,-154.56170135498047,-9.004076557159424,0.515759459733963,0.0270763733424245,0.2658192551136016,5.127138214111328,-63.74336318969726,-145.80274658203126,-9.902813415527348,-9.399635238647464,0.7218677806854252,-0.7740446543693542,0.263318954706192,0.2446740770339965,38.76065567016602,54.70285949707032,-131.76918518066407,159.08284932877794,0.5808621408626988,13.67259848218923,0.8534327172295263,33.63351745605469,118.44622268676758,14.033561401367194
2556.227,-32.32007678985596,-139.3208514404297,-9.775680961608888,0.566597410440445,0.0349623027816414,0.2280623233318328,5.506687526702882,-66.51752639770508,-146.92323303222653,-15.38308406829834,6.21190351486206,-7.490531806945799,-0.773051323890686,0.2721645188331604,0.2436912876367568,38.40377716064453,54.91193618774414,-131.89245849609375,143.35428472163514,0.6117739872347685,18.202612105990628,0.855024747215476,32.89708963394165,121.42946258544922,15.030774536132782
2578.84,-28.00527000427246,-123.83944564819336,-10.029888629913328,0.6204345309734345,0.0427938931994139,0.1903107932209967,6.078593082427979,-68.9852069091797,-148.13165161132812,-19.09556894302369,21.65182899475097,-15.152014875411984,-0.7798488211631774,0.2787500166893005,0.2417760670185088,38.078280944824215,55.45714538574218,-131.87383728027345,127.3620905622725,0.6503756780014097,32.60407960455893,0.8627406459978695,31.999687862396236,124.44235229492188,16.257814331054675
2600.631,-23.648450584411624,-108.02225769042968,-9.799470615386962,0.6784475076198577,0.053105727508664,0.1548144838213919,6.8189356231689455,-71.13971954345703,-149.40311279296876,-20.179054794311533,35.198736743927,-21.94649286270141,-0.7954552173614502,0.2835119760036468,0.2416639739274978,37.82746688842773,56.30383148193359,-131.73120483398435,111.01390451615865,0.6979102831243464,46.12801610445336,0.8783675310822201,31.00853126525878,127.44355102539063,17.671907958984406
2622.4280000000003,-19.579588584899906,-91.8483805847168,-8.994019565582274,0.7389566922187806,0.0639058068394659,0.1224982350319623,7.660680274963378,-72.9701968383789,-150.67552307128906,-17.272158985137942,45.867104606628416,-27.540843744277947,-0.8188583278656006,0.2882666057348251,0.2425720524787902,37.71174789428711,57.39363555908203,-131.4961865234375,94.34181306894098,0.7517624376813932,56.21936352494582,0.9013699560893392,30.05106761932373,130.36383239746092,19.179336547851562
2632.602,-15.818990802764892,-75.29561111450195,-7.58223892211914,0.8012564039230347,0.0727185435593127,0.0932116566225885,8.507563133239746,-74.46988250732421,-151.85734619140626,-11.350821037292487,53.02142370223999,-31.48158866882324,-0.8448285937309266,0.2930839908123016,0.2460575926303863,37.7718603515625,58.649022521972654,-131.19832336425782,77.31209394523194,0.8099309997372544,62.69930569588532,0.9274577711933312,29.264297218322756,133.11890502929685,20.659022827148448
2656.208,-12.110893802642822,-58.5294825744629,-5.622447452545165,0.8623282289505004,0.0791980542242525,0.0672871684283017,9.2553857421875,-75.6393731689453,-152.85110168457032,-4.481112880706793,56.02633773803712,-33.78531318664551,-0.871008071899414,0.2999726355075836,0.2565215212106704,37.991444854736336,59.981383361816405,-130.88573852539062,60.03320743130321,0.8685677113921015,65.57803199323658,0.9562645733328914,28.736059112548837,135.6207565307617,21.965363159179702
2675.087,-8.051379489898682,-42.06125999450684,-3.3082688140869143,0.9184945487976076,0.0833964072167872,0.0477869160845874,9.824403629302978,-76.4890411376953,-153.57411010742186,2.5908267974853456,54.5178109741211,-34.59014099121093,-0.8919035625457763,0.310980749130249,0.272381899356842,38.323550872802734,61.29606674194336,-130.62390380859375,42.95251967652332,0.923510035817946,64.61719547223028,0.983052842073456,28.499147243499756,137.78510787963864,22.950206298828107
2699.524,-3.4983627510070803,-26.28375411987305,-0.9081816673278807,0.9667623949050904,0.0869146692752837,0.0331352187693118,10.157943172454832,-77.03126190185546,-153.96146301269533,8.760630092620843,49.51040561676025,-33.45604625701904,-0.9068821263313296,0.3227948606014251,0.2902137166261672,38.720157623291016,62.50875869750977,-130.44257080078123,26.53109621769232,0.9712268687905766,60.39317788548352,1.0054132058054044,28.562214450836183,139.54002059936522,23.518892211914107
2719.986,1.033788433074951,-11.674235000610354,1.3458975791931154,1.0050905442237854,0.088283511251211,0.0258828833326696,10.23413433074951,-77.2918359375,-153.99531311035156,13.124165458679192,41.59822360992432,-30.648826408386235,-0.9153346180915832,0.3339007711410522,0.3082149845361709,39.11713348388672,63.54904663085938,-130.3665960693359,11.796945438015438,1.009292278825376,53.31047257996731,1.02192155508047,28.882999153137206,140.84088256835938,23.628717041015648
2742.62,5.563752155303955,1.373284301757812,3.310285377502441,1.0313920760154724,0.085671063363552,0.0270859195291995,10.07737091064453,-77.30463745117189,-153.704345703125,15.254326114654535,31.77297945022583,-26.728304252624515,-0.9205870747566224,0.3420603561401367,0.3257362323999404,39.44301879882812,64.37270370483398,-130.41973266601562,6.6180992059359705,1.0352984075145146,44.23368554142385,1.0346931634788064,29.365647888183588,141.67734115600587,23.28461303710938
2752.625,9.959966640472413,12.646115646362304,4.800060291290284,1.0462386059761049,0.0788896398991345,0.0361084346845745,9.744315299987791,-77.1047378540039,-153.14559143066407,15.744159622192376,21.24428009033203,-22.112319335937503,-0.9244397163391114,0.3446217215061187,0.3377319848537444,39.65384399414062,64.96334243774415,-130.60870056152342,16.797790188608577,1.0498298028602582,34.4695904411414,1.0427923156948498,29.909528694152833,142.06808029174806,22.53689086914065
2780.367,14.256250553131103,22.49567001342773,5.8368317222595225,1.0510128617286685,0.07240371376276,0.0506492432206868,9.3053985786438,-76.72034606933593,-152.3898895263672,15.604095268249504,11.002189617156985,-17.271656160354617,-0.9267043328285216,0.3406315290927887,0.3436858558654784,39.73946319580078,65.32839263916016,-130.92567443847656,27.264710776765227,1.0547206640265243,25.74579717223763,1.045433272197338,30.43406461715698,142.0487387084961,21.464215087890636
2802.834,17.636470165252685,31.12382194519044,6.638756675720215,1.0472228145599365,0.0643642183393239,0.0690217491611837,8.801761798858644,-76.17553771972658,-151.49548339843753,14.718287315368649,1.9224428939819336,-13.09014150619507,-0.9236050009727478,0.3340913689136505,0.3464646255970001,39.69123260498047,65.49703369140624,-131.36240356445313,36.38420622420099,1.0514667744605803,19.7907951540754,1.0414897874653095,30.889470806121828,141.67257141113282,20.133079833984397
2822.382,20.612501049041747,38.81512969970704,7.289161968231201,1.035482108592987,0.0541416259296237,0.0897835349291562,8.273446846008301,-75.48841583251952,-150.5074627685547,12.90069681167602,-5.453526668548584,-9.799445981979371,-0.9191616106033326,0.3242675590515136,0.3486471486091613,39.50435836791992,65.5093438720703,-131.90318786621094,44.54908950024607,1.0407764390198584,17.09380217813141,1.0351629584241495,31.23091152191162,140.99775970458984,18.604274902343747
2832.5640000000003,22.871474227905274,45.82500114440918,7.742291316986083,1.017216429710388,0.0437081698700784,0.1084492598474024,7.7443152618408195,-74.66683105468749,-149.4612945556641,10.742869439125055,-10.945873146057128,-7.275847363471986,-0.9095020365715026,0.3121157407760619,0.348485255241394,39.199957427978525,65.40541351318359,-132.51831298828125,51.79747231361697,1.0239145037294812,16.975256627580155,1.0227669154252892,31.455642166137707,140.07224456787108,16.942981567382844
2852.621,24.568038711547853,52.33698013305665,7.918129863739014,0.9933178949356078,0.034664985295385,0.1285782116651534,7.240476684570313,-73.71478942871094,-148.39825378417967,8.678161840438836,-14.540204334259034,-4.932754497528077,-0.8942794013023377,0.3015048491954803,0.3471899271011353,38.83250930786133,65.21629028320312,-133.15193725585937,58.35618901298401,1.0022047984917282,17.636896040509438,1.005575291642823,31.59203262329102,138.93107971191407,15.246316528320307
2875.166,25.21959213256836,58.3309799194336,7.665209885835648,0.9659359788894653,0.0247153959423302,0.1492064049839972,6.776420574188232,-72.6378744506836,-147.35381652832032,6.897541995048516,-16.268015708923336,-2.349901175498962,-0.8790046453475953,0.2918579268455505,0.3475651466846466,38.46791091918946,64.96793197631835,-133.73883666992188,64.01004990068655,0.9777043097982048,17.825444067788204,0.989258180251826,31.691490345001224,137.60580642700194,13.614979858398442
2896.494,25.296381607055665,63.938437500000006,7.029348928928376,0.9370687437057494,0.0125974553264676,0.1732238397002219,6.369078941345215,-71.44072875976562,-146.36004150390625,6.385138473510737,-16.65532751083374,0.1813683986663818,-0.869107644557953,0.2775601065158843,0.3509104967117309,38.15875061035156,64.68417495727539,-134.2491351318359,69.11904555703744,0.9530283442539692,17.83824044896461,0.9775100445829986,31.789671669006346,136.124903717041,12.110906372070332
2912.733,25.420708923339845,69.17920196533203,6.063777660131455,0.9090509390830992,-0.0010104366391897,0.1989819273352621,6.042664909362793,-70.12646087646485,-145.44571960449218,7.402730031013483,-15.73345317363739,2.556468043327332,-0.8601769614219664,0.2622355484962463,0.354586261510849,37.96256591796875,64.38850830078124,-134.65402893066403,73.95095554647605,0.930574251866084,17.574910797374283,0.9666453872586857,31.91990100860596,134.5149691772461,10.791690673828157
2934.986,26.696071166992187,74.09987060546875,4.939247832298279,0.8838268280029297,-0.0153880294598639,0.2328941798210143,5.825387306213379,-68.70266998291015,-144.61795104980467,9.602782745361322,-13.67632243156433,4.551645975112915,-0.8578721117973327,0.2476372385025023,0.3587461245059966,37.91788116455078,64.10540390014648,-134.93755615234377,78.91683729502334,0.9141260046311344,17.319720343858915,0.9622720737612792,32.0924938583374,132.80807388305664,9.6803948974609
2958.944,28.773923950195314,78.9204328918457,3.652156940698623,0.8625597977638245,-0.0271359864622354,0.2688304501771926,5.733121318817139,-67.17232894897461,-143.87515197753905,11.986826119422908,-10.398185334205628,4.8164868783950805,-0.862359173297882,0.2316094988584517,0.3648339295387267,37.99583755493164,63.87714355468751,-135.13470031738282,84.08157751640628,0.903889140006738,16.58326881261714,0.9645776795443374,32.2627162361145,131.04947250366212,8.740451660156225
2980.803,31.975386734008787,83.64721405029297,2.537547507286072,0.8433674192428589,-0.0380912688933312,0.3065467333793639,5.765746440887451,-65.53791793823243,-143.20008850097656,12.869460763931269,-6.17040334701538,2.497919569015503,-0.8678495240211486,0.2182343864440917,0.3715507924556732,38.10586441040039,63.749141693115234,-135.31333129882813,89.5863880425854,0.8981594782397071,14.489185622128511,0.9689370645943948,32.340117969512946,129.28705963134766,7.886757202148431
3000.272,36.448984985351565,88.21873138427733,1.1721219956874849,0.8248260760307312,-0.0440356814116238,0.3431741470098495,5.94859706878662,-63.80347885131837,-142.59369201660155,11.127352328300471,-1.186658225059509,-1.211580548286438,-0.8706989455223084,0.2164029413461684,0.3732234859466552,38.18350051879882,63.74713623046876,-135.49098571777344,95.4591375588866,0.8944527333032067,11.255845370571745,0.9717214915906236,32.234903450012204,127.55061508178713,7.10270629882811
3012.45,40.53238555908204,92.73999938964845,-0.6441231036186219,0.8067482829093933,-0.0401837886124848,0.3818019795417785,6.27622745513916,-61.97090454101563,-142.0573046875,6.767890014648431,4.136435642242431,-5.778937377929688,-0.8761312270164489,0.2210662496089935,0.3708554196357726,38.165614929199215,63.88597091674806,-135.68338867187498,101.21263093346944,0.8934373399553703,9.813793980455488,0.9767343323252026,31.889387474060054,125.85687545776369,6.373916015625014
3034.795,42.23225189208985,97.07698669433594,-3.090425900220871,0.7873729085922242,-0.0285122074931859,0.4176579761505127,6.7156950569152825,-60.04150741577149,-141.60986267089845,0.0008542537689152,9.692789244651795,-11.221680908203128,-0.8791125679016112,0.2303955370187758,0.3673800706863403,37.98508773803711,64.17673706054687,-135.91338317871094,105.91059993113984,0.8917439252404559,14.82822600571348,0.9802495227533832,31.269392681121825,124.21824447631836,5.696479492187507
3057.587,42.02518943786621,100.97297637939454,-5.870640077590942,0.7679260110855102,-0.0145088611543178,0.4496978271007537,7.227730712890626,-58.02553131103516,-141.2517413330078,-8.030066032409675,14.975604715347291,-16.213245010375978,-0.8792094492912292,0.2417346227169036,0.361912088394165,37.6254150390625,64.60726486206055,-136.1725048828125,109.5268137084382,0.8900275283679925,23.486592150452,0.9810327432195606,30.397684326171877,122.6327961730957,5.07923645019531
3080.448,39.871789703369146,104.53277893066408,-9.138394784927367,0.7489724111557007,0.0052058652043342,0.4791621840000152,7.786165618896485,-55.930102081298834,-140.9937219238281,-15.519615926742564,19.888845562934875,-19.988423004150395,-0.8803760147094726,0.24981279194355,0.3542627120018005,37.12086166381836,65.15737991333006,-136.4339422607422,112.2513774720024,0.889147441249523,32.18635907543325,0.9813105662374352,29.334696044921877,121.08748199462889,4.559779663085891
3102.288,35.25615962982178,107.66811798095704,-12.312630395889284,0.7295788621902466,0.0264407757669687,0.5085580694675444,8.332003288269043,-53.76380737304688,-140.82451904296877,-21.65274446487428,24.3501362991333,-23.084710845947267,-0.8834467577934266,0.2486768579483031,0.3488642346858978,36.49147308349609,65.8128448486328,-136.70023925781248,113.96061288300682,0.8897279026750423,39.933373955734176,0.9818475481345028,28.159469795227047,119.5766522216797,4.12427978515629
3112.3500000000004,29.454706993103024,110.34623046875,-15.057527036666867,0.7094175696372986,0.0427435360848903,0.533647186756134,8.82307912826538,-51.53800033569336,-140.72454772949217,-26.34671528816224,28.374554405212404,-25.47418312072754,-0.8851427626609801,0.2394650250673293,0.3453284251689911,35.76451629638672,66.55879821777344,-136.9682586669922,115.19808793192703,0.8887517189405981,46.34866502757335,0.9798331132143394,26.941437168121336,118.09679855346681,3.756289062499974
3137.224,24.28376850128173,112.85990234375,-17.17272132873535,0.6887958145141602,0.0554785282164811,0.557123954296112,9.247690277099611,-49.25874633789063,-140.6653741455078,-29.04622951507569,31.88400890350342,-26.660331039428712,-0.8895693254470824,0.2227735894918441,0.3414533472061157,34.998066101074215,67.37522399902343,-137.21481018066407,116.71315833057996,0.8876399279188766,50.70549007684538,0.9785458830681972,25.750375823974604,116.63397033691406,3.450563964843724
3159.1420000000003,19.318890924453736,115.47878479003909,-18.70444747924805,0.6651925516128541,0.0680118856951593,0.5813218593597412,9.594147071838378,-46.92440658569336,-140.62783264160157,-30.0984091949463,35.07330154418945,-27.29313491821289,-0.897949376106262,0.2033427762985229,0.3387611281871795,34.230239486694344,68.25138946533202,-137.43203369140625,118.56823199592311,0.8860258751788785,53.67463023570672,0.981030309772877,24.636092414855966,115.17579605102539,3.195798950195325
3180.404,14.468538322448731,118.24699157714844,-19.41612258911133,0.6393422555923463,0.0748173490166663,0.6049356174468994,9.842545356750488,-44.53458389282228,-140.58560974121093,-31.28528129577637,38.04898460388184,-27.76195068359375,-0.9053337311744688,0.1835725983977317,0.3383889377117157,33.448597259521485,69.18033111572265,-137.6284454345703,120.7007681608936,0.8833477552785495,56.54396484949197,0.9837861235301318,23.606051902770997,113.71491500854493,2.9571643066406352
3200.65,10.681397492885589,121.39942901611327,-19.472765846252443,0.6117329275608062,0.0775791257619857,0.6273621892929077,10.001494598388671,-42.08433387756348,-140.5218054199219,-33.17557281494141,40.8245199584961,-27.896832885742185,-0.91353985786438,0.1657782495021819,0.3374426674842833,32.643103408813474,70.15447296142578,-137.8013171386719,123.41435178917531,0.8796698312267499,59.54404543273956,0.9878790683852896,22.641608810424803,112.23880683898926,2.720488281249999
3222.18,7.542766146659851,124.9118978881836,-19.10024345397949,0.582035892009735,0.0813511949777602,0.6529366183280945,10.08080883026123,-39.56600318908691,-140.4292919921875,-35.821336441040046,43.28526977539063,-28.0994841003418,-0.9234970593452452,0.1522000482678412,0.3370271110534667,31.785093841552737,71.16789276123046,-137.96710021972655,126.58868375637884,0.878470275004001,62.82009018344284,0.994785879924466,21.704285011291507,110.73389595031738,2.4621917724609546
3242.19,4.139792530536651,128.6564956665039,-18.472539558410645,0.551033296585083,0.0856656634807586,0.6769942331314087,10.075794601440428,-36.97630073547363,-140.30629699707032,-40.0735710144043,45.4902117919922,-28.546212997436527,-0.930235378742218,0.1433293414115905,0.3324054318666457,30.83207962036133,72.21921051025392,-138.13941284179683,130.04178742665016,0.8770960560498531,67.00848259154824,0.9981856195656243,20.756285018920902,109.19551124572754,2.166884155273493
3252.317,0.9442959308624268,132.3871014404297,-17.62865516662598,0.5186846828460693,0.0845636476576327,0.7013353943824768,9.988652153015137,-34.316068420410154,-140.1514434814453,-45.99945289611817,47.08837554931641,-28.784502563476565,-0.9322856903076172,0.1310936405882239,0.3230055683851242,29.730990371704102,73.29801757812501,-138.34018737792968,133.5589974714825,0.8763881252834934,71.84575399035383,0.995326453060915,19.742338218688964,107.61408599853516,1.8112561035156318
3273.243,-1.4659994053840637,135.93905029296874,-16.843983573913576,0.483372881412506,0.0858738341927528,0.7282888746261598,9.84383186340332,-31.58638648986816,-139.97401611328127,-51.18933059692383,47.90440399169922,-28.183008041381832,-0.93573650598526,0.1185570163279771,0.3099999564886093,28.51372337341309,74.38444244384766,-138.55287841796877,136.98647499461083,0.8783099354944309,75.56097822965029,0.992853739368007,18.66989151000977,105.97082893371582,1.4211376953124955
3294.997,-3.936497926712036,139.13872680664062,-16.234071578979492,0.4464745962619781,0.0888170678913592,0.7555118179321288,9.649487495422363,-28.792643356323243,-139.78505981445312,-55.19429313659669,47.72015182495117,-27.118835830688475,-0.9428197526931764,0.1055382663384079,0.2975019925832748,27.18694694519043,75.45677612304688,-138.79423767089844,140.1378835052514,0.8820579026862266,77.83992639935362,0.994260955343796,17.53745944976807,104.24941947937012,0.9908221435546807
3312.444,-6.216891238689422,142.06606872558595,-15.632058982849122,0.4072830969095229,0.0902655568718909,0.7803349661827088,9.413632354736327,-25.9403409576416,-139.5892529296875,-58.4652116394043,46.89156890869141,-25.69174736022949,-0.9471917867660522,0.0909292429685592,0.2810000610351562,25.75136917114257,76.50183044433594,-139.07711486816407,143.05865541049894,0.8848446480783922,79.22793755475874,0.9921700672997866,16.33773681640624,102.44217140197753,0.5121380615234159
3335.786,-7.937066655158998,144.6476330566406,-14.810011253356937,0.3636522167921066,0.0900852654874324,0.8042770123481751,9.148569431304931,-23.035066223144533,-139.38555358886717,-61.21642059326173,45.43630325317383,-23.93899169921876,-0.95180340051651,0.0713407592102885,0.2709696012735366,24.18643096923828,77.5038784790039,-139.4313006591797,145.62029806761674,0.8872540799722822,79.90608942465373,0.9921913837429912,15.037861537933349,100.53894470214843,-0.04574707031252956
3358.955,-9.141968281269074,147.0523974609375,-13.726528110504152,0.3154878228902816,0.0934323307871817,0.8279598760604859,8.868952007293702,-20.079166679382325,-139.17281372070312,-63.66751434326172,43.94719116210938,-21.877378158569336,-0.9597828030586244,0.0605226007103919,0.2636561518907546,22.540629043579106,78.45844238281249,-139.81356811523438,147.9743246547648,0.8909431649631027,80.39606749575174,0.9971763037064508,13.671677036285404,98.53760906219482,-0.6407543945312568
3377.804,-10.268818817138673,149.53150939941406,-12.31013234138489,0.2644162437319755,0.0969065783917902,0.8472295880317688,8.576915264129639,-17.072032985687255,-138.9448504638672,-67.75133560180664,42.7961929321289,-19.832728786468508,-0.9736933994293212,0.05608214084059,0.2533781296014785,20.832444076538085,79.37511840820312,-140.17286010742183,150.38836491374155,0.892807263479309,82.55358705974108,1.0076827472840026,12.255528812408446,96.44715139389038,-1.2280096435546284
3400.1960000000004,-10.39488214492798,152.2267639160156,-10.534216410517692,0.2072007820010184,0.1003317236900328,0.8652776312828065,8.292273941040039,-14.007721977233883,-138.69359619140624,-73.92129608154296,42.74883895874024,-17.383489894866944,-0.9853268241882326,0.0573774451762437,0.2340662091970443,19.172369117736817,80.277490234375,-140.35745544433593,152.94447012734037,0.8953792481618229,87.14359969395565,1.014370796093665,10.880095176696779,94.28521221160888,-1.663859252929683
3412.082,-9.017166442871096,155.07222106933594,-8.705118678808212,0.145028631389141,0.1034048615396021,0.8831742525100708,8.045251693725586,-10.882427587509156,-138.41614013671875,-81.30050354003906,43.29234558105468,-14.144037809371948,-1.0010121726989747,0.0605835009738802,0.2195940750837325,17.721224327087402,81.17411132812501,-140.1823486328125,155.57789730307957,0.9009565081674886,93.18826571691476,1.0266047381020866,9.675972633361816,92.05653891563416,-1.7662084960937534
3437.624,-6.275757122039794,158.12324645996097,-7.313226872086526,0.0761004933714866,0.11294959038496,0.9020934319496154,7.864732551574707,-7.693479213714599,-138.11754333496094,-88.46599578857422,44.91672332763672,-11.08978790283203,-1.0128705978393555,0.0675065395981073,0.2003738749027251,16.558686790466307,82.09175933837892,-139.57380859375002,158.41663260458165,0.9123165322551978,99.83350059516744,1.0347046296405062,8.6939542388916,89.78523855209352,-1.4562652587890739
3457.65,-3.244652767181397,161.0372503662109,-6.781783330440521,0.0010696753859519,0.1228053373098372,0.9139332938194276,7.758534584045411,-4.445412683486938,-137.8109442138672,-94.37857635498048,47.439613037109375,-7.784233446121215,-1.017040119171143,0.0708352972567081,0.172085726559162,16.070385780334473,83.05234893798828,-138.17663604736327,161.21264330762125,0.9221476891630984,105.91707534787425,1.0339254038016925,8.311851196289062,87.49776162147522,-0.36569183349607215
3482.154,0.3910057163238519,163.6076306152344,-7.013652910590173,-0.0772733160853385,0.1329961392283439,0.923223683834076,7.739509162902832,-1.145486373901367,-137.50685852050782,-96.95125549316408,50.09407806396485,-4.239814739227294,-1.016294720172882,0.0654455108195543,0.1400690951943397,16.993018531799315,84.05665161132814,-135.33142303466798,163.75836164346362,0.9359493088947882,109.21052434542356,1.0279870741241204,9.253509368896484,85.2021379852295,2.1754354858398415
3502.223,3.475139207839965,165.60672302246093,-8.105737969875335,-0.1512116286158561,0.1431522673368453,0.9289790987968444,7.797187576293945,2.192958383560181,-137.21816284179687,-94.52476150512696,50.870602493286135,-1.5951445865631102,-1.0186100721359252,0.0517299020290374,0.1193817684054374,19.44096767425537,85.07027282714844,-131.02839202880858,165.84138895579787,0.9520292507448164,107.35591842969396,1.026885810812623,11.643780097961423,82.87731444358826,6.189770812988286
3512.101,5.097028436660766,167.06800354003906,-9.749713173508644,-0.222796073257923,0.1564777812361716,0.9379710149765014,7.904908485412598,5.55800136566162,-136.95247985839845,-87.51087554931641,50.57595436096192,-0.7842582130432127,-1.0148591208457949,0.0370361798256635,0.0926100739836692,23.3598547744751,86.10474090576172,-125.42663055419924,167.4298492285779,0.9766847040963594,101.07767092624746,1.0197486649087797,15.454946289062502,80.54673954010009,11.525849304199212
3537.106,4.669337015151977,167.80289123535158,-11.488925536870957,-0.2847276201844214,0.15592009216547,0.9393156576156616,8.020425739288331,8.938721990585327,-136.71175415039062,-77.74599533081054,48.60998237609863,0.2344878673553466,-1.019813578128815,0.0241000215709209,0.0674673071503638,30.04760715484619,87.0943069458008,-117.30741317749025,168.26053733747574,0.993828354133004,91.69201252640804,1.022326945115767,22.02718141555786,78.15558495521547,19.40434097290037
3557.246,4.096795873641968,168.66634399414062,-12.47624460875988,-0.3337713161110877,0.1567446622252463,0.9337617135047912,8.142238368988037,12.337668743133545,-136.47884582519532,-67.06831451416016,43.75840152740479,0.1486602187156677,-1.0418306088447569,0.0112071479111909,0.0544351543486117,39.59091129302979,87.9702243041992,-106.57820602416992,169.1767596696357,1.003933821624731,80.08107526666033,1.0433119397951396,31.44867292404175,75.63255556106566,29.900639801025406
3580.81,3.086136198043824,169.86849548339845,-12.99563133239746,-0.3782899057865142,0.1579866659641265,0.9267619323730468,8.264741649627684,15.760870428085326,-136.2400372314453,-57.165262145996095,35.92205455780029,-1.8337587118148804,-1.0585913825035094,0.0086257103178649,0.0549665296077727,49.55217754364013,88.69175384521483,-95.67867904663086,170.39282974395908,1.0133857699505426,67.53979472049934,1.0600525634921607,41.28743589401245,72.93088341712951,40.56135818481445
3602.377,2.544668226242065,171.2094921875,-13.374665718078614,-0.4264232444763183,0.1565686631202696,0.9262373733520508,8.393990402221679,19.209765129089355,-135.991552734375,-49.91954788208008,27.601490211486816,-4.18027613401413,-1.0580628180503846,0.0156936376728117,0.0517774160206317,57.49364242553711,89.26513732910156,-86.94214981079101,171.7499555591023,1.0316327842285185,57.19508922278815,1.0594451934922828,49.09965202331543,70.05537220001221,49.049402923584
3611.95,1.9221700382232665,172.25561401367187,-13.746337928771974,-0.473206295967102,0.1510943233966826,0.911096727848053,8.524283905029296,22.678346900939943,-135.73160705566406,-45.16725700378419,18.56392639160156,-5.333929376602173,-1.05567462682724,0.0208268496673553,0.0526878049969672,62.46991416931153,89.63324584960938,-81.20320358276368,172.81392624246158,1.037714286593875,49.12383607693186,1.0571937760833146,53.94563026428223,66.95489894866944,54.52840347290038
3637.002,1.9736102581024169,173.2275549316406,-13.840049133300784,-0.5223664104938507,0.1565933680534362,0.8883798789978027,8.672866859436034,26.16110252380371,-135.45060241699218,-41.76831954956055,8.608025093078613,-6.862325947284698,-1.0482151103019717,0.0192091837897896,0.0548093710839747,61.49337392874062,89.84555999755858,-81.35658309936524,173.79075891731884,1.042404412470851,43.19470026987165,1.0498228314176945,52.82050706930458,63.684457473754875,54.094019317626945
3662.068,1.7627636241912836,173.40453186035157,-14.052676982879635,-0.5768935215473175,0.1560698413848876,0.8732542896270752,8.83833625793457,29.643578872680667,-135.14737121582033,-38.1386686706543,-0.4338584136962889,-8.53842240333557,-1.0226515221595764,0.0194330026675015,0.0561878322064876,52.927191850096,89.92070770263672,-89.06602035522461,173.98194370591338,1.0581762541964628,39.08517542791468,1.0243782747872183,44.08885559216143,60.277128829956055,46.08135086059572
3681.796,1.2119218158721918,172.17335754394531,-14.33395950317383,-0.6356779682636262,0.1539947581291198,0.8607552552223205,9.017169532775878,33.098788299560546,-134.825712890625,-35.60605224609375,-7.049995765686035,-9.50738529920578,-0.9893439221382142,0.0230878281965851,0.050426321029663,38.974057790860535,89.86979125976563,-102.03368789672852,172.77325081586454,1.0810645097587193,37.52177730432426,0.990897198469774,29.956888258084657,56.77100296020509,32.792024993896476
3692.191,-1.2635246276855474,169.58252868652343,-14.132471179962158,-0.6948123574256897,0.1576501628756522,0.8285349273681641,9.18016399383545,36.5024234008789,-134.47538757324222,-35.10286682128907,-11.033289246559145,-10.0932337808609,-0.9653786563873292,0.0255002871435135,0.0411094395816325,23.50934566766024,89.70375396728517,-116.42758468627927,170.17507829248316,1.092743296367053,38.155184429203146,0.9665899859171532,14.329181673824792,53.20133056640627,18.04780288696294
3713.75,-4.822655458450318,166.1317266845703,-13.242242546081544,-0.7539031887054443,0.1609532290697097,0.7895043921470642,9.31366668701172,39.83785896301269,-134.08901245117187,-37.3567774963379,-13.051860132217405,-10.684348356723785,-0.9591367793083192,0.0297339211590588,0.0313335144519805,8.15319265700877,89.4634329223633,-130.65493911743164,166.72841870694072,1.1034460318056831,40.98823218473432,0.960108981635596,-1.1604740300029501,49.625573959350604,3.43407333374023
3734.724,-7.789009227752686,162.24709838867187,-12.237740116119385,-0.8142481732368468,0.1611190795898436,0.7653342723846436,9.432731666564942,43.09641616821289,-133.66941162109373,-40.61077865600587,-13.375379672050476,-11.27276611328125,-0.9606729483604431,0.042873760620132,0.0147545744478702,-5.098824650943279,89.13254516601563,-142.7551104736328,162.89429665719751,1.129024354880776,44.21777222184927,0.9617423618248272,-14.531556317508223,46.03612899780274,-9.085698852539082
3752.001,-11.207340593338014,157.5495672607422,-11.857772750854492,-0.8757019186019898,0.1670256316661834,0.7398489713668823,9.512080764770507,46.2632080078125,-133.24438110351562,-44.78549110412599,-12.675317401885986,-11.504305038452149,-0.965014717578888,0.0561281667649745,-0.0060064728558063,-14.836538904085756,88.75948669433595,-151.3059310913086,158.39216332203156,1.1585024438080946,47.9453117530177,0.966664292277534,-24.348619668856266,42.496278686523446,-18.061549987792972
3774.191,-15.00807710647583,152.04353912353514,-11.906163959503171,-0.9272181606292724,0.1657406336069106,0.7016131639480591,9.520259552001956,49.32373657226562,-132.8410290527344,-48.00222229003907,-11.1813374376297,-10.642331709861754,-0.9803092122077942,0.0533334145322442,-0.0283709384500979,-21.157729643434287,88.39603393554687,-156.47798706054687,153.24567500544495,1.1745060693135465,50.423158130954,0.9821687812151604,-30.677989195436243,39.07229736328125,-23.636958007812467
3794.78,-16.803899183273316,146.1068557739258,-12.244281845092772,-0.9708757877349854,0.1574237459897994,0.6740058660507202,9.47848457336426,52.265895690917965,-132.48267089843748,-47.58214263916017,-10.752387390136718,-8.65719916343689,-1.006272799968719,0.0391818938404322,-0.0422279422357677,-25.188736361786724,88.05729461669922,-159.43844482421872,147.57881545061414,1.1923363361410533,49.54413416416082,1.007920318213338,-34.667220935150986,35.79139892578126,-26.955773925781244
3816.971,-16.517514820098878,139.45708709716797,-13.130435428619384,-1.012257399559021,0.1480589377880095,0.6620962738990783,9.406968536376954,55.07378631591797,-132.19245544433596,-42.84531684875489,-10.643856978416444,-7.018342037200929,-1.0164286208152773,0.0297246564552188,-0.0595912971347569,-27.66097583770752,87.75243591308595,-160.97101013183595,141.0443751874013,1.21858851460694,44.7020132902124,1.0186077847277777,-37.067944374084476,32.678649597167976,-28.77855468749999
3840.567,-17.282128725051884,130.7602377319336,-14.154182662963867,-1.0464200973510742,0.1337225899100302,0.6362997698783874,9.265016632080078,57.70989013671876,-131.98817993164064,-38.30669723510743,-9.335636358261109,-5.679714269638062,-1.0151351523399357,0.0196699307858944,-0.0735729664191603,-29.19560890197754,87.51380828857421,-161.67743530273438,132.65463667673887,1.2319716507857503,39.83486304056541,1.0179878511461031,-38.46062553405762,29.80391815185545,-29.689255371093736
3861.705,-16.84949501037598,120.27652084350586,-14.4686612701416,-1.070569233894348,0.1124294827878474,0.6100212454795837,9.070524406433105,60.13528945922851,-131.86794982910158,-35.25181304931641,-6.385762295722962,-4.1358589553833,-1.0189822030067444,0.0057944330666214,-0.0865024416148661,-30.35301170349121,87.35392120361328,-162.0773815917969,122.3098078948417,1.237289292403978,36.06346645374313,1.022663668027947,-39.423536109924314,27.218631744384773,-30.209431762695317
3871.994,-14.674741287231448,108.4300801086426,-14.334762001037598,-1.0913830637931825,0.0987791544198989,0.5978087449073791,8.854347934722899,62.31693969726562,-131.82707580566404,-32.195606613159185,-2.63236520767212,-3.075289916992188,-1.0265087389945984,-0.0017179726622998,-0.0976714538410305,-31.85704925537109,87.27382934570312,-148.48426025390626,110.35359398696636,1.248298685719984,32.44909613301141,1.0311463793069195,-40.71139719009399,24.956889648437503,-16.65718444824222
3894.348,-12.266490592956544,94.8434432220459,-14.070517425537108,-1.1050573444366454,0.0899811853468417,0.5844994950294495,8.609203262329101,64.22067077636719,-131.87388488769534,-28.961791305542,2.681413707733153,-3.413877267837525,-1.0222106027603148,-0.0066982392687349,-0.1198319722712039,-34.797628707885735,87.28146453857423,-121.9806408691406,96.66294519774824,1.253350712250755,29.28531872965779,1.0292322791203712,-43.40683197021484,23.06079376220704,9.89324401855474
3916.617,-9.650836563110351,79.39897087097168,-13.343631076812745,-1.1067561578750609,0.0848108708858489,0.5704532051086425,8.338244285583496,65.81168518066406,-132.00675048828126,-25.35356666564942,9.10790361404419,-3.672744216918945,-1.0176159262657165,-0.0186664595082401,-0.1348996720835565,-39.742532348632814,87.38538696289064,-83.13440124511717,81.08876440081795,1.2480059839734363,27.189084225018693,1.0266881374733303,-48.080776634216306,21.57370178222658,48.87234924316408
3939.453,-5.2575789928436265,62.98051956176757,-12.282621393203735,-1.0993607759475708,0.0875910989940165,0.578866846561432,8.078794250488281,67.06766220092774,-132.22334045410156,-18.102775421142585,14.944938793182374,-2.7584750843048096,-1.0220695924758911,-0.031967711849138,-0.1361103554815053,-46.51144165039062,87.57996704101564,-31.834556274414066,64.38206869482345,1.2455332762969449,23.636219204242924,1.0315882004627648,-54.5902359008789,20.512304840087893,100.38878417968749
3961.963,-1.0359612226486197,45.84876663208008,-11.044690885543822,-1.085430030822754,0.1019574403762816,0.6021627616882325,7.839515056610106,67.97517562866211,-132.51082824707032,-7.3616745758056705,18.864667568206787,-1.418139289021492,-1.0292412400245667,-0.03929396238178,-0.1238124236837028,-54.64984939575195,87.8345281982422,32.303477172851565,47.17168445259281,1.245453195838353,20.2997796555057,1.0374059291836544,-62.489364452362054,19.859352569580082,164.81430541992188
3973.32,1.8820989990234387,27.96373062133789,-9.217377634048464,-1.063517010211945,0.1186004115641116,0.6306689357757568,7.621236572265625,68.52463928222656,-132.84515930175783,2.844807853698724,20.57082010269165,-0.3972621548175811,-1.0325419044494628,-0.0418208737578242,-0.0998650203645228,-63.64038703918457,88.10978424072266,81.0037255859375,29.50377225633245,1.2421263201405306,20.770396930280825,1.0382026739603392,-71.26162361145019,19.5851449584961,213.84888488769533
3994.343,3.892420077323915,9.790149841308594,-6.511854543685912,-1.038771629333496,0.1374761894345282,0.6703277683258057,7.448398399353027,68.71289001464844,-133.17843505859375,9.80765975236892,19.54348819732666,1.0395822721719743,-1.0403233647346497,-0.0353695501573383,-0.0609795202687382,-72.30728149414062,88.37722625732422,115.49597229003908,12.385564887067195,1.2438993197032706,21.891067859697888,1.0427090726484358,-79.75567989349365,19.664336242675788,248.67440734863283
4019.237000000001,4.845588178634645,-8.295063781738282,-3.264101724624635,-1.017937252521515,0.1577006326615809,0.7133219051361085,7.332998886108397,68.53963012695313,-133.47230102539064,13.483884072303766,15.753111190795895,2.521186664104462,-1.0508325099945068,-0.0237248632777481,-0.0232443752884864,-79.17715774536133,88.61957641601563,137.30478881835936,10.146041987333165,1.252954061392484,20.88856203907211,1.051357281889204,-86.51015663146973,20.079946289062505,270.77708984375
4039.147,5.214425511360169,-26.255110321044924,0.3813114452362057,-1.00219153881073,0.1743415591120719,0.7458962416648864,7.286481666564941,68.00688919067383,-133.6976745605469,13.677083413600917,9.985478057861329,3.543699678778649,-1.0553337478637697,-0.0146507312357425,0.0032092518731951,-82.96193374633788,88.83025268554687,147.77079284667968,26.770626623260643,1.2614055902156331,17.301161526325426,1.0554403169310511,-90.24841541290282,20.823363494873036,281.46846740722657
4061.87,5.948782854080202,-43.97279296875,4.438745851516723,-0.993999707698822,0.1855021739006042,0.7707158422470093,7.332834129333496,67.1183546447754,-133.83158630371094,12.371445169448847,3.0900244140625,4.592157256603241,-1.05680495262146,-0.0106997157447039,0.0179694881290197,-82.53568664550781,88.99240509033203,133.627587890625,44.59480915590855,1.2713966276963735,13.5531846711227,1.0570118704659297,-89.8685207748413,21.874050445556634,267.4591741943359
4081.865,7.323639578819275,-61.35555541992187,8.541219472885132,-0.995423917770386,0.1950555750727653,0.7925387811660767,7.482672901153565,65.87729156494142,-133.86857849121094,12.455963938236229,-4.359527969360352,6.122314091324806,-1.0589764881134034,-0.0073415204882621,0.0256813955679535,-77.26757781982421,89.0857568359375,109.86677124023436,62.37862059753762,1.2872580056416512,14.547826352383742,1.059313284339621,-84.75025072097777,23.208465270996086,243.7353497314453
4091.771,9.214328746795656,-78.52886253356932,12.278693933486938,-1.00236221075058,0.1999185383319854,0.8109699940681457,7.723658981323243,64.28253189086914,-133.8310955810547,14.772887201309198,-11.70137237548828,8.03549185156822,-1.0613498497009275,-0.0023478217609226,0.0301629557460546,-67.48204534530639,89.08513793945312,76.12250061035157,80.01532621805964,1.3047489240418924,20.487299505524508,1.0617809659372035,-75.20570432662963,24.802606048583982,209.9535961914063
4111.737,12.072251496315,-95.2960427093506,15.793013849258424,-1.0098434829711913,0.2046116018295287,0.8326700091361999,8.054990310668945,62.33919570922851,-133.74012756347656,18.715730721950525,-18.715666122436524,10.30939960181713,-1.066117420196533,0.0016231948323547,0.0380444845184683,-54.18724895477294,88.94670989990234,31.36138671875,97.34728706387004,1.324760020463145,28.404901953941472,1.0667972493450906,-62.24223926544188,26.607514190673832,165.10151428222656
4134.02,14.557625045776366,-111.62361846923828,19.050312118530275,-1.0176030278205872,0.2100369471311568,0.8576760005950927,8.449297981262209,60.05513732910156,-133.61954650878906,23.52891230106353,-25.371392288208007,12.459783391952516,-1.0711983108520509,0.0090340819768607,0.0492841431498527,-39.15133241653442,88.61035644531249,-26.18253173828125,114.1694838341354,1.3473082659089557,36.77721390871874,1.072369508413712,-47.600630397796635,28.555219116210928,107.4370147705078
4151.944,16.17355495452881,-127.49897857666016,22.03792621612549,-1.0222440004348754,0.2137967693805693,0.8824321389198303,8.86988260269165,57.43983047485351,-133.4953717041016,27.581067802906027,-31.47236629486084,14.413135929107664,-1.0728467893600464,0.0201020612753927,0.0629117417708038,-24.534070587158205,88.0685189819336,-69.81406860351562,130.3964861868072,1.3672521109222295,44.26018107348101,1.0748777667997025,-33.40395318984986,30.628688507080085,63.681303100585964
4174.107,17.284225578308103,-142.78878692626955,24.922098655700687,-1.0234750890731814,0.215561385154724,0.9078847670555116,9.297119102478026,54.50636123657226,-133.38588745117187,30.09730949401855,-36.85252342224121,16.37718416213989,-1.072168664932251,0.0297093300521372,0.0754727063328027,-11.8525391960144,87.34145812988281,-100.9953173828125,145.97428926739778,1.3849991765248888,50.32065860505228,1.0752322631673354,-21.149658298492426,32.83509689331055,32.39057006835937
4196.616,17.855250549316406,-157.44493011474611,27.792643280029296,-1.0222028517723083,0.2188796567916869,0.9354251170158384,9.71698844909668,51.27570602416992,-133.30008178710938,31.78300506591796,-41.59830093383789,18.299365921020502,-1.0695917367935182,0.0350466293655335,0.0851357691735028,-1.7650776672363282,86.4543685913086,-120.3630892944336,160.8730773358523,1.4027926161314015,55.45669341669869,1.0735468545152669,-11.482066116333009,35.17866256713867,12.93699249267577
4216.423,17.01941732406616,-171.63960876464844,30.50173568725586,-1.0163702797889709,0.2179068791866301,0.9584345746040344,10.095442314147949,47.76639511108398,-133.24974365234374,32.923918304443355,-45.639195022583,19.9334761428833,-1.0623496198654176,0.0405005974322556,0.093247642815113,5.56137845993042,85.44415496826173,-128.0737200927734,175.15756261968116,1.4138913633768275,59.70145718461085,1.0672029498231077,-4.5340638542175284,37.67775985717775,5.176023559570325
4238.93,15.443275451660156,-185.11574768066407,33.15018966674805,-1.0037575650215147,0.2148456931114196,0.9789182591438296,10.421580276489255,43.99686325073242,-133.23297302246095,33.87581230163573,-48.70944931030274,21.56440078735352,-1.0534915018081663,0.0448951007612048,0.1032196077704429,10.576365242004396,84.36157470703125,-123.6820001220703,188.6935872545448,1.4184388880990368,63.12847608271738,1.0594877072824718,0.15478496551514098,40.364711456298835,9.550972900390647
4251.68,13.402166857719422,-197.71609802246093,35.46813110351563,-0.9830685329437256,0.2119615387916564,0.9982630920410156,10.686796836853029,39.98588157653808,-133.2505255126953,35.523838653564454,-50.8013395690918,23.23170082092285,-1.044688391685486,0.0505229803547262,0.1143123471736907,14.115602359771731,83.23228179931641,-120.7861505126953,201.318806418292,1.4169970484522347,66.19993306440362,1.052137690600755,3.4288055229187027,43.246400222778334,12.464375000000004
4274.352000000001,10.906171846389771,-209.35236938476564,37.07920547485351,-0.9524657559394836,0.2082934331893919,1.0125292038917542,10.881183280944825,35.753882293701174,-133.3073107910156,38.75682456970215,-51.98897018432617,25.10096252441406,-1.033597204685211,0.0584578568302094,0.1283931952714919,16.855863571166992,82.06820404052733,-118.75294921875,212.8901750433889,1.4056288839095703,69.5341843355156,1.043180384761086,5.974680290222167,46.31432174682616,14.554361572265591
4296.942,8.066515362262725,-219.82802856445315,37.940028533935546,-0.9102462911605836,0.201909982562065,1.0197235202789308,11.001050872802734,31.31945522308349,-133.40609436035157,43.628539047241205,-51.9627377319336,27.052020111083984,-1.0195548129081726,0.0691664840281008,0.1453206986188888,19.20866165161133,80.88712463378906,-117.20688262939451,223.2238261874827,1.3817206698315931,73.04373569365725,1.0321793083006996,8.207610778808595,49.56766941070556,16.19921173095706
4318.954,5.411546998023987,-228.89741760253904,37.88300125122071,-0.8557106924057007,0.1946822100877761,1.0196259665489198,11.056157302856445,26.70498680114746,-133.5496270751953,50.34455299377441,-50.64132888793945,29.39296836853028,-1.0061822915077208,0.0819691519439219,0.1613098746538161,21.486016311645507,79.70839569091797,-115.87274597167968,232.07420022446047,1.3452802918659454,77.22088316765634,1.0223221709788766,10.429859008789062,53.00340888977051,17.676881103515626
4344.46,3.1900892233848577,-236.64604431152344,36.77692283630371,-0.7878524923324586,0.1883975607156753,1.012941048145294,11.05818389892578,21.93689902305603,-133.74722045898437,59.8978327178955,-49.06422912597657,32.098052139282224,-0.9945050072669982,0.0962012491375206,0.1764315050840377,23.86699523925781,78.53235473632813,-114.6278024291992,239.507972750078,1.297017639654824,83.81726489908507,1.0146048323366936,12.808811340332031,56.5954557132721,19.119418029785166
4351.627,1.2679670906066902,-243.0703552246094,34.66937774658203,-0.7090284407138825,0.1784388691186904,1.000821659564972,11.019172286987304,17.0447159576416,-134.00811340332032,72.48529518127441,-48.50656845092773,34.860461654663084,-0.9882444357872008,0.1066221892833708,0.196646510362625,26.39353271484375,77.33939117431639,-113.49173553466797,245.53364552112987,1.2394376765323465,93.92687042150004,1.0132448895255974,15.374360427856447,60.29467521667479,20.516377868652356
4374.2970000000005,-0.6972130560874932,-248.0958715820313,32.22254577636719,-0.6204312795400619,0.1681188005208968,0.983699369430542,10.947505226135252,12.05731961250305,-134.32922241210937,86.66126144409179,-49.25515975952148,36.79541084289552,-0.988104612827301,0.1123604308813809,0.2183024179935455,28.998223571777345,76.11667327880859,-112.56647399902344,250.18061487334188,1.1751014224901395,106.25510461674152,1.0181510389034962,18.050718345642093,64.05935366630554,21.76274841308593
4396.806,-3.0069195842742915,-251.8224304199219,29.627245635986327,-0.5253356665372848,0.155233095884323,0.9617197012901306,10.844754981994628,7.002364406585691,-134.70591552734373,101.14849884033202,-52.30223098754883,37.61175659179688,-0.9913007354736328,0.1177816919982432,0.2424444162845611,31.558482513427737,74.83802764892577,-111.98587677001952,253.5771119639108,1.1067879925458095,119.92158445354256,1.0272920568699515,20.713727531433108,67.83566324234008,22.720038757324218
4417.451,-5.817606413364411,-254.3240838623047,27.369897918701174,-0.4280231094360351,0.1446042117476462,0.9385515475273132,10.708735275268555,1.9051486110687228,-135.12480346679686,114.62492813110352,-58.40828826904296,37.17868431091309,-0.9920571994781492,0.127883371412754,0.2688178426027298,33.90657135009766,73.46469635009765,-111.90545318603516,255.85874127897512,1.0416300531534046,133.91287038470503,1.0357580201098646,23.1978360748291,71.55954773902893,23.219350280761702
4438.636,-9.420106863975525,-255.6186663818359,25.370736770629883,-0.3344935813173651,0.131234531700611,0.9090283966064452,10.531814651489256,-3.211145992279056,-135.574677734375,124.01882232666014,-66.0146354675293,35.449755859375,-0.9864491057395935,0.145368928015232,0.2958942013978958,35.89751258850098,71.98523162841796,-112.39523712158204,257.04730167897435,0.9774666664854,144.8975002465252,1.0400804497093676,25.365697937011724,75.19637762069702,23.17944061279296
4459.092,-13.262646973133087,-255.6362438964844,23.73911136627197,-0.2431947212666272,0.119979321360588,0.871910765171051,10.317246932983398,-8.323405523300174,-136.0430010986328,127.09024200439453,-73.11250411987305,32.91009696960449,-0.9696489000320436,0.1737394216656684,0.3148996251821517,37.4740121459961,70.41872604370117,-113.39065765380856,257.0784557420109,0.9131084779078922,150.26790194170806,1.0341983126624856,27.1567652130127,78.74213156700134,22.65234344482424
4481.308,-16.979586973190308,-254.4157781982422,21.902895393371583,-0.155182158537209,0.1077507603168486,0.8288884687423705,10.07430591583252,-13.407098846435549,-136.53118286132812,124.016298828125,-79.50064208984375,30.460008392333982,-0.945215117931366,0.2109327843785285,0.3304465788602829,38.63381698608399,68.7763427734375,-114.77381774902342,255.92075218045585,0.8501457653198058,150.4267482164834,1.0232884247230347,28.559511070251475,82.18344161987305,21.757365112304697
4501.378,-20.214525108337405,-251.7568896484375,19.78579040527344,-0.0691897736489772,0.1010463914275168,0.780536437034607,9.818398818969726,-18.432417726516725,-137.0431262207031,115.9915069580078,-83.9268258666992,28.55802551269532,-0.9188892483711244,0.2471238049864768,0.3375332498550414,39.43998016357422,67.0880012512207,-116.38252227783202,253.3409481563779,0.7900852659914616,145.99076206264758,1.0096317747182633,29.621581344604493,85.52041897773742,20.660603942871077
4511.29,-22.828342514038088,-247.6518957519532,17.000753746032714,0.0128277467563748,0.0925554791092871,0.725389404296875,9.56931327819824,-23.366779270172124,-137.59310974121095,104.4917720031738,-85.32309204101561,27.032720947265624,-0.8956041836738586,0.2739137816429138,0.3413368201255798,39.97986999511719,65.40306823730468,-118.05539581298828,249.28221019440545,0.7313828379625615,137.58389605479127,0.9968181571186808,30.41055671691895,88.76984750747681,19.537713928222672
4534.339,-24.78967655181885,-241.94066894531247,13.904743919372558,0.0938103772699832,0.0866309988498686,0.6733033466339112,9.346055641174315,-28.175116157531743,-138.19018798828125,91.9461521911621,-84.43613983154297,25.907519607543943,-0.8806241846084595,0.2898410904407501,0.3411583995819091,40.33833877563477,63.75902740478516,-119.6831735229492,243.604509926874,0.6853048324896647,127.49414176591604,0.9878744180463864,30.99228313446045,91.9341435623169,18.50701446533205
4551.45,-26.704427032470704,-234.64288513183592,10.552599143981933,0.1691928235813975,0.083618949651718,0.6213773012161254,9.16023078918457,-32.823445091247564,-138.8478875732422,80.82564575195312,-81.64863357543945,24.78677047729492,-0.8723212790489197,0.2962514436244964,0.3376397776603698,40.59369338989258,62.18888565063477,-121.2104849243164,236.3932471853164,0.6494059522047345,117.53156327834108,0.981177838717164,31.43346260070801,95.01233074188232,17.637402648925786
4574.54,-29.05959777832032,-226.0408996582032,7.13596866607666,0.2375350881367921,0.0819364175200461,0.5699308896064759,9.014895401000976,-37.28498504638672,-139.5782293701172,71.45548034667968,-76.59673950195312,23.302656021118164,-0.8640590167045593,0.2990531086921691,0.3254081797599792,40.81914016723633,60.73325988769532,-122.59261260986328,228.0128737377143,0.622862515760743,107.31244080507788,0.9705262642616136,31.80424476623535,98.01824493408205,16.985616760253933
4596.8910000000005,-31.347823181152343,-216.4006103515625,3.525958213806151,0.2995024624839425,0.07806544393301,0.5220684289932251,8.92773754119873,-41.53990394592286,-140.39955322265627,62.75279491424559,-70.1468846130371,21.70725433349609,-0.8543989872932434,0.3020688754320145,0.3136269652843474,41.038045959472655,59.4120736694336,-123.8131964111328,218.6877741439861,0.606919585383317,96.5903907289084,0.9589604310637384,32.110308418273924,100.95197761535647,16.586356811523473
4611.403,-33.17693420410156,-205.7534887695313,-0.1891502761840833,0.356635217666626,0.0765773010253905,0.4800829887390135,8.932127723693847,-45.57204742431641,-141.33575561523438,54.67231227874754,-62.68567611694336,20.14174858093261,-0.8458552575111389,0.3100809943675994,0.2996281373500823,41.27115020751953,58.235163574218745,-124.85802032470704,208.411235018278,0.6029365120715768,85.58180738942542,0.9494200126493616,32.33902248382569,103.80721099853515,16.477735290527335
4633.683999999999,-34.65483787536621,-194.2544348144531,-4.0748891830444345,0.4077298665046692,0.0770509946346282,0.4353400111198425,9.065574569702148,-49.368808288574215,-142.41865783691406,47.24069499969481,-54.00558616638184,18.33965379714966,-0.8352861857414245,0.3189227229356766,0.2823878812789916,41.535883026123045,57.21811614990234,-125.71640014648438,197.36349195103085,0.6014161829348504,74.05828449692842,0.9376340601686788,32.470308456420895,106.58692443847656,16.70225769042969
4656.2970000000005,-35.617827606201175,-182.09641540527343,-7.905234527587891,0.456145462989807,0.0743255800008772,0.3942240452766418,9.355965766906738,-52.92048690795898,-143.6688055419922,38.73455608367919,-44.48352425575256,15.95246367931366,-0.8237518620491027,0.3242516672611236,0.2673614650964736,41.79616836547852,56.37583984375,-126.39783477783205,185.7154459913637,0.6074582892042317,61.1034439508252,0.9247639844682076,32.44020259857179,109.29632675170899,17.270970764160168
4679.728,-34.81563919067383,-168.97542236328127,-11.43200408935547,0.5048949038982392,0.072603527009487,0.3586580079793929,9.85369468688965,-56.20959655761719,-145.1014434814453,29.28003164291381,-34.59015771865845,12.962227296829225,-0.8191177821159362,0.3232451206445693,0.2594204103946685,42.010938262939455,55.718659515380864,-126.92199798583984,172.9031891336985,0.6235589008300465,47.13617082990901,0.9180088770422598,32.15724357604981,111.92825607299805,18.179445495605464
4700.872,-32.80039985656738,-154.84910217285156,-14.31149112701416,0.55044877409935,0.0748249521851538,0.324010853767395,10.593345909118652,-59.21673492431641,-146.72414123535157,20.994062004089344,-24.04989382743836,8.93498640537262,-0.8190340065956117,0.3201419842243195,0.2518496119976043,42.182726898193366,55.26696960449218,-127.30621704101564,158.93058060916889,0.6430984836990864,33.150897644057835,0.9147326500603816,31.589380989074712,114.4837045288086,19.417924194335924
4721.062,-30.29907211303712,-139.93627471923827,-16.284488830566406,0.5941298055648805,0.0796107625961302,0.2903709000349044,11.576993865966797,-61.92497131347657,-148.52566772460938,13.986221876144402,-12.911331977844238,4.030354309082031,-0.8195866227149964,0.314769276380539,0.2461511087417602,42.32225921630859,55.042819824218746,-127.55948760986328,144.1019754537806,0.6660655815824599,19.45663515789869,0.9118071604354178,30.74526535034179,116.96779113769531,20.966180114746095
4731.178,-27.25460624694824,-124.39083236694334,-17.284033546447752,0.6383123886585236,0.0843762314319609,0.2609847682714462,12.779183387756348,-64.31940658569336,-150.46370910644532,7.783755016326895,-2.03102650642395,-1.4196844720840454,-0.8211617279052735,0.3092695879936218,0.2436949515342711,42.42672378540039,55.051038665771486,-127.69743957519532,128.50926252318126,0.6947482300915278,8.168685011938416,0.9106818823482818,29.647540397644043,119.37044525146484,22.766269531250003
4753.683,-23.60449741363525,-108.31539718627928,-17.466360130310058,0.681506793498993,0.0935913237929343,0.2319974273443222,14.16610263824463,-66.38773468017578,-152.4876843261719,3.624277772903432,7.812103843688964,-6.911067085266113,-0.825825138092041,0.3084202527999878,0.244070529937744,42.52429077148438,55.2801008605957,-127.73718872070312,112.22509212281108,0.7259708339657848,11.042065209768976,0.9147024842133306,28.35818813323975,121.66783554077148,24.75049560546877
4773.7480000000005,-20.077109184265133,-92.08154090881348,-16.967627754211428,0.7207242083549499,0.1059368005394934,0.2036541295051574,15.675255241394044,-68.12756134033204,-154.53538513183597,2.6751342010497936,15.916818056106568,-11.916550192832943,-0.8288683724403381,0.3144818484783173,0.246651736497879,42.663984375,55.69904846191408,-127.6986993408203,95.76012155873592,0.7564000229256455,20.062542424207688,0.9201949200966356,26.988729133605954,123.82660980224611,26.836685791015668
4796.437,-17.2069416809082,-76.06334403991698,-16.040479812622074,0.7595008206367493,0.1160516807436942,0.1795970630645751,17.218435020446776,-69.54573440551758,-156.53057067871094,4.028414754867542,22.07367734909058,-15.866665639877317,-0.830637755393982,0.3204556393623352,0.2508419775962829,42.88197204589843,56.266570281982425,-127.59785919189451,79.61788832394443,0.7890276257601839,27.481383438186885,0.92497167265246,25.663537025451653,125.8123046875,28.93271148681643
4815.994,-14.666971702575683,-60.31102360725403,-14.827048225402834,0.7977585864067077,0.1238036403059958,0.1580028176307677,18.698536567687988,-70.65115783691405,-158.38172241210938,6.834704513549793,26.012758474349976,-18.79191994190216,-0.8312416505813598,0.3248721635341644,0.2547435724735259,43.18774887084961,56.93433624267578,-127.4653204345703,63.81520968043065,0.8226244549719554,32.81025821805223,0.928115775114919,24.489212303161622,127.58549407958984,30.91640197753908
4839.384,-12.100397062301637,-45.08343328475952,-13.512478752136232,0.8334954547882079,0.1308608302474021,0.1412879595160483,20.042428855895995,-71.46004852294922,-160.02056945800783,10.306937341690054,28.06071243286133,-20.366135559082032,-0.8323342299461365,0.3345523011684417,0.2635106074810028,43.59031494140625,57.65462982177735,-127.31369232177732,48.595500283808725,0.8554539833035143,36.17203363395773,0.934956337382733,23.547886085510253,129.11467834472657,32.7068771362305
4861.101,-9.638859428167343,-30.713481130599973,-12.167752456665042,0.8672952485084535,0.1345723521709441,0.1319260999560355,21.188439483642576,-71.99651428222656,-161.39033081054689,13.724938449859607,28.38387878417969,-20.351119995117188,-0.8359109878540039,0.344510326385498,0.2736976116895675,44.08510025024414,58.37601638793946,-127.14454803466796,34.413365631428285,0.8875332455202851,37.525812387516666,0.944640104614383,22.896660766601563,130.37253067016601,34.24578277587892
4871.156,-7.717766292095185,-17.294367370605467,-10.80478105545044,0.9015656042099,0.1354426410794257,0.1265973553061484,22.07393112182617,-72.28497924804688,-162.4400604248047,15.396227934360493,27.656228523254395,-19.40980388641357,-0.8420166444778442,0.3483921933174133,0.2838690900802612,44.62647201538086,59.06954681396485,-126.96634368896484,21.80372337343061,0.9204304091496778,37.130193881075925,0.9544374312888412,22.552540893554692,131.35452606201173,35.47371673583986
4900.953,-5.608536225557328,-4.700683298110961,-9.285574979782108,0.9324579739570618,0.1354944050312042,0.1237564662098883,22.66001602172852,-72.3464013671875,-163.12871337890624,14.595918927192676,25.56910566329956,-18.1176933670044,-0.8510422945022583,0.3530222129821777,0.2978074312210083,45.134620971679695,59.70834518432618,-126.81054077148436,11.82260566743574,0.9503432379512298,34.56979645139604,0.9682907290586636,22.474604949951175,132.0547465515137,36.318172607421886
4921.438,-3.0885042333602906,6.864702377319335,-7.719040055274964,0.9576558279991148,0.1332485577464103,0.1250934734940528,22.948997955322262,-72.20436828613282,-163.45296508789062,11.960823937654483,22.04480724334717,-16.317472076416017,-0.8626247954368592,0.3609484577178954,0.3143368387222289,45.54694366455078,60.263405914306645,-126.70340423583984,10.781770564410907,0.9749401213166764,29.921476077033983,0.9865155726136792,22.59794570922852,132.46777420043946,36.74956085205078
4931.751,-0.526864060163498,17.553819665908815,-6.062101259231569,0.9761235189437866,0.1316772186756133,0.129616678059101,22.954079513549807,-71.87794921874999,-163.42350524902344,8.698150765895832,17.14780309677124,-14.407040748596192,-0.8768842148780822,0.363407711982727,0.3275549662113189,45.81281860351562,60.71511123657226,-126.68439697265624,18.57856943573202,0.9934568422354454,24.026398001440057,1.0041331322691078,22.858739089965816,132.59306045532225,36.73910827636719
4952.05,1.8220247316360472,27.70219263076782,-4.270210776329042,0.9862386751174924,0.1311104503273963,0.135812145769596,22.68839408874512,-71.37844085693361,-163.05740295410158,5.3596497786044965,11.367835388183597,-12.978459510803225,-0.8874078893661499,0.3615051817893981,0.3383131372928619,45.891605682373054,61.06062896728516,-126.79814971923828,28.088537711122253,1.0041422276854517,18.06637590762722,1.0161862710324372,23.203211593627934,132.43906982421876,36.259253234863294
