Timestamp (ms),Wrist Gyroscope X (deg/s),Wrist Gyroscope Y (deg/s),Wrist Gyroscope Z (deg/s),Wrist Accelerometer X (g),Wrist Accelerometer Y (g),Wrist Accelerometer Z (g),Wrist Roll (deg),Wrist Pitch (deg),Wrist Yaw (deg),Arm Gyroscope X (deg/s),Arm Gyroscope Y (deg/s),Arm Gyroscope Z (deg/s),Arm Accelerometer X (g),Arm Accelerometer Y (g),Arm Accelerometer Z (g),Arm Roll (deg),Arm Pitch (deg),Arm Yaw (deg),Wrist Gyroscope Magnitude (deg/s),Wrist Accelerometer Magnitude (g),Arm Gyroscope Magnitude (deg/s),Arm Accelerometer Magnitude (g),Difference Roll (deg),Difference Pitch (deg),Difference Yaw (deg)
0.0,1.17556,7.880893,8.549607,-0.954836,-0.2031,0.19867,-43.530308,74.22924,-167.846558,-3.892805,9.609423,9.890302,-0.972905,-0.148959,0.111848,-45.152718,79.20311,36.174911,11.687009696474886,0.9962083947628628,14.328747845229117,0.990577052939346,-1.622410000000002,4.973869999999991,204.021469
19.984,-0.6598945,7.1928445,8.442795499999999,-0.9604715,-0.204267,0.213623,-43.490866,74.324558,-167.773819,-4.456602500000001,9.5075675,9.994704,-0.980639,-0.1451925,0.1126075,-45.209698,79.3442115,36.170452,11.110952641746374,1.0049205419983462,14.496525571932004,0.9977044449302108,-1.718831999999999,5.019653499999997,203.944271
39.969,-0.9500246666666669,6.548388666666667,8.562582666666666,-0.9585353333333334,-0.2085133333333333,0.216767,-43.42440933333334,74.413953,-167.67714433333333,-4.771833,9.342953666666666,9.885982333333333,-0.979493,-0.1514883333333333,0.118323,-45.275527,79.47489933333334,36.15961566666667,10.82135679665466,1.004617204568597,14.415055327411958,0.9981761290043512,-1.8511176666666649,5.060946333333334,203.83676
59.954,-0.33202,6.01182875,8.750325499999999,-0.95800625,-0.203973,0.21960175,-43.3054325,74.502035,-167.54380425,-4.4318315,9.51723725,9.99650525,-0.9778615,-0.152522,0.11849075,-45.34331725,79.610176,36.13744925,10.6217003608498,1.0037957403631106,14.496518634846693,0.9967527935761266,-2.03788475,5.108141,203.6812535
79.938,-0.0978247999999999,5.3466498,8.829929199999999,-0.955869,-0.2032044,0.2219568,-43.1542596,74.582353,-167.3817018,-3.767299,9.854875,10.183862,-0.9754524,-0.147393,0.1205704,-45.3945054,79.7531616,36.1185982,10.322978419639735,1.002118952224036,14.6636335284291,0.9938658372591946,-2.2402457999999994,5.170808599999998,203.5003
99.923,0.7584278,4.2300534,8.931375599999999,-0.9570624,-0.1998528,0.2267809999999999,-42.8544388,74.74505,-167.0713716,-3.6125502,10.2041772,10.1798232,-0.9779566,-0.1462354,0.1271171999999999,-45.5233468,80.0340178,36.0654,9.91151020798242,1.0036628921717692,14.859493654219117,0.996966742791634,-2.668907999999999,5.2889678,203.1367716
119.907,2.4476532,3.4392492000000003,9.0444344,-0.9538879999999998,-0.1933006,0.2260106,-42.4631614,74.8977936,-166.7008242,-3.183907,10.354523599999998,10.2859172,-0.9770268,-0.1424172,0.1338804,-45.623623,80.3146072,36.031806200000005,9.981043776232736,0.999173773583314,14.938323714957503,0.996387468948822,-3.160461599999999,5.4168136,202.7326304
139.891,3.741937,3.1084904,8.999969400000001,-0.9537842,-0.1861267999999999,0.2257216,-42.017936000000006,75.0457672,-166.3021274,-2.4248202,10.0996672,10.391501600000002,-0.9791808,-0.1335104,0.1384886,-45.6439026,80.59246200000001,36.0630394,10.23055493508527,0.9976460928377556,14.6923904132679,0.9978973686340494,-3.625966600000001,5.5466948,202.3651668
159.876,4.2189318,3.1265664,8.7102658,-0.9571118,-0.1823881999999999,0.2239454,-41.5735282,75.190715,-165.9141482,-2.069231,9.6775552,10.1497116,-0.982505,-0.1259156,0.1423594,-45.61202780000001,80.8601332,36.1391822,10.170719408837796,0.9997399638804284,14.175804638311808,1.0007182481181804,-4.0384996,5.669418199999998,202.0533304
179.861,5.2923892,3.52138,8.3942848,-0.9605748,-0.176467,0.216187,-41.1439674,75.34128580000001,-165.564322,-2.1294906,9.4919776,9.7966846,-0.9869168,-0.1246054,0.1386959999999999,-45.6035936,81.1200666,36.1930868,10.529649464829664,1.000290641490282,13.806063817260418,1.0043743606083342,-4.459626200000001,5.778780799999998,201.7574088
199.845,5.1190444,3.9286572,8.0399086,-0.961712,-0.1690054,0.2069386,-40.7563248,75.4979644,-165.2549592,-1.281116,9.4943672,9.8727848,-0.9847004,-0.112617,0.1282504,-45.5712372,81.3876066,36.2543654,10.309175197882572,0.9981364537692832,13.757039886581811,0.9993826251988376,-4.814912400000002,5.8896422,201.5093246
219.829,4.2205388,3.9083244,7.556764599999999,-0.967705,-0.1628021999999999,0.1979952,-40.4129112,75.6527678,-164.97290360000002,-1.1572744,10.9992466,9.660877199999998,-0.9828528,-0.1023261999999999,0.1128271999999999,-45.7280838,81.6810194,36.1230468,9.496980498966709,1.00107922891891,14.685205414906076,0.9945854687929642,-5.315172600000002,6.028251599999999,201.0959504
239.814,3.8625596,3.183254,7.289846799999999,-0.9710384,-0.1595348,0.1888188,-40.0604896,75.796498,-164.6725678,-1.5001874000000002,13.3629408,9.6025114,-0.9806778,-0.0941862,0.0919004,-46.197956,82.0150542,35.6843476,8.842756304430106,1.0020077174947506,16.523527899530215,0.9894673674272636,-6.137466400000003,6.218556199999997,200.3569154
259.798,4.393066,1.8263628,7.3668736,-0.9724878,-0.1576414,0.1814562,-39.6285682,75.9222092,-164.299524,-2.0233846,16.6463402,9.6511466,-0.9760042,-0.0920298,0.0726282,-47.1413534,82.3986572,34.7809734,8.769575622340957,1.0017533052908985,19.347851508328898,0.9830201106492784,-7.5127852000000015,6.476448000000002,199.0804974
279.784,4.7934044,-0.2479399999999998,7.920850200000001,-0.9720866,-0.1486791999999999,0.1851214,-39.0255942,76.0217026,-163.75934460000002,-2.3411054,20.6323892,9.6085982,-0.9700202,-0.0855881999999999,0.0565286,-48.728198,82.8360734,33.238244,9.261644987602333,1.0006636773412732,22.880153364067056,0.9754281167801344,-9.702603800000002,6.814370800000003,196.9975886
299.768,4.8128942,-2.8809664,8.571287,-0.9721776,-0.1421794,0.1898938,-38.2310164,76.0851746,-163.02219540000002,-3.3132460000000004,25.0908638,9.4400904,-0.9716568,-0.0770818,0.0507568,-51.133734,83.3234544,30.8932282,10.243577442216738,1.0007017153000988,27.0119298097496,0.9760301192195456,-12.9027176,7.238279800000001,193.9154236
319.752,6.3456602,-5.2253722,9.3408558,-0.9704962,-0.1377726,0.192567,-37.2332092,76.1176254,-162.1073516,-4.3164246,28.116724,9.4618428,-0.9779336,-0.0706916,0.0521125999999999,-54.3120832,83.8338562,27.7934552,12.442809372436376,0.9989625683749116,29.978461584804062,0.9818692129801606,-17.078874000000003,7.7162308,189.9008068
339.737,7.888203,-6.8649686,9.6282764,-0.9685994,-0.1240565999999999,0.2053746,-36.0705742,76.1220566,-161.0579986,-4.6073708,30.2821772,9.741905400000002,-0.9820088,-0.0630565999999999,0.0575913999999999,-58.22200680000001,84.35433040000001,23.966252,14.214613849239518,0.9978745231786808,32.14253945293436,0.9857150640194964,-22.1514326,8.232273799999998,185.0242506
359.721,9.0137018,-8.1754986,9.8525958,-0.9606242,-0.1092879999999999,0.2210333999999999,-34.771084,76.0996398,-159.893457,-3.6565998,31.170491,10.042461,-0.9834672,-0.0517959999999999,0.0595034,-62.810463600000006,84.864601,19.4398922,15.657561799210718,0.991765337408603,32.95180198737183,0.9866261772846898,-28.0393796,8.764961199999997,179.3333492
379.706,9.6892576,-8.9975604,9.606061,-0.9609164,-0.1024924,0.2260905999999999,-33.434487,76.0548492,-158.7038392,-3.0063788,30.731795,10.3018932,-0.9867638,-0.0348558,0.0620531999999999,-68.0158058,85.344296,14.2819544,16.343629154093254,0.9924625833023026,32.55165957236775,0.9893272074568252,-34.5813188,9.2894468,172.9857936
399.69,11.838024,-10.2669852,9.3898774,-0.9682148,-0.0963449999999999,0.2326028,-32.021561199999994,75.97917779999999,-157.4782412,-3.7388906,30.1979046,10.283818,-0.9828198,-0.0261718,0.0374826,-74.30616599999999,85.77219219999999,8.049170799999999,18.26799372970732,1.0004130749504827,32.1193035074952,0.9838824460727208,-42.2846048,9.7930144,165.527412
419.675,12.4267384,-13.7696076,9.841603,-0.9807278,-0.0901834,0.239524,-30.446684800000003,75.8393616,-156.09424159999998,-5.1086258,31.6152378,10.3940182,-0.966161,-0.0227899999999999,-0.0217227999999999,-82.2646424,86.1225142,0.1635480000000001,20.997215775659907,1.0135737811843792,33.66982229024836,0.9666738550622128,-51.8179576,10.283152600000005,156.25778960000002
439.659,9.399605,-20.1530816,11.5891838,-1.0002296000000002,-0.1071003999999999,0.2285336,-28.6839654,75.59784699999999,-154.4432528,-7.905489200000001,35.7253262,9.4370286,-0.9537504,-0.0413131999999999,-0.0863317999999999,-92.4196732,86.3261,-9.8829488,25.07605338330707,1.031580028269877,37.78694484057875,0.9585404455137196,-63.7357078,10.728253000000004,144.560304
459.644,6.3259110000000005,-28.2256938,13.674673000000002,-1.034666,-0.1179505999999999,0.2447416,-26.6749962,75.2139908,-152.46309219999998,-11.1815606,41.7730556,7.970625,-0.972552,-0.0492895999999999,-0.1329024,-104.3673448,86.3079238,-21.6747832,31.99536876062235,1.0697404013904122,43.972108597414206,0.9828275053629298,-77.6923486,11.093933000000003,130.788309
479.628,2.7527167999999995,-37.132910800000005,16.083895000000002,-1.0541376,-0.09428,0.28127,-24.3982234,74.6671294,-150.12204300000002,-13.577242000000002,46.4976852,6.5487232,-1.0067628,-0.0513101999999999,-0.1407964,-116.835106,86.07267,-33.9479166,40.56010592482205,1.0950833808590832,48.88007779080432,1.0178544583293034,-92.4368826,11.405540600000004,116.1741264
499.613,-4.1440832,-45.4717666,17.850986799999998,-1.0637332000000002,-0.0817751999999999,0.3366072,-22.0697658,73.9557312,-147.56954960000002,-16.5395646,48.9691206,5.1394696,-1.0395474,-0.050993,-0.1280334,-128.5984574,85.6463454,-45.458474,49.02563322413258,1.118713507207775,51.941756971287,1.0486427582410132,-106.5286916,11.690614200000002,102.1110756
519.597,-9.8693722,-52.6040442,18.8417982,-1.072468,-0.0913958,0.3874894,-19.8178906,73.0801132,-144.961621,-18.7940958,48.0011992,2.6890012,-1.0716236,-0.0665404,-0.1091243999999999,-138.4158494,85.05994100000001,-54.9676766,56.741548562118126,1.143979387224263,51.61941387725416,1.079218652352006,-118.5979588,11.979827800000006,89.9939444
539.582,-12.2599286,-59.2533888,19.206856800000004,-1.0855304,-0.0742472,0.4388276,-17.65544,72.046225,-142.3835602,-17.8863536,44.763208,0.0417317999999998,-1.0876828,-0.066632,-0.109442,-145.450339,84.3716048,-61.6920534,63.48364578138821,1.1732257065687577,48.20444146651455,1.095203747347424,-127.79489900000002,12.325379800000004,80.6915068
559.566,-15.608501999999998,-65.9223944,18.4785706,-1.0838582,-0.071884,0.4651212,-15.7502212,70.85482479999999,-139.98363039999998,-16.970844800000002,39.38156059999999,-2.7117494,-1.0915222,-0.0485222,-0.1147356,-149.83038040000002,83.67973620000001,-65.7597924,70.21997571583417,1.1816317691449738,42.96824959578362,1.098607925919452,-134.0801592,12.8249114,74.223838
579.554,-18.3504734,-73.3954864,17.437512599999998,-1.0908226,-0.0939359999999999,0.4998472,-14.1284176,69.4837876,-137.8053772,-19.9241332,34.744874,-5.9557482,-1.0771284,-0.0612318,-0.1501933999999999,-152.5103028,82.99679239999999,-68.0551606,77.63829044725193,1.2035635172746806,40.49257079599938,1.0892717662830336,-138.3818852,13.5130048,69.7502166
599.535,-18.5643974,-82.882222,17.0325626,-1.1009254,-0.1161842,0.5126622000000001,-12.6672804,67.90500039999999,-135.7697662,-20.6384818,31.4622692,-9.2530214,-1.0518595999999998,-0.0837078,-0.2015418,-154.03884599999998,82.3064772,-69.1755998,86.62683050421116,1.2199828015196117,38.74841569988453,1.0742600760710783,-141.3715656,14.401476799999998,66.59416639999999
619.52,-20.7146866,-93.6107468,16.825923600000003,-1.1096516,-0.1105389999999999,0.5339238,-11.38582,66.109633,-133.8624146,-18.0802894,30.132648800000005,-13.2601754,-1.0363289999999998,-0.0929402,-0.2281688,-154.7303956,81.5933744,-69.5025072,97.3405458294896,1.2363737978904277,37.55936155115871,1.065212034437501,-143.3445756,15.483741399999996,64.35990740000001
639.504,-23.7617916,-104.4135346,15.551412199999998,-1.1015694000000005,-0.1136976,0.5773292000000001,-10.3561738,64.0829156,-132.1412566,-15.025567999999998,29.1577242,-16.350091,-1.0327362,-0.0923779999999999,-0.2248116,-154.8453308,80.8740736,-69.30848399999999,108.20654032507248,1.2488760116339654,36.65059412825624,1.0609514640967324,-144.489157,16.791157999999996,62.8327726
659.489,-26.6224872,-115.2914658,14.639442,-1.0955548,-0.1006054,0.6216138000000001,-9.525246999999998,61.8316224,-130.569815,-13.3191616,28.925956000000003,-19.3319526,-1.0223288,-0.1068973999999999,-0.2265191999999999,-154.5452362,80.1355544,-68.7288712,119.22748077980218,1.2636318620004166,37.25366274031988,1.05256552166829,-145.0199892,18.303932,61.840943800000005
679.473,-29.1695922,-125.9370728,13.4580542,-1.0916536,-0.1026022,0.6405936,-8.9036482,59.373542,-129.1520644,-10.22022,29.5292838,-22.2255132,-1.0115556,-0.1097022,-0.2369472,-153.9943574,79.3614364,-67.9559662,129.96972969656028,1.2698798975488823,38.34585943218273,1.0447120561016037,-145.09070920000002,19.9878944,61.19609820000001
699.458,-31.991358400000003,-135.4648422,11.4727128,-1.0791004,-0.0866494,0.678039,-8.4878954,56.724742000000006,-127.895752,-4.2097702,30.9519636,-24.6898364,-1.0174726,-0.1202456,-0.2382772,-153.219275,78.5450698,-67.0766586,139.66314339703024,1.2773811793358785,39.81625594265862,1.05189615462267,-144.7313796,21.8203278,60.8190934
719.442,-32.3844182,-143.9448166,8.636146,-1.0545726,-0.0863189999999999,0.7234032,-8.2452224,53.901021400000005,-126.8104844,3.0389768000000004,33.174552,-24.4679958,-1.0251528,-0.1078812,-0.2261964,-152.5247376,77.7083466,-66.426004,147.7952766021074,1.2817513519407733,41.33363157116079,1.0553394847319226,-144.27951520000002,23.8073252,60.3844804
739.427,-31.001183000000005,-151.3338074,6.123968200000001,-1.0294158,-0.0750768,0.7486886,-8.1024708,50.935574,-125.8607882,7.015296000000001,35.435697,-24.352279600000003,-1.0307312,-0.1068306,-0.2315292,-151.937848,76.8391602,-65.9657028,154.5978576698086,1.275095304264681,43.56531328430912,1.061802879164697,-143.83537719999998,25.9035862,59.89508539999999
759.411,-29.504925000000004,-158.044513,3.6396062,-0.9948334,-0.0825352,0.7676223999999999,-8.053907200000001,47.842837200000005,-125.0306032,13.985568999999998,37.8025222,-23.833891200000004,-1.004742,-0.1325445999999999,-0.2457664,-151.37500619999997,75.9238922,-65.6742828,160.81621629037872,1.259265540692812,46.82607387629985,1.0428210205601534,-143.32109899999998,28.081055000000003,59.3563204
779.397,-29.178261,-164.4603516,1.4292436000000002,-0.9470638,-0.0820642,0.7991718,-8.0938492,44.6231344,-124.2938356,24.0417348,42.0960968,-23.3132052,-0.9818832,-0.1652988,-0.2557734,-150.8220184,74.9300644,-65.6028854,167.0347894920333,1.2419097954792528,53.79211758878626,1.0280264315041905,-142.7281692,30.30693,58.6909502
799.38,-27.1423842,-170.73118300000002,-0.2523691999999999,-0.8917909999999999,-0.091976,0.8257348,-8.169574200000001,41.2810674,-123.6205842,35.1327422,47.5071328,-23.1737506,-0.962974,-0.1679678,-0.2506031999999999,-150.28855280000002,73.8522126,-65.7824782,172.8754162940845,1.2188472965011,63.46857457229914,1.0091253987305442,-142.1189786,32.571145200000004,57.838106
819.365,-24.776170200000003,-176.4663698,-2.083066,-0.8346482,-0.0781494,0.8331182,-8.2504924,37.8338106,-122.9978912,42.5051184,51.571888,-23.8834098,-0.9524544,-0.1554982,-0.2550684,-149.722647,72.70297860000001,-66.08334500000001,178.20936407532034,1.1818760009640774,70.97014855386242,0.9982028666364168,-141.4721546,34.869168,56.9145462
839.349,-24.0066248,-181.7159334,-4.8251824,-0.7662332000000001,-0.0785414,0.8582243999999999,-8.3780778,34.27754879999999,-122.44178,47.6636596,51.75817119999999,-22.9645552,-0.9464776,-0.1291159999999999,-0.2352378,-149.1163084,71.5635178,-66.4524368,183.3583400636973,1.153183068316371,74.01421166213302,0.9837822987361584,-140.7382306,37.285969,55.98934320000001
859.334,-22.9485956,-186.656006,-8.2443158,-0.6973464,-0.0683886,0.8820285999999999,-8.5389514,30.6165942,-121.955191,45.7043376,47.7423386,-20.6069484,-0.960856,-0.1162054,-0.2173356,-148.5740354,70.54364480000001,-66.84778,188.2420552344627,1.1264739026807855,69.23051128521358,0.9919590267508632,-140.035084,39.92705060000001,55.107411
879.329,-21.2776542,-190.9468752,-11.937498,-0.625958,-0.077543,0.895974,-8.7307434,26.863480599999995,-121.5445174,41.05034139999999,37.6022342,-19.1648166,-0.9804186,-0.0947962,-0.1895834,-147.949127,69.729181,-67.053325,192.49922486960605,1.0957215628475148,58.87570586583093,1.0030696966392514,-139.21838359999998,42.8657004,54.4911924
899.303,-19.295985,-194.287607,-15.5715794,-0.5525583999999999,-0.087753,0.9060012,-8.942515,23.0369808,-121.2049758,30.635369999999995,23.9598198,-18.6803626,-0.9981753999999998,-0.1012678,-0.1776696,-147.17374239999998,69.16231400000001,-66.87778180000001,195.8634303690129,1.0648284128539207,43.14573914945543,1.01890911432088,-138.2312274,46.1253332,54.327194
919.287,-19.5219384,-197.3440492,-18.385072200000003,-0.4789826,-0.0846916,0.920374,-9.2057352,19.1329212,-120.9144256,19.9158216,7.904330799999999,-20.6097652,-1.0120984,-0.1143397999999999,-0.1660887999999999,-146.0752928,68.83325959999999,-66.12862020000001,199.1577031232903,1.0410020644020452,29.73013314800299,1.0319894624617247,-136.86955759999998,49.70033840000001,54.7858054
939.272,-21.309504800000003,-200.1826082,-20.4322684,-0.4110838,-0.092996,0.9194122,-9.5328204,15.1700334,-120.6460678,6.4647533999999975,-7.278014799999999,-25.808413,-1.014737,-0.1310864,-0.1531482,-144.6052612,68.68323519999998,-64.69154660000001,202.34784212475697,1.011413337932262,27.583268797051588,1.0345671532564715,-135.0724408,53.5132018,55.9545212
959.257,-22.7524316,-201.8205842,-21.9454688,-0.340437,-0.1077602,0.918892,-9.9119684,11.173075,-120.3860076,-4.758568600000002,-19.0659878,-32.0265666,-1.0138884,-0.1423348,-0.150336,-142.7580934,68.6328536,-62.608827000000005,204.28123984202205,0.9858357466317804,37.574683419756056,1.0348090625045765,-132.84612499999997,57.45977860000001,57.7771806
979.241,-24.441129,-202.8807006,-23.6023666,-0.2742342,-0.0967842,0.9211586,-10.3402184,7.145468000000001,-120.13065939999998,-11.909570000000002,-27.3451912,-36.8491276,-1.0167564,-0.164365,-0.1594118,-140.5939424,68.6318296,-60.03378740000001,205.70614762778067,0.9659734697046498,47.40733639670699,1.0422195316463805,-130.25372399999998,61.4863616,60.096872
999.226,-30.756964600000003,-203.4608366,-26.0482372,-0.2090599999999999,-0.0937485999999999,0.9114904,-10.9066128,3.1032169999999994,-119.8891188,-17.455924000000003,-33.6780302,-39.4541122,-1.0160948,-0.1652818,-0.150716,-138.24273399999998,68.6642286,-57.1375328,207.41459341764025,0.9398455367208592,54.73158110575718,1.0404239658207994,-127.33612119999998,65.5610116,62.751586
1019.21,-36.447361,-202.7354674,-29.0305024,-0.1405332,-0.127291,0.8808855999999998,-11.6101834,-0.9249334,-119.665547,-22.629548,-35.7112898,-38.4829974,-0.9921918,-0.2017448,-0.1524738,-135.948099,68.7078612,-54.1936278,208.0212727952533,0.9010616068119868,57.169342752495375,1.0239110273850556,-124.3379156,69.6327946,65.4719192
1039.195,-41.9346402,-200.6978178,-31.9886854,-0.0717608,-0.1541383999999999,0.8697592000000001,-12.4479868,-4.9225358,-119.454521,-20.520447200000003,-34.8940844,-36.2882304,-0.9776632,-0.2559026,-0.1639156,-133.6878724,68.7313948,-51.3375258,207.5124191753487,0.8862219387692003,54.36470863497564,1.023806523345285,-121.2398856,73.6539306,68.11699519999999
1059.179,-45.9040696,-198.383093,-34.2368242,-0.0035298,-0.1813338,0.8561501999999999,-13.3951298,-8.8842128,-119.230751,-12.533441600000003,-32.1001936,-35.2352122,-0.9792652,-0.291446,-0.1591472,-131.40347279999995,68.68007200000001,-48.6300232,206.4829177568692,0.8751500279783574,49.28518810227998,1.0340352673457904,-118.008343,77.5642848,70.6007278
1079.164,-50.1135904,-194.7831388,-36.124418000000006,0.068272,-0.2073093999999999,0.8162956000000001,-14.4526282,-12.7804064,-118.9833664,-6.092243200000001,-27.9346914,-32.9577848,-0.9611524,-0.3072598,-0.1522796,-129.2444274,68.56424419999999,-46.1952964,204.3448474500832,0.8449714550750932,43.63115847355295,1.020495760548744,-114.7917992,81.3446506,72.78807
1099.148,-53.980262200000006,-189.9433622,-37.8114366,0.1416518,-0.21439,0.761235,-15.611665399999998,-16.6063866,-118.7145524,2.975425999999999,-23.481941,-30.557403,-0.9401628,-0.315089,-0.1532887999999999,-127.183351,68.3952912,-44.0584768,201.05236703102244,0.8034345211454634,38.652420249104274,1.0033367453802735,-111.5716856,85.0016778,74.65607560000001
1119.133,-58.5806872,-184.329968,-40.2211006,0.2091721999999999,-0.2253212,0.7412062,-16.8779208,-20.3462802,-118.4309038,11.461012799999995,-20.944024,-27.51975,-0.9301512,-0.3122688,-0.1396836,-125.17097600000002,68.2227082,-42.15395959999999,197.5524511343268,0.802439582361638,36.43272698792721,0.991062342349784,-108.2930552,88.5689884,76.2769442
1139.117,-60.5908946,-178.3716734,-43.1783026,0.2834424,-0.2257832,0.6928439999999999,-18.1923186,-24.0081566,-118.1513642,19.0505318,-19.1339998,-21.6153166,-0.931236,-0.300282,-0.1296968,-123.279283,68.1127076,-40.5390068,193.26685229330388,0.7818890303975365,34.58691402723647,0.9870111585743292,-105.0869644,92.1208642,77.61235740000001
1159.102,-62.949357000000006,-171.4010436,-47.0689902,0.3510712,-0.23798,0.6507782,-19.5591164,-27.5719658,-117.8981186,23.7740186,-19.799307,-12.9155576,-0.9131746,-0.2914126,-0.1203168,-121.5211074,68.13827819999999,-39.167128000000005,188.5641247224144,0.7767868005216618,33.526528991118546,0.9660669158428726,-101.961991,95.710244,78.7309906
1179.086,-60.100509,-163.8936066,-51.33182359999999,0.3991252,-0.2557999999999999,0.62417,-20.864706,-31.0187058,-117.6875168,26.5215848,-20.185735,-3.7333298,-0.9144768,-0.2843058,-0.123342,-119.950363,68.31347339999999,-38.0531686,181.95642769772152,0.7837874419605356,33.5379801000207,0.9655624550570928,-99.085657,99.3321792,79.6343482
1199.071,-55.3323526,-156.76929639999997,-55.32209,0.46019,-0.2508112,0.6003366,-22.0558402,-34.3562668,-117.5320496,26.7622678,-23.1137294,3.9436248,-0.9200066,-0.2921726,-0.1039106,-118.4116576,68.6328338,-36.9815668,175.2107735841888,0.7969222844449765,35.581113545510576,0.9708627014293422,-96.3558174,102.9891006,80.5504828
1219.055,-50.1646586,-149.83674019999998,-57.552497800000005,0.5067662,-0.2720796,0.5847446,-23.1416198,-37.574755800000005,-117.3968902,26.4341952,-23.8840782,11.3948478,-0.9181768,-0.288647,-0.1073962,-117.0115874,69.0815932,-36.051473400000006,168.1660836471964,0.8202228583914007,37.40398940916039,0.9684522034884736,-93.8699676,106.656349,81.3454168
1239.04,-41.664638,-143.7093934,-58.4265984,0.5007113999999999,-0.2660576,0.5726104000000001,-24.0595904,-40.6725182,-117.2621688,25.431184,-23.039064,17.9736492,-0.9116374,-0.2748542,-0.1287914,-115.8480848,69.6305466,-35.347458800000005,160.63000719561057,0.8058419341259674,38.73752257440597,0.9608406762051448,-91.7884944,110.3030648,81.91470999999999
1259.025,-37.15839939999999,-137.49594580000002,-60.0703224,0.532432,-0.247292,0.5276428,-24.8557086,-43.6778228,-117.17414239999998,22.854424,-20.7014152,22.6014506,-0.9213672,-0.2483331999999999,-0.1384818,-114.9653394,70.24681559999999,-34.88441400000001,154.57789424961902,0.7893314210645868,38.23217044425816,0.9642427621658975,-90.1096308,113.9246384,82.28972839999999
1279.009,-37.67698299999999,-130.374997,-61.7210388,0.5667714,-0.2448198,0.5006676,-25.611538000000003,-46.570156,-117.1498,20.6781748,-15.7326638,28.4090662,-0.924947,-0.2319398,-0.149362,-114.544351,70.9250108,-34.8606942,149.08615469346375,0.7948802425647276,38.49907356884277,0.9652108736835904,-88.932813,117.4951668,82.28910579999999
1298.993,-34.7034836,-122.7607314,-63.322860000000006,0.5662842,-0.289848,0.484882,-26.238173,-49.3325454,-117.2154738,18.5733618,-7.5016137999999986,36.8440138,-0.9106554,-0.2187581999999999,-0.1845358,-114.8826506,71.6757034,-35.5885812,142.4230091888878,0.7998751228770902,41.93715931071917,0.954568944130302,-88.6444776,121.0082488,81.62689259999999
1318.978,-26.8761678,-115.7826628,-62.786872200000005,0.5863889999999999,-0.2629306,0.4214209999999999,-26.6692436,-51.970893,-117.3277816,16.8060868,-1.1502554,42.7666578,-0.9104402,-0.2237366,-0.198595,-115.8380188,72.4592286,-36.9249162,134.42523840905545,0.768492172359849,45.96471103353816,0.9583315699592704,-89.1687752,124.4301216,80.4028654
1338.962,-28.0747822,-108.2774412,-58.992920000000005,0.6377212,-0.3244002,0.3886313999999999,-27.1755054,-54.44110780000001,-117.3783814,14.2577094,3.0683422,47.6298814,-0.9087142,-0.2433243999999999,-0.194596,-117.290088,73.26989139999999,-38.728547000000006,126.46091205792916,0.8142224412010761,49.81267512761401,0.9606434635872978,-90.1145826,127.71099920000002,78.6498344
1358.947,-21.8580448,-101.617848,-50.5070832,0.6694282,-0.3594664,0.3846463999999999,-27.7432742,-56.7001982,-117.2104186,14.1770288,7.829315199999999,51.41769420000001,-0.9022682,-0.2647826,-0.2078009999999999,-119.2656008,74.0680176,-41.0738664,115.5635176342501,0.8516472630832321,53.90793632612637,0.9630051846148076,-91.5223266,130.7682158,76.13655220000001
1378.932,-3.2519359999999997,-98.5668974,-37.2855296,0.720432,-0.303686,0.3554725999999999,-28.324375,-58.78058,-116.5987258,14.1688834,8.3634488,52.0814614,-0.9093318,-0.2652337999999999,-0.2108862,-121.486809,74.84553220000001,-43.6683008,105.4334817236095,0.8588412091712646,54.61852391078239,0.9704155195091018,-93.162434,133.62611220000002,72.930425
1398.916,11.7292766,-94.3739334,-22.896365600000003,0.7608392,-0.2541373999999999,0.3405272,-29.028207400000003,-60.648049,-115.4946272,13.6034508,8.3411452,48.6455598,-0.9210068,-0.2532702,-0.2130236,-123.8082674,75.53629620000001,-46.347352,97.81747692838844,0.8714475774682261,51.19588914327869,0.9786615216770506,-94.78006,136.1843452,69.1472752
1418.901,11.9318842,-89.0439164,-10.62019,0.7996766,-0.2366246,0.3557818,-30.1090276,-62.2990378,-113.96125320000002,12.690166799999997,7.52899,44.2000054,-0.9352124,-0.2438371999999999,-0.2201184,-126.0993898,76.135988,-48.9699808,90.4653378043132,0.906672242391902,46.59792378627991,0.9912269786664202,-95.9903622,138.4350258,64.9912724
1438.885,17.891659999999998,-84.75005200000001,-5.6630106,0.8327286,-0.1539892,0.3494242,-31.2612028,-63.8193556,-112.220294,12.403920799999998,8.219761600000002,38.1512128,-0.9412226,-0.2236159999999999,-0.2323529999999999,-128.3560502,76.6051606,-51.5448748,86.80295214227462,0.9161041788575358,40.95041843601101,0.9949331710299744,-97.0948474,140.4245162,60.6754192
1458.87,19.9556876,-80.1467394,-6.643396999999998,0.8519030000000001,-0.0903487999999999,0.3277078,-32.358137600000006,-65.26882780000001,-110.499713,9.7310452,7.6380818,31.846571800000003,-0.9465334,-0.1868658,-0.2284402,-130.4669418,76.9747314,-53.9096796,82.86050945860708,0.9172208181519214,34.16486015894825,0.99147830510871,-98.1088042,142.2435592,56.5900334
1478.854,12.9313262,-72.8171648,-13.2876474,0.8571696,-0.1161874,0.3066702,-33.3129192,-66.6550698,-109.09783480000002,7.061743399999999,6.6882304,25.88531,-0.9453972,-0.1614171999999999,-0.2199894,-132.374704,77.25406039999999,-56.00754479999999,75.14066981487385,0.9177613233575274,27.65230405458156,0.983985118960668,-99.06178479999998,143.9091302,53.09029
1498.839,0.0552126000000001,-64.6513734,-19.8572468,0.8858098,-0.1344848,0.2646658,-34.1972122,-67.9727022,-108.0795456,3.9773764,4.2172868,20.6072428,-0.9594412,-0.15707,-0.2137766,-133.93246459999995,77.47805179999999,-57.68214880000001,67.6321919015903,0.9342339904417524,21.4070896386894,0.9954390166479308,-99.7352524,145.45075400000002,50.3973968
1518.823,3.0309772,-55.8783754,-27.6878008,0.9008008,-0.1523526,0.2184708,-34.578653,-69.232863,-107.555214,1.2214541999999984,3.3435992,16.5759332,-0.956349,-0.1482436,-0.2097962,-135.2842956,77.6488906,-59.0882424,62.435518523279086,0.9393523760868656,16.953854058113176,0.9902494737571942,-100.7056426,146.8817536,48.4669716
1538.808,9.523151,-44.783758,-32.3545108,0.921328,-0.1775728,0.1594656,-34.3293542,-70.36045240000001,-107.5698228,-1.8216232000000017,2.7442646,13.0685824,-0.9576142,-0.1428577999999999,-0.2002404,-136.4398772,77.7754744,-60.23113099999999,56.06326564408001,0.9517387564175372,13.477282560782836,0.9887009279122986,-102.110523,148.1359268,47.3386918
1558.792,18.5929878,-32.2372228,-33.616887199999994,0.942731,-0.1938292,0.1234519999999999,-33.4341634,-71.29167340000001,-108.0684358,-4.0142928000000015,1.8862272,10.0503526,-0.9693734,-0.1623838,-0.1923532,-137.337741,77.8645142,-61.0674636,50.15010303284841,0.9703359693619732,10.985535358756009,1.001525356983157,-103.9035776,149.1561876,47.0009722
1578.777,25.5161034,-18.665448,-30.791241199999995,0.9522504,-0.1938288,0.0954199999999999,-32.0740594,-71.9682998,-108.9088258,-5.822408800000002,1.3898876,5.9911198,-0.966344,-0.1785088,-0.190718,-137.93588540000002,77.8964294,-61.561349400000005,44.13129293819492,0.9764504106249328,8.469105515513624,1.0010292071350566,-105.86182600000002,149.8647292,47.3474764
1598.761,30.6115416,-4.944827200000001,-26.8078922,0.9543038,-0.1663752,0.0953068,-30.3276306,-72.364749,-110.0271638,-7.1135220000000015,1.8505036,2.562984,-0.957568,-0.1794521999999999,-0.1910554,-138.3535458,77.8725646,-61.844075,40.990009506869,0.9733754856147344,7.784307663649542,0.9927949096253464,-108.0259152,150.23731360000002,48.1830888
1618.746,25.2680706,8.776293999999998,-18.944888,0.9496596,-0.1597848,0.0977222,-28.6241134,-72.429228,-111.2056228,-7.852339400000003,1.5047381999999998,-0.9477442,-0.958697,-0.1790484,-0.1896064,-138.51938439999998,77.8074326,-61.8538626,32.77815598159183,0.967953597315512,8.051191847917007,0.993533519450914,-109.895271,150.2366606,49.3517602
1638.731,21.1241862,22.427833,-10.1687698,0.947282,-0.1410786,0.1095985999999999,-27.0613826,-72.162123,-112.328903,-9.0299754,-0.8401378000000002,-4.8061618,-0.9602018,-0.1777169999999999,-0.1812272,-138.2912168,77.73006600000001,-61.4362144,32.44445738386684,0.963980400228096,10.263794546627151,0.9931838333521544,-111.2298342,149.892189,50.8926886
1658.715,8.5078238,35.567289599999995,1.1959235999999998,0.9226774,-0.1177093999999999,0.1238642,-26.0138676,-71.5457136,-113.1849882,-10.2232222,-3.7045688,-8.2374798,-0.9515636,-0.1680492,-0.180602,-137.7064482,77.650766,-60.627331600000005,36.590236246287766,0.9383663609490486,13.641633905068495,0.9830213125205376,-111.6925806,149.19647960000003,52.55765660000001
1678.7,-3.7536916,48.1893396,9.0306582,0.9189012,-0.1122696,0.1536012,-25.3358858,-70.628372,-113.9198728,-11.410112200000002,-6.1807018000000005,-11.7710174,-0.9442972,-0.16085,-0.1814036,-136.7936064,77.558217,-59.45619280000001,49.171693475385474,0.9383907539437076,17.51994822447301,0.9749241973203866,-111.4577206,148.186589,54.46368
1698.684,-7.3297056,58.76278620000001,16.4439282,0.8962548,-0.1152422,0.170531,-24.923075,-69.45415779999999,-114.4668578,-12.2306286,-9.6908142,-15.9384442,-0.9382644,-0.1645174,-0.177685,-135.4262756,77.451294,-57.801489200000006,61.45886755234217,0.9195837390607122,22.305473752569643,0.9690087814024804,-110.5032006,146.90545179999998,56.6653686
1718.669,-7.254552799999999,67.91576180000001,21.4567678,0.8802798,-0.1105265999999999,0.1958028,-24.6047976,-68.0749816,-114.9199494,-13.300199600000004,-15.2235004,-20.2903018,-0.948003,-0.1685652,-0.171415,-133.4823456,77.3494948,-55.5323112,71.5931010756305,0.9085413540854592,28.64169375165728,0.9780117672528484,-108.877548,145.4244764,59.387638200000005
1738.653,-12.5783946,76.75688720000001,26.998571,0.8634999999999999,-0.1001698,0.235867,-24.5013208,-66.4926032,-115.263344,-14.716715,-20.2534734,-23.156475800000003,-0.946373,-0.1661604,-0.1729687999999999,-131.1243774,77.25368639999999,-52.806483400000005,82.3332167438445,0.9007216443058532,34.10289220332666,0.976293674787766,-106.6230566,143.7462896,62.45686059999999
1758.638,-12.844975,84.736644,29.9727692,0.8528893999999999,-0.1193063999999999,0.2460382,-24.397041,-64.7431006,-115.620746,-15.979161,-24.905642800000003,-24.8691656,-0.946112,-0.1592435999999999,-0.1659883999999999,-128.42219999999998,77.1719572,-49.6992408,90.79459847727632,0.8956501222980767,38.65359009439274,0.9736727322974184,-104.025159,141.91505779999997,65.9215052
1778.622,-15.4033132,91.798935,35.5969308,0.8193062000000001,-0.1284351999999999,0.2825914,-24.4670678,-62.80407399999999,-115.85309300000002,-18.1774884,-30.42167060000001,-26.972004,-0.9694912,-0.177227,-0.1493718,-125.2798126,77.0887982,-46.095401800000005,99.65665059117484,0.876137060802384,44.53524588910513,0.9968121844368074,-100.8127448,139.8928722,69.75769119999998
1798.607,-15.7934012,99.4329484,39.0122476,0.7989652,-0.1471824,0.2947518,-24.5533214,-60.6913842,-116.088565,-20.165051,-33.2142846,-28.005285800000003,-0.960991,-0.18674,-0.1346614,-121.9868942,76.97997559999999,-42.2953156,107.97359960557458,0.864226054504283,47.89691029765991,0.9881848118297304,-97.4335728,137.6713598,73.7932494
1818.591,-12.313657,106.8501664,42.448369,0.7749067999999999,-0.172921,0.3072992,-24.5812252,-58.4064338,-116.3233274,-22.7529382,-35.9884354,-27.490678000000003,-0.9467818,-0.1758706,-0.112855,-118.624739,76.8695616,-38.3691964,115.63065440955307,0.851360686928801,50.681367939043206,0.9695682006855424,-94.0435138,135.2759954,77.95413099999999
1838.576,-6.613598999999999,113.3731354,47.294153,0.7589764,-0.1733814,0.3235636,-24.5698296,-55.955924200000005,-116.4856518,-26.149235600000004,-39.1047432,-25.8623976,-0.93816,-0.1791196,-0.079719,-115.1508606,76.7700606,-34.25942920000001,123.02009766760447,0.843089371815278,53.6826515070068,0.9584274284812389,-90.581031,132.7259848,82.2262226
1858.56,-3.078121199999999,120.0491852,51.1938806,0.7227686,-0.185233,0.3835506,-24.517239,-53.3403816,-116.6233106,-32.2220054,-43.2909744,-23.909762800000003,-0.9571874,-0.2079084,-0.0653981999999999,-111.5372284,76.6736266,-29.8811848,130.54537566759248,0.838937885778989,59.02578126252416,0.9816876010587892,-87.01998939999999,130.01400819999998,86.7421258
1878.545,5.3318244,126.5308076,54.3013558,0.674258,-0.2354354,0.3929496,-24.3115482,-50.5860856,-116.753224,-36.5927246,-41.1389506,-21.2192344,-0.9243534,-0.2051198,-0.060527,-108.3640108,76.5616028,-25.863026400000003,137.7937257826308,0.8151460398464314,59.00590359144439,0.9487712359534304,-84.05246259999998,127.14768840000002,90.8901976
1898.53,18.7761848,131.9666902,57.7448974,0.6486067999999999,-0.2452376,0.429466,-23.9011032,-47.7035454,-116.8239302,-37.58762840000001,-39.364383200000006,-14.747978,-0.9286164,-0.2103394,-0.0398744,-105.5388078,76.5294342,-22.183083000000003,145.26605113970385,0.8156428793387459,56.39048969942905,0.9529748419117264,-81.63770459999999,124.2329796,94.6408472
1918.514,27.5362056,137.8660538,60.8286932,0.621919,-0.2108171999999999,0.4734417999999999,-23.3548572,-44.6914948,-116.8487868,-38.0147528,-35.6736598,-9.0808312,-0.96118,-0.2338432,-0.0212096,-103.1253008,76.54567399999999,-18.9202164,153.18427244873962,0.8095518960289575,52.91684919998675,0.9894440265716904,-79.7704436,121.2371688,97.9285704
1938.499,28.1123676,143.9336488,62.13218059999999,0.5747448000000001,-0.2172409999999999,0.5063549999999999,-22.8031008,-41.553421,-116.8721344,-38.84750280000001,-32.0065608,-2.0560148000000007,-0.970638,-0.2390418,-0.010724,-101.1208146,76.64890879999999,-16.062102000000003,159.27212039484587,0.7961913232590769,50.37633973303265,0.9996970107823868,-78.31771379999999,118.2023298,100.8100324
1958.483,31.7354202,149.42566240000002,63.9024512,0.5275939999999999,-0.2523536,0.5557364,-22.2057398,-38.2964516,-116.8628174,-34.780711000000004,-23.7463092,2.348876,-0.9636374,-0.2355997999999999,0.0087578,-99.738089,76.7839018,-13.9293326,165.58589537855488,0.8067717859183723,42.1794058368643,0.9920589717852664,-77.5323492,115.0803534,102.9334848
1978.468,39.6311748,153.8303468,65.14899360000001,0.4924784,-0.2259452,0.5613416,-21.4642644,-34.94970479999999,-116.827472,-30.092610200000003,-18.350106,8.473173800000001,-0.9617768,-0.2353981999999999,0.0378954,-98.7207976,77.0148466,-12.2729736,171.69390489976416,0.7801862596586535,36.25032762755927,0.9908899973875204,-77.2565332,111.9645514,104.5544984
1998.452,36.3054074,158.9661836,66.5408508,0.4557798,-0.1928734,0.5819331999999999,-20.794811400000004,-31.5007,-116.760634,-27.8514672,-14.0577944,15.1046922,-0.987081,-0.2322266,0.0541918,-98.0512236,77.36314680000001,-11.0215904,176.11364217463887,0.7639251427841867,34.66233597209063,1.015477644015761,-77.2564122,108.8638468,105.7390436
2018.436,27.831383,163.4065218,67.8684784,0.3871525999999999,-0.2038604,0.6610240000000001,-20.3033876,-27.9574684,-116.6692888,-25.609478400000008,-10.7826256,21.2794834,-0.9772726,-0.213314,0.0650043999999999,-97.651573,77.8243956,-10.094373999999998,179.11562636129165,0.7927161704865873,34.99895444896487,1.002392223296909,-77.3481854,105.781864,106.57491480000002
2038.421,28.0411762,166.0564028,69.44370260000001,0.3112726,-0.2590012,0.7141789999999999,-19.8173404,-24.3570098,-116.5327454,-21.6003594,-3.319999,24.7723918,-0.9798822,-0.2247834,0.0572808,-97.908937,78.3205902,-9.9213064,182.16329022158263,0.820989584071077,33.034365667617664,1.0069646432924246,-78.0915966,102.6776,106.611439
2058.406,36.6132328,168.81961080000002,70.5533446,0.2521834,-0.2593364,0.6894738,-19.1624328,-20.7077364,-116.3574784,-14.738846600000006,3.685902,27.9212978,-0.96806,-0.2187466,0.0479975999999999,-98.8167572,78.8526214,-10.5511474,186.5967959022256,0.7786051351532175,31.787078247115144,0.9936266945977852,-79.6543244,99.5603578,105.806331
2078.39,32.9600048,172.61570139999998,70.840219,0.186721,-0.2143954,0.7959508,-18.571305,-16.9857522,-116.166452,-4.783939800000004,7.739012,33.895182,-1.0087844,-0.2273724,0.0409772,-100.1731766,79.4790312,-11.8381972,189.4752725666279,0.845202813177287,35.09503881689393,1.034902558159443,-81.60187160000001,96.4647834,104.3282548
2098.375,26.5582844,173.4683624,70.954988,0.0989277999999999,-0.259864,0.851585,-18.1040794,-13.238782,-115.9363402,4.995525999999996,9.002075999999999,30.361274400000003,-1.0063014,-0.2083252,0.0302992,-101.512175,80.0322448,-13.3047578,189.2913773685668,0.8958309105706501,32.05931433325653,1.0280855694530684,-83.4080956,93.2710268,102.6315824
2118.359,30.308180000000004,173.2228728,70.1600204,0.0166847999999999,-0.3020132,0.8622484,-17.5553958,-9.503471,-115.6926238,12.980187399999997,12.5706518,29.038910200000004,-0.9915036,-0.2053449999999999,0.0106737999999999,-103.2192916,80.5376572,-15.305825199999996,189.33350970846604,0.9137629117160754,34.20182534923577,1.0126005569050416,-85.6638958,90.0411282,100.3867986
2138.344,35.4297502,172.99942620000002,68.50703899999999,-0.0633918,-0.2970708,0.8847284,-16.887437400000003,-5.785523599999999,-115.4402618,20.781871199999998,12.8683486,24.582877000000003,-1.007205,-0.1787177999999999,-0.000112,-104.8418624,80.9542876,-17.377695199999998,189.41299600954304,0.935421788439012,34.6669642146762,1.0229379143456556,-87.954425,86.7398112,98.0625666
2158.328,34.5698182,172.6948638,65.6197808,-0.1398978,-0.2564348,0.9271498,-16.217391,-2.093955,-115.2013854,25.5927794,10.1620528,22.2102848,-1.021203,-0.1476887999999999,-0.0001292,-106.10913839999998,81.3416702,-19.1843846,187.94824805121664,0.9720786762067768,35.37731512458461,1.031827294437921,-89.89174740000001,83.4356252,96.0170008
2178.313,31.869816,170.83155200000002,61.071865200000005,-0.189743,-0.2790808,0.9552564,-15.581027,1.5386428,-115.0021286,27.74095,4.916459999999999,20.0381694,-1.0208334,-0.1331254,-0.0072332,-106.7713684,81.7132478,-20.4188492,184.19792900467024,1.0131156344261003,34.57253416712747,1.0295025603965051,-91.1903414,80.17460500000001,94.5832794
2198.297,35.1785256,168.829898,56.137365,-0.2718188,-0.292193,0.9740966,-14.8657064,5.101533999999999,-114.8463624,28.3560608,3.086562,20.663801400000004,-1.0042192,-0.1044572,-0.024101,-107.3170106,82.1094986,-21.5454274,181.36280454167965,1.052675826365363,35.22194965318903,1.0099249311119516,-92.4513042,77.00796460000001,93.300935
2218.282,40.4907258,167.9971284,50.989122,-0.3209044,-0.2593206,0.901053,-14.0395218,8.6199322,-114.7368898,27.8085884,-0.3106472,18.3553042,-1.008736,-0.0964647999999999,-0.0208758,-107.3591052,82.4808136,-22.1506364,180.17331819331008,0.99102135008925,33.32163385487002,1.0135529460075976,-93.3195834,73.86088140000001,92.5862534
2238.267,36.952377,168.39724740000003,44.6488594,-0.363993,-0.2241926,0.9616164,-13.2808626,12.1204166,-114.7040148,27.589717999999998,-6.8837704,19.381832000000003,-1.0266396,-0.0985948,-0.0046112,-106.3909244,82.90935520000001,-21.7302934,178.0916386121704,1.052358934343563,34.41270471665463,1.0313733882744114,-93.1100618,70.78893860000001,92.9737214
2258.251,30.5321712,166.12889719999998,39.286728,-0.4042742,-0.2348326,1.0149666,-12.6561412,15.5534122,-114.7262346,23.109903,-12.6907814,18.1152466,-1.0357886,-0.080485,0.0105875999999999,-104.4651568,83.34153140000001,-20.2522506,173.41992665210148,1.1174708845978762,31.98883724974708,1.0389648484856069,-91.8090156,67.7881192,94.473984
2278.235,29.312580000000004,163.60022899999998,34.598449800000004,-0.4851138,-0.2174892,0.9174588,-12.0774616,18.9111354,-114.7921922,10.495456599999995,-16.267769199999996,12.6895152,-1.014015,-0.0265797999999999,0.0069701999999999,-101.8072862,83.67454380000001,-17.781287,169.76841580126722,1.060362014014327,23.14775842274977,1.0143872483825298,-89.7298246,64.7634084,97.0109052
2298.22,25.584451,162.6630768,29.0431718,-0.5543746,-0.2087898,0.902963,-11.6062806,22.2238714,-114.9397676,-4.220568200000004,-19.950999,10.4294786,-1.0196082,-0.0494183999999999,0.0032583999999999,-98.5787004,83.95549020000001,-14.4377148,167.20450506854897,1.0799382191024631,22.90479384095632,1.0208103040900205,-86.97241979999998,61.7316188,100.5020528
2318.204,21.1831674,160.77860099999998,24.3752344,-0.610226,-0.2120136,0.988026,-11.2528646,25.4808342,-115.153998,-13.035668200000003,-21.4290938,9.4531654,-1.0357422,-0.0896702,-0.0031874,-95.075621,84.20755460000001,-10.6394262,163.98974715715784,1.1804748681513555,26.80479514171759,1.0396214739738885,-83.8227564,58.7267204,104.5145718
2338.189,22.0425138,155.989813,20.608604,-0.6716238000000001,-0.2090793999999999,0.9375914000000002,-10.9166152,28.632531,-115.419304,-16.8814832,-18.1696562,8.059348600000002,-0.9987128,-0.082509,-0.0213194,-92.0709502,84.40997159999999,-7.266000799999999,158.88174449327707,1.172122159838624,26.078228109179555,1.002342011880775,-81.15433499999999,55.7774406,108.1533032
2358.174,20.108956400000004,151.60332320000003,15.907203,-0.7415706,-0.173587,0.8538854,-10.6633756,31.6802098,-115.7558428,-20.495192000000003,-13.392634,8.232830400000001,-0.9881458,-0.0625671999999999,-0.051883,-89.9996108,84.5950714,-4.760177999999999,153.75622537010975,1.1441938986406632,25.830118795119475,0.9914830418431172,-79.3362352,52.9148616,110.9956648
2378.158,18.145021,147.2484374,10.9407786,-0.7894016,-0.208703,0.8943916,-10.5255692,34.634649,-116.198456,-23.0367652,-8.4042618,8.488966000000001,-0.9995872,-0.0809202,-0.0547936,-88.9300536,84.7764846,-3.2122806,148.76506559070373,1.211052501934627,25.949695779180654,1.0043530194970491,-78.4044844,50.1418356,112.9861754
2398.143,21.422452600000003,140.7351302,7.8815002,-0.8077724,-0.1832036,0.9226234,-10.3706366,37.448094000000005,-116.7038774,-22.501243400000003,-3.2492032,8.523878800000002,-0.9920218,-0.1270372,-0.0670724,-88.78106519999999,84.9553558,-2.6031852,142.5742487029576,1.239876504931955,24.28002853742193,1.0023693973285697,-78.4104286,47.5072618,114.1006922
2418.127,22.0721936,132.1533278,4.789505,-0.8343655999999999,-0.1582346,0.8602508,-10.2489736,40.0873682,-117.250798,-16.770192400000006,1.4253985999999998,7.345403200000002,-0.9860122,-0.1012919999999999,-0.0666734,-89.5198714,85.1076294,-3.0041546,134.06947130900144,1.2088157767009662,18.363715922232902,0.9934412262838704,-79.27089779999999,45.02026120000001,114.2466434
2438.112,17.5289364,124.9623244,1.1859112,-0.8542908,-0.1281538,0.7976108,-10.2773296,42.566523200000006,-117.8696442,-15.548399000000003,3.8236558,7.2090276000000015,-1.0189762,-0.0593424,-0.0593052,-90.8029006,85.26115580000001,-3.977445200000001,126.19133296760266,1.1757632226327377,17.559701992848186,1.0224241406340326,-80.525571,42.6946326,113.892199
2458.096,15.217420999999998,118.1433074,-2.1294762,-0.8673323999999999,-0.1576246,0.8070496,-10.4393768,44.8992586,-118.5886016,-15.512452200000002,2.7924966,9.8653316,-1.0185270000000002,-0.0952618,-0.0498002,-91.9589858,85.4665818,-4.8213864,119.13834669907293,1.1951736541085063,18.59459540017623,1.024183635969781,-81.519609,40.5673232,113.7672152
2478.081,15.121412600000005,110.9267868,-3.878842,-0.8677467999999999,-0.1352032,0.7791220000000001,-10.6501598,47.0722246,-119.3474518,-6.421052600000003,3.5972302,10.435106200000002,-1.0046762,-0.1146666,-0.0543036,-93.1400666,85.67944500000002,-5.8733322,112.01988468148436,1.1740083070764364,12.76955061891519,1.0126557050522946,-82.4899068,38.6072204,113.4741196
2498.065,13.8534512,105.172249,-6.529865200000001,-0.868868,-0.132056,0.7094588,-10.9777938,49.1219468,-120.202681,3.137387399999997,3.398641,11.7254034,-1.0302114,-0.057306,-0.0255636,-94.180539,85.92285460000001,-6.9743898,106.28150925442748,1.1294698656703683,12.60472313211565,1.0321206344080716,-83.20274520000001,36.8009078,113.2282912
2518.05,12.4461658,101.8374072,-9.5117772,-0.8780091999999999,-0.1309507999999999,0.6697198,-11.445013800000002,51.0946914,-121.178653,1.8467449999999968,0.8818086,14.837243,-1.0187054,-0.0059252,-0.0232782,-94.7029084,86.2487976,-7.523423800000001,103.03513213386074,1.1120129845542812,14.977711218444158,1.0189885546852036,-83.25789460000001,35.1541062,113.65522919999998
2538.034,13.1424548,98.2776356,-11.586425,-0.8949244000000001,-0.1565084,0.6482188,-12.012755,52.9870582,-122.2684998,-0.0460518000000028,1.5058644,14.442053800000002,-0.9678102,-0.0626028,-0.057542,-95.6230378,86.56071,-8.4343232,99.82716574949454,1.1160520479168343,14.520422387849642,0.9715383551645708,-83.61028280000001,33.57365180000001,113.8341766
2558.019,14.3312828,92.5264254,-11.8150042,-0.9218502,-0.1651384,0.6150998,-12.6120342,54.7615136,-123.3991882,5.059748199999997,8.5570392,8.273969600000001,-0.928674,-0.1116954,-0.1001901999999999,-98.4675446,86.71174599999999,-11.3921094,94.37223844034514,1.120458052028116,12.933775344402113,0.9407174585566062,-85.8555104,31.95023240000001,112.0070788
2578.003,15.2723776,85.6026444,-10.902551,-0.9480258,-0.1502001999999999,0.5758527999999999,-13.1775564,56.407692,-124.4968214,7.858803799999999,16.4451678,4.365193400000001,-0.9606346,-0.0869574,-0.1043046,-103.2780716,86.71446499999999,-16.389806200000002,87.63517481090247,1.1193388516501694,18.741911710293987,0.9701854841797418,-90.1005152,30.30677300000001,108.1070152
2597.988,13.077264199999998,77.7593178,-9.461586400000002,-0.978805,-0.131617,0.5862638,-13.7332202,57.8936472,-125.519348,1.3235765999999978,23.424494600000003,-0.731395999999999,-0.9641566,-0.0538114,-0.1193346,-109.4885102,86.53068060000001,-22.6698208,79.4169249019544,1.148515348571555,23.473255896664888,0.9730027558289236,-95.75529,28.6370334,102.84952719999998
2617.972,10.766814,66.5883766,-6.9008362000000005,-1.0012492,-0.1357073999999999,0.6142144,-14.223268199999998,59.150693,-126.3990402,-5.937801200000002,31.8496938,-7.963757599999999,-0.9488122,-0.1131486,-0.1613724,-116.86595160000002,86.0915372,-29.9847526,67.80529272994295,1.1824448351118797,33.36288226991244,0.9690656572351328,-102.64268339999998,26.940844200000004,96.4142876
2637.957,12.3521618,52.907554600000005,-3.4561076000000006,-1.0223882000000002,-0.1355975999999999,0.6167586,-14.4982634,60.148169800000005,-127.0541718,-7.954413800000002,41.0075322,-12.3288274,-0.9744416,-0.1190192,-0.180289,-124.7300034,85.4222182,-37.752719,54.44014984024327,1.2016886082920817,43.55330505363121,0.9981012600433884,-110.23174,25.2740484,89.3014528
2657.941,12.651661,40.1842978,-0.7427978000000004,-1.0016142,-0.0936438,0.6599364000000001,-14.5672886,60.905291,-127.4745836,-12.4325162,44.710228,-12.305725999999998,-1.0393428,-0.0604052,-0.1360298,-131.532895,84.6549804,-44.360804,42.135425289294176,1.20312768190456,48.01044510585506,1.0499458798371086,-116.9656064,23.7496894,83.1137796
2677.926,11.5597698,27.8469938,1.2276247999999996,-0.9838958,-0.1141311999999999,0.7316726000000001,-14.504412,61.4251174,-127.7046908,-20.439002800000004,43.6840958,-12.9242632,-1.0360522,-0.105457,-0.1294244,-136.5301514,83.8441268,-48.9897468,30.175990525180868,1.2314307409114975,49.93084858666894,1.0494169882793014,-122.0257394,22.4190094,78.71494399999999
2697.911,14.7003448,14.199339,3.6539522,-0.9657938,-0.1194243999999999,0.7548562000000001,-14.192273599999998,61.7016454,-127.7050264,-16.545426400000004,42.427612,-13.569421799999995,-1.0333818,-0.1595828,-0.1385726,-140.1491576,83.0163908,-52.30947259999999,20.76229110564855,1.2315956049419146,47.51823442392063,1.0547734259535744,-125.956884,21.3147454,75.3955538
2717.895,17.6283068,1.0414566,4.6380806,-0.9496986,-0.1079353999999999,0.7941276,-13.6811218,61.7386846,-127.5312424,-6.8787270000000005,38.689378,-11.177573999999998,-1.0735222,-0.1059764,-0.10388,-142.862036,82.276602,-54.9110572,18.25797426158516,1.2426649292938463,40.854901978745325,1.0837305779804314,-129.18091420000002,20.537917400000005,72.62018520000001
2737.879,18.7434116,-11.391353,4.2541002,-0.9137932,-0.0934086,0.850221,-13.0602738,61.5327956,-127.2423996,-4.659431800000001,29.6663004,-9.448595999999998,-1.0813438,-0.0820948,-0.0706638,-144.4253722,81.69764219999999,-56.398297,22.34224183221692,1.2516464867370498,31.48135401302027,1.086755419869586,-131.3650984,20.164846600000004,70.84410260000001
2757.864,20.4386506,-24.861306000000003,3.6505426,-0.928214,-0.1111265999999999,0.8489753999999999,-12.3353878,61.0502058,-126.8597672,-1.7365156000000013,20.3061392,-8.722748199999998,-1.0471646,-0.1053084,-0.1158334,-145.04230940000002,81.2511548,-56.98811020000001,32.3905763401785,1.2628101919246295,22.16847112002592,1.058801650527274,-132.70692160000002,20.200949000000005,69.871657
2777.848,21.2710956,-40.8767896,2.854801,-0.936056,-0.0950555999999999,0.8557330000000001,-11.5279982,60.2483008,-126.3864594,4.778869599999998,13.071644,-6.923945999999999,-1.0173246,-0.0962889999999999,-0.146677,-145.1993224,80.93457020000001,-57.2429968,46.16840180011226,1.271815776563713,15.544983104765864,1.03234444620735,-133.67132420000002,20.686269400000004,69.1434626
2797.833,19.9890496,-57.9947468,2.0506722,-0.9423046,-0.0995308,0.8795676,-10.7000162,59.10340719999999,-125.837793,8.8464104,6.519168199999998,-6.313562199999999,-1.0172784,-0.097144,-0.1493534,-144.8624816,80.7336182,-57.0795424,61.37717830577765,1.2928586551899477,12.67357876206986,1.0327626726088237,-134.1624654,21.630211000000003,68.7582506
2817.818,19.4164148,-75.15215979999999,1.9781144,-0.952595,-0.0970414,0.880168,-9.8288062,57.6066016,-125.2131746,11.2943946,0.2007895999999988,-7.6476888,-1.0089359999999998,-0.1213616,-0.1642566,-143.8904296,80.61591659999999,-56.3211524,77.64507210937396,1.3005960078221677,13.641510540465184,1.029398232315424,-134.06162339999997,23.009315,68.8920222
2837.802,17.8505088,-92.3494688,1.9549376,-0.970539,-0.093087,0.880505,-8.95527,55.75812140000001,-124.5506898,16.879672199999998,-4.340663600000001,-7.436564199999999,-1.0006528,-0.118749,-0.1773652,-142.5496092,80.5665148,-55.300373,94.07915195770498,1.31373520738199,18.949068081795986,1.0231645836911478,-133.5943392,24.8083934,69.2503168
2857.787,15.301423,-109.4816068,1.9111104,-0.9672194,-0.085043,0.9097622,-8.1274294,53.571344,-123.8666412,21.0246618,-7.665611000000001,-7.366563600000001,-1.003812,-0.1203905999999999,-0.1535832,-140.853189,80.5767764,-54.003596400000006,110.56223639333516,1.3305686529203218,23.5598016774451,1.022604628991381,-132.7257596,27.0054324,69.8630448
2877.771,14.7088134,-124.882054,1.0342625999999997,-0.9602592,-0.0823732,0.9141328,-7.347817000000001,51.067759,-123.2266602,23.6142294,-10.802443600000002,-7.916774399999999,-1.0240092,-0.0957368,-0.1308598,-138.8352264,80.6434846,-52.4320786,125.7495379793528,1.3283530597317568,27.147742719929788,1.0367664461270534,-131.4874094,29.5757256,70.7945816
2897.756,14.3253256,-138.78708179999998,-0.9523456000000003,-0.9538684,-0.067476,0.9029326,-6.651058600000001,48.2837044,-122.6811142,22.9329724,-13.9921216,-6.386817799999999,-1.0104748,-0.073152,-0.128787,-136.756421,80.7777558,-50.7834794,139.52768897336378,1.3151825786700948,27.613260067922894,1.0212720636089287,-130.10536240000002,32.494051400000004,71.8976348
2917.74,11.578578,-152.18532100000002,-2.9587656000000004,-0.9381958,-0.0760711999999999,0.912562,-6.0974834,45.2411836,-122.23557739999998,21.735462,-15.384046800000002,-4.253906799999999,-0.979834,-0.1060201999999999,-0.13108,-134.6868592,80.9400696,-49.121499,152.6538230449892,1.3110177689303375,26.966552010984287,0.994231822445872,-128.5893758,35.698886,73.11407840000001
2937.724,9.4747984,-164.7060088,-4.038493000000001,-0.9081492,-0.0827072,0.9295296,-5.6494846,41.9613816,-121.8506714,24.8245912,-14.844062400000002,-4.266337399999999,-0.9687748,-0.15087,-0.1155472,-132.49979560000003,81.085286,-47.4048892,165.02772665603004,1.3021523442626213,29.23710231183744,0.9872373197174426,-126.850311,39.1239044,74.44578220000001
2957.709,8.5218424,-175.2041046,-4.8403442,-0.8723620000000001,-0.0799562,0.9266874,-5.2723558,38.4920934,-121.5252702,31.485222799999995,-12.864544400000003,-4.457909999999999,-0.9751404,-0.1432292,-0.1011458,-130.32715760000002,81.2004104,-45.838441800000005,175.47800146614577,1.2752089986669637,34.302896655432924,0.9907794286835188,-125.0548018,42.708317,75.6868284
2977.694,7.0019588,-183.9799774,-5.838073,-0.8279934000000001,-0.0742326,0.9336682,-4.967925,34.8629404,-121.2464508,36.4592186,-9.340151800000005,-3.893647199999999,-0.9679632,-0.1288664,-0.084909,-128.4051452,81.26580659999999,-44.62805039999999,184.2057073152044,1.2501279362679487,37.837462191427385,0.9801881675903868,-123.4372202,46.402866200000005,76.6184004
2997.678,5.8373588,-191.5299652,-6.8913402,-0.7776766,-0.0710662,0.9422758,-4.7207478,31.082648400000004,-121.0127976,39.7479752,-4.9838248000000025,-3.105049199999999,-0.9658916,-0.1254342,-0.0681428,-126.85692880000002,81.29258279999999,-43.86440520000001,191.74277795271792,1.2238116612598688,40.17936501080288,0.9763829999913148,-122.136181,50.2099344,77.1483924
3017.663,3.5989662,-198.0923462,-8.321502200000001,-0.724626,-0.0638147999999999,0.9456384,-4.5478744,27.1657516,-120.8266846,41.800672,-0.0297000000000016,-2.936776599999999,-0.970696,-0.1161556,-0.0520032,-125.73827660000002,81.2606736,-43.5788522,198.29971653936877,1.1930578997389858,41.9037196265426,0.9790031566024696,-121.1904022,54.094922,77.24783240000001
3037.65,2.0993916,-202.9082856,-9.9899494,-0.6574154,-0.0573944,0.960611,-4.4344286,23.1585948,-120.6861222,41.638876200000006,4.823813799999999,-3.1722265999999992,-0.999191,-0.098218,-0.0301973999999999,-125.0400832,81.16800839999999,-43.718293800000005,203.16490567820975,1.1654452448011106,42.03722412788153,1.0044607075300458,-120.6056546,58.0094136,76.9678284
3057.632,0.9342144,-206.4678376,-11.613867000000004,-0.5803208,-0.0521433999999999,0.9704338,-4.3719196,19.070012400000003,-120.5899856,36.0476106,6.373999799999998,-4.083023999999999,-1.0241658,-0.0870145999999999,-0.0127139999999999,-124.5429992,81.05063179999999,-43.9488114,206.79633126934053,1.1319155998830654,36.83380496777666,1.0279342256675763,-120.1710796,61.9806194,76.6411742
3077.616,-1.9410846,-209.3227936,-12.705023,-0.517153,-0.0559704,0.9744722,-4.3861054,14.9104202,-120.5191864,25.448646000000004,3.0387857999999985,-5.6516182,-1.0387932,-0.0953766,0.0014536,-123.813861,80.94189300000001,-43.7287256,209.7169934444109,1.1046157610943272,26.2451631858171,1.0431635160159505,-119.4277556,66.03147279999999,76.7904608
3097.601,-5.316212,-211.6804902,-12.9939752,-0.4405106,-0.0527972,0.9792852,-4.4743574,10.7024886,-120.4488358,13.8965568,-3.0873284000000014,-9.9697202,-1.051986,-0.117573,0.0069158,-122.361763,80.81196580000001,-42.5414796,212.1455524700894,1.0750984308328424,17.37933279534519,1.0585583511619183,-117.8874056,70.10947719999999,77.90735620000001
3117.585,-7.265298799999999,-213.0358338,-13.5407498,-0.3645834,-0.0544052,0.9788884,-4.6043122,6.464404999999999,-120.37910159999998,5.1832826,-10.842820800000002,-16.2898422,-1.0733504,-0.1020432,0.0262042,-119.9423964,80.65081,-40.1948174,213.5893324926615,1.045994015755903,20.24332335149731,1.07850848672787,-115.3380842,74.186405,80.18428420000001
3137.57,-8.6404166,-214.0870148,-14.964985000000002,-0.2946734,-0.0487068,0.9609018,-4.7674768,2.1864682,-120.326622,-7.1920164,-21.8952762,-21.6420176,-1.0956254,-0.0570802,0.0251354,-116.503862,80.479927,-36.558643,214.7832802641937,1.0062489921868445,31.614951297936,1.0973991774602168,-111.7363852,78.2934588,83.767979
3157.554,-9.8363366,-215.0575774,-17.0739978,-0.2270367999999999,-0.0563394,0.9493266,-4.9586492,-2.1214284,-120.3021242,-23.067238000000003,-30.994482,-27.1735958,-1.0746852,-0.059616,0.0341575999999999,-112.357576,80.238423,-31.879229,215.95841385725143,0.9777222662976228,47.23515313935952,1.0768793285195886,-107.3989268,82.3598514,88.4228952
3177.539,-10.2606334,-215.379248,-18.818756,-0.1487002,-0.0499359999999999,0.9176966,-5.158674,-6.4386946,-120.29778919999998,-35.509640000000005,-36.2253022,-34.7290948,-1.0604022,-0.1040952,0.0215658,-107.8759628,79.83596179999999,-26.6033164,216.44317185857872,0.931006124162242,61.47615048161613,1.0657174673230798,-102.7172888,86.2746564,93.6944728
3197.523,-11.865554,-214.376593,-20.5359708,-0.0739983999999999,-0.0717503999999999,0.8919368000000001,-5.392636,-10.740034,-120.3083956,-38.8495018,-36.1400488,-38.9039754,-1.0557046,-0.1506962,0.0215064,-103.6713806,79.2804076,-21.5367874,215.68458705877205,0.8978725623923254,65.7944239225361,1.0666227413647995,-98.2787446,90.0204416,98.7716082
3217.508,-13.938379,-212.5272828,-21.0263212,0.0073168,-0.0636772,0.8570166,-5.667656200000001,-14.9928098,-120.315294,-31.1422318,-31.652542,-31.506337,-1.036699,-0.1587534,0.0102936,-98.9658524,78.397107,-16.0397824,214.0192293386377,0.8594101314492633,54.44604014714261,1.0488343133276676,-93.2981962,93.3899168,104.2755116
3237.492,-18.265257400000003,-210.2681306,-21.3794166,0.0920394,-0.0753864,0.812256,-6.035672,-19.1938532,-120.3082398,-29.4956692,-27.5069704,-32.453698,-0.9891024000000002,-0.2152596,0.0101686,-96.4049926,77.8048172,-12.7457424,212.1400146791342,0.8209227551927891,51.76746503372083,1.012306106621846,-90.3693206,96.9986704,107.5624974
3257.477,-21.5515118,-206.820151,-21.5896562,0.1679042,-0.0800425999999999,0.7565514,-6.479774999999999,-23.3191658,-120.2678786,-20.3972628,-22.9446298,-30.801511800000004,-0.9777289999999998,-0.2413219999999999,0.0049632,-94.4197982,77.20420220000001,-10.2196164,209.0577809491016,0.7790819334539596,43.48836046066639,1.0070823891217835,-87.94002320000001,100.523368,110.0482622
3277.461,-23.541293000000003,-202.684833,-22.7878538,0.250336,-0.0857216,0.7245337999999999,-6.9558064,-27.3624526,-120.231436,-7.910808200000001,-17.499441400000002,-26.7145942,-0.964163,-0.2270254,0.015619,-92.9559662,76.66735680000001,-8.4778478,205.31590363427745,0.7713400890301242,32.90107717020668,0.9906537114325872,-86.00015979999999,104.0298094,111.7535882
3297.446,-24.7309426,-198.0752992,-24.6730756,0.3225712,-0.074946,0.673332,-7.442326199999999,-31.323873000000003,-120.2155318,0.9896027999999998,-14.972309600000004,-20.5909524,-0.9594446,-0.2039864,0.0207332,-91.7102722,76.2552506,-7.138269399999999,201.13230554691444,0.7503632881541047,25.47816102467142,0.9811086878813988,-84.26794600000001,107.5791236,113.07726240000002
3317.431,-24.665320200000004,-192.5762086,-27.7722406,0.386259,-0.0860766,0.616168,-7.9053706,-35.205757,-120.236937,0.8573863999999997,-16.4093754,-16.096289199999998,-0.9460342,-0.2138459999999999,0.0296816,-91.3352752,76.367784,-6.8340846,196.12565229276748,0.732303352697883,23.00202683389154,0.970356541001399,-83.42990460000001,111.573541,113.4028524
3337.415,-21.8301406,-185.6063906,-30.459372,0.4411612,-0.0987383999999999,0.5835834,-8.28571,-38.9650722,-120.3082872,7.1879516,-14.210956800000002,-1.6074509999999989,-0.971502,-0.212966,0.0237374,-89.6354828,76.3862532,-5.31856,189.3516850012429,0.738201910574309,16.00630626012166,0.9948538170599536,-81.34977280000001,115.3513254,114.98972720000002
3357.4,-18.8399314,-177.90063500000002,-32.0342674,0.4945034,-0.0913856,0.5516272000000001,-8.569245,-42.588984200000006,-120.431389,10.5787026,-10.5194282,9.7955164,-0.9696456,-0.2120128,0.0082702,-88.2364334,76.62805019999999,-4.1783216,181.74095090654347,0.7464432384841864,17.847113489213626,0.9925877357550013,-79.6671884,119.2170344,116.2530674
3377.384,-17.1954994,-169.08790600000003,-32.590531600000006,0.5336982000000001,-0.0858568,0.4937976,-8.7872794,-46.0572412,-120.5836138,11.739743999999998,-7.383333400000001,21.8270978,-0.971945,-0.2152884,-0.0159859999999999,-87.12644180000001,77.1057404,-3.3548226,173.05648761329593,0.7321483651250204,25.860344151844856,0.9956313225263456,-78.3391624,123.1629816,117.2287912
3397.369,-16.735542600000002,-159.3435884,-32.840963599999995,0.565526,-0.087306,0.465792,-8.958255400000002,-49.3331582,-120.7818146,13.0307292,-2.1364568000000017,28.721325200000003,-0.9669177999999998,-0.2067304,-0.0356033999999999,-86.49275659999999,77.723175,-3.043239,163.55117376674968,0.737837503503312,31.611372516645872,0.9894114878717346,-77.5345012,127.0563332,117.73857560000002
3417.353,-14.6787034,-149.3201264,-32.124325,0.5962784,-0.0886564,0.4421866,-9.0606004,-52.407338800000005,-121.0102446,12.954787,7.154555799999999,28.564247,-0.9671693999999998,-0.2006177999999999,-0.0634626,-87.06383659999999,78.30861519999999,-3.876586000000001,153.44033608645017,0.7476208108306509,32.170333874358406,0.9897937419341264,-78.0032362,130.715954,117.1336586
3437.338,-13.1619982,-139.1626984,-31.184598,0.6153188,-0.068029,0.4007362,-9.0763206,-55.2839524,-121.2732694,13.6083098,14.5324144,29.405754,-0.930451,-0.1675774,-0.0793471999999999,-88.5019866,78.91927960000001,-5.605821399999999,143.22001946308964,0.7374514712609096,35.51162531079956,0.948745079850009,-79.425666,134.203232,115.667448
3457.322,-11.3634828,-128.81815179999998,-31.3821428,0.6433138,-0.0743436,0.3786488,-8.9827488,-57.953393600000005,-121.6182586,13.0785992,21.5102912,31.8902046,-0.9293934,-0.1489628,-0.0984498,-90.9239134,79.56560979999999,-8.322772,133.07172449935908,0.7501696673905444,40.62914636037655,0.9463901789787552,-81.94116460000001,137.5190034,113.2954866
3477.307,-8.238296799999999,-118.8361756,-31.562175000000003,0.6609976000000001,-0.0694646,0.3572862,-8.7156132,-60.4208672,-122.0791548,15.7050184,31.031441799999996,30.815169200000003,-0.9153508,-0.1395308,-0.117364,-94.6928222,80.14180139999999,-12.458919,123.23180212968384,0.7545837174027545,46.466898282064776,0.9333328665086644,-85.977209,140.5626686,109.6202358
3497.292,-4.7649728,-109.472487,-31.2657776,0.6977642000000001,-0.0717674,0.3210356,-8.267086599999999,-62.7062698,-122.6429184,17.7901726,38.0886014,33.45324939999999,-0.8914554000000001,-0.1357928,-0.1260318,-99.6995908,80.68915100000001,-17.890970799999998,113.9494590802544,0.7714203101887842,53.72477727421931,0.9105033933666804,-91.4325042,143.3954208,104.7519476
3517.276,-1.0845873999999998,-100.6326386,-30.0300908,0.7289019999999999,-0.0692992,0.2907914,-7.660983400000001,-64.8147926,-123.289087,18.767967,41.075517,34.6336972,-0.8932983999999999,-0.146543,-0.1346508,-105.5096616,81.1539902,-24.1546862,105.02338137235294,0.7878198671261089,56.91157759078258,0.9151981863138716,-97.8486782,145.9687828,99.1344008
3537.268,3.1039802,-91.8923782,-28.1006868,0.7811450000000001,-0.0719198,0.2732202,-6.9214258,-66.7463386,-123.9852784,18.4966592,44.04612819999999,32.2970402,-0.9190316,-0.1497566,-0.148089,-112.0517362,81.4555298,-31.153044,96.14308328197887,0.830667951918864,57.66529820136366,0.9428554889075632,-105.1303104,148.20186840000002,92.8322344
3557.245,8.5204966,-81.7331382,-25.0651412,0.8170864,-0.0775766,0.2325033999999999,-6.0458172,-68.46621400000001,-124.70222780000002,18.1327858,45.4628602,29.917381,-0.909361,-0.1593992,-0.1611602,-118.989775,81.577179,-38.5444084,85.9137127920034,0.8530569412085456,57.36479115566086,0.9371862906304594,-112.9439578,150.043393,86.1578194
3577.229,11.5702004,-70.1586288,-21.4804536,0.8618358,-0.0721678,0.1904349999999999,-5.1246848,-69.9349626,-125.3998962,16.1888374,41.5274866,27.9115898,-0.9193024,-0.175172,-0.1598224,-125.34559020000002,81.58293019999999,-45.3081262,74.27996108812998,0.885570226884057,52.58961346920399,0.949392085374383,-120.2209054,151.51789280000003,80.09177
3597.214,10.4539964,-56.81792399999999,-16.7744792,0.908106,-0.0638656,0.1579202,-4.30915,-71.1199756,-126.006961,13.665184,37.1324488,22.453878,-0.9449614,-0.177739,-0.16741,-130.7987534,81.456006,-51.1084466,60.15767349916568,0.923944863975876,45.49431442364377,0.9759965715672162,-126.4896034,152.5759816,74.8985144
3617.199,8.2580346,-41.10464520000001,-12.153388199999998,0.948171,-0.0720444,0.125667,-3.6558826,-71.97151199999999,-126.4902098,9.3952032,31.1816968,16.4382274,-0.9655482,-0.170734,-0.1656676,-135.0890642,81.2516418,-55.6464088,43.65193967296963,0.959171953145712,36.479903762901166,0.9944240438409562,-131.4331816,153.2231538,70.84380100000001
3637.183,5.7007662,-23.5925764,-8.0161524,0.964675,-0.0724498,0.0843734,-3.1721704,-72.45590680000001,-126.8559906,6.0533996000000005,23.707773799999995,10.474791,-0.9644278,-0.1777677999999999,-0.1530152,-138.0102784,81.02830960000001,-58.732251,25.56104645269683,0.9710642099123,26.616224972052805,0.9925401873781836,-134.838108,153.4842164,68.1237396
3657.168,-1.3776362,-6.934028400000001,-4.1516236,0.9910166,-0.0483426,0.0735574,-2.970433,-72.60417939999999,-127.0767882,4.2791052,14.676537599999998,4.150378999999999,-0.9794248,-0.1773356,-0.1353752,-139.4341186,80.83576500000001,-60.2661376,8.19845167501974,0.9949178858303231,15.840995646755342,1.0045134636516526,-136.46368560000002,153.4399444,66.8106506
3677.152,-6.6327792,9.0191836,-0.4509358000000002,0.9986152,-0.0632548,0.085735,-3.0449708,-72.433522,-127.124913,2.3027106,6.8122361999999965,-0.6943190000000001,-0.9892464,-0.1577386,-0.1276457999999999,-139.7686584,80.702809,-60.6547956,11.204587266927026,1.0042828175464718,7.224341978734379,1.00984323342812,-136.7236876,153.13633099999998,66.47011739999999
3697.137,-5.339877,23.858694199999995,2.1406833999999995,0.9836314,-0.0582556,0.0981892,-3.2061364,-71.97449939999998,-127.0616744,-0.1780343999999999,-1.5694044000000027,-5.289335,-0.989183,-0.1439811999999999,-0.1149467999999999,-139.044577,80.643663,-59.918703400000005,24.542495812840183,0.9902351059187712,5.520126009480918,1.006193997334848,-135.8384406,152.6181624,67.142971
3717.121,-5.6207236,37.2052374,3.9196451999999993,0.9658912,-0.037472,0.119056,-3.4258252,-71.251242,-126.9453782,-2.1157056,-9.446774,-9.5257776,-0.9810152,-0.1297244,-0.1060479999999999,-137.3647186,80.6472856,-58.1722206,37.83101693414861,0.9739221181169672,13.581538501863813,0.9952212924221427,-133.9388934,151.8985276,68.77315760000002
3737.106,-6.881582400000001,48.8117324,5.5612656000000005,0.945731,-0.0290536,0.1508242,-3.7118754,-70.3028534,-126.7909118,-4.336587799999999,-16.742806400000003,-13.6559172,-0.963971,-0.1163022,-0.1036231999999999,-134.7928986,80.68690799999999,-55.473825,49.60714738110772,0.9581227350082034,22.03659761551782,0.9764753238787348,-131.0810232,150.9897614,71.31708680000001
3757.09,-6.015684200000001,58.6798406,7.259249,0.9178892,-0.0212764,0.1863739999999999,-3.9989612,-69.1600418,-126.6136308,-7.813040799999999,-24.310404400000003,-17.5782536,-0.952522,-0.1092866,-0.1061227999999999,-131.3174394,80.7435822,-51.78625939999999,59.43238885725139,0.9368610017230944,31.000554321816846,0.9646262333688628,-127.3184782,149.90362399999998,74.82737139999999
3777.075,-6.062737,67.4920728,8.8025544,0.8909790000000001,-0.012212,0.2179572,-4.2986404,-67.84414220000001,-126.4236284,-11.6387706,-31.411445000000004,-21.1663402,-0.948436,-0.1107476,-0.1055202,-126.9776246,80.79054260000001,-47.1430404,68.33316643282842,0.9173320295382912,39.625166441664135,0.9606926613698056,-122.6789842,148.6346848,79.280588
3797.06,-6.748735600000001,75.65651220000001,10.5958414,0.8661298000000001,-0.0121786,0.2446664,-4.6331458,-66.3639672,-126.2104052,-14.7404036,-37.1790888,-24.8588296,-0.9479536,-0.1134332,-0.1051661999999999,-121.92603,80.7802916,-41.713349400000006,76.69240591767488,0.9001059915559724,47.09061001272987,0.9604910453708768,-117.2928842,147.1442588,84.4970558
3817.044,-6.292663,83.44703960000001,12.3624894,0.8428574000000001,-0.0114498,0.2817474,-4.965707399999999,-64.72941360000002,-125.9867768,-18.508003,-41.603327,-27.4374752,-0.9447428,-0.1117562,-0.1025297999999999,-116.4528106,80.6950056,-35.777357800000004,84.592181493331,0.8887751639540565,53.16199806128014,0.9568389447959984,-111.4871032,145.4244192,90.209419
3837.029,-5.810720999999999,90.4458236,14.3945898,0.8241146,0.0007509999999999,0.307164,-5.2969688,-62.949620800000005,-125.750966,-24.148307,-46.042868,-27.2138996,-0.94221,-0.116262,-0.0873226,-110.7110778,80.5592482,-29.452883199999995,91.76827175408953,0.8794971067775949,58.68290003118927,0.9533634003960714,-105.414109,143.50886899999998,96.2980828
3857.013,-8.473023000000001,97.4807312,16.072542399999996,0.7997172,-0.0129876,0.3301268,-5.6898526,-61.0204918,-125.5051574,-28.0396142,-48.69843300000001,-27.7222682,-0.9615672,-0.1333829999999999,-0.0719727999999999,-104.9401594,80.32430719999999,-23.0178132,99.15952648759966,0.8652745123992963,62.66004704189954,0.973438538760758,-99.2503068,141.34479900000002,102.4873442
3876.998,-7.7887866,104.8352066,18.1735636,0.776408,-0.0340502,0.3481048,-6.0926062000000005,-58.9409514,-125.2374694,-31.445701199999995,-50.3994096,-28.4186744,-0.9549482,-0.1452271999999999,-0.0504884,-99.3468976,79.97837519999999,-16.6908284,106.6834764782638,0.8515549015577798,65.85251450507769,0.9672466504659708,-93.2542914,138.91932659999998,108.546641
3896.982,-6.3343564,111.8858034,19.9715472,0.7586029999999999,-0.0289551999999999,0.377015,-6.4448708,-56.716078,-124.9877166,-35.8248674,-52.5125292,-24.910399,-0.9525012,-0.1582202,-0.027606,-94.0146254,79.6047104,-10.535113,113.83066270134556,0.8476185612886493,68.27528707773872,0.965947337552871,-87.5697546,136.3207884,114.4526036
3916.967,-6.4698908,118.155179,21.3536808,0.7422876,-0.0504542,0.4159765999999999,-6.7930352,-54.3573242,-124.7463546,-36.9806002,-51.07156020000001,-23.317193,-0.9862658,-0.1846356,0.0025894,-89.2220564,79.1750702,-4.9023148,120.24344262867,0.8523925381882222,67.22767690329418,1.0034028293907489,-82.4290212,133.5323944,119.84403980000002
3936.951,-1.0579542000000004,125.2277558,22.5348938,0.706419,-0.0923648,0.442084,-7.022675000000001,-51.853649,-124.5198714,-36.9183742,-45.3791118,-21.6976176,-0.9801586,-0.1982728,0.0188046,-85.3099196,78.7085312,-0.1636052000000001,127.24359130569606,0.8384493561903664,62.39404419368852,1.0001882809526217,-78.2872446,130.5621802,124.3562662
3956.936,5.4601468,133.0776032,23.3959072,0.6758624,-0.0809256,0.4312775999999999,-7.104700800000001,-49.1875838,-124.3138946,-36.2129528,-40.827087000000006,-17.90147,-0.9614798,-0.2028924,0.0455506,-82.0863784,78.26892840000001,3.862982,135.22880665836408,0.8058159248431864,57.43423727674545,0.9837090977246068,-74.9816776,127.45651220000002,128.1768766
3976.92,1.570699999999999,141.4907334,24.371281,0.6457902,-0.0698805999999999,0.4601096,-7.222123399999999,-46.3391578,-124.1488524,-34.268500200000005,-36.065116800000006,-11.167998,-0.9722404,-0.2211858,0.0766782,-79.39216000000002,77.92571860000001,7.3126498,143.58291706933954,0.7960082441059012,50.98771356986944,1.0000270495686805,-72.1700366,124.2648764,131.46150219999998
3996.905,0.1423259999999997,149.2743378,25.6691326,0.6068692,-0.1186864,0.5168052000000001,-7.366482400000001,-43.3192238,-123.989256,-31.8413074,-27.506691400000005,-5.162136799999999,-0.9718546,-0.224159,0.0965182,-77.43295280000001,77.7012008,9.9638774,151.46535099076348,0.8058934806788303,42.39262418225656,1.0020301311604358,-70.0664704,121.0204246,133.9531334
4016.89,4.999549,157.16517019999998,25.9930182,0.550888,-0.1011684,0.5287966000000001,-7.3755956,-40.139843,-123.870941,-29.14905,-19.7078836,1.5509102,-0.9626268,-0.2079092,0.103899,-76.0628738,77.6355544,11.95928,159.37855316617694,0.7702846732696427,35.22035085489798,0.9902886416211588,-68.68727820000001,117.7753974,135.830221
4036.874,2.206290799999999,165.1843382,25.4133224,0.5087032,-0.09796,0.5231684,-7.4037166,-36.799374,-123.802223,-23.2690752,-13.660150200000004,8.729316,-0.947287,-0.1934608,0.1130312,-74.9385788,77.7379058,13.582122800000002,167.14236524912675,0.7362610148913223,28.359311027908824,0.9734247755625908,-67.53486219999999,114.5372798,137.3843458
4056.859,-0.4313142000000005,173.2943052,25.2095982,0.4386263999999999,-0.1002954,0.6232928,-7.460435800000001,-33.2992566,-123.7680128,-17.4117234,-7.0238878000000025,21.2896968,-0.9634614,-0.2145114,0.1224842,-73.9484512,78.09829400000001,14.9483652,175.11889129415852,0.768730252149582,28.385811621671603,0.9946232398599782,-66.48801540000001,111.3975506,138.71637800000002
4076.843,5.516479,178.0591704,24.7444252,0.4038859999999999,-0.1223612,0.7203595999999999,-7.380326600000001,-29.700775600000004,-123.7620482,-8.0524866,2.748408399999997,27.8794296,-1.0064182000000002,-0.2238176,0.1140416,-73.50782920000002,78.63501879999998,15.564128,179.85490341542558,0.8348737135481029,29.148908796003436,1.0372933036955172,-66.1275026,108.3357944,139.3261762
4096.828,11.4904624,183.0006498,24.108929,0.3134157999999999,-0.113451,0.6983895999999999,-7.1548268,-26.0076348,-123.7803238,4.4596006,12.660892999999998,27.8439712,-0.987405,-0.193738,0.098893,-73.8567352,79.23708939999999,15.122218800000002,184.9392035532626,0.7738531039407931,30.910725990429256,1.0110800522797392,-66.70190840000001,105.2447242,138.9025426
4116.812,12.3096878,188.3193968,23.7671574,0.2189022,-0.1172656,0.7252177999999999,-6.9147316000000005,-22.2088178,-123.8007858,15.161427800000002,20.3174196,34.822199999999995,-0.9645458,-0.1857696,0.0817284,-74.7679824,80.0117706,13.895920800000004,190.21199067284292,0.7665574026418633,43.0726368472732,0.9856665135573796,-67.8532508,102.2205884,137.6967066
4136.797,12.1441932,190.50152280000003,23.5855328,0.1464838,-0.0829602,0.8841471999999999,-6.6797586,-18.361891,-123.8134858,26.2441254,24.6626768,36.6972622,-1.0323372000000002,-0.1972664,0.0905012,-76.065309,80.83582759999999,12.0565034,192.3397748128497,0.900031204855876,51.41683379913365,1.0549050167073053,-69.38555040000001,99.1977186,135.86998920000002
4156.8,15.4752294,188.6591218,23.671724,0.095774,-0.1328586,0.9605252,-6.3843148,-14.545922199999998,-123.8016756,31.2493888,29.87533,26.6255402,-1.0399556,-0.163094,0.0863842,-78.3253952,81.4941482,9.1387738,190.76712893069927,0.9743883858631526,50.77380263407776,1.0562052512731603,-71.9410804,96.0400704,132.9404494
4176.766,20.2036392,186.5922486,23.0564064,-0.0312657999999999,-0.0860707999999999,0.8924846000000001,-5.9882618,-10.7808096,-123.7747438,32.0901684,30.5409446,20.934155800000003,-0.983427,-0.1262452,0.0395912,-81.1282624,82.0383712,5.656847800000001,189.09376549905065,0.8971702704054788,48.99762324908527,0.9922872456952574,-75.1400006,92.8191808,129.4315916
4196.75,11.540751599999998,184.2150452,22.8176384,-0.102768,-0.06099,0.9564386,-5.761482,-7.064175800000001,-123.724547,31.357807200000003,24.065465,20.8577696,-1.0190316,-0.1301486,0.0199162,-83.3864808,82.5399124,2.7448980000000005,185.9812260624284,0.9638754263357688,44.69345847823013,1.0275021726998732,-77.6249988,89.6040882,126.469445
4216.735,9.8641758,180.3162538,23.264785,-0.1359,-0.1253824,1.0733366,-5.5681818,-3.4219538,-123.643796,24.816714,17.582380199999996,14.0872238,-1.0589534,-0.1341928,0.0407798,-85.1894198,82.8756118,0.4247352000000007,182.07828967171116,1.0891469199007635,33.51804382189441,1.068200825234394,-79.62123799999999,86.2975656,124.0685312
4236.72,18.0533802,175.33618180000002,23.8314044,-0.200487,-0.1115308,1.0328054,-5.209330799999999,0.1216138,-123.5208194,14.848548200000002,12.945297799999995,8.2917162,-1.0089256,-0.1692396,0.0024518,-86.761066,83.076944,-1.460527399999999,177.86690816597886,1.0579797497054468,21.37317656128238,1.0230243984709064,-81.5517352,82.9553302,122.060292
4256.704,12.6457046,171.4230286,24.1740374,-0.281064,-0.0569597999999999,0.9464724,-4.948358799999999,3.5819812,-123.3599352,19.1316094,6.258920999999998,6.710863399999999,-0.9864432,-0.1585748,-0.0409196,-87.370029,83.2306184,-2.4586983999999994,173.58039250861106,0.988964809724694,21.21858284362716,0.9999452823457092,-82.4216702,79.64863720000001,120.90123680000002
4276.689,5.804949199999999,169.8605316,23.5751846,-0.3055317999999999,-0.1010851999999999,1.0148632,-4.8170752,7.0132164,-123.1957064,20.7950486,-0.6708942000000029,6.1463272,-1.057114,-0.0841672,0.0099352,-86.8160464,83.3608598,-2.3171683999999995,171.58696617043282,1.0646667146034574,21.694734000522235,1.0605059333878712,-81.9989712,76.34764340000001,120.878538
4296.673,13.701196,167.6589172,20.7383248,-0.3302016,-0.1088528,1.0678176,-4.531948399999999,10.4022338,-123.0724596,10.7011502,-5.0945788000000025,5.6532578,-1.0555477999999998,-0.0640194,0.0539876,-85.6229982,83.46662599999999,-1.3282127999999995,169.4913372536106,1.122994414759112,13.13120986450336,1.0588646290319454,-81.0910498,73.0643922,121.7442468
4316.658,17.8314336,164.05541680000002,16.664313600000003,-0.4077764,-0.0428864,0.993538,-4.1725568,13.714472,-123.0025804,5.8701322000000005,-6.545447600000003,4.6228582000000005,-0.9772604,-0.0850048,0.0110334,-84.32981420000002,83.5451264,-0.1401643999999993,165.86090302844755,1.0748202608557025,9.93338584104785,0.9810124572841876,-80.1572574,69.8306544,122.862416
4336.642,9.4957106,160.5266936,12.588281599999998,-0.4771219999999999,-0.0320883999999999,0.9342384,-3.9941162,16.9475978,-122.992627,6.1916216,-7.634093800000004,2.8710773999999994,-0.9948408,-0.0206498,0.0020446,-82.948384,83.5927154,1.1307452000000004,161.2992644483791,1.0495124850772952,10.240051348581012,0.99505719030307,-78.9542678,66.6451176,124.1233722
4356.626,6.047047600000002,158.32699280000003,7.8236518,-0.5273046,-0.0585821999999999,0.9598808,-3.9114452,20.1363934,-123.074286,-3.7978908,-7.989229200000002,3.6037842,-1.0446548,0.0149594,0.034265,-81.62165519999999,83.6539596,2.5471162000000005,158.63547195143832,1.0967466277799265,9.55191176147618,1.045323646071589,-77.71021,63.5175662,125.6214022
4376.611,8.335178200000001,155.2893402,3.151836199999999,-0.5679628,-0.0526556,0.9630974,-3.815357,23.2532226,-123.2460328,-16.0151748,-7.852490600000003,4.919614,-0.996983,-0.0549508,0.0139708,-80.47883,83.73762059999999,4.024790600000001,155.54481170006514,1.1193350509485354,18.502703435083195,0.9985939494921248,-76.663473,60.48439800000001,127.2708234
4396.596,7.288766000000001,151.5883912,-0.0377072000000007,-0.6245082,-0.0542604,0.8945474000000001,-3.7726016,26.2877306,-123.4790376,-17.3878818,-4.881571200000002,5.236979,-0.9648122,-0.0890876,-0.0192064,-79.87938840000001,83.825351,4.9829882,151.7635261788547,1.092323090354754,18.8040984872416,0.969106840107715,-76.1067868,57.5376204,128.4620258
4416.58,0.1254792000000016,148.773999,-2.2311932000000008,-0.6569423999999999,-0.043546,0.8450688,-3.906766,29.2587524,-123.7649904,-18.2245642,-4.266333000000003,3.2119826,-1.0109754,-0.0663158,-0.0079857999999999,-79.530304,83.87368160000001,5.7056572,148.79078179301754,1.071266002338915,18.99087069540292,1.0131795584872605,-75.623538,54.614929200000006,129.47064759999998
4436.565,-2.7995373999999984,148.6668884,-4.769841600000001,-0.677047,-0.0998543999999999,0.8606062,-4.1636976,32.233454,-124.13725,-22.4450088,-5.120755400000003,4.496887,-1.0319954,-0.0809232,0.029845,-78.92273120000002,83.9381256,6.772417200000001,148.7697298010625,1.0995483494993752,23.4568230711125,1.035593450126255,-74.7590336,51.704671600000005,130.9096672
4456.551,1.5092706000000016,147.7693968,-7.391280800000001,-0.6858082000000001,-0.0941169999999999,0.8798226,-4.3960592,35.1684352,-124.5992678,-24.2211306,-4.650533600000003,7.7759938,-0.9810658,-0.1265296,0.0348082,-78.2455964,84.0578934,7.9458056,147.96183143042103,1.1194993096679426,25.86033081545214,0.9898037453925096,-73.84953720000001,48.8894582,132.5450734
4476.534,2.8009280000000016,145.32220139999998,-9.4061712,-0.7358236,-0.0778174,0.8137668,-4.6757086,38.0562484,-125.1445468,-16.7385256,-2.162478800000003,7.873803,-0.9361176,-0.1341722,0.0097292,-77.9488602,84.18183439999999,8.586414200000002,145.65323022180817,1.0998674114828386,18.62394500381468,0.9457341051348628,-73.27315159999999,46.125586,133.730961
4496.518,-1.1210321999999986,141.8391662,-11.888530800000002,-0.8106069999999999,-0.0683446,0.7411556,-5.1165932,40.8652474,-125.7883272,-8.650426399999999,0.312267999999997,5.264620000000001,-0.9521448,-0.0991032,-0.0313866,-78.04514939999999,84.27486259999999,8.667296799999999,142.3409391077887,1.1004845824497134,10.13131837176391,0.95780284144329,-72.9285562,43.4096152,134.455624
4516.503,-7.403448999999999,138.0280746,-14.481045,-0.844646,-0.0846164,0.7415228,-5.786116999999999,43.5936318,-126.5530992,-4.2282568,-0.3847454000000028,5.241983200000001,-0.991814,-0.0863564,-0.0100642,-77.82476059999999,84.3723052,8.976944200000002,138.9829525487597,1.1271392386856205,6.745707706286246,0.9956172590602276,-72.0386436,40.7786734,135.5300434
4536.487,-12.156471,133.6823272,-16.2251884,-0.8531169999999999,-0.0841093999999999,0.7624086,-6.647986399999999,46.2109598,-127.4312852,-2.7476949999999998,-1.3358722000000027,6.191222000000001,-0.9875372,-0.1030686,0.0085895999999999,-77.38983019999999,84.48251339999999,9.4736868,135.21095048625756,1.1472357561597004,6.9040286935268345,0.9929383862647068,-70.7418438,38.2715536,136.904972
4556.472,-10.508683599999998,130.2365906,-17.250623,-0.8930476,-0.1165417999999999,0.7097632,-7.611408399999999,48.7524904,-128.4469148,-0.6987023999999995,-0.3611054000000027,5.196980000000001,-0.9717038,-0.1249826,-0.0259644,-77.1707658,84.58438859999998,9.7121694,131.79372502515074,1.1466820863200229,5.256156701818823,0.9800525880301324,-69.5593574,35.8318982,138.1590842
4576.456,-9.476681199999998,126.081929,-18.2897196,-0.9224974,-0.1252476,0.6492294000000001,-8.6861006,51.1962602,-129.5977678,6.387081,-0.1238174000000027,5.4555534,-0.9906098,-0.1138738,-0.0367344,-76.786168,84.7023802,9.9747818,127.7535680518321,1.1349833602907489,8.400785519780595,0.9978098187158914,-68.1000674,33.50612,139.5725496
4596.441,-11.213888199999998,121.9223464,-19.3733266,-0.9219572,-0.1132403999999999,0.6274544000000001,-9.9486246,53.5429612,-130.9033754,11.263507,-1.2430090000000025,6.386292,-0.9994966,-0.1012909999999999,-0.0119681999999999,-76.0777222,84.8381378,10.4662906,123.9602179079803,1.1209493703568238,13.007551146253242,1.0046872935912945,-66.1290976,31.2951766,141.369666
4616.425,-9.416673599999998,118.5938476,-20.9303948,-0.9317942,-0.1475416,0.6044579999999999,-11.3939938,55.790415200000005,-132.4290834,13.189446800000002,-0.3884172000000028,8.5740222,-0.9742246,-0.0900586,-0.0106827999999999,-75.39856420000001,85.0137314,10.890944800000002,120.79427079437514,1.1204367133614463,15.736144111483569,0.978436633050378,-64.0045704,29.2233162,143.32002819999997
4636.41,-4.595149199999997,114.365776,-21.5030372,-0.9662792,-0.1465797999999999,0.5565599999999999,-12.914265599999998,57.9199874,-134.122162,14.948588200000003,2.686706799999997,5.0168518,-0.9578382,-0.1260514,-0.0468134,-75.5161286,85.132759,10.476371,116.46040840164105,1.1246955871348834,15.995233183217705,0.9672303072385398,-62.601863,27.212771600000004,144.598533
4656.395,-5.129261999999997,108.5817016,-21.3241844,-0.9910058,-0.1337008,0.5128738,-14.5856738,59.9159628,-135.9465668,22.8426506,4.938665199999997,2.1628496000000004,-0.9849842,-0.0965752,-0.0391714,-76.1542742,85.21123800000001,9.3781088,110.77461844367278,1.1238362577709975,23.470300781702644,0.9904822270402636,-61.5686004,25.295275200000003,145.3246756
4676.379,-7.161671799999998,103.024736,-20.5097996,-1.0166762,-0.1236507999999999,0.5208130000000001,-16.4121252,61.787696800000006,-137.87229299999998,19.023431,7.8335253999999965,-0.1802529999999999,-1.0104198,-0.0654674,-0.0300256,-77.6246218,85.25148300000001,7.517768999999999,105.29025429959208,1.148984854972458,20.57395291012924,1.0129835582822455,-61.2124966,23.463786200000005,145.390062
4696.364,-5.341396799999997,96.2782882,-18.955372,-1.029569,-0.138049,0.5402622,-18.2778012,63.5094932,-139.85784600000002,11.2332382,12.225955999999996,-2.0406172,-1.0094962,-0.0835178,-0.0443324,-80.3924868,85.2566664,4.507525,98.27179364474678,1.1708770631073273,16.727933498457332,1.0139147707874858,-62.1146856,21.7471732,144.365371
4716.348,-1.7021721999999972,86.6577484,-15.718375200000002,-1.0486682,-0.1189671999999999,0.5248316,-20.0087742,65.0380454,-141.75282280000002,8.3389328,17.7978304,-4.1599596,-1.0099209999999998,-0.1036665999999999,-0.0808658,-84.739969,85.2103728,-0.0350953999999994,88.0881948213501,1.1786884222412808,20.08994353062527,1.0184431588489364,-64.7311948,20.1723274,141.7177274
4736.333,0.0429126000000027,75.8954208,-12.924524,-1.0687074,-0.1073023999999999,0.492041,-21.6013054,66.3670462,-143.5115722,7.0898138,23.2419492,-1.6770353999999998,-1.027403,-0.0408695999999999,-0.0790424,-90.141298,85.1942932,-5.6131162,76.98805141401415,1.1814201866996854,24.357054626265963,1.031249217992877,-68.5399926,18.827247,137.89845599999998
4756.317,-0.5159469999999973,64.63241719999999,-10.8816964,-1.0641382,-0.0921644,0.4933481999999999,-23.090239,67.48208919999999,-145.1248688,-2.9342638,26.6479684,-0.8630837999999998,-1.0357364,-0.0360548,-0.0695652,-96.3595428,85.1460754,-11.8138838,65.54408341691443,1.1765529447372267,26.82292000400425,1.038695891942892,-73.26930380000002,17.6639862,133.310985
4776.302,-1.1540459999999972,53.4517486,-8.5067086,-1.038101,-0.1121719999999999,0.5159946,-24.439238,68.382051,-146.5491882,-9.9863264,28.1338898,-1.2182779999999998,-1.0306234,-0.0765576,-0.0555788,-102.8846816,85.03131099999999,-18.1846206,54.13672821452208,1.1646830774996946,29.878531950736217,1.0349563574155,-78.4454436,16.649259999999998,128.3645676
4796.286,1.1917162000000028,43.5613846,-5.607076600000001,-1.010196,-0.1167421999999999,0.5259349999999999,-25.5278304,69.1108154,-147.72704159999998,-11.5489912,27.8565952,-0.7121023999999998,-1.0381386,-0.086903,-0.0215974,-108.9860136,84.8742584,-24.1003274,43.93692892964558,1.1448721867098703,30.16415395303548,1.0419934413928529,-83.45818320000001,15.763443,123.6267142
4816.271,2.9180546000000027,34.9616532,-3.2124818000000004,-0.9887788,-0.1024078,0.5348536,-26.3607412,69.7031342,-148.6545348,-13.6948862,25.1608546,-0.2521567999999998,-1.0354476,-0.0660975999999999,0.0055259999999999,-114.1307418,84.71381679999999,-29.0115434,35.22999115016895,1.1288220613822355,28.64754955114098,1.0375698346364546,-87.7700006,15.0106826,119.6429914
4836.256,3.377359000000003,26.558311600000003,-1.1611532000000009,-0.9708024,-0.1057674,0.5587,-26.966672,70.1650544,-149.3358184,-17.0527198,21.458129199999995,-1.6058245999999996,-1.0243722,-0.0863538,0.0060407999999999,-118.141429,84.5184798,-32.714132,26.797364527345707,1.1250732121726656,27.45587794966989,1.028023284839366,-91.174757,14.353425399999995,116.6216864
4856.24,5.486940200000003,17.393443400000002,1.4443413999999994,-0.9653584,-0.1196235999999999,0.5726412000000001,-27.2083144,70.4873216,-149.672293,-17.280085999999997,17.773158399999996,-2.397846,-1.018675,-0.1065492,-0.003524,-121.1401122,84.3102676,-35.393182,18.29547780592608,1.12878013362433,24.90454169661836,1.0242382077532746,-93.9317978,13.822945999999998,114.279111
4876.225,7.565123800000002,7.550749999999999,4.189638599999999,-0.9766212,-0.1014208,0.5673924,-27.035404400000004,70.65930639999999,-149.6088592,-15.781833199999998,14.068970599999997,-2.6417598,-1.0283830000000005,-0.087435,-0.0033026,-123.3111632,84.1338242,-37.2679116,11.48033079969547,1.1340234929400008,21.306831949803858,1.032098532641511,-96.2757588,13.474517799999996,112.34094759999998
4896.209,7.781001800000003,-2.907,6.078120799999999,-0.9821732,-0.0876961999999999,0.5807087999999999,-26.506061,70.6593414,-149.1726562,-15.884939799999998,9.058335199999998,-2.3642544,-1.0303708,-0.0732372,-0.0063024,-124.6508972,84.01706379999999,-38.3016984,10.292627967190688,1.144367741895113,18.438396023328664,1.0329895416712795,-98.1448362,13.357722399999997,110.8709578
4916.194,8.013956800000003,-13.919030800000002,8.0996992,-0.9850358,-0.0976988,0.59925,-25.612903400000004,70.4756118,-148.3534242,-16.0202114,4.770008799999998,-2.9615295999999995,-1.0279724,-0.1092264,-0.0213274,-125.1747528,83.9168228,-38.51031880000001,17.98799736307785,1.1571262443238768,16.975594682497682,1.0339789744523242,-99.5618494,13.441211,109.84310539999998
4936.178,9.221790400000003,-25.731212600000003,10.8999012,-1.0003395999999998,-0.1009674,0.59566,-24.3121782,70.0942,-147.1193512,-11.7591708,0.9480191999999972,-1.8641148,-1.0344542,-0.1101356,-0.0410718,-125.212561,83.8736144,-38.3133118,29.426936065749228,1.1686250753731582,11.943691317792853,1.0411110579761604,-100.9003828,13.7794144,108.8060394
4956.163,8.948996400000002,-37.5123718,13.2420606,-1.0137532,-0.0813714,0.5938844,-22.705208,69.4995908,-145.542337,-10.1050376,-3.003998200000003,-1.3041155999999998,-1.0443964,-0.0800118,-0.0364562,-124.7375564,83.9008162,-37.6311272,40.775173127317565,1.1777162373897885,10.622452992655717,1.048091018466736,-102.0323484,14.401225399999998,107.9112098
4976.147,7.863067800000003,-49.0730964,14.9074548,-1.0135674,-0.0907492,0.6148444,-20.9111074,68.6799512,-143.7449188,-12.7081774,-7.181097800000003,-1.7599367999999995,-1.040299,-0.0865008,-0.040083,-123.6196182,83.9612684,-36.247641,51.88669226425147,1.1889440389920627,14.702493529433362,1.044658338735991,-102.7085108,15.2813172,107.49727779999998
4996.132,8.106477000000002,-60.6818946,17.2395564,-1.0160526,-0.0999598,0.6204434,-18.930965,67.6235562,-141.7380524,-13.0663378,-10.694448800000004,-3.2102018,-1.0315477999999998,-0.1137096,-0.0589238,-121.8024764,84.01071920000001,-34.1514866,63.60196228471114,1.19469864827343,17.187373686408684,1.039467532452765,-102.8715114,16.387163000000005,107.5865658
5016.116,7.843574000000002,-72.7935624,19.5930858,-1.0283908,-0.0938795999999999,0.6162938,-16.8474164,66.3163098,-139.6066222,-11.169129,-13.097373000000005,-3.6484318,-1.0189439999999998,-0.1030612,-0.0758824,-119.63549480000002,84.0673124,-31.7392418,75.7912487767706,1.2025884852015003,17.595501604643765,1.0269501568777326,-102.7880784,17.751002600000003,107.8673804
5036.101,7.408704800000002,-84.90366920000001,21.100822,-1.0318462,-0.0897343999999999,0.6128132000000001,-14.7788038,64.7517202,-137.4685546,-10.753589,-15.024479200000004,-4.797034200000001,-1.0100126,-0.0848236,-0.0806002,-117.1107558,84.1189406,-28.9736328,87.79958222857474,1.2034528910979605,19.088902239995974,1.016767863140727,-102.331952,19.367220400000004,108.4949218
5056.085,7.097325000000003,-96.741182,22.1342896,-1.0332236,-0.0861271999999999,0.6219370000000001,-12.7945828,62.933592,-135.4004424,-9.997473,-16.719683200000002,-6.555448799999999,-1.0004724,-0.0883172,-0.0879922,-114.1535704,84.13583980000001,-25.7870526,99.49449780268966,1.2090386818236214,20.554103766973466,1.008210086360199,-101.3589876,21.2022478,109.6133898
5076.07,6.208092800000003,-108.5350068,23.130727,-1.0392954,-0.0787397999999999,0.6376956,-10.9427136,60.865240400000005,-133.4299712,-8.214536599999999,-17.847553400000002,-8.299837,-0.9983024,-0.102752,-0.0919946,-110.8695174,84.10089580000002,-22.3071334,111.14593401846956,1.2218799297903864,21.32840988318539,1.007784035286787,-99.9268038,23.23565540000001,111.1228378
5096.055,4.884670000000003,-120.1215028,24.2372158,-1.0473354,-0.0808585999999999,0.6599398000000001,-9.2713338,58.56187520000001,-131.6068784,-5.758646999999998,-18.1740938,-9.8609684,-0.9994926,-0.1154528,-0.089202,-107.4683898,84.0088776,-18.759120000000003,122.63962681643758,1.2405523338058575,21.463885913496792,1.0100850475512444,-98.197056,25.4470024,112.8477584
5116.039,4.418471200000004,-130.9021118,25.5251538,-1.0536404,-0.0720142,0.6760204,-7.764249600000001,56.044580200000006,-129.9209424,-2.8848437999999987,-17.764791600000002,-11.371419,-1.0046414,-0.1146068,-0.0857663999999999,-104.1356048,83.86909800000001,-15.3380536,133.44069558406304,1.253932900409731,21.288948175412283,1.0147881239791685,-96.3713552,27.8245178,114.5828888
5136.024,2.775408800000003,-140.9772734,26.430044,-1.055602,-0.0605333999999999,0.7065102000000001,-6.449860000000001,53.3237092,-128.384123,-1.7930613999999985,-16.6802098,-12.964969200000002,-1.0093418,-0.1159564,-0.0749594,-101.0026138,83.67859659999999,-12.1412542,143.46024444126465,1.271658970645668,21.2022379600158,1.018742198780712,-94.5527538,30.354887400000003,116.2428688
5156.008,0.2368054000000027,-150.53025499999998,27.0564652,-1.0464622,-0.0628557999999999,0.7301942,-5.346190200000001,50.4138406,-126.9979856,-3.2230171999999984,-14.833046,-14.106805,-1.010989,-0.1281282,-0.0731498,-98.330362,83.43839419999999,-9.3804532,152.9426887964289,1.2775827007814875,20.722187162981538,1.0216978452538108,-92.9841718,33.024553600000004,117.6175324
5175.993,-0.8968647999999974,-158.88768299999998,27.2504796,-1.0277898,-0.0699263999999999,0.7439612,-4.4183364,47.343982800000006,-125.7506544,-3.0774705999999985,-12.475076200000004,-14.5172214,-1.0019490000000002,-0.1369765999999999,-0.0753046,-96.2448548,83.16644579999999,-7.213668200000001,161.21007665157902,1.2707162710481203,19.38680140369444,1.0140686221009505,-91.8265184,35.822463,118.5369862
5195.977,-0.3000495999999973,-166.07022080000002,26.594738,-0.9980958,-0.0675241999999999,0.7656414,-3.6266086,44.1342424,-124.6446882,-1.0404321999999986,-9.869094000000002,-13.8646342,-0.9886608,-0.1330123999999999,-0.0699022,-94.7076172,82.89643999999998,-5.640278,168.18646900274666,1.2597466002959643,17.05020812317089,1.0000143966839878,-91.0810086,38.76219759999999,119.0044102
5215.962,1.4191794000000026,-172.3679656,24.966894,-0.9445992,-0.0642075999999999,0.7955956000000001,-2.9514254,40.793442600000006,-123.69249399999998,2.164884600000001,-7.418480200000002,-13.3704098,-0.9870484000000002,-0.137394,-0.0402732,-93.4795838,82.62932119999999,-4.4449584,174.17254499851404,1.2366740165774326,15.44307068005082,0.9973783564008196,-90.5281584,41.8358786,119.2475356
5235.946,4.220665800000003,-177.37364799999995,23.0237798,-0.875911,-0.0521651999999999,0.8259550000000001,-2.3507364,37.34464,-122.8821898,6.1220126000000015,-5.789868200000003,-12.6150246,-0.9915484,-0.136851,-0.0212724,-92.4372466,82.37617780000001,-3.5176624000000003,178.91148498881248,1.205048940930218,15.170380934786548,1.0011737814911654,-90.0865102,45.0315378,119.3645274
5255.931,6.626350400000002,-181.0824982,21.393772,-0.8190788,-0.0382217999999999,0.8453738,-1.8062658,33.8099958,-122.1882568,10.9505934,-3.6178996000000025,-12.242553,-0.9872654,-0.1406147999999999,-0.005398,-91.6192062,82.1279066,-2.9153,182.46225131342808,1.1777129736617151,16.819179447452623,0.9972435161083776,-89.8129404,48.3179108,119.2729568
5275.915,7.517779800000002,-184.3194062,20.0609088,-0.7690322,-0.0254473999999999,0.8676628000000001,-1.32664,30.1885904,-121.5876572,16.190990000000003,-0.1918716000000028,-11.905076,-0.972723,-0.1451408,0.000217,-91.191626,81.88250120000001,-2.813914,185.5602343631949,1.159696869577322,20.097656740445206,0.983491704918064,-89.864986,51.693910800000005,118.77374319999998
5295.9,7.362807000000002,-187.3400056,19.2195758,-0.7096047999999999,-0.0059175999999999,0.8837278000000002,-0.9146192,26.486556,-121.0573884,22.306552400000005,4.882268999999997,-12.7743732,-0.9747814,-0.1620144,0.0037376,-91.2993852,81.6089142,-3.3791552,188.46718738034804,1.1333793780838084,26.16492769367393,0.9881606211780958,-90.384766,55.12235820000001,117.6782332
5315.884,5.054067400000003,-189.6331788,18.8852214,-0.6535295999999999,0.0079276,0.9025002,-0.6035809999999999,22.720666,-120.5787066,28.9455866,11.295193199999996,-13.5319908,-0.980431,-0.1538792,-0.0024889999999999,-92.0793488,81.3192062,-4.7604500000000005,190.6382377342057,1.114302650054266,33.89016299834969,0.992436370290126,-91.4757678,58.5985402,115.8182566
5335.869,2.3963230000000024,-191.6913392,18.6420792,-0.6056474,-0.0024689999999999,0.9113362,-0.3944002,18.8996614,-120.1398942,32.02466020000001,16.367912999999994,-14.2350498,-0.976474,-0.153798,0.0006108,-93.368535,81.0096772,-6.721548799999999,192.61058902643137,1.0942342247061183,38.67976318062862,0.9885118464422368,-92.9741348,62.1100158,113.4183454
5355.853,1.6523954000000023,-193.8451234,18.311724,-0.544794,0.0074006,0.9163076,-0.2394668,15.0268264,-119.7323288,33.0026336,19.2129926,-14.436496,-0.9739322,-0.1529212,-0.0032827999999999,-94.9185716,80.6921282,-8.9676456,194.71512913066445,1.066055762675724,40.82554746652541,0.9858699713360376,-94.6791048,65.6653018,110.7646832
5375.838,0.0236282000000027,-195.7208252,17.312530000000002,-0.4570632,0.0144322,0.927258,-0.1493787999999999,11.1227864,-119.3605422,31.8144424,17.2631642,-15.758818200000002,-1.0108678000000002,-0.122732,0.0300664,-96.115358,80.36573200000001,-10.8329448,196.48502658030125,1.0338870614119706,39.4780437012744,1.0187349220036588,-95.96597920000002,69.2429456,108.5275974
5395.823,-0.5550561999999971,-196.6234252,15.5369664,-0.373613,0.0201882,0.9313142,-0.1010102,7.200179800000001,-119.0347778,22.4026372,9.497956999999996,-15.3755198,-1.0310592,-0.0826452,0.0489396,-96.5131928,80.08683040000001,-11.696294,197.2371079429018,1.0036634776208009,28.783605573466037,1.0355232433102797,-96.4121826,72.8866506,107.3384838
5415.807,-1.682908599999997,-196.9827574,13.577461,-0.3004904,0.0139146,0.9180722,-0.1023795999999999,3.2701736,-118.7534622,8.975366600000001,-1.0554740000000031,-16.2130392,-1.034274,-0.106238,0.060829,-95.9275254,79.7960558,-11.2879544,197.4573025782276,0.9660976456850312,18.56162361082156,1.0414938247349332,-95.8251458,76.5258822,107.4655078
5435.791,-3.901040599999997,-196.7067748,12.3420686,-0.2179544,0.0144644,0.9068518,-0.1723036,-0.6468022000000001,-118.49631960000002,-0.1416295999999985,-12.557063600000005,-18.7413012,-1.0410784,-0.1499484,0.0574016,-94.3338684,79.444446,-9.6669042,197.13218922161815,0.9327880394333752,22.5596160398878,1.0533867766835123,-94.1615648,80.0912482,108.8294154
5455.776,-6.536302399999997,-194.84263600000003,11.8373812,-0.1353568,-0.0054395999999999,0.9017596,-0.319553,-4.5187422,-118.2414216,-4.1693778,-22.443151800000003,-24.0057334,-1.0642572,-0.1603802,0.0694777999999999,-91.8822814,78.9882188,-7.089276600000001,195.31128909043343,0.9118779681221386,33.12633408677833,1.0785139595743396,-91.5627284,83.506961,111.152145
5475.761,-7.557343799999996,-191.9171264,11.5400936,-0.0664484,-0.0032835999999999,0.8766984000000001,-0.5029321999999999,-8.3301856,-117.9815202,-10.5573898,-28.738386800000008,-30.0427634,-1.056709,-0.1569382,0.062786,-89.15720200000001,78.39812320000001,-4.0993914,192.4122413237831,0.8792191174298248,42.894300180372895,1.0701427900501128,-88.6542698,86.72830880000001,113.8821288
5495.745,-10.976443799999997,-188.2733796,11.0605796,-0.0024676,-0.0074247999999999,0.847748,-0.7661513999999999,-12.0513898,-117.7118516,-17.760520800000002,-30.087960400000004,-35.9385002,-1.0347168,-0.177317,0.0658562,-86.7001082,77.6610274,-1.2319676,188.91713581776585,0.8477841047158173,50.12282171570752,1.0518636859259285,-85.93395679999999,89.71241719999999,116.479884
5515.73,-15.3378294,-184.5528078,9.9207054,0.0746946,0.0008772,0.8261092000000001,-1.1190976,-15.6887318,-117.4473206,-21.669962,-30.631536800000003,-41.1710822,-1.024134,-0.1858323999999999,0.0673414,-84.5698774,76.80139,1.3871144000000002,185.454598954032,0.8294796339113096,55.70400622334408,1.0430335541101832,-83.45077979999999,92.4901218,118.834435
5535.714,-19.059745,-180.4955386,8.208899200000001,0.142178,-0.0099709999999999,0.8003136,-1.565662,-19.2435512,-117.1790802,-21.7643522,-26.755586000000005,-44.225687400000005,-1.0016002,-0.1993128,0.0713518,-83.0490264,75.86961960000001,3.389321,181.68461508901868,0.8129058142675325,56.0843992112919,1.023728300012811,-81.4833644,95.1131708,120.5684012
5555.699,-21.6236368,-176.86747759999997,5.9916918,0.2149423999999999,-0.0100879999999999,0.7695878,-2.0764378,-22.7318916,-116.9152694,-20.1946598,-23.227078800000005,-42.212020800000005,-0.9641542,-0.2235491999999999,0.0723354,-81.96912839999999,74.96753980000001,4.9124906,178.28512745507123,0.7991041139742681,52.241517723347,0.9923708864590092,-79.8926906,97.6994314,121.82775999999998
5575.684,-25.7600158,-173.46660179999998,4.3192474,0.282396,-0.0121537999999999,0.7527272,-2.684753,-26.156305,-116.6484344,-14.3003024,-20.329853600000003,-37.9132278,-0.9487614,-0.2677372,0.072609,-81.09300839999999,74.14938179999999,6.1091666,175.4220517841426,0.8040481660263147,45.33447295760227,0.9884854421157652,-78.4082554,100.3056868,122.757601
5595.668,-30.51116559999999,-170.45592979999998,2.9611216,0.3579297999999999,-0.0271177999999999,0.7302500000000001,-3.4179236000000004,-29.539764400000003,-116.3517516,-5.0348712,-19.6352518,-32.926019600000004,-0.938562,-0.2805052,0.0808759999999999,-80.1389006,73.423529,7.199907400000001,173.19042546106044,0.8137039875193436,38.665434278559154,0.9829154197829232,-76.72097699999999,102.9632934,123.551659
5615.652,-31.498840599999998,-166.7162936,1.7736695999999998,0.4073592,-0.0584021999999999,0.7022374,-4.2181292,-32.8539596,-116.0125608,2.6368858,-17.562129200000005,-27.3241374,-0.9520914,-0.2923494,0.0869936,-79.19621579999999,72.81309200000001,8.123291,169.67511725269435,0.8139347030003328,32.588188556804035,0.9997570165171534,-74.97808660000001,105.6670516,124.1358518
5635.637,-30.8811498,-163.12070319999998,0.3588307999999999,0.4677858,-0.0561155999999999,0.6696794,-5.0265518,-36.1103904,-115.6552442,7.801717999999999,-15.611498400000002,-21.1206536,-0.9396168,-0.2817712,0.0921198,-78.2422302,72.3386658,8.951737,166.01848687714136,0.8188058463575845,27.39831554194381,0.9852719409095744,-73.21567839999999,108.4490562,124.6069812
5655.621,-32.122216599999994,-158.6496186,-1.2075036,0.5076050000000001,-0.0676561999999999,0.639006,-5.8928574000000005,-39.2797416,-115.267793,12.5728678,-12.301872000000005,-14.905670999999998,-0.934967,-0.2764606,0.091918,-77.3530074,72.0041458,9.6139348,161.87339604198954,0.8188826933446817,23.0562808661957,0.9793072414545704,-71.46015,111.2838874,124.8817278
5675.606,-30.4999158,-153.8204376,-3.2445072,0.5534984,-0.0856865999999999,0.6005516,-6.758729,-42.362075,-114.8531994,14.7956572,-10.896171400000004,-4.495400200000001,-0.9287886,-0.2732472,0.0920194,-76.3890288,71.87750860000001,10.3104088,156.84864906728853,0.821197233607542,18.916834992044784,0.9725121417104056,-69.63029979999999,114.2395836,125.1636082
5695.59,-28.487832399999995,-148.397177,-5.1069074,0.580055,-0.0866439999999999,0.5616358,-7.602593000000001,-45.338987,-114.4368344,16.9277458,-7.035978600000003,3.3993328,-0.9405412,-0.2792516,0.0905608,-75.5193924,71.9174438,10.865158599999996,151.19311902203748,0.8120380271900078,18.644276231976168,0.9852920701480552,-67.9167994,117.2564308,125.301993
5715.575,-28.198533399999995,-143.072592,-6.855652000000001,0.6222944,-0.0867298,0.5431535999999999,-8.4564752,-48.21124880000001,-114.0031934,18.3900592,-3.113456400000003,10.8546954,-0.9241536,-0.2713622,0.0851148,-74.7527602,72.12083279999999,11.2826846,145.98603985263276,0.8305348949155357,21.58036840188292,0.966923910740054,-66.29628500000001,120.3320816,125.285878
5735.559,-28.6506254,-137.4848968,-8.0499378,0.6467838,-0.0943227999999999,0.5089276,-9.3596408,-50.9724632,-113.536334,17.9114722,-0.4631894000000027,17.7007738,-0.927662,-0.2638412,0.0835584,-74.046594,72.47263639999998,11.6478158,140.6689613329879,0.8283920428058444,25.18636087072548,0.9680655821131128,-64.6869532,123.4450996,125.1841498
5755.544,-29.8076918,-132.47280719999998,-9.6576082,0.6789326,-0.0925919999999999,0.4750766,-10.3083136,-53.64088979999999,-113.0613844,13.6023332,1.008811799999997,24.0938356,-0.9253348,-0.2527334,0.0806704,-73.4015746,72.9582978,12.0402388,136.12792709079525,0.8337988544453153,27.686713124736723,0.9626143448976644,-63.093261000000005,126.5991876,125.1016232
5775.529,-31.5667686,-127.2981918,-11.2100168,0.69982,-0.1053411999999999,0.4393869999999999,-11.3341522,-56.2092096,-112.5560332,10.9165354,4.555538799999997,27.1166834,-0.9197686,-0.2456369999999999,0.0758758,-72.9485184,73.5189636,12.2874132,131.63189200209732,0.8330100459096756,29.5844249143632,0.9550230103723156,-61.61436619999999,129.7281732,124.8434464
5795.513,-31.661285,-122.4213944,-13.098925,0.725826,-0.109613,0.4153466,-12.3784422,-58.6830826,-112.0470762,11.0580662,7.704532599999996,30.9803964,-0.9240214,-0.2373242,0.0621657999999999,-72.6188506,74.17294159999999,12.4044716,127.12598715780815,0.8434163800736622,33.78499092450933,0.956034994261842,-60.2404084,132.8560242,124.4515478
5815.498,-30.8887146,-117.8040802,-15.3977134,0.7472806000000001,-0.1143189999999999,0.3826448,-13.4091318,-61.0731072,-111.5514144,11.7385984,10.759350399999995,34.4905008,-0.92635,-0.2133108,0.0487626,-72.4281448,74.9216552,12.365463600000002,122.7558698366674,0.8472981599557502,37.98885308694201,0.951842219622244,-59.019013,135.99476239999998,123.916878
5835.482,-27.9641912,-112.7566802,-18.3836552,0.7652792,-0.1171809999999999,0.3592678,-14.3418388,-63.3708076,-111.1071472,11.7245224,13.716022199999994,37.770907,-0.9327568,-0.1941378,0.0313182,-72.4274414,75.7583572,12.1341316,117.61812656945236,0.8534969202231957,41.85970742971866,0.9532604906248447,-58.0856026,139.12916479999998,123.2412788
5855.467,-24.643614,-107.533023,-21.6288364,0.7802348,-0.1144657999999999,0.3335798,-15.116006199999998,-65.57885959999999,-110.7673858,13.138822,17.802664399999998,38.8922242,-0.9529396,-0.1829892,0.0218932,-72.75242920000001,76.6421494,11.541438,112.4209291480794,0.8562384279327342,44.745598738979645,0.9705968477030203,-57.636423,142.221009,122.3088238
5875.451,-23.643880199999995,-102.261505,-25.4278194,0.8017312000000001,-0.112339,0.307143,-15.7039738,-67.6997396,-110.6074082,15.3047596,23.5112354,39.2426238,-0.9563328,-0.1749876,0.0119716,-73.6191238,77.560582,10.3520066,107.99547432747352,0.8658693841587426,48.23896121556031,0.9722841167663698,-57.91515,145.2603216,120.95941480000002
5895.436,-20.6493896,-96.2075026,-28.9228416,0.819472,-0.1302313999999999,0.2698314,-16.046062999999997,-69.7209974,-110.6504548,15.9098318,27.8850768,39.0023018,-0.9533286,-0.1693082,-0.0001705999999999,-75.0698242,78.4883346,8.5573588,102.56125785890248,0.8725271117598122,50.51613407362515,0.9682462059153965,-59.0237612,148.209332,119.20781359999998
5915.42,-16.941806399999997,-89.1117552,-32.0148002,0.8454642,-0.1236531999999999,0.2303938,-16.0406088,-71.6317838,-110.9826324,15.988886,30.659399,39.5078522,-0.949681,-0.1683726,-0.0006983999999999,-77.0478698,79.4205474,6.228278599999999,96.19187674001236,0.8849752145853126,52.5025104925397,0.9644914836090156,-61.00726099999999,151.0523312,117.21091099999998
5935.405,-18.0535758,-81.5976286,-34.4715102,0.8781736,-0.1067527999999999,0.183715,-15.7110362,-73.4167952,-111.6731444,16.1907262,31.3901966,38.3743804,-0.9566958,-0.1749782,0.0008048,-79.4301682,80.3091078,3.487967,90.40126994560744,0.9035132723263116,52.15435867263562,0.9725661272715188,-63.719132,153.72590300000002,115.16111139999998
5955.389,-20.6818602,-73.286486,-36.0470266,0.9164156,-0.1187879999999999,0.142758,-15.043758,-75.0448592,-112.7607208,15.4860664,29.1702464,36.8596974,-0.9633736,-0.1857308,-0.0066138,-81.9759796,81.1324322,0.6007201999999999,84.24984568687142,0.9350443772524168,49.49099736317191,0.98113626250182,-66.9322216,156.1772914,113.361441
5975.374,-19.522793799999995,-63.979653,-35.9542104,0.9430154,-0.1161719999999999,0.112455,-13.9841706,-76.491371,-114.2224212,13.9599884,24.6378188,33.5243872,-0.9746686,-0.1865328,-0.0198251999999999,-84.4760864,81.85303919999998,-2.2044164000000004,75.94235130179467,0.9567758908156916,43.88380029675292,0.9925554915755792,-70.49191579999999,158.3444102,112.0180048
5995.358,-18.9587322,-54.291844000000005,-35.2415754,0.9720226,-0.1020223999999999,0.0957466,-12.5402426,-77.7449508,-116.0579896,12.8390906,20.3916444,30.2191992,-0.9781828,-0.184907,-0.026267,-86.8769806,82.47630899999999,-4.8830894,67.44632301486523,0.9820406898006212,38.65050334808514,0.995852471078844,-74.336738,160.22125979999998,111.1749002
6015.343,-18.8748048,-44.19143699999999,-33.1887762,0.9878438,-0.0905356,0.0627128,-10.78486,-78.7805298,-118.202736,12.3420702,15.231917199999998,26.279104,-0.9820832,-0.1912412,-0.0295645999999999,-88.91535200000001,82.9906036,-7.1831102,58.40065261636001,0.9939642666362004,32.78611452203813,1.000966869518087,-78.130492,161.7711334,111.0196258
6035.327,-19.5089154,-33.595778,-30.0928676,0.9999818,-0.0896042,0.0464122,-8.881215000000001,-79.58334959999999,-120.5037248,12.358548,10.275948399999995,21.8712778,-0.9854558,-0.1958018,-0.032927,-90.4062242,83.3977692,-8.930144,49.14117173919208,1.0050604983272002,27.14187938947005,1.0052590044191996,-81.5250092,162.98111880000002,111.5735808
6055.313,-17.661361399999997,-22.822609,-25.5978588,1.0007351999999998,-0.0761685999999999,0.0414396,-7.041360800000001,-80.157489,-122.6986496,12.924788,6.520149999999997,16.247762599999998,-0.9799133999999998,-0.1856002,-0.0324878,-91.382889,83.68759159999999,-10.1705704,38.57519336585402,1.004484861306112,21.761256635897723,0.9978643008387662,-84.3415282,163.8450806,112.5280792
6075.297,-16.595278999999998,-12.514696,-20.637191,1.00468,-0.0478347999999999,0.0413732,-5.383129200000001,-80.5070648,-124.6849884,12.4477308,3.4495937999999966,11.119764,-0.9806362,-0.1725296,-0.027033,-91.8718782,83.8764528,-10.9108484,29.290178446549927,1.006668670501511,17.04390949488887,0.9960645575039804,-86.48874899999998,164.3835176,113.77414
6095.281,-17.153589399999998,-2.1933814,-15.0517044,0.9992762,-0.0320219999999999,0.0337338,-4.127343600000001,-80.6328796,-126.2715118,11.3028596,0.3298045999999973,5.602612,-0.9779924,-0.1605884,-0.0201924,-91.8128038,83.9584322,-11.0771392,22.926193679166143,1.0003580867033963,12.619535151265966,0.9912948611236114,-87.6854602,164.5913118,115.1943726
6115.266,-18.4857072,8.0564732,-9.7243346,0.9910566,-0.0193195999999999,0.0405922,-3.3585986000000005,-80.5458298,-127.393068,9.1963668,-2.4239056000000025,0.6024014,-0.9760258,-0.1455318,-0.0193802,-91.2814042,83.9476274,-10.726084,22.38729136182417,0.9920756816133334,9.52949988848185,0.9870063116459388,-87.9228056,164.4934572,116.666984
6135.25,-17.469237599999996,17.922725200000002,-4.5137264,0.9786642,-0.0143163999999999,0.0614345999999999,-3.08378,-80.2515748,-127.9938172,6.6759596000000005,-4.420062400000003,-3.1383176,-0.9765178,-0.1239366,-0.02149,-90.4548736,83.8729448,-10.0273484,25.43171380253454,0.9806950523724284,8.599675898497322,0.9845857578882604,-87.3710936,164.1245196,117.9664688
6155.235,-14.934570999999996,27.121851600000003,0.1971690000000002,0.9668188,0.001372,0.0807365999999999,-3.1730976,-79.7585206,-128.17498940000002,3.0888714000000004,-6.113294200000003,-6.349523400000001,-0.9725748,-0.1087385999999999,-0.0182106,-89.4204696,83.74073659999999,-9.0475032,30.962479241511403,0.9701849684451928,9.339696992335416,0.9788040920824554,-86.247372,163.49925720000002,119.1274862
6175.22,-14.381414399999995,35.826154,4.332075000000001,0.9549296,0.0101608,0.0919864,-3.5940528,-79.0842944,-128.0095184,-0.5679706,-8.145990800000003,-9.2292858,-0.960112,-0.1024656,-0.009573,-88.13507999999999,83.550757,-7.7417726,38.84720407419134,0.959403606725428,12.323127569502422,0.9656116683513928,-84.5410272,162.6350514,120.2677458
6195.204,-15.947688999999995,43.7018876,8.2003608,0.9476728,0.0187558,0.1048659999999999,-4.2939724,-78.2461032,-127.5849792,-4.3940938,-11.3123162,-11.9915806,-0.9598462,-0.1004799999999999,-0.0021268,-86.4898286,83.2997422,-5.996248800000001,47.23801098155945,0.9536416485501668,17.060907461746496,0.9650935091133294,-82.19585620000001,161.54584540000002,121.5887304
6215.189,-16.327237599999997,50.8080446,12.2684542,0.9393724,0.0108058,0.1252787999999999,-5.246276,-77.25371720000001,-126.9070648,-8.1477252,-14.726329800000002,-15.1375922,-0.9651168,-0.1020926,-0.000809,-84.5670838,82.973996,-3.894535,54.759027129597,0.94775104796821,22.636185918272187,0.970501927405608,-79.3208078,160.2277132,123.0125298
6235.173,-14.594526199999995,57.6437516,15.9453728,0.934013,0.015279,0.1510514,-6.268796,-76.1109834,-126.1185044,-12.6380116,-18.2607066,-17.4435644,-0.96742,-0.0972374,0.0054464,-82.4060472,82.5892272,-1.4606776,61.56344050860029,0.9462717672275548,28.23916928151332,0.9723097405825574,-76.13725120000001,158.70021060000002,124.65782680000002
6255.158,-14.148946799999996,64.4471254,19.1297392,0.9299666,0.0145262,0.1641845999999999,-7.315007,-74.82675800000001,-125.295778,-17.3600062,-23.161901800000003,-18.4239062,-0.9670228,-0.0949148,0.0169661999999999,-79.8612428,82.15898739999999,1.4576956000000003,68.6991382022553,0.944460412340909,34.31156991341667,0.9718177642548628,-72.5462358,156.98574539999998,126.7534736
6275.142,-13.649854799999996,71.03095479999999,21.9612562,0.9201574,0.0047618,0.1703026,-8.3640244,-73.40764779999999,-124.4621248,-22.6137436,-28.889576,-19.3497452,-0.9700122,-0.1024698,0.0253602,-76.9717316,81.6662064,4.8335216,75.59108313645707,0.9357966077523258,41.47772462866352,0.975739139219556,-68.60770720000001,155.0738542,129.2956464
6295.127,-11.704758999999996,77.7778496,24.5202584,0.9089536,-0.0057033999999999,0.1933626,-9.333973,-71.84315339999999,-123.67248399999998,-27.72454800000001,-33.680439,-19.7600472,-0.9789892,-0.1201662,0.032506,-73.9768722,81.1121568,8.423736400000001,82.38712486578878,0.929310642790278,47.89031215583433,0.9868720329278158,-64.6428992,152.9553102,132.0962204
6315.112,-9.063208399999995,84.83801120000001,27.2100292,0.8984728000000001,-0.0133325999999999,0.2160242,-10.1878188,-70.1273942,-122.9512268,-32.4628792,-37.071249,-19.1206818,-0.9848516,-0.1321432,0.0453716,-71.0154862,80.524109,12.08077,89.55453969474696,0.9241740017703594,52.855619387825215,0.9947125622084804,-60.8276674,150.65150319999998,135.0319968
6335.096,-7.253952799999998,91.9867234,29.8916854,0.877464,-0.0245931999999999,0.2290124,-10.9541084,-68.2637162,-122.2799118,-35.301455399999995,-39.8868234,-19.2332786,-0.9786998,-0.1485198,0.0591312,-68.1640548,79.88456140000001,15.6886836,96.99324702857056,0.9071904850338764,56.63100246336978,0.9916692635780944,-57.2099464,148.14827759999997,137.9685954
6355.081,-6.307649599999997,99.0306198,32.7492594,0.8550252,-0.0360167999999999,0.2394858,-11.657692399999998,-66.25073699999999,-121.6517304,-37.4900636,-41.2387528,-20.5167538,-0.984196,-0.1707328,0.0664234,-65.6707312,79.1796312,18.9836138,104.49576112310498,0.88866121267833,59.38919756758267,1.0011011554680178,-54.0130388,145.4303682,140.63534420000002
6375.065,-4.880922599999997,106.90374,36.0196158,0.8264502,-0.0607955999999999,0.2676526,-12.3142102,-64.0625908,-121.041684,-38.6091218,-42.1137894,-22.2883808,-0.9879926,-0.1885549999999999,0.075126,-63.5875288,78.4080964,21.8915484,112.91432926690216,0.8708352038969027,61.3270532675474,1.0086259373800377,-51.2733186,142.4706872,142.9332324
6395.05,-1.5340421999999971,114.5978044,39.5135336,0.7999204,-0.0641166,0.2959784,-12.868856599999996,-61.7061744,-120.4621338,-38.6027932,-42.2468018,-22.3140034,-0.9802822,-0.1948871999999999,0.0895764,-61.8092222,77.6155792,24.496214400000003,121.22841827034767,0.8553284737446076,61.423795494137785,1.0034730408923005,-48.9403656,139.3217536,144.9583482
6415.034,-0.1639727999999971,121.9692918,42.526451,0.7662512,-0.0718883999999999,0.3228042,-13.349905799999998,-59.188777,-119.9282456,-38.08805,-40.136903800000006,-21.5449616,-0.9598494,-0.1964514,0.1058535999999999,-60.3640844,76.8434144,26.7552816,129.1705619091598,0.8345725822800795,59.37891856373295,0.985448632793856,-47.0141786,136.03219140000002,146.6835272
6435.019,1.0963896000000029,128.9155426,45.6669548,0.726754,-0.0873479999999999,0.3267034,-13.7822336,-56.5179236,-119.4160308,-36.6695732,-37.9385826,-20.510484,-0.962502,-0.2193808,0.1184662,-59.21103419999999,76.0947738,28.6926336,136.7694774235562,0.8015835335082426,56.60983662122191,0.9942697199226576,-45.4288006,132.6126974,148.1086644
6455.003,1.834995200000003,136.1363068,47.9149086,0.6847770000000001,-0.1159654,0.3926902,-14.154709,-53.680815800000005,-118.9552276,-34.695103,-34.7010434,-21.2103412,-0.9586582,-0.2256737999999999,0.140977,-58.3801336,75.35955659999999,30.260443,144.333986651357,0.7978553170232058,53.45831234756397,0.9949013634339235,-44.2254246,129.0403724,149.2156706
6474.988,9.863157600000005,142.8142608,50.648763200000005,0.6529422,-0.1203609999999999,0.4287562,-14.333909799999995,-50.6945258,-118.5251114,-32.7220068,-29.530159000000005,-15.6290364,-0.942786,-0.222823,0.1613901999999999,-57.70409600000001,74.768393,31.6309358,151.85022943473786,0.790349394825023,46.76565832293021,0.9821111585666054,-43.3701862,125.4629188,150.1560472
6494.973,10.337432600000003,149.4176696,51.9152398,0.6130308,-0.0960924,0.429791,-14.4614162,-47.5638618,-118.139949,-29.9200796,-23.600035400000003,-6.2466004,-0.919896,-0.219058,0.1817648,-57.0147818,74.390973,32.960085400000004,158.5171745425265,0.7548250226161027,38.61596626667355,0.9629296447295824,-42.55336559999999,121.9548348,151.1000344
6514.957,0.8139208000000039,155.54244680000002,53.4322358,0.5486578,-0.1209007999999999,0.4905882,-14.73178,-44.297976,-117.8031708,-25.4217312,-16.479129800000003,-2.6683376000000005,-0.9341544,-0.238832,0.1976298,-56.552998200000005,74.14332879999999,33.9616338,164.4661638337391,0.7458680626764495,30.41292754270584,0.9842472784373852,-41.8212182,118.44130479999998,151.7648046
6534.942,1.9467502000000043,161.23503720000002,55.5601022,0.4812162,-0.1958637999999999,0.5552756000000001,-14.936606799999998,-40.9014038,-117.5007188,-22.4332172,-5.570204600000003,4.5111412,-0.8905649999999999,-0.2281624,0.1923076,-56.4209556,74.1357194,34.56086740000001,170.55043832749607,0.7604358298030414,23.550516091045107,0.939226443950829,-41.4843488,115.0371232,152.06158620000002
6554.926,9.043905400000003,165.9950592,55.452163,0.4240156,-0.1750972,0.5787882,-14.9464054,-37.4130894,-117.2627442,-12.6014602,7.608431999999998,17.3632148,-0.8907192,-0.2236366,0.1835636,-56.4103988,74.4910386,34.8329864,175.24581103431325,0.7385418329048395,22.76326568974116,0.9365306280913402,-41.46399340000001,111.904128,152.0957306
6574.911,4.832245000000004,170.67929999999998,53.290642000000005,0.3610004,-0.1770341999999999,0.6204487999999999,-14.960376,-33.826577,-117.1219314,-0.4820185999999999,18.2578326,24.783117800000003,-0.927826,-0.1872326,0.172029,-56.53917700000001,75.09146580000001,34.7118416,178.87053017476686,0.739336939555464,30.786096229776287,0.962034879627428,-41.578801,108.9180428,151.833773
6594.895,3.4441094000000034,175.2042664,51.2979112,0.2940994,-0.2385605999999999,0.7501274,-14.954135,-30.1603878,-117.0634276,8.6899994,27.680603599999998,27.6858468,-0.9679696,-0.1877374,0.1582955999999999,-56.9784088,75.8492828,34.0812104,182.5920933332121,0.8402956224945362,40.10284301973369,0.9986330531593072,-42.0242738,106.0096706,151.144638
6614.88,18.796494200000005,178.4087128,48.7838578,0.2328224,-0.2623023999999999,0.7946736,-14.6026848,-26.4451018,-117.068936,18.0302916,34.912316,33.22182,-0.9785146,-0.2046366,0.1355594,-57.5896842,76.7817338,33.087258600000006,185.91084362945088,0.8686281998211202,51.45532574746064,1.0088326478663745,-42.9869994,103.2268356,150.1561946
